[{"view_history":"[{\"page_index\":0,\"viewing_time\":2058}]","rt":2058,"trial_type":"instructions","trial_index":0,"time_elapsed":2059,"internal_node_id":"0.0-0.0","task_version":"battery-v0.2-trt"},{"slider_type":"valence","raw_loc":469,"loc":0.438,"trial_type":"affective-slider","trial_index":1,"time_elapsed":6953,"internal_node_id":"0.0-1.0","task_version":"battery-v0.2-trt"},{"responses":{"Q08":"1","Q03":"0","Q07":"1","Q11":"1","Q05":"1","Q02":"1","Q13":"0","Q09":"1","Q06":"2","Q01":"1","Q04":"1","Q10":"1","Q12":"0"},"rt":26453,"item_order":[7,2,6,10,4,1,12,8,5,0,3,9,11],"radio_events":[2704,5177,7275,8477,9483,12151,14979,17930,19615,21540,22796,24140,25808],"key_events":[],"mouse_events":[2704,5177,6748,7275,8477,9483,12151,14979,17284,17930,19615,21540,22796,24140,25808,26452],"straightlining":0.6923076923076923,"zigzagging":0.5833333333333334,"survey":"bisbas","trial_type":"survey-template","trial_index":2,"time_elapsed":33408,"internal_node_id":"0.0-2.0","task_version":"battery-v0.2-trt","infrequency":0},{"responses":{"Q01":"1","Q08":"3","Q06":"0","Q02":"2","Q07":"0","Q05":"1","Q04":"1","Q03":"1"},"rt":18492,"item_order":[0,7,5,1,6,4,3,2],"radio_events":[4262,6050,8204,9644,10983,12007,13210,17232],"key_events":[],"mouse_events":[4262,6050,7552,8204,9644,10983,12007,13210,17232,18492],"straightlining":0.5,"zigzagging":0.2857142857142857,"survey":"dass_d","trial_type":"survey-template","trial_index":3,"time_elapsed":51903,"internal_node_id":"0.0-3.0","task_version":"battery-v0.2-trt","infrequency":0},{"responses":{"Q04":"1","Q03":"0","Q07":"0","Q01":"1","Q05":"1","Q02":"0","Q08":"0","Q06":"1"},"rt":15512,"item_order":[3,2,6,0,4,1,7,5],"radio_events":[2563,3459,4282,5221,5966,7519,9790,11191],"key_events":[],"mouse_events":[2563,3459,4282,5221,5966,7519,9790,11191,15512],"straightlining":0.5,"zigzagging":0.5714285714285714,"survey":"gad7","trial_type":"survey-template","trial_index":4,"time_elapsed":67418,"internal_node_id":"0.0-4.0","task_version":"battery-v0.2-trt","infrequency":0},{"value":[0,1.6923076923076923,1.4404761904761905],"trial_type":"call-function","trial_index":5,"time_elapsed":67420,"internal_node_id":"0.0-5.0","task_version":"battery-v0.2-trt"},{"view_history":"[{\"page_index\":0,\"viewing_time\":15426},{\"page_index\":1,\"viewing_time\":4516},{\"page_index\":2,\"viewing_time\":5082},{\"page_index\":3,\"viewing_time\":6068},{\"page_index\":4,\"viewing_time\":5012},{\"page_index\":5,\"viewing_time\":4406},{\"page_index\":6,\"viewing_time\":9998},{\"page_index\":7,\"viewing_time\":20688},{\"page_index\":8,\"viewing_time\":5640},{\"page_index\":9,\"viewing_time\":10857}]","rt":87693,"trial_type":"pit-instructions","trial_index":6,"time_elapsed":155115,"internal_node_id":"0.0-6.0-0.0","task_version":"battery-v0.2-trt"},{"rune":"1","rune_set":"elianto","hex":"#3366ff99","correct":32,"choice":32,"rt":869,"accuracy":1,"outcome":"+10","keys":[2368],"total_keys":1,"block":0,"practice":1,"trial_type":"pit-trial","trial_index":7,"time_elapsed":158686,"internal_node_id":"0.0-6.0-1.0-0.0","task_version":"battery-v0.2-trt"},{"rune":"1","rune_set":"elianto","hex":"#3366ff99","correct":32,"choice":32,"rt":401,"accuracy":1,"outcome":"+10","keys":[1902],"total_keys":1,"block":0,"practice":1,"trial_type":"pit-trial","trial_index":8,"time_elapsed":161790,"internal_node_id":"0.0-6.0-1.1-0.1","task_version":"battery-v0.2-trt"},{"rune":"1","rune_set":"elianto","hex":"#3366ff99","correct":32,"choice":32,"rt":498,"accuracy":1,"outcome":"+10","keys":[1999],"total_keys":1,"block":0,"practice":1,"trial_type":"pit-trial","trial_index":9,"time_elapsed":164990,"internal_node_id":"0.0-6.0-1.2-0.2","task_version":"battery-v0.2-trt"},{"rune":"1","rune_set":"elianto","hex":"#3366ff99","correct":32,"choice":32,"rt":530,"accuracy":1,"outcome":"+10","keys":[2031],"total_keys":1,"block":0,"practice":1,"trial_type":"pit-trial","trial_index":10,"time_elapsed":168221,"internal_node_id":"0.0-6.0-1.3-0.3","task_version":"battery-v0.2-trt"},{"trial_type":"call-function","trial_index":11,"time_elapsed":168221,"internal_node_id":"0.0-6.0-2.0","task_version":"battery-v0.2-trt"},{"view_history":"[{\"page_index\":0,\"viewing_time\":4129},{\"page_index\":1,\"viewing_time\":2797}]","rt":6926,"trial_type":"pit-instructions","trial_index":12,"time_elapsed":175148,"internal_node_id":"0.0-6.0-3.0","task_version":"battery-v0.2-trt"},{"rune":"2","rune_set":"elianto","hex":"#3366ff99","correct":-1,"choice":32,"rt":500,"accuracy":0,"outcome":"+1","keys":[2000],"total_keys":1,"block":0,"practice":2,"trial_type":"pit-trial","trial_index":13,"time_elapsed":178350,"internal_node_id":"0.0-6.0-4.0-0.0","task_version":"battery-v0.2-trt"},{"rune":"2","rune_set":"elianto","hex":"#3366ff99","correct":-1,"choice":-1,"rt":-1,"accuracy":1,"outcome":"+10","keys":[],"total_keys":0,"block":0,"practice":2,"trial_type":"pit-trial","trial_index":14,"time_elapsed":182351,"internal_node_id":"0.0-6.0-4.1-0.1","task_version":"battery-v0.2-trt"},{"rune":"2","rune_set":"elianto","hex":"#3366ff99","correct":-1,"choice":-1,"rt":-1,"accuracy":1,"outcome":"+10","keys":[],"total_keys":0,"block":0,"practice":2,"trial_type":"pit-trial","trial_index":15,"time_elapsed":186352,"internal_node_id":"0.0-6.0-4.2-0.2","task_version":"battery-v0.2-trt"},{"rune":"2","rune_set":"elianto","hex":"#3366ff99","correct":-1,"choice":-1,"rt":-1,"accuracy":1,"outcome":"+10","keys":[],"total_keys":0,"block":0,"practice":2,"trial_type":"pit-trial","trial_index":16,"time_elapsed":190355,"internal_node_id":"0.0-6.0-4.3-0.3","task_version":"battery-v0.2-trt"},{"trial_type":"call-function","trial_index":17,"time_elapsed":190356,"internal_node_id":"0.0-6.0-5.0","task_version":"battery-v0.2-trt"},{"view_history":"[{\"page_index\":0,\"viewing_time\":23687},{\"page_index\":1,\"viewing_time\":3829}]","rt":27517,"trial_type":"pit-instructions","trial_index":18,"time_elapsed":217873,"internal_node_id":"0.0-6.0-6.0","task_version":"battery-v0.2-trt"},{"rune":"3","rune_set":"elianto","hex":"#f73b6a7A","correct":-1,"choice":32,"rt":366,"accuracy":0,"outcome":"-10","keys":[1867],"total_keys":1,"block":0,"practice":3,"trial_type":"pit-trial","trial_index":19,"time_elapsed":220943,"internal_node_id":"0.0-6.0-7.0-0.0","task_version":"battery-v0.2-trt"},{"rune":"3","rune_set":"elianto","hex":"#f73b6a7A","correct":-1,"choice":-1,"rt":-1,"accuracy":1,"outcome":"-1","keys":[],"total_keys":0,"block":0,"practice":3,"trial_type":"pit-trial","trial_index":20,"time_elapsed":224947,"internal_node_id":"0.0-6.0-7.1-0.1","task_version":"battery-v0.2-trt"},{"rune":"3","rune_set":"elianto","hex":"#f73b6a7A","correct":-1,"choice":-1,"rt":-1,"accuracy":1,"outcome":"-1","keys":[],"total_keys":0,"block":0,"practice":3,"trial_type":"pit-trial","trial_index":21,"time_elapsed":228955,"internal_node_id":"0.0-6.0-7.2-0.2","task_version":"battery-v0.2-trt"},{"rune":"3","rune_set":"elianto","hex":"#f73b6a7A","correct":-1,"choice":-1,"rt":-1,"accuracy":1,"outcome":"-1","keys":[],"total_keys":0,"block":0,"practice":3,"trial_type":"pit-trial","trial_index":22,"time_elapsed":232956,"internal_node_id":"0.0-6.0-7.3-0.3","task_version":"battery-v0.2-trt"},{"trial_type":"call-function","trial_index":23,"time_elapsed":232957,"internal_node_id":"0.0-6.0-8.0","task_version":"battery-v0.2-trt"},{"view_history":"[{\"page_index\":0,\"viewing_time\":2691},{\"page_index\":1,\"viewing_time\":1279}]","rt":3970,"trial_type":"pit-instructions","trial_index":24,"time_elapsed":236927,"internal_node_id":"0.0-6.0-9.0","task_version":"battery-v0.2-trt"},{"rune":"4","rune_set":"elianto","hex":"#f73b6a7A","correct":32,"choice":32,"rt":224,"accuracy":1,"outcome":"-1","keys":[1725],"total_keys":1,"block":0,"practice":4,"trial_type":"pit-trial","trial_index":25,"time_elapsed":239853,"internal_node_id":"0.0-6.0-10.0-0.0","task_version":"battery-v0.2-trt"},{"rune":"4","rune_set":"elianto","hex":"#f73b6a7A","correct":32,"choice":32,"rt":163,"accuracy":1,"outcome":"-1","keys":[1663],"total_keys":1,"block":0,"practice":4,"trial_type":"pit-trial","trial_index":26,"time_elapsed":242716,"internal_node_id":"0.0-6.0-10.1-0.1","task_version":"battery-v0.2-trt"},{"rune":"4","rune_set":"elianto","hex":"#f73b6a7A","correct":32,"choice":32,"rt":228,"accuracy":1,"outcome":"-1","keys":[1728],"total_keys":1,"block":0,"practice":4,"trial_type":"pit-trial","trial_index":27,"time_elapsed":245646,"internal_node_id":"0.0-6.0-10.2-0.2","task_version":"battery-v0.2-trt"},{"rune":"4","rune_set":"elianto","hex":"#f73b6a7A","correct":32,"choice":32,"rt":196,"accuracy":1,"outcome":"-1","keys":[1695],"total_keys":1,"block":0,"practice":4,"trial_type":"pit-trial","trial_index":28,"time_elapsed":248542,"internal_node_id":"0.0-6.0-10.3-0.3","task_version":"battery-v0.2-trt"},{"trial_type":"call-function","trial_index":29,"time_elapsed":248542,"internal_node_id":"0.0-6.0-11.0","task_version":"battery-v0.2-trt"},{"view_history":"[{\"page_index\":0,\"viewing_time\":1949},{\"page_index\":1,\"viewing_time\":35342},{\"page_index\":2,\"viewing_time\":6844},{\"page_index\":3,\"viewing_time\":4256},{\"page_index\":4,\"viewing_time\":2323},{\"page_index\":5,\"viewing_time\":1600}]","rt":52314,"trial_type":"pit-instructions","trial_index":30,"time_elapsed":300856,"internal_node_id":"0.0-6.0-12.0","task_version":"battery-v0.2-trt"},{"responses":["Press SPACE","+10","-1","True","True"],"num_errors":0,"rt":11642,"trial_type":"pit-comprehension","trial_index":31,"time_elapsed":312500,"internal_node_id":"0.0-6.0-13.0","task_version":"battery-v0.2-trt"},{"view_history":"[{\"page_index\":0,\"viewing_time\":1696},{\"page_index\":1,\"viewing_time\":7870}]","rt":9566,"trial_type":"pit-instructions","trial_index":32,"time_elapsed":322069,"internal_node_id":"0.0-7.0","task_version":"battery-v0.2-trt"},{"rune":"C","rune_set":"bacs1","hex":"#3366ff99","correct":32,"choice":32,"rt":570,"accuracy":1,"outcome":"+10","keys":[2070],"total_keys":1,"block":1,"trial":1,"stimulus":2,"robot":1,"valence":"win","action":"go","sham":0,"trial_type":"pit-trial","trial_index":33,"time_elapsed":325342,"internal_node_id":"0.0-8.0","task_version":"battery-v0.2-trt"},{"rune":"A","rune_set":"bacs1","hex":"#3366ff99","correct":-1,"choice":32,"rt":657,"accuracy":0,"outcome":"+10","keys":[2158],"total_keys":1,"block":1,"trial":2,"stimulus":3,"robot":2,"valence":"win","action":"no-go","sham":1,"trial_type":"pit-trial","trial_index":34,"time_elapsed":328702,"internal_node_id":"0.0-9.0","task_version":"battery-v0.2-trt"},{"rune":"Q","rune_set":"bacs1","hex":"#f73b6a7A","correct":-1,"choice":32,"rt":720,"accuracy":0,"outcome":"-10","keys":[2222],"total_keys":1,"block":1,"trial":3,"stimulus":0,"robot":4,"valence":"lose","action":"no-go","sham":0,"trial_type":"pit-trial","trial_index":35,"time_elapsed":332126,"internal_node_id":"0.0-10.0","task_version":"battery-v0.2-trt"},{"rune":"L","rune_set":"bacs1","hex":"#f73b6a7A","correct":-1,"choice":-1,"rt":-1,"accuracy":1,"outcome":"-1","keys":[],"total_keys":0,"block":1,"trial":4,"stimulus":1,"robot":4,"valence":"lose","action":"no-go","sham":0,"trial_type":"pit-trial","trial_index":36,"time_elapsed":336130,"internal_node_id":"0.0-11.0","task_version":"battery-v0.2-trt"},{"rune":"A","rune_set":"bacs1","hex":"#3366ff99","correct":-1,"choice":32,"rt":510,"accuracy":0,"outcome":"+1","keys":[2010],"total_keys":1,"block":1,"trial":5,"stimulus":3,"robot":2,"valence":"win","action":"no-go","sham":0,"trial_type":"pit-trial","trial_index":37,"time_elapsed":339341,"internal_node_id":"0.0-12.0","task_version":"battery-v0.2-trt"},{"rune":"C","rune_set":"bacs1","hex":"#3366ff99","correct":32,"choice":32,"rt":530,"accuracy":1,"outcome":"+10","keys":[2030],"total_keys":1,"block":1,"trial":6,"stimulus":2,"robot":1,"valence":"win","action":"go","sham":0,"trial_type":"pit-trial","trial_index":38,"time_elapsed":342573,"internal_node_id":"0.0-13.0","task_version":"battery-v0.2-trt"},{"rune":"L","rune_set":"bacs1","hex":"#f73b6a7A","correct":-1,"choice":-1,"rt":-1,"accuracy":1,"outcome":"-1","keys":[],"total_keys":0,"block":1,"trial":7,"stimulus":1,"robot":4,"valence":"lose","action":"no-go","sham":0,"trial_type":"pit-trial","trial_index":39,"time_elapsed":346574,"internal_node_id":"0.0-14.0","task_version":"battery-v0.2-trt"},{"rune":"Q","rune_set":"bacs1","hex":"#f73b6a7A","correct":-1,"choice":32,"rt":1041,"accuracy":0,"outcome":"-1","keys":[2542],"total_keys":1,"block":1,"trial":8,"stimulus":0,"robot":4,"valence":"lose","action":"no-go","sham":1,"trial_type":"pit-trial","trial_index":40,"time_elapsed":350317,"internal_node_id":"0.0-15.0","task_version":"battery-v0.2-trt"},{"rune":"A","rune_set":"bacs1","hex":"#3366ff99","correct":-1,"choice":32,"rt":947,"accuracy":0,"outcome":"+1","keys":[2448],"total_keys":1,"block":1,"trial":9,"stimulus":3,"robot":2,"valence":"win","action":"no-go","sham":0,"trial_type":"pit-trial","trial_index":41,"time_elapsed":353965,"internal_node_id":"0.0-16.0","task_version":"battery-v0.2-trt"},{"rune":"C","rune_set":"bacs1","hex":"#3366ff99","correct":32,"choice":32,"rt":369,"accuracy":1,"outcome":"+10","keys":[1870],"total_keys":1,"block":1,"trial":10,"stimulus":2,"robot":1,"valence":"win","action":"go","sham":0,"trial_type":"pit-trial","trial_index":42,"time_elapsed":357036,"internal_node_id":"0.0-17.0","task_version":"battery-v0.2-trt"},{"rune":"L","rune_set":"bacs1","hex":"#f73b6a7A","correct":-1,"choice":-1,"rt":-1,"accuracy":1,"outcome":"-1","keys":[],"total_keys":0,"block":1,"trial":11,"stimulus":1,"robot":4,"valence":"lose","action":"no-go","sham":0,"trial_type":"pit-trial","trial_index":43,"time_elapsed":361040,"internal_node_id":"0.0-18.0","task_version":"battery-v0.2-trt"},{"rune":"Q","rune_set":"bacs1","hex":"#f73b6a7A","correct":-1,"choice":32,"rt":385,"accuracy":0,"outcome":"-1","keys":[1885],"total_keys":1,"block":1,"trial":12,"stimulus":0,"robot":4,"valence":"lose","action":"no-go","sham":1,"trial_type":"pit-trial","trial_index":44,"time_elapsed":364125,"internal_node_id":"0.0-19.0","task_version":"battery-v0.2-trt"},{"rune":"C","rune_set":"bacs1","hex":"#3366ff99","correct":32,"choice":32,"rt":593,"accuracy":1,"outcome":"+10","keys":[2095],"total_keys":1,"block":1,"trial":13,"stimulus":2,"robot":1,"valence":"win","action":"go","sham":0,"trial_type":"pit-trial","trial_index":45,"time_elapsed":367421,"internal_node_id":"0.0-20.0","task_version":"battery-v0.2-trt"},{"rune":"A","rune_set":"bacs1","hex":"#3366ff99","correct":-1,"choice":-1,"rt":-1,"accuracy":1,"outcome":"+10","keys":[],"total_keys":0,"block":1,"trial":14,"stimulus":3,"robot":2,"valence":"win","action":"no-go","sham":0,"trial_type":"pit-trial","trial_index":46,"time_elapsed":371422,"internal_node_id":"0.0-21.0","task_version":"battery-v0.2-trt"},{"rune":"L","rune_set":"bacs1","hex":"#f73b6a7A","correct":-1,"choice":-1,"rt":-1,"accuracy":1,"outcome":"-1","keys":[],"total_keys":0,"block":1,"trial":15,"stimulus":1,"robot":4,"valence":"lose","action":"no-go","sham":0,"trial_type":"pit-trial","trial_index":47,"time_elapsed":375423,"internal_node_id":"0.0-22.0","task_version":"battery-v0.2-trt"},{"rune":"Q","rune_set":"bacs1","hex":"#f73b6a7A","correct":-1,"choice":32,"rt":384,"accuracy":0,"outcome":"-10","keys":[1885],"total_keys":1,"block":1,"trial":16,"stimulus":0,"robot":4,"valence":"lose","action":"no-go","sham":0,"trial_type":"pit-trial","trial_index":48,"time_elapsed":378509,"internal_node_id":"0.0-23.0","task_version":"battery-v0.2-trt"},{"rune":"Q","rune_set":"bacs1","hex":"#f73b6a7A","correct":-1,"choice":32,"rt":609,"accuracy":0,"outcome":"-1","keys":[2111],"total_keys":1,"block":1,"trial":17,"stimulus":0,"robot":4,"valence":"lose","action":"no-go","sham":1,"trial_type":"pit-trial","trial_index":49,"time_elapsed":381821,"internal_node_id":"0.0-24.0","task_version":"battery-v0.2-trt"},{"rune":"C","rune_set":"bacs1","hex":"#3366ff99","correct":32,"choice":32,"rt":578,"accuracy":1,"outcome":"+10","keys":[2079],"total_keys":1,"block":1,"trial":18,"stimulus":2,"robot":1,"valence":"win","action":"go","sham":0,"trial_type":"pit-trial","trial_index":50,"time_elapsed":385102,"internal_node_id":"0.0-25.0","task_version":"battery-v0.2-trt"},{"rune":"A","rune_set":"bacs1","hex":"#3366ff99","correct":-1,"choice":-1,"rt":-1,"accuracy":1,"outcome":"+10","keys":[],"total_keys":0,"block":1,"trial":19,"stimulus":3,"robot":2,"valence":"win","action":"no-go","sham":0,"trial_type":"pit-trial","trial_index":51,"time_elapsed":389104,"internal_node_id":"0.0-26.0","task_version":"battery-v0.2-trt"},{"rune":"L","rune_set":"bacs1","hex":"#f73b6a7A","correct":-1,"choice":-1,"rt":-1,"accuracy":1,"outcome":"-1","keys":[],"total_keys":0,"block":1,"trial":20,"stimulus":1,"robot":4,"valence":"lose","action":"no-go","sham":0,"trial_type":"pit-trial","trial_index":52,"time_elapsed":393108,"internal_node_id":"0.0-27.0","task_version":"battery-v0.2-trt"},{"rune":"A","rune_set":"bacs1","hex":"#3366ff99","correct":-1,"choice":-1,"rt":-1,"accuracy":1,"outcome":"+10","keys":[],"total_keys":0,"block":1,"trial":21,"stimulus":3,"robot":2,"valence":"win","action":"no-go","sham":0,"trial_type":"pit-trial","trial_index":53,"time_elapsed":397110,"internal_node_id":"0.0-28.0","task_version":"battery-v0.2-trt"},{"rune":"C","rune_set":"bacs1","hex":"#3366ff99","correct":32,"choice":32,"rt":505,"accuracy":1,"outcome":"+1","keys":[2006],"total_keys":1,"block":1,"trial":22,"stimulus":2,"robot":1,"valence":"win","action":"go","sham":1,"trial_type":"pit-trial","trial_index":54,"time_elapsed":400319,"internal_node_id":"0.0-29.0","task_version":"battery-v0.2-trt"},{"rune":"Q","rune_set":"bacs1","hex":"#f73b6a7A","correct":-1,"choice":32,"rt":626,"accuracy":0,"outcome":"-10","keys":[2126],"total_keys":1,"block":1,"trial":23,"stimulus":0,"robot":4,"valence":"lose","action":"no-go","sham":0,"trial_type":"pit-trial","trial_index":55,"time_elapsed":403647,"internal_node_id":"0.0-30.0","task_version":"battery-v0.2-trt"},{"rune":"L","rune_set":"bacs1","hex":"#f73b6a7A","correct":-1,"choice":-1,"rt":-1,"accuracy":1,"outcome":"-1","keys":[],"total_keys":0,"block":1,"trial":24,"stimulus":1,"robot":4,"valence":"lose","action":"no-go","sham":0,"trial_type":"pit-trial","trial_index":56,"time_elapsed":407649,"internal_node_id":"0.0-31.0","task_version":"battery-v0.2-trt"},{"rune":"Q","rune_set":"bacs1","hex":"#f73b6a7A","correct":-1,"choice":32,"rt":559,"accuracy":0,"outcome":"-10","keys":[2058],"total_keys":1,"block":1,"trial":25,"stimulus":0,"robot":4,"valence":"lose","action":"no-go","sham":0,"trial_type":"pit-trial","trial_index":57,"time_elapsed":410911,"internal_node_id":"0.0-32.0","task_version":"battery-v0.2-trt"},{"rune":"C","rune_set":"bacs1","hex":"#3366ff99","correct":32,"choice":32,"rt":511,"accuracy":1,"outcome":"+1","keys":[2010],"total_keys":1,"block":1,"trial":26,"stimulus":2,"robot":1,"valence":"win","action":"go","sham":1,"trial_type":"pit-trial","trial_index":58,"time_elapsed":414125,"internal_node_id":"0.0-33.0","task_version":"battery-v0.2-trt"},{"rune":"A","rune_set":"bacs1","hex":"#3366ff99","correct":-1,"choice":-1,"rt":-1,"accuracy":1,"outcome":"+1","keys":[],"total_keys":0,"block":1,"trial":27,"stimulus":3,"robot":2,"valence":"win","action":"no-go","sham":1,"trial_type":"pit-trial","trial_index":59,"time_elapsed":418127,"internal_node_id":"0.0-34.0","task_version":"battery-v0.2-trt"},{"rune":"L","rune_set":"bacs1","hex":"#f73b6a7A","correct":-1,"choice":-1,"rt":-1,"accuracy":1,"outcome":"-1","keys":[],"total_keys":0,"block":1,"trial":28,"stimulus":1,"robot":4,"valence":"lose","action":"no-go","sham":0,"trial_type":"pit-trial","trial_index":60,"time_elapsed":422131,"internal_node_id":"0.0-35.0","task_version":"battery-v0.2-trt"},{"rune":"Q","rune_set":"bacs1","hex":"#f73b6a7A","correct":-1,"choice":32,"rt":366,"accuracy":0,"outcome":"-10","keys":[1866],"total_keys":1,"block":1,"trial":29,"stimulus":0,"robot":4,"valence":"lose","action":"no-go","sham":0,"trial_type":"pit-trial","trial_index":61,"time_elapsed":425197,"internal_node_id":"0.0-36.0","task_version":"battery-v0.2-trt"},{"rune":"C","rune_set":"bacs1","hex":"#3366ff99","correct":32,"choice":32,"rt":515,"accuracy":1,"outcome":"+10","keys":[2016],"total_keys":1,"block":1,"trial":30,"stimulus":2,"robot":1,"valence":"win","action":"go","sham":0,"trial_type":"pit-trial","trial_index":62,"time_elapsed":428416,"internal_node_id":"0.0-37.0","task_version":"battery-v0.2-trt"},{"rune":"L","rune_set":"bacs1","hex":"#f73b6a7A","correct":-1,"choice":-1,"rt":-1,"accuracy":1,"outcome":"-10","keys":[],"total_keys":0,"block":1,"trial":31,"stimulus":1,"robot":4,"valence":"lose","action":"no-go","sham":1,"trial_type":"pit-trial","trial_index":63,"time_elapsed":432418,"internal_node_id":"0.0-38.0","task_version":"battery-v0.2-trt"},{"rune":"A","rune_set":"bacs1","hex":"#3366ff99","correct":-1,"choice":-1,"rt":-1,"accuracy":1,"outcome":"+10","keys":[],"total_keys":0,"block":1,"trial":32,"stimulus":3,"robot":2,"valence":"win","action":"no-go","sham":0,"trial_type":"pit-trial","trial_index":64,"time_elapsed":436420,"internal_node_id":"0.0-39.0","task_version":"battery-v0.2-trt"},{"rune":"C","rune_set":"bacs1","hex":"#3366ff99","correct":32,"choice":32,"rt":412,"accuracy":1,"outcome":"+10","keys":[1912],"total_keys":1,"block":1,"trial":33,"stimulus":2,"robot":1,"valence":"win","action":"go","sham":0,"trial_type":"pit-trial","trial_index":65,"time_elapsed":439534,"internal_node_id":"0.0-40.0","task_version":"battery-v0.2-trt"},{"rune":"F","rune_set":"bacs1","hex":"#f73b6a7A","correct":32,"choice":32,"rt":1089,"accuracy":1,"outcome":"-1","keys":[2590],"total_keys":1,"block":1,"trial":34,"stimulus":4,"robot":3,"valence":"lose","action":"go","sham":0,"trial_type":"pit-trial","trial_index":66,"time_elapsed":443326,"internal_node_id":"0.0-41.0","task_version":"battery-v0.2-trt"},{"rune":"Q","rune_set":"bacs1","hex":"#f73b6a7A","correct":-1,"choice":32,"rt":690,"accuracy":0,"outcome":"-10","keys":[2190],"total_keys":1,"block":1,"trial":35,"stimulus":0,"robot":4,"valence":"lose","action":"no-go","sham":0,"trial_type":"pit-trial","trial_index":67,"time_elapsed":446719,"internal_node_id":"0.0-42.0","task_version":"battery-v0.2-trt"},{"rune":"A","rune_set":"bacs1","hex":"#3366ff99","correct":-1,"choice":-1,"rt":-1,"accuracy":1,"outcome":"+10","keys":[],"total_keys":0,"block":1,"trial":36,"stimulus":3,"robot":2,"valence":"win","action":"no-go","sham":0,"trial_type":"pit-trial","trial_index":68,"time_elapsed":450722,"internal_node_id":"0.0-43.0","task_version":"battery-v0.2-trt"},{"rune":"C","rune_set":"bacs1","hex":"#3366ff99","correct":32,"choice":32,"rt":476,"accuracy":1,"outcome":"+10","keys":[1977],"total_keys":1,"block":1,"trial":37,"stimulus":2,"robot":1,"valence":"win","action":"go","sham":0,"trial_type":"pit-trial","trial_index":69,"time_elapsed":453900,"internal_node_id":"0.0-44.0","task_version":"battery-v0.2-trt"},{"rune":"Q","rune_set":"bacs1","hex":"#f73b6a7A","correct":-1,"choice":32,"rt":530,"accuracy":0,"outcome":"-10","keys":[2032],"total_keys":1,"block":1,"trial":38,"stimulus":0,"robot":4,"valence":"lose","action":"no-go","sham":0,"trial_type":"pit-trial","trial_index":70,"time_elapsed":457133,"internal_node_id":"0.0-45.0","task_version":"battery-v0.2-trt"},{"rune":"F","rune_set":"bacs1","hex":"#f73b6a7A","correct":32,"choice":32,"rt":771,"accuracy":1,"outcome":"-1","keys":[2272],"total_keys":1,"block":1,"trial":39,"stimulus":4,"robot":3,"valence":"lose","action":"go","sham":0,"trial_type":"pit-trial","trial_index":71,"time_elapsed":460607,"internal_node_id":"0.0-46.0","task_version":"battery-v0.2-trt"},{"rune":"A","rune_set":"bacs1","hex":"#3366ff99","correct":-1,"choice":-1,"rt":-1,"accuracy":1,"outcome":"+10","keys":[],"total_keys":0,"block":1,"trial":40,"stimulus":3,"robot":2,"valence":"win","action":"no-go","sham":0,"trial_type":"pit-trial","trial_index":72,"time_elapsed":464610,"internal_node_id":"0.0-47.0","task_version":"battery-v0.2-trt"},{"rune":"T","rune_set":"bacs1","hex":"#3366ff99","correct":-1,"choice":32,"rt":781,"accuracy":0,"outcome":"+1","keys":[2281],"total_keys":1,"block":1,"trial":41,"stimulus":5,"robot":2,"valence":"win","action":"no-go","sham":0,"trial_type":"pit-trial","trial_index":73,"time_elapsed":468094,"internal_node_id":"0.0-48.0","task_version":"battery-v0.2-trt"},{"rune":"E","rune_set":"bacs1","hex":"#3366ff99","correct":32,"choice":32,"rt":1009,"accuracy":1,"outcome":"+10","keys":[2510],"total_keys":1,"block":1,"trial":42,"stimulus":6,"robot":1,"valence":"win","action":"go","sham":0,"trial_type":"pit-trial","trial_index":74,"time_elapsed":471805,"internal_node_id":"0.0-49.0","task_version":"battery-v0.2-trt"},{"rune":"F","rune_set":"bacs1","hex":"#f73b6a7A","correct":32,"choice":32,"rt":850,"accuracy":1,"outcome":"-1","keys":[2351],"total_keys":1,"block":1,"trial":43,"stimulus":4,"robot":3,"valence":"lose","action":"go","sham":0,"trial_type":"pit-trial","trial_index":75,"time_elapsed":475356,"internal_node_id":"0.0-50.0","task_version":"battery-v0.2-trt"},{"rune":"Q","rune_set":"bacs1","hex":"#f73b6a7A","correct":-1,"choice":32,"rt":675,"accuracy":0,"outcome":"-10","keys":[2174],"total_keys":1,"block":1,"trial":44,"stimulus":0,"robot":4,"valence":"lose","action":"no-go","sham":0,"trial_type":"pit-trial","trial_index":76,"time_elapsed":478733,"internal_node_id":"0.0-51.0","task_version":"battery-v0.2-trt"},{"rune":"Q","rune_set":"bacs1","hex":"#f73b6a7A","correct":-1,"choice":32,"rt":690,"accuracy":0,"outcome":"-10","keys":[2192],"total_keys":1,"block":1,"trial":45,"stimulus":0,"robot":4,"valence":"lose","action":"no-go","sham":0,"trial_type":"pit-trial","trial_index":77,"time_elapsed":482126,"internal_node_id":"0.0-52.0","task_version":"battery-v0.2-trt"},{"rune":"E","rune_set":"bacs1","hex":"#3366ff99","correct":32,"choice":32,"rt":752,"accuracy":1,"outcome":"+10","keys":[2254],"total_keys":1,"block":1,"trial":46,"stimulus":6,"robot":1,"valence":"win","action":"go","sham":0,"trial_type":"pit-trial","trial_index":78,"time_elapsed":485581,"internal_node_id":"0.0-53.0","task_version":"battery-v0.2-trt"},{"rune":"F","rune_set":"bacs1","hex":"#f73b6a7A","correct":32,"choice":32,"rt":1027,"accuracy":1,"outcome":"-1","keys":[2527],"total_keys":1,"block":1,"trial":47,"stimulus":4,"robot":3,"valence":"lose","action":"go","sham":0,"trial_type":"pit-trial","trial_index":79,"time_elapsed":489309,"internal_node_id":"0.0-54.0","task_version":"battery-v0.2-trt"},{"rune":"T","rune_set":"bacs1","hex":"#3366ff99","correct":-1,"choice":-1,"rt":-1,"accuracy":1,"outcome":"+10","keys":[],"total_keys":0,"block":1,"trial":48,"stimulus":5,"robot":2,"valence":"win","action":"no-go","sham":0,"trial_type":"pit-trial","trial_index":80,"time_elapsed":493312,"internal_node_id":"0.0-55.0","task_version":"battery-v0.2-trt"},{"rune":"V","rune_set":"bacs1","hex":"#f73b6a7A","correct":-1,"choice":32,"rt":1041,"accuracy":0,"outcome":"-10","keys":[2541],"total_keys":1,"block":1,"trial":49,"stimulus":7,"robot":4,"valence":"lose","action":"no-go","sham":0,"trial_type":"pit-trial","trial_index":81,"time_elapsed":497054,"internal_node_id":"0.0-56.0","task_version":"battery-v0.2-trt"},{"rune":"E","rune_set":"bacs1","hex":"#3366ff99","correct":32,"choice":32,"rt":595,"accuracy":1,"outcome":"+1","keys":[2095],"total_keys":1,"block":1,"trial":50,"stimulus":6,"robot":1,"valence":"win","action":"go","sham":1,"trial_type":"pit-trial","trial_index":82,"time_elapsed":500350,"internal_node_id":"0.0-57.0","task_version":"battery-v0.2-trt"},{"rune":"T","rune_set":"bacs1","hex":"#3366ff99","correct":-1,"choice":-1,"rt":-1,"accuracy":1,"outcome":"+1","keys":[],"total_keys":0,"block":1,"trial":51,"stimulus":5,"robot":2,"valence":"win","action":"no-go","sham":1,"trial_type":"pit-trial","trial_index":83,"time_elapsed":504353,"internal_node_id":"0.0-58.0","task_version":"battery-v0.2-trt"},{"rune":"F","rune_set":"bacs1","hex":"#f73b6a7A","correct":32,"choice":32,"rt":607,"accuracy":1,"outcome":"-1","keys":[2107],"total_keys":1,"block":1,"trial":52,"stimulus":4,"robot":3,"valence":"lose","action":"go","sham":0,"trial_type":"pit-trial","trial_index":84,"time_elapsed":507662,"internal_node_id":"0.0-59.0","task_version":"battery-v0.2-trt"},{"rune":"V","rune_set":"bacs1","hex":"#f73b6a7A","correct":-1,"choice":-1,"rt":-1,"accuracy":1,"outcome":"-1","keys":[],"total_keys":0,"block":1,"trial":53,"stimulus":7,"robot":4,"valence":"lose","action":"no-go","sham":0,"trial_type":"pit-trial","trial_index":85,"time_elapsed":511665,"internal_node_id":"0.0-60.0","task_version":"battery-v0.2-trt"},{"rune":"T","rune_set":"bacs1","hex":"#3366ff99","correct":-1,"choice":-1,"rt":-1,"accuracy":1,"outcome":"+10","keys":[],"total_keys":0,"block":1,"trial":54,"stimulus":5,"robot":2,"valence":"win","action":"no-go","sham":0,"trial_type":"pit-trial","trial_index":86,"time_elapsed":515667,"internal_node_id":"0.0-61.0","task_version":"battery-v0.2-trt"},{"rune":"E","rune_set":"bacs1","hex":"#3366ff99","correct":32,"choice":32,"rt":620,"accuracy":1,"outcome":"+10","keys":[2120],"total_keys":1,"block":1,"trial":55,"stimulus":6,"robot":1,"valence":"win","action":"go","sham":0,"trial_type":"pit-trial","trial_index":87,"time_elapsed":518988,"internal_node_id":"0.0-62.0","task_version":"battery-v0.2-trt"},{"rune":"F","rune_set":"bacs1","hex":"#f73b6a7A","correct":32,"choice":32,"rt":627,"accuracy":1,"outcome":"-1","keys":[2127],"total_keys":1,"block":1,"trial":56,"stimulus":4,"robot":3,"valence":"lose","action":"go","sham":0,"trial_type":"pit-trial","trial_index":88,"time_elapsed":522319,"internal_node_id":"0.0-63.0","task_version":"battery-v0.2-trt"},{"rune":"F","rune_set":"bacs1","hex":"#f73b6a7A","correct":32,"choice":32,"rt":641,"accuracy":1,"outcome":"-1","keys":[2142],"total_keys":1,"block":1,"trial":57,"stimulus":4,"robot":3,"valence":"lose","action":"go","sham":0,"trial_type":"pit-trial","trial_index":89,"time_elapsed":525661,"internal_node_id":"0.0-64.0","task_version":"battery-v0.2-trt"},{"rune":"T","rune_set":"bacs1","hex":"#3366ff99","correct":-1,"choice":-1,"rt":-1,"accuracy":1,"outcome":"+10","keys":[],"total_keys":0,"block":1,"trial":58,"stimulus":5,"robot":2,"valence":"win","action":"no-go","sham":0,"trial_type":"pit-trial","trial_index":90,"time_elapsed":529665,"internal_node_id":"0.0-65.0","task_version":"battery-v0.2-trt"},{"rune":"E","rune_set":"bacs1","hex":"#3366ff99","correct":32,"choice":32,"rt":702,"accuracy":1,"outcome":"+1","keys":[2202],"total_keys":1,"block":1,"trial":59,"stimulus":6,"robot":1,"valence":"win","action":"go","sham":1,"trial_type":"pit-trial","trial_index":91,"time_elapsed":533068,"internal_node_id":"0.0-66.0","task_version":"battery-v0.2-trt"},{"rune":"V","rune_set":"bacs1","hex":"#f73b6a7A","correct":-1,"choice":-1,"rt":-1,"accuracy":1,"outcome":"-10","keys":[],"total_keys":0,"block":1,"trial":60,"stimulus":7,"robot":4,"valence":"lose","action":"no-go","sham":1,"trial_type":"pit-trial","trial_index":92,"time_elapsed":537069,"internal_node_id":"0.0-67.0","task_version":"battery-v0.2-trt"},{"rune":"E","rune_set":"bacs1","hex":"#3366ff99","correct":32,"choice":32,"rt":561,"accuracy":1,"outcome":"+10","keys":[2062],"total_keys":1,"block":1,"trial":61,"stimulus":6,"robot":1,"valence":"win","action":"go","sham":0,"trial_type":"pit-trial","trial_index":93,"time_elapsed":540333,"internal_node_id":"0.0-68.0","task_version":"battery-v0.2-trt"},{"rune":"F","rune_set":"bacs1","hex":"#f73b6a7A","correct":32,"choice":-1,"rt":-1,"accuracy":0,"outcome":"-10","keys":[2815],"total_keys":1,"block":1,"trial":62,"stimulus":4,"robot":3,"valence":"lose","action":"go","sham":0,"trial_type":"pit-trial","trial_index":94,"time_elapsed":544337,"internal_node_id":"0.0-69.0","task_version":"battery-v0.2-trt"},{"rune":"V","rune_set":"bacs1","hex":"#f73b6a7A","correct":-1,"choice":-1,"rt":-1,"accuracy":1,"outcome":"-1","keys":[],"total_keys":0,"block":1,"trial":63,"stimulus":7,"robot":4,"valence":"lose","action":"no-go","sham":0,"trial_type":"pit-trial","trial_index":95,"time_elapsed":548340,"internal_node_id":"0.0-70.0","task_version":"battery-v0.2-trt"},{"rune":"T","rune_set":"bacs1","hex":"#3366ff99","correct":-1,"choice":-1,"rt":-1,"accuracy":1,"outcome":"+10","keys":[],"total_keys":0,"block":1,"trial":64,"stimulus":5,"robot":2,"valence":"win","action":"no-go","sham":0,"trial_type":"pit-trial","trial_index":96,"time_elapsed":552341,"internal_node_id":"0.0-71.0","task_version":"battery-v0.2-trt"},{"rune":"T","rune_set":"bacs1","hex":"#3366ff99","correct":-1,"choice":-1,"rt":-1,"accuracy":1,"outcome":"+10","keys":[],"total_keys":0,"block":1,"trial":65,"stimulus":5,"robot":2,"valence":"win","action":"no-go","sham":0,"trial_type":"pit-trial","trial_index":97,"time_elapsed":556343,"internal_node_id":"0.0-72.0","task_version":"battery-v0.2-trt"},{"rune":"F","rune_set":"bacs1","hex":"#f73b6a7A","correct":32,"choice":32,"rt":551,"accuracy":1,"outcome":"-1","keys":[2052],"total_keys":1,"block":1,"trial":66,"stimulus":4,"robot":3,"valence":"lose","action":"go","sham":0,"trial_type":"pit-trial","trial_index":98,"time_elapsed":559597,"internal_node_id":"0.0-73.0","task_version":"battery-v0.2-trt"},{"rune":"E","rune_set":"bacs1","hex":"#3366ff99","correct":32,"choice":32,"rt":658,"accuracy":1,"outcome":"+10","keys":[2159],"total_keys":1,"block":1,"trial":67,"stimulus":6,"robot":1,"valence":"win","action":"go","sham":0,"trial_type":"pit-trial","trial_index":99,"time_elapsed":562958,"internal_node_id":"0.0-74.0","task_version":"battery-v0.2-trt"},{"rune":"V","rune_set":"bacs1","hex":"#f73b6a7A","correct":-1,"choice":-1,"rt":-1,"accuracy":1,"outcome":"-1","keys":[],"total_keys":0,"block":1,"trial":68,"stimulus":7,"robot":4,"valence":"lose","action":"no-go","sham":0,"trial_type":"pit-trial","trial_index":100,"time_elapsed":566959,"internal_node_id":"0.0-75.0","task_version":"battery-v0.2-trt"},{"rune":"E","rune_set":"bacs1","hex":"#3366ff99","correct":32,"choice":32,"rt":544,"accuracy":1,"outcome":"+1","keys":[2045],"total_keys":1,"block":1,"trial":69,"stimulus":6,"robot":1,"valence":"win","action":"go","sham":1,"trial_type":"pit-trial","trial_index":101,"time_elapsed":570206,"internal_node_id":"0.0-76.0","task_version":"battery-v0.2-trt"},{"rune":"V","rune_set":"bacs1","hex":"#f73b6a7A","correct":-1,"choice":-1,"rt":-1,"accuracy":1,"outcome":"-1","keys":[],"total_keys":0,"block":1,"trial":70,"stimulus":7,"robot":4,"valence":"lose","action":"no-go","sham":0,"trial_type":"pit-trial","trial_index":102,"time_elapsed":574208,"internal_node_id":"0.0-77.0","task_version":"battery-v0.2-trt"},{"rune":"T","rune_set":"bacs1","hex":"#3366ff99","correct":-1,"choice":-1,"rt":-1,"accuracy":1,"outcome":"+10","keys":[],"total_keys":0,"block":1,"trial":71,"stimulus":5,"robot":2,"valence":"win","action":"no-go","sham":0,"trial_type":"pit-trial","trial_index":103,"time_elapsed":578212,"internal_node_id":"0.0-78.0","task_version":"battery-v0.2-trt"},{"rune":"F","rune_set":"bacs1","hex":"#f73b6a7A","correct":32,"choice":32,"rt":683,"accuracy":1,"outcome":"-1","keys":[2184],"total_keys":1,"block":1,"trial":72,"stimulus":4,"robot":3,"valence":"lose","action":"go","sham":0,"trial_type":"pit-trial","trial_index":104,"time_elapsed":581597,"internal_node_id":"0.0-79.0","task_version":"battery-v0.2-trt"},{"rune":"T","rune_set":"bacs1","hex":"#3366ff99","correct":-1,"choice":-1,"rt":-1,"accuracy":1,"outcome":"+10","keys":[],"total_keys":0,"block":1,"trial":73,"stimulus":5,"robot":2,"valence":"win","action":"no-go","sham":0,"trial_type":"pit-trial","trial_index":105,"time_elapsed":585598,"internal_node_id":"0.0-80.0","task_version":"battery-v0.2-trt"},{"rune":"J","rune_set":"bacs1","hex":"#f73b6a7A","correct":32,"choice":32,"rt":1008,"accuracy":1,"outcome":"-1","keys":[2510],"total_keys":1,"block":1,"trial":74,"stimulus":9,"robot":3,"valence":"lose","action":"go","sham":0,"trial_type":"pit-trial","trial_index":106,"time_elapsed":589309,"internal_node_id":"0.0-81.0","task_version":"battery-v0.2-trt"},{"rune":"V","rune_set":"bacs1","hex":"#f73b6a7A","correct":-1,"choice":-1,"rt":-1,"accuracy":1,"outcome":"-10","keys":[],"total_keys":0,"block":1,"trial":75,"stimulus":7,"robot":4,"valence":"lose","action":"no-go","sham":1,"trial_type":"pit-trial","trial_index":107,"time_elapsed":593310,"internal_node_id":"0.0-82.0","task_version":"battery-v0.2-trt"},{"rune":"R","rune_set":"bacs1","hex":"#3366ff99","correct":32,"choice":32,"rt":899,"accuracy":1,"outcome":"+10","keys":[2400],"total_keys":1,"block":1,"trial":76,"stimulus":8,"robot":1,"valence":"win","action":"go","sham":0,"trial_type":"pit-trial","trial_index":108,"time_elapsed":596911,"internal_node_id":"0.0-83.0","task_version":"battery-v0.2-trt"},{"rune":"R","rune_set":"bacs1","hex":"#3366ff99","correct":32,"choice":32,"rt":608,"accuracy":1,"outcome":"+10","keys":[2109],"total_keys":1,"block":1,"trial":77,"stimulus":8,"robot":1,"valence":"win","action":"go","sham":0,"trial_type":"pit-trial","trial_index":109,"time_elapsed":600221,"internal_node_id":"0.0-84.0","task_version":"battery-v0.2-trt"},{"rune":"J","rune_set":"bacs1","hex":"#f73b6a7A","correct":32,"choice":32,"rt":530,"accuracy":1,"outcome":"-1","keys":[2030],"total_keys":1,"block":1,"trial":78,"stimulus":9,"robot":3,"valence":"lose","action":"go","sham":0,"trial_type":"pit-trial","trial_index":110,"time_elapsed":603453,"internal_node_id":"0.0-85.0","task_version":"battery-v0.2-trt"},{"rune":"V","rune_set":"bacs1","hex":"#f73b6a7A","correct":-1,"choice":-1,"rt":-1,"accuracy":1,"outcome":"-1","keys":[],"total_keys":0,"block":1,"trial":79,"stimulus":7,"robot":4,"valence":"lose","action":"no-go","sham":0,"trial_type":"pit-trial","trial_index":111,"time_elapsed":607454,"internal_node_id":"0.0-86.0","task_version":"battery-v0.2-trt"},{"rune":"T","rune_set":"bacs1","hex":"#3366ff99","correct":-1,"choice":-1,"rt":-1,"accuracy":1,"outcome":"+10","keys":[],"total_keys":0,"block":1,"trial":80,"stimulus":5,"robot":2,"valence":"win","action":"no-go","sham":0,"trial_type":"pit-trial","trial_index":112,"time_elapsed":611458,"internal_node_id":"0.0-87.0","task_version":"battery-v0.2-trt"},{"rune":"J","rune_set":"bacs1","hex":"#f73b6a7A","correct":32,"choice":32,"rt":430,"accuracy":1,"outcome":"-1","keys":[1930],"total_keys":1,"block":1,"trial":81,"stimulus":9,"robot":3,"valence":"lose","action":"go","sham":0,"trial_type":"pit-trial","trial_index":113,"time_elapsed":614590,"internal_node_id":"0.0-88.0","task_version":"battery-v0.2-trt"},{"rune":"T","rune_set":"bacs1","hex":"#3366ff99","correct":-1,"choice":-1,"rt":-1,"accuracy":1,"outcome":"+10","keys":[],"total_keys":0,"block":1,"trial":82,"stimulus":5,"robot":2,"valence":"win","action":"no-go","sham":0,"trial_type":"pit-trial","trial_index":114,"time_elapsed":618591,"internal_node_id":"0.0-89.0","task_version":"battery-v0.2-trt"},{"rune":"V","rune_set":"bacs1","hex":"#f73b6a7A","correct":-1,"choice":-1,"rt":-1,"accuracy":1,"outcome":"-1","keys":[],"total_keys":0,"block":1,"trial":83,"stimulus":7,"robot":4,"valence":"lose","action":"no-go","sham":0,"trial_type":"pit-trial","trial_index":115,"time_elapsed":622593,"internal_node_id":"0.0-90.0","task_version":"battery-v0.2-trt"},{"rune":"R","rune_set":"bacs1","hex":"#3366ff99","correct":32,"choice":32,"rt":561,"accuracy":1,"outcome":"+10","keys":[2062],"total_keys":1,"block":1,"trial":84,"stimulus":8,"robot":1,"valence":"win","action":"go","sham":0,"trial_type":"pit-trial","trial_index":116,"time_elapsed":625858,"internal_node_id":"0.0-91.0","task_version":"battery-v0.2-trt"},{"rune":"T","rune_set":"bacs1","hex":"#3366ff99","correct":-1,"choice":-1,"rt":-1,"accuracy":1,"outcome":"+10","keys":[],"total_keys":0,"block":1,"trial":85,"stimulus":5,"robot":2,"valence":"win","action":"no-go","sham":0,"trial_type":"pit-trial","trial_index":117,"time_elapsed":629861,"internal_node_id":"0.0-92.0","task_version":"battery-v0.2-trt"},{"rune":"R","rune_set":"bacs1","hex":"#3366ff99","correct":32,"choice":32,"rt":555,"accuracy":1,"outcome":"+10","keys":[2055],"total_keys":1,"block":1,"trial":86,"stimulus":8,"robot":1,"valence":"win","action":"go","sham":0,"trial_type":"pit-trial","trial_index":118,"time_elapsed":633117,"internal_node_id":"0.0-93.0","task_version":"battery-v0.2-trt"},{"rune":"J","rune_set":"bacs1","hex":"#f73b6a7A","correct":32,"choice":32,"rt":515,"accuracy":1,"outcome":"-1","keys":[2014],"total_keys":1,"block":1,"trial":87,"stimulus":9,"robot":3,"valence":"lose","action":"go","sham":0,"trial_type":"pit-trial","trial_index":119,"time_elapsed":636334,"internal_node_id":"0.0-94.0","task_version":"battery-v0.2-trt"},{"rune":"V","rune_set":"bacs1","hex":"#f73b6a7A","correct":-1,"choice":-1,"rt":-1,"accuracy":1,"outcome":"-1","keys":[],"total_keys":0,"block":1,"trial":88,"stimulus":7,"robot":4,"valence":"lose","action":"no-go","sham":0,"trial_type":"pit-trial","trial_index":120,"time_elapsed":640337,"internal_node_id":"0.0-95.0","task_version":"battery-v0.2-trt"},{"rune":"J","rune_set":"bacs1","hex":"#f73b6a7A","correct":32,"choice":32,"rt":686,"accuracy":1,"outcome":"-10","keys":[2186],"total_keys":1,"block":1,"trial":89,"stimulus":9,"robot":3,"valence":"lose","action":"go","sham":1,"trial_type":"pit-trial","trial_index":121,"time_elapsed":643726,"internal_node_id":"0.0-96.0","task_version":"battery-v0.2-trt"},{"rune":"R","rune_set":"bacs1","hex":"#3366ff99","correct":32,"choice":32,"rt":338,"accuracy":1,"outcome":"+1","keys":[1838],"total_keys":1,"block":1,"trial":90,"stimulus":8,"robot":1,"valence":"win","action":"go","sham":1,"trial_type":"pit-trial","trial_index":122,"time_elapsed":646765,"internal_node_id":"0.0-97.0","task_version":"battery-v0.2-trt"},{"rune":"B","rune_set":"bacs1","hex":"#3366ff99","correct":-1,"choice":-1,"rt":-1,"accuracy":1,"outcome":"+10","keys":[],"total_keys":0,"block":1,"trial":91,"stimulus":11,"robot":2,"valence":"win","action":"no-go","sham":0,"trial_type":"pit-trial","trial_index":123,"time_elapsed":650767,"internal_node_id":"0.0-98.0","task_version":"battery-v0.2-trt"},{"rune":"Z","rune_set":"bacs1","hex":"#f73b6a7A","correct":32,"choice":32,"rt":913,"accuracy":1,"outcome":"-1","keys":[2415],"total_keys":1,"block":1,"trial":92,"stimulus":10,"robot":3,"valence":"lose","action":"go","sham":0,"trial_type":"pit-trial","trial_index":124,"time_elapsed":654382,"internal_node_id":"0.0-99.0","task_version":"battery-v0.2-trt"},{"rune":"J","rune_set":"bacs1","hex":"#f73b6a7A","correct":32,"choice":32,"rt":545,"accuracy":1,"outcome":"-1","keys":[2046],"total_keys":1,"block":1,"trial":93,"stimulus":9,"robot":3,"valence":"lose","action":"go","sham":0,"trial_type":"pit-trial","trial_index":125,"time_elapsed":657629,"internal_node_id":"0.0-100.0","task_version":"battery-v0.2-trt"},{"rune":"R","rune_set":"bacs1","hex":"#3366ff99","correct":32,"choice":32,"rt":465,"accuracy":1,"outcome":"+10","keys":[1967],"total_keys":1,"block":1,"trial":94,"stimulus":8,"robot":1,"valence":"win","action":"go","sham":0,"trial_type":"pit-trial","trial_index":126,"time_elapsed":660798,"internal_node_id":"0.0-101.0","task_version":"battery-v0.2-trt"},{"rune":"Z","rune_set":"bacs1","hex":"#f73b6a7A","correct":32,"choice":32,"rt":720,"accuracy":1,"outcome":"-10","keys":[2221],"total_keys":1,"block":1,"trial":95,"stimulus":10,"robot":3,"valence":"lose","action":"go","sham":1,"trial_type":"pit-trial","trial_index":127,"time_elapsed":664222,"internal_node_id":"0.0-102.0","task_version":"battery-v0.2-trt"},{"rune":"B","rune_set":"bacs1","hex":"#3366ff99","correct":-1,"choice":-1,"rt":-1,"accuracy":1,"outcome":"+10","keys":[],"total_keys":0,"block":1,"trial":96,"stimulus":11,"robot":2,"valence":"win","action":"no-go","sham":0,"trial_type":"pit-trial","trial_index":128,"time_elapsed":668224,"internal_node_id":"0.0-103.0","task_version":"battery-v0.2-trt"},{"rune":"B","rune_set":"bacs1","hex":"#3366ff99","correct":-1,"choice":-1,"rt":-1,"accuracy":1,"outcome":"+1","keys":[],"total_keys":0,"block":1,"trial":97,"stimulus":11,"robot":2,"valence":"win","action":"no-go","sham":1,"trial_type":"pit-trial","trial_index":129,"time_elapsed":672226,"internal_node_id":"0.0-104.0","task_version":"battery-v0.2-trt"},{"rune":"Z","rune_set":"bacs1","hex":"#f73b6a7A","correct":32,"choice":32,"rt":462,"accuracy":1,"outcome":"-10","keys":[1963],"total_keys":1,"block":1,"trial":98,"stimulus":10,"robot":3,"valence":"lose","action":"go","sham":1,"trial_type":"pit-trial","trial_index":130,"time_elapsed":675389,"internal_node_id":"0.0-105.0","task_version":"battery-v0.2-trt"},{"rune":"R","rune_set":"bacs1","hex":"#3366ff99","correct":32,"choice":32,"rt":609,"accuracy":1,"outcome":"+10","keys":[2110],"total_keys":1,"block":1,"trial":99,"stimulus":8,"robot":1,"valence":"win","action":"go","sham":0,"trial_type":"pit-trial","trial_index":131,"time_elapsed":678701,"internal_node_id":"0.0-106.0","task_version":"battery-v0.2-trt"},{"rune":"J","rune_set":"bacs1","hex":"#f73b6a7A","correct":32,"choice":32,"rt":531,"accuracy":1,"outcome":"-1","keys":[2031],"total_keys":1,"block":1,"trial":100,"stimulus":9,"robot":3,"valence":"lose","action":"go","sham":0,"trial_type":"pit-trial","trial_index":132,"time_elapsed":681934,"internal_node_id":"0.0-107.0","task_version":"battery-v0.2-trt"},{"rune":"J","rune_set":"bacs1","hex":"#f73b6a7A","correct":32,"choice":32,"rt":547,"accuracy":1,"outcome":"-10","keys":[2047],"total_keys":1,"block":1,"trial":101,"stimulus":9,"robot":3,"valence":"lose","action":"go","sham":1,"trial_type":"pit-trial","trial_index":133,"time_elapsed":685183,"internal_node_id":"0.0-108.0","task_version":"battery-v0.2-trt"},{"rune":"B","rune_set":"bacs1","hex":"#3366ff99","correct":-1,"choice":-1,"rt":-1,"accuracy":1,"outcome":"+10","keys":[],"total_keys":0,"block":1,"trial":102,"stimulus":11,"robot":2,"valence":"win","action":"no-go","sham":0,"trial_type":"pit-trial","trial_index":134,"time_elapsed":689185,"internal_node_id":"0.0-109.0","task_version":"battery-v0.2-trt"},{"rune":"R","rune_set":"bacs1","hex":"#3366ff99","correct":32,"choice":32,"rt":527,"accuracy":1,"outcome":"+10","keys":[2027],"total_keys":1,"block":1,"trial":103,"stimulus":8,"robot":1,"valence":"win","action":"go","sham":0,"trial_type":"pit-trial","trial_index":135,"time_elapsed":692413,"internal_node_id":"0.0-110.0","task_version":"battery-v0.2-trt"},{"rune":"Z","rune_set":"bacs1","hex":"#f73b6a7A","correct":32,"choice":-1,"rt":-1,"accuracy":0,"outcome":"-10","keys":[],"total_keys":0,"block":1,"trial":104,"stimulus":10,"robot":3,"valence":"lose","action":"go","sham":0,"trial_type":"pit-trial","trial_index":136,"time_elapsed":696415,"internal_node_id":"0.0-111.0","task_version":"battery-v0.2-trt"},{"rune":"J","rune_set":"bacs1","hex":"#f73b6a7A","correct":32,"choice":32,"rt":525,"accuracy":1,"outcome":"-10","keys":[2025],"total_keys":1,"block":1,"trial":105,"stimulus":9,"robot":3,"valence":"lose","action":"go","sham":1,"trial_type":"pit-trial","trial_index":137,"time_elapsed":699646,"internal_node_id":"0.0-112.0","task_version":"battery-v0.2-trt"},{"rune":"B","rune_set":"bacs1","hex":"#3366ff99","correct":-1,"choice":-1,"rt":-1,"accuracy":1,"outcome":"+10","keys":[],"total_keys":0,"block":1,"trial":106,"stimulus":11,"robot":2,"valence":"win","action":"no-go","sham":0,"trial_type":"pit-trial","trial_index":138,"time_elapsed":703649,"internal_node_id":"0.0-113.0","task_version":"battery-v0.2-trt"},{"rune":"Z","rune_set":"bacs1","hex":"#f73b6a7A","correct":32,"choice":-1,"rt":-1,"accuracy":0,"outcome":"-10","keys":[],"total_keys":0,"block":1,"trial":107,"stimulus":10,"robot":3,"valence":"lose","action":"go","sham":0,"trial_type":"pit-trial","trial_index":139,"time_elapsed":707651,"internal_node_id":"0.0-114.0","task_version":"battery-v0.2-trt"},{"rune":"R","rune_set":"bacs1","hex":"#3366ff99","correct":32,"choice":32,"rt":492,"accuracy":1,"outcome":"+10","keys":[1993],"total_keys":1,"block":1,"trial":108,"stimulus":8,"robot":1,"valence":"win","action":"go","sham":0,"trial_type":"pit-trial","trial_index":140,"time_elapsed":710847,"internal_node_id":"0.0-115.0","task_version":"battery-v0.2-trt"},{"rune":"J","rune_set":"bacs1","hex":"#f73b6a7A","correct":32,"choice":32,"rt":560,"accuracy":1,"outcome":"-1","keys":[2060],"total_keys":1,"block":1,"trial":109,"stimulus":9,"robot":3,"valence":"lose","action":"go","sham":0,"trial_type":"pit-trial","trial_index":141,"time_elapsed":714108,"internal_node_id":"0.0-116.0","task_version":"battery-v0.2-trt"},{"rune":"R","rune_set":"bacs1","hex":"#3366ff99","correct":32,"choice":32,"rt":500,"accuracy":1,"outcome":"+10","keys":[2000],"total_keys":1,"block":1,"trial":110,"stimulus":8,"robot":1,"valence":"win","action":"go","sham":0,"trial_type":"pit-trial","trial_index":142,"time_elapsed":717309,"internal_node_id":"0.0-117.0","task_version":"battery-v0.2-trt"},{"rune":"Z","rune_set":"bacs1","hex":"#f73b6a7A","correct":32,"choice":32,"rt":515,"accuracy":1,"outcome":"-1","keys":[2015],"total_keys":1,"block":1,"trial":111,"stimulus":10,"robot":3,"valence":"lose","action":"go","sham":0,"trial_type":"pit-trial","trial_index":143,"time_elapsed":720526,"internal_node_id":"0.0-118.0","task_version":"battery-v0.2-trt"},{"rune":"B","rune_set":"bacs1","hex":"#3366ff99","correct":-1,"choice":-1,"rt":-1,"accuracy":1,"outcome":"+1","keys":[],"total_keys":0,"block":1,"trial":112,"stimulus":11,"robot":2,"valence":"win","action":"no-go","sham":1,"trial_type":"pit-trial","trial_index":144,"time_elapsed":724529,"internal_node_id":"0.0-119.0","task_version":"battery-v0.2-trt"},{"rune":"J","rune_set":"bacs1","hex":"#f73b6a7A","correct":32,"choice":32,"rt":587,"accuracy":1,"outcome":"-1","keys":[2088],"total_keys":1,"block":1,"trial":113,"stimulus":9,"robot":3,"valence":"lose","action":"go","sham":0,"trial_type":"pit-trial","trial_index":145,"time_elapsed":727823,"internal_node_id":"0.0-120.0","task_version":"battery-v0.2-trt"},{"rune":"R","rune_set":"bacs1","hex":"#3366ff99","correct":32,"choice":32,"rt":448,"accuracy":1,"outcome":"+10","keys":[1949],"total_keys":1,"block":1,"trial":114,"stimulus":8,"robot":1,"valence":"win","action":"go","sham":0,"trial_type":"pit-trial","trial_index":146,"time_elapsed":730972,"internal_node_id":"0.0-121.0","task_version":"battery-v0.2-trt"},{"rune":"B","rune_set":"bacs1","hex":"#3366ff99","correct":-1,"choice":-1,"rt":-1,"accuracy":1,"outcome":"+10","keys":[],"total_keys":0,"block":1,"trial":115,"stimulus":11,"robot":2,"valence":"win","action":"no-go","sham":0,"trial_type":"pit-trial","trial_index":147,"time_elapsed":734973,"internal_node_id":"0.0-122.0","task_version":"battery-v0.2-trt"},{"rune":"Z","rune_set":"bacs1","hex":"#f73b6a7A","correct":32,"choice":32,"rt":594,"accuracy":1,"outcome":"-1","keys":[2094],"total_keys":1,"block":1,"trial":116,"stimulus":10,"robot":3,"valence":"lose","action":"go","sham":0,"trial_type":"pit-trial","trial_index":148,"time_elapsed":738269,"internal_node_id":"0.0-123.0","task_version":"battery-v0.2-trt"},{"rune":"Z","rune_set":"bacs1","hex":"#f73b6a7A","correct":32,"choice":32,"rt":546,"accuracy":1,"outcome":"-1","keys":[2047],"total_keys":1,"block":1,"trial":117,"stimulus":10,"robot":3,"valence":"lose","action":"go","sham":0,"trial_type":"pit-trial","trial_index":149,"time_elapsed":741517,"internal_node_id":"0.0-124.0","task_version":"battery-v0.2-trt"},{"rune":"J","rune_set":"bacs1","hex":"#f73b6a7A","correct":32,"choice":32,"rt":513,"accuracy":1,"outcome":"-10","keys":[2013],"total_keys":1,"block":1,"trial":118,"stimulus":9,"robot":3,"valence":"lose","action":"go","sham":1,"trial_type":"pit-trial","trial_index":150,"time_elapsed":744732,"internal_node_id":"0.0-125.0","task_version":"battery-v0.2-trt"},{"rune":"R","rune_set":"bacs1","hex":"#3366ff99","correct":32,"choice":32,"rt":434,"accuracy":1,"outcome":"+10","keys":[1935],"total_keys":1,"block":1,"trial":119,"stimulus":8,"robot":1,"valence":"win","action":"go","sham":0,"trial_type":"pit-trial","trial_index":151,"time_elapsed":747869,"internal_node_id":"0.0-126.0","task_version":"battery-v0.2-trt"},{"rune":"B","rune_set":"bacs1","hex":"#3366ff99","correct":-1,"choice":-1,"rt":-1,"accuracy":1,"outcome":"+10","keys":[],"total_keys":0,"block":1,"trial":120,"stimulus":11,"robot":2,"valence":"win","action":"no-go","sham":0,"trial_type":"pit-trial","trial_index":152,"time_elapsed":751870,"internal_node_id":"0.0-127.0","task_version":"battery-v0.2-trt"},{"view_history":"[{\"page_index\":0,\"viewing_time\":36001},{\"page_index\":1,\"viewing_time\":1669}]","rt":37670,"trial_type":"pit-instructions","trial_index":153,"time_elapsed":789541,"internal_node_id":"0.0-128.0","task_version":"battery-v0.2-trt"},{"rune":"Y","rune_set":"bacs1","hex":"#3366ff99","correct":-1,"choice":32,"rt":730,"accuracy":0,"outcome":"+10","keys":[2231],"total_keys":1,"block":2,"trial":121,"stimulus":0,"robot":2,"valence":"win","action":"no-go","sham":1,"trial_type":"pit-trial","trial_index":154,"time_elapsed":792973,"internal_node_id":"0.0-129.0","task_version":"battery-v0.2-trt"},{"rune":"H","rune_set":"bacs1","hex":"#3366ff99","correct":32,"choice":-1,"rt":-1,"accuracy":0,"outcome":"+10","keys":[],"total_keys":0,"block":2,"trial":122,"stimulus":1,"robot":1,"valence":"win","action":"go","sham":1,"trial_type":"pit-trial","trial_index":155,"time_elapsed":796976,"internal_node_id":"0.0-130.0","task_version":"battery-v0.2-trt"},{"rune":"M","rune_set":"bacs1","hex":"#3366ff99","correct":32,"choice":-1,"rt":-1,"accuracy":0,"outcome":"+1","keys":[],"total_keys":0,"block":2,"trial":123,"stimulus":3,"robot":1,"valence":"win","action":"go","sham":0,"trial_type":"pit-trial","trial_index":156,"time_elapsed":800979,"internal_node_id":"0.0-131.0","task_version":"battery-v0.2-trt"},{"rune":"P","rune_set":"bacs1","hex":"#f73b6a7A","correct":-1,"choice":-1,"rt":-1,"accuracy":1,"outcome":"-1","keys":[],"total_keys":0,"block":2,"trial":124,"stimulus":2,"robot":4,"valence":"lose","action":"no-go","sham":0,"trial_type":"pit-trial","trial_index":157,"time_elapsed":804981,"internal_node_id":"0.0-132.0","task_version":"battery-v0.2-trt"},{"rune":"P","rune_set":"bacs1","hex":"#f73b6a7A","correct":-1,"choice":-1,"rt":-1,"accuracy":1,"outcome":"-1","keys":[],"total_keys":0,"block":2,"trial":125,"stimulus":2,"robot":4,"valence":"lose","action":"no-go","sham":0,"trial_type":"pit-trial","trial_index":158,"time_elapsed":808984,"internal_node_id":"0.0-133.0","task_version":"battery-v0.2-trt"},{"rune":"M","rune_set":"bacs1","hex":"#3366ff99","correct":32,"choice":32,"rt":743,"accuracy":1,"outcome":"+10","keys":[2244],"total_keys":1,"block":2,"trial":126,"stimulus":3,"robot":1,"valence":"win","action":"go","sham":0,"trial_type":"pit-trial","trial_index":159,"time_elapsed":812431,"internal_node_id":"0.0-134.0","task_version":"battery-v0.2-trt"},{"rune":"H","rune_set":"bacs1","hex":"#3366ff99","correct":32,"choice":-1,"rt":-1,"accuracy":0,"outcome":"+1","keys":[],"total_keys":0,"block":2,"trial":127,"stimulus":1,"robot":1,"valence":"win","action":"go","sham":0,"trial_type":"pit-trial","trial_index":160,"time_elapsed":816437,"internal_node_id":"0.0-135.0","task_version":"battery-v0.2-trt"},{"rune":"Y","rune_set":"bacs1","hex":"#3366ff99","correct":-1,"choice":32,"rt":442,"accuracy":0,"outcome":"+10","keys":[1943],"total_keys":1,"block":2,"trial":128,"stimulus":0,"robot":2,"valence":"win","action":"no-go","sham":1,"trial_type":"pit-trial","trial_index":161,"time_elapsed":819581,"internal_node_id":"0.0-136.0","task_version":"battery-v0.2-trt"},{"rune":"Y","rune_set":"bacs1","hex":"#3366ff99","correct":-1,"choice":32,"rt":626,"accuracy":0,"outcome":"+1","keys":[2127],"total_keys":1,"block":2,"trial":129,"stimulus":0,"robot":2,"valence":"win","action":"no-go","sham":0,"trial_type":"pit-trial","trial_index":162,"time_elapsed":822909,"internal_node_id":"0.0-137.0","task_version":"battery-v0.2-trt"},{"rune":"M","rune_set":"bacs1","hex":"#3366ff99","correct":32,"choice":32,"rt":689,"accuracy":1,"outcome":"+10","keys":[2190],"total_keys":1,"block":2,"trial":130,"stimulus":3,"robot":1,"valence":"win","action":"go","sham":0,"trial_type":"pit-trial","trial_index":163,"time_elapsed":826300,"internal_node_id":"0.0-138.0","task_version":"battery-v0.2-trt"},{"rune":"H","rune_set":"bacs1","hex":"#3366ff99","correct":32,"choice":-1,"rt":-1,"accuracy":0,"outcome":"+1","keys":[],"total_keys":0,"block":2,"trial":131,"stimulus":1,"robot":1,"valence":"win","action":"go","sham":0,"trial_type":"pit-trial","trial_index":164,"time_elapsed":830304,"internal_node_id":"0.0-139.0","task_version":"battery-v0.2-trt"},{"rune":"P","rune_set":"bacs1","hex":"#f73b6a7A","correct":-1,"choice":-1,"rt":-1,"accuracy":1,"outcome":"-1","keys":[],"total_keys":0,"block":2,"trial":132,"stimulus":2,"robot":4,"valence":"lose","action":"no-go","sham":0,"trial_type":"pit-trial","trial_index":165,"time_elapsed":834306,"internal_node_id":"0.0-140.0","task_version":"battery-v0.2-trt"},{"rune":"M","rune_set":"bacs1","hex":"#3366ff99","correct":32,"choice":32,"rt":605,"accuracy":1,"outcome":"+1","keys":[2106],"total_keys":1,"block":2,"trial":133,"stimulus":3,"robot":1,"valence":"win","action":"go","sham":1,"trial_type":"pit-trial","trial_index":166,"time_elapsed":837613,"internal_node_id":"0.0-141.0","task_version":"battery-v0.2-trt"},{"rune":"P","rune_set":"bacs1","hex":"#f73b6a7A","correct":-1,"choice":-1,"rt":-1,"accuracy":1,"outcome":"-1","keys":[],"total_keys":0,"block":2,"trial":134,"stimulus":2,"robot":4,"valence":"lose","action":"no-go","sham":0,"trial_type":"pit-trial","trial_index":167,"time_elapsed":841616,"internal_node_id":"0.0-142.0","task_version":"battery-v0.2-trt"},{"rune":"H","rune_set":"bacs1","hex":"#3366ff99","correct":32,"choice":-1,"rt":-1,"accuracy":0,"outcome":"+1","keys":[],"total_keys":0,"block":2,"trial":135,"stimulus":1,"robot":1,"valence":"win","action":"go","sham":0,"trial_type":"pit-trial","trial_index":168,"time_elapsed":845618,"internal_node_id":"0.0-143.0","task_version":"battery-v0.2-trt"},{"rune":"Y","rune_set":"bacs1","hex":"#3366ff99","correct":-1,"choice":32,"rt":445,"accuracy":0,"outcome":"+1","keys":[1947],"total_keys":1,"block":2,"trial":136,"stimulus":0,"robot":2,"valence":"win","action":"no-go","sham":0,"trial_type":"pit-trial","trial_index":169,"time_elapsed":848764,"internal_node_id":"0.0-144.0","task_version":"battery-v0.2-trt"},{"rune":"P","rune_set":"bacs1","hex":"#f73b6a7A","correct":-1,"choice":-1,"rt":-1,"accuracy":1,"outcome":"-1","keys":[],"total_keys":0,"block":2,"trial":137,"stimulus":2,"robot":4,"valence":"lose","action":"no-go","sham":0,"trial_type":"pit-trial","trial_index":170,"time_elapsed":852767,"internal_node_id":"0.0-145.0","task_version":"battery-v0.2-trt"},{"rune":"H","rune_set":"bacs1","hex":"#3366ff99","correct":32,"choice":32,"rt":879,"accuracy":1,"outcome":"+10","keys":[2379],"total_keys":1,"block":2,"trial":138,"stimulus":1,"robot":1,"valence":"win","action":"go","sham":0,"trial_type":"pit-trial","trial_index":171,"time_elapsed":856348,"internal_node_id":"0.0-146.0","task_version":"battery-v0.2-trt"},{"rune":"M","rune_set":"bacs1","hex":"#3366ff99","correct":32,"choice":32,"rt":579,"accuracy":1,"outcome":"+10","keys":[2079],"total_keys":1,"block":2,"trial":139,"stimulus":3,"robot":1,"valence":"win","action":"go","sham":0,"trial_type":"pit-trial","trial_index":172,"time_elapsed":859628,"internal_node_id":"0.0-147.0","task_version":"battery-v0.2-trt"},{"rune":"Y","rune_set":"bacs1","hex":"#3366ff99","correct":-1,"choice":32,"rt":546,"accuracy":0,"outcome":"+1","keys":[2046],"total_keys":1,"block":2,"trial":140,"stimulus":0,"robot":2,"valence":"win","action":"no-go","sham":0,"trial_type":"pit-trial","trial_index":173,"time_elapsed":862876,"internal_node_id":"0.0-148.0","task_version":"battery-v0.2-trt"},{"rune":"Y","rune_set":"bacs1","hex":"#3366ff99","correct":-1,"choice":32,"rt":580,"accuracy":0,"outcome":"+1","keys":[2080],"total_keys":1,"block":2,"trial":141,"stimulus":0,"robot":2,"valence":"win","action":"no-go","sham":0,"trial_type":"pit-trial","trial_index":174,"time_elapsed":866157,"internal_node_id":"0.0-149.0","task_version":"battery-v0.2-trt"},{"rune":"P","rune_set":"bacs1","hex":"#f73b6a7A","correct":-1,"choice":-1,"rt":-1,"accuracy":1,"outcome":"-1","keys":[],"total_keys":0,"block":2,"trial":142,"stimulus":2,"robot":4,"valence":"lose","action":"no-go","sham":0,"trial_type":"pit-trial","trial_index":175,"time_elapsed":870160,"internal_node_id":"0.0-150.0","task_version":"battery-v0.2-trt"},{"rune":"H","rune_set":"bacs1","hex":"#3366ff99","correct":32,"choice":32,"rt":736,"accuracy":1,"outcome":"+10","keys":[2234],"total_keys":1,"block":2,"trial":143,"stimulus":1,"robot":1,"valence":"win","action":"go","sham":0,"trial_type":"pit-trial","trial_index":176,"time_elapsed":873597,"internal_node_id":"0.0-151.0","task_version":"battery-v0.2-trt"},{"rune":"M","rune_set":"bacs1","hex":"#3366ff99","correct":32,"choice":32,"rt":577,"accuracy":1,"outcome":"+10","keys":[2078],"total_keys":1,"block":2,"trial":144,"stimulus":3,"robot":1,"valence":"win","action":"go","sham":0,"trial_type":"pit-trial","trial_index":177,"time_elapsed":876877,"internal_node_id":"0.0-152.0","task_version":"battery-v0.2-trt"},{"rune":"Y","rune_set":"bacs1","hex":"#3366ff99","correct":-1,"choice":-1,"rt":-1,"accuracy":1,"outcome":"+10","keys":[],"total_keys":0,"block":2,"trial":145,"stimulus":0,"robot":2,"valence":"win","action":"no-go","sham":0,"trial_type":"pit-trial","trial_index":178,"time_elapsed":880880,"internal_node_id":"0.0-153.0","task_version":"battery-v0.2-trt"},{"rune":"P","rune_set":"bacs1","hex":"#f73b6a7A","correct":-1,"choice":-1,"rt":-1,"accuracy":1,"outcome":"-1","keys":[],"total_keys":0,"block":2,"trial":146,"stimulus":2,"robot":4,"valence":"lose","action":"no-go","sham":0,"trial_type":"pit-trial","trial_index":179,"time_elapsed":884885,"internal_node_id":"0.0-154.0","task_version":"battery-v0.2-trt"},{"rune":"H","rune_set":"bacs1","hex":"#3366ff99","correct":32,"choice":32,"rt":554,"accuracy":1,"outcome":"+10","keys":[2055],"total_keys":1,"block":2,"trial":147,"stimulus":1,"robot":1,"valence":"win","action":"go","sham":0,"trial_type":"pit-trial","trial_index":180,"time_elapsed":888142,"internal_node_id":"0.0-155.0","task_version":"battery-v0.2-trt"},{"rune":"M","rune_set":"bacs1","hex":"#3366ff99","correct":32,"choice":32,"rt":466,"accuracy":1,"outcome":"+1","keys":[1966],"total_keys":1,"block":2,"trial":148,"stimulus":3,"robot":1,"valence":"win","action":"go","sham":1,"trial_type":"pit-trial","trial_index":181,"time_elapsed":891309,"internal_node_id":"0.0-156.0","task_version":"battery-v0.2-trt"},{"rune":"H","rune_set":"bacs1","hex":"#3366ff99","correct":32,"choice":32,"rt":515,"accuracy":1,"outcome":"+10","keys":[2014],"total_keys":1,"block":2,"trial":149,"stimulus":1,"robot":1,"valence":"win","action":"go","sham":0,"trial_type":"pit-trial","trial_index":182,"time_elapsed":894526,"internal_node_id":"0.0-157.0","task_version":"battery-v0.2-trt"},{"rune":"Y","rune_set":"bacs1","hex":"#3366ff99","correct":-1,"choice":-1,"rt":-1,"accuracy":1,"outcome":"+1","keys":[],"total_keys":0,"block":2,"trial":150,"stimulus":0,"robot":2,"valence":"win","action":"no-go","sham":1,"trial_type":"pit-trial","trial_index":183,"time_elapsed":898531,"internal_node_id":"0.0-158.0","task_version":"battery-v0.2-trt"},{"rune":"P","rune_set":"bacs1","hex":"#f73b6a7A","correct":-1,"choice":-1,"rt":-1,"accuracy":1,"outcome":"-1","keys":[],"total_keys":0,"block":2,"trial":151,"stimulus":2,"robot":4,"valence":"lose","action":"no-go","sham":0,"trial_type":"pit-trial","trial_index":184,"time_elapsed":902537,"internal_node_id":"0.0-159.0","task_version":"battery-v0.2-trt"},{"rune":"M","rune_set":"bacs1","hex":"#3366ff99","correct":32,"choice":32,"rt":437,"accuracy":1,"outcome":"+10","keys":[1938],"total_keys":1,"block":2,"trial":152,"stimulus":3,"robot":1,"valence":"win","action":"go","sham":0,"trial_type":"pit-trial","trial_index":185,"time_elapsed":905677,"internal_node_id":"0.0-160.0","task_version":"battery-v0.2-trt"},{"rune":"M","rune_set":"bacs1","hex":"#3366ff99","correct":32,"choice":32,"rt":467,"accuracy":1,"outcome":"+10","keys":[1967],"total_keys":1,"block":2,"trial":153,"stimulus":3,"robot":1,"valence":"win","action":"go","sham":0,"trial_type":"pit-trial","trial_index":186,"time_elapsed":908845,"internal_node_id":"0.0-161.0","task_version":"battery-v0.2-trt"},{"rune":"Y","rune_set":"bacs1","hex":"#3366ff99","correct":-1,"choice":-1,"rt":-1,"accuracy":1,"outcome":"+1","keys":[],"total_keys":0,"block":2,"trial":154,"stimulus":0,"robot":2,"valence":"win","action":"no-go","sham":1,"trial_type":"pit-trial","trial_index":187,"time_elapsed":912847,"internal_node_id":"0.0-162.0","task_version":"battery-v0.2-trt"},{"rune":"P","rune_set":"bacs1","hex":"#f73b6a7A","correct":-1,"choice":-1,"rt":-1,"accuracy":1,"outcome":"-10","keys":[],"total_keys":0,"block":2,"trial":155,"stimulus":2,"robot":4,"valence":"lose","action":"no-go","sham":1,"trial_type":"pit-trial","trial_index":188,"time_elapsed":916850,"internal_node_id":"0.0-163.0","task_version":"battery-v0.2-trt"},{"rune":"U","rune_set":"bacs1","hex":"#3366ff99","correct":32,"choice":32,"rt":991,"accuracy":1,"outcome":"+1","keys":[2491],"total_keys":1,"block":2,"trial":156,"stimulus":4,"robot":1,"valence":"win","action":"go","sham":1,"trial_type":"pit-trial","trial_index":189,"time_elapsed":920543,"internal_node_id":"0.0-164.0","task_version":"battery-v0.2-trt"},{"rune":"U","rune_set":"bacs1","hex":"#3366ff99","correct":32,"choice":-1,"rt":-1,"accuracy":0,"outcome":"+1","keys":[],"total_keys":0,"block":2,"trial":157,"stimulus":4,"robot":1,"valence":"win","action":"go","sham":0,"trial_type":"pit-trial","trial_index":190,"time_elapsed":924546,"internal_node_id":"0.0-165.0","task_version":"battery-v0.2-trt"},{"rune":"Y","rune_set":"bacs1","hex":"#3366ff99","correct":-1,"choice":-1,"rt":-1,"accuracy":1,"outcome":"+10","keys":[],"total_keys":0,"block":2,"trial":158,"stimulus":0,"robot":2,"valence":"win","action":"no-go","sham":0,"trial_type":"pit-trial","trial_index":191,"time_elapsed":928550,"internal_node_id":"0.0-166.0","task_version":"battery-v0.2-trt"},{"rune":"M","rune_set":"bacs1","hex":"#3366ff99","correct":32,"choice":32,"rt":666,"accuracy":1,"outcome":"+10","keys":[2166],"total_keys":1,"block":2,"trial":159,"stimulus":3,"robot":1,"valence":"win","action":"go","sham":0,"trial_type":"pit-trial","trial_index":192,"time_elapsed":931917,"internal_node_id":"0.0-167.0","task_version":"battery-v0.2-trt"},{"rune":"P","rune_set":"bacs1","hex":"#f73b6a7A","correct":-1,"choice":-1,"rt":-1,"accuracy":1,"outcome":"-1","keys":[],"total_keys":0,"block":2,"trial":160,"stimulus":2,"robot":4,"valence":"lose","action":"no-go","sham":0,"trial_type":"pit-trial","trial_index":193,"time_elapsed":935919,"internal_node_id":"0.0-168.0","task_version":"battery-v0.2-trt"},{"rune":"K","rune_set":"bacs1","hex":"#f73b6a7A","correct":-1,"choice":-1,"rt":-1,"accuracy":1,"outcome":"-1","keys":[],"total_keys":0,"block":2,"trial":161,"stimulus":6,"robot":4,"valence":"lose","action":"no-go","sham":0,"trial_type":"pit-trial","trial_index":194,"time_elapsed":939921,"internal_node_id":"0.0-169.0","task_version":"battery-v0.2-trt"},{"rune":"U","rune_set":"bacs1","hex":"#3366ff99","correct":32,"choice":-1,"rt":-1,"accuracy":0,"outcome":"+1","keys":[],"total_keys":0,"block":2,"trial":162,"stimulus":4,"robot":1,"valence":"win","action":"go","sham":0,"trial_type":"pit-trial","trial_index":195,"time_elapsed":943924,"internal_node_id":"0.0-170.0","task_version":"battery-v0.2-trt"},{"rune":"S","rune_set":"bacs1","hex":"#f73b6a7A","correct":32,"choice":32,"rt":906,"accuracy":1,"outcome":"-1","keys":[2408],"total_keys":1,"block":2,"trial":163,"stimulus":5,"robot":3,"valence":"lose","action":"go","sham":0,"trial_type":"pit-trial","trial_index":196,"time_elapsed":947533,"internal_node_id":"0.0-171.0","task_version":"battery-v0.2-trt"},{"rune":"Y","rune_set":"bacs1","hex":"#3366ff99","correct":-1,"choice":-1,"rt":-1,"accuracy":1,"outcome":"+10","keys":[],"total_keys":0,"block":2,"trial":164,"stimulus":0,"robot":2,"valence":"win","action":"no-go","sham":0,"trial_type":"pit-trial","trial_index":197,"time_elapsed":951535,"internal_node_id":"0.0-172.0","task_version":"battery-v0.2-trt"},{"rune":"S","rune_set":"bacs1","hex":"#f73b6a7A","correct":32,"choice":32,"rt":547,"accuracy":1,"outcome":"-1","keys":[2046],"total_keys":1,"block":2,"trial":165,"stimulus":5,"robot":3,"valence":"lose","action":"go","sham":0,"trial_type":"pit-trial","trial_index":198,"time_elapsed":954783,"internal_node_id":"0.0-173.0","task_version":"battery-v0.2-trt"},{"rune":"U","rune_set":"bacs1","hex":"#3366ff99","correct":32,"choice":32,"rt":767,"accuracy":1,"outcome":"+10","keys":[2268],"total_keys":1,"block":2,"trial":166,"stimulus":4,"robot":1,"valence":"win","action":"go","sham":0,"trial_type":"pit-trial","trial_index":199,"time_elapsed":958253,"internal_node_id":"0.0-174.0","task_version":"battery-v0.2-trt"},{"rune":"K","rune_set":"bacs1","hex":"#f73b6a7A","correct":-1,"choice":-1,"rt":-1,"accuracy":1,"outcome":"-10","keys":[],"total_keys":0,"block":2,"trial":167,"stimulus":6,"robot":4,"valence":"lose","action":"no-go","sham":1,"trial_type":"pit-trial","trial_index":200,"time_elapsed":962254,"internal_node_id":"0.0-175.0","task_version":"battery-v0.2-trt"},{"rune":"Y","rune_set":"bacs1","hex":"#3366ff99","correct":-1,"choice":-1,"rt":-1,"accuracy":1,"outcome":"+10","keys":[],"total_keys":0,"block":2,"trial":168,"stimulus":0,"robot":2,"valence":"win","action":"no-go","sham":0,"trial_type":"pit-trial","trial_index":201,"time_elapsed":966258,"internal_node_id":"0.0-176.0","task_version":"battery-v0.2-trt"},{"rune":"S","rune_set":"bacs1","hex":"#f73b6a7A","correct":32,"choice":32,"rt":607,"accuracy":1,"outcome":"-1","keys":[2106],"total_keys":1,"block":2,"trial":169,"stimulus":5,"robot":3,"valence":"lose","action":"go","sham":0,"trial_type":"pit-trial","trial_index":202,"time_elapsed":969564,"internal_node_id":"0.0-177.0","task_version":"battery-v0.2-trt"},{"rune":"D","rune_set":"bacs1","hex":"#3366ff99","correct":-1,"choice":-1,"rt":-1,"accuracy":1,"outcome":"+10","keys":[],"total_keys":0,"block":2,"trial":170,"stimulus":7,"robot":2,"valence":"win","action":"no-go","sham":0,"trial_type":"pit-trial","trial_index":203,"time_elapsed":973568,"internal_node_id":"0.0-178.0","task_version":"battery-v0.2-trt"},{"rune":"U","rune_set":"bacs1","hex":"#3366ff99","correct":32,"choice":32,"rt":641,"accuracy":1,"outcome":"+10","keys":[2141],"total_keys":1,"block":2,"trial":171,"stimulus":4,"robot":1,"valence":"win","action":"go","sham":0,"trial_type":"pit-trial","trial_index":204,"time_elapsed":976909,"internal_node_id":"0.0-179.0","task_version":"battery-v0.2-trt"},{"rune":"K","rune_set":"bacs1","hex":"#f73b6a7A","correct":-1,"choice":-1,"rt":-1,"accuracy":1,"outcome":"-1","keys":[],"total_keys":0,"block":2,"trial":172,"stimulus":6,"robot":4,"valence":"lose","action":"no-go","sham":0,"trial_type":"pit-trial","trial_index":205,"time_elapsed":980911,"internal_node_id":"0.0-180.0","task_version":"battery-v0.2-trt"},{"rune":"U","rune_set":"bacs1","hex":"#3366ff99","correct":32,"choice":32,"rt":576,"accuracy":1,"outcome":"+10","keys":[2076],"total_keys":1,"block":2,"trial":173,"stimulus":4,"robot":1,"valence":"win","action":"go","sham":0,"trial_type":"pit-trial","trial_index":206,"time_elapsed":984191,"internal_node_id":"0.0-181.0","task_version":"battery-v0.2-trt"},{"rune":"K","rune_set":"bacs1","hex":"#f73b6a7A","correct":-1,"choice":-1,"rt":-1,"accuracy":1,"outcome":"-1","keys":[],"total_keys":0,"block":2,"trial":174,"stimulus":6,"robot":4,"valence":"lose","action":"no-go","sham":0,"trial_type":"pit-trial","trial_index":207,"time_elapsed":988195,"internal_node_id":"0.0-182.0","task_version":"battery-v0.2-trt"},{"rune":"D","rune_set":"bacs1","hex":"#3366ff99","correct":-1,"choice":32,"rt":588,"accuracy":0,"outcome":"+1","keys":[2088],"total_keys":1,"block":2,"trial":175,"stimulus":7,"robot":2,"valence":"win","action":"no-go","sham":0,"trial_type":"pit-trial","trial_index":208,"time_elapsed":991485,"internal_node_id":"0.0-183.0","task_version":"battery-v0.2-trt"},{"rune":"S","rune_set":"bacs1","hex":"#f73b6a7A","correct":32,"choice":32,"rt":594,"accuracy":1,"outcome":"-1","keys":[2095],"total_keys":1,"block":2,"trial":176,"stimulus":5,"robot":3,"valence":"lose","action":"go","sham":0,"trial_type":"pit-trial","trial_index":209,"time_elapsed":994782,"internal_node_id":"0.0-184.0","task_version":"battery-v0.2-trt"},{"rune":"D","rune_set":"bacs1","hex":"#3366ff99","correct":-1,"choice":32,"rt":497,"accuracy":0,"outcome":"+10","keys":[1997],"total_keys":1,"block":2,"trial":177,"stimulus":7,"robot":2,"valence":"win","action":"no-go","sham":1,"trial_type":"pit-trial","trial_index":210,"time_elapsed":997982,"internal_node_id":"0.0-185.0","task_version":"battery-v0.2-trt"},{"rune":"U","rune_set":"bacs1","hex":"#3366ff99","correct":32,"choice":32,"rt":609,"accuracy":1,"outcome":"+10","keys":[2110],"total_keys":1,"block":2,"trial":178,"stimulus":4,"robot":1,"valence":"win","action":"go","sham":0,"trial_type":"pit-trial","trial_index":211,"time_elapsed":1001293,"internal_node_id":"0.0-186.0","task_version":"battery-v0.2-trt"},{"rune":"S","rune_set":"bacs1","hex":"#f73b6a7A","correct":32,"choice":32,"rt":578,"accuracy":1,"outcome":"-1","keys":[2078],"total_keys":1,"block":2,"trial":179,"stimulus":5,"robot":3,"valence":"lose","action":"go","sham":0,"trial_type":"pit-trial","trial_index":212,"time_elapsed":1004573,"internal_node_id":"0.0-187.0","task_version":"battery-v0.2-trt"},{"rune":"K","rune_set":"bacs1","hex":"#f73b6a7A","correct":-1,"choice":-1,"rt":-1,"accuracy":1,"outcome":"-10","keys":[],"total_keys":0,"block":2,"trial":180,"stimulus":6,"robot":4,"valence":"lose","action":"no-go","sham":1,"trial_type":"pit-trial","trial_index":213,"time_elapsed":1008576,"internal_node_id":"0.0-188.0","task_version":"battery-v0.2-trt"},{"rune":"K","rune_set":"bacs1","hex":"#f73b6a7A","correct":-1,"choice":-1,"rt":-1,"accuracy":1,"outcome":"-1","keys":[],"total_keys":0,"block":2,"trial":181,"stimulus":6,"robot":4,"valence":"lose","action":"no-go","sham":0,"trial_type":"pit-trial","trial_index":214,"time_elapsed":1012578,"internal_node_id":"0.0-189.0","task_version":"battery-v0.2-trt"},{"rune":"D","rune_set":"bacs1","hex":"#3366ff99","correct":-1,"choice":-1,"rt":-1,"accuracy":1,"outcome":"+1","keys":[],"total_keys":0,"block":2,"trial":182,"stimulus":7,"robot":2,"valence":"win","action":"no-go","sham":1,"trial_type":"pit-trial","trial_index":215,"time_elapsed":1016582,"internal_node_id":"0.0-190.0","task_version":"battery-v0.2-trt"},{"rune":"U","rune_set":"bacs1","hex":"#3366ff99","correct":32,"choice":32,"rt":539,"accuracy":1,"outcome":"+10","keys":[2038],"total_keys":1,"block":2,"trial":183,"stimulus":4,"robot":1,"valence":"win","action":"go","sham":0,"trial_type":"pit-trial","trial_index":216,"time_elapsed":1019821,"internal_node_id":"0.0-191.0","task_version":"battery-v0.2-trt"},{"rune":"S","rune_set":"bacs1","hex":"#f73b6a7A","correct":32,"choice":32,"rt":706,"accuracy":1,"outcome":"-1","keys":[2207],"total_keys":1,"block":2,"trial":184,"stimulus":5,"robot":3,"valence":"lose","action":"go","sham":0,"trial_type":"pit-trial","trial_index":217,"time_elapsed":1023229,"internal_node_id":"0.0-192.0","task_version":"battery-v0.2-trt"},{"rune":"K","rune_set":"bacs1","hex":"#f73b6a7A","correct":-1,"choice":-1,"rt":-1,"accuracy":1,"outcome":"-1","keys":[],"total_keys":0,"block":2,"trial":185,"stimulus":6,"robot":4,"valence":"lose","action":"no-go","sham":0,"trial_type":"pit-trial","trial_index":218,"time_elapsed":1027230,"internal_node_id":"0.0-193.0","task_version":"battery-v0.2-trt"},{"rune":"D","rune_set":"bacs1","hex":"#3366ff99","correct":-1,"choice":-1,"rt":-1,"accuracy":1,"outcome":"+10","keys":[],"total_keys":0,"block":2,"trial":186,"stimulus":7,"robot":2,"valence":"win","action":"no-go","sham":0,"trial_type":"pit-trial","trial_index":219,"time_elapsed":1031232,"internal_node_id":"0.0-194.0","task_version":"battery-v0.2-trt"},{"rune":"U","rune_set":"bacs1","hex":"#3366ff99","correct":32,"choice":32,"rt":575,"accuracy":1,"outcome":"+1","keys":[2076],"total_keys":1,"block":2,"trial":187,"stimulus":4,"robot":1,"valence":"win","action":"go","sham":1,"trial_type":"pit-trial","trial_index":220,"time_elapsed":1034509,"internal_node_id":"0.0-195.0","task_version":"battery-v0.2-trt"},{"rune":"S","rune_set":"bacs1","hex":"#f73b6a7A","correct":32,"choice":32,"rt":594,"accuracy":1,"outcome":"-1","keys":[2095],"total_keys":1,"block":2,"trial":188,"stimulus":5,"robot":3,"valence":"lose","action":"go","sham":0,"trial_type":"pit-trial","trial_index":221,"time_elapsed":1037804,"internal_node_id":"0.0-196.0","task_version":"battery-v0.2-trt"},{"rune":"S","rune_set":"bacs1","hex":"#f73b6a7A","correct":32,"choice":32,"rt":465,"accuracy":1,"outcome":"-1","keys":[1966],"total_keys":1,"block":2,"trial":189,"stimulus":5,"robot":3,"valence":"lose","action":"go","sham":0,"trial_type":"pit-trial","trial_index":222,"time_elapsed":1040972,"internal_node_id":"0.0-197.0","task_version":"battery-v0.2-trt"},{"rune":"D","rune_set":"bacs1","hex":"#3366ff99","correct":-1,"choice":-1,"rt":-1,"accuracy":1,"outcome":"+10","keys":[],"total_keys":0,"block":2,"trial":190,"stimulus":7,"robot":2,"valence":"win","action":"no-go","sham":0,"trial_type":"pit-trial","trial_index":223,"time_elapsed":1044975,"internal_node_id":"0.0-198.0","task_version":"battery-v0.2-trt"},{"rune":"K","rune_set":"bacs1","hex":"#f73b6a7A","correct":-1,"choice":-1,"rt":-1,"accuracy":1,"outcome":"-1","keys":[],"total_keys":0,"block":2,"trial":191,"stimulus":6,"robot":4,"valence":"lose","action":"no-go","sham":0,"trial_type":"pit-trial","trial_index":224,"time_elapsed":1048978,"internal_node_id":"0.0-199.0","task_version":"battery-v0.2-trt"},{"rune":"U","rune_set":"bacs1","hex":"#3366ff99","correct":32,"choice":32,"rt":444,"accuracy":1,"outcome":"+10","keys":[1944],"total_keys":1,"block":2,"trial":192,"stimulus":4,"robot":1,"valence":"win","action":"go","sham":0,"trial_type":"pit-trial","trial_index":225,"time_elapsed":1052124,"internal_node_id":"0.0-200.0","task_version":"battery-v0.2-trt"},{"rune":"U","rune_set":"bacs1","hex":"#3366ff99","correct":32,"choice":32,"rt":450,"accuracy":1,"outcome":"+10","keys":[1950],"total_keys":1,"block":2,"trial":193,"stimulus":4,"robot":1,"valence":"win","action":"go","sham":0,"trial_type":"pit-trial","trial_index":226,"time_elapsed":1055278,"internal_node_id":"0.0-201.0","task_version":"battery-v0.2-trt"},{"rune":"O","rune_set":"bacs1","hex":"#f73b6a7A","correct":32,"choice":-1,"rt":-1,"accuracy":0,"outcome":"-10","keys":[],"total_keys":0,"block":2,"trial":194,"stimulus":8,"robot":3,"valence":"lose","action":"go","sham":0,"trial_type":"pit-trial","trial_index":227,"time_elapsed":1059279,"internal_node_id":"0.0-202.0","task_version":"battery-v0.2-trt"},{"rune":"D","rune_set":"bacs1","hex":"#3366ff99","correct":-1,"choice":-1,"rt":-1,"accuracy":1,"outcome":"+10","keys":[],"total_keys":0,"block":2,"trial":195,"stimulus":7,"robot":2,"valence":"win","action":"no-go","sham":0,"trial_type":"pit-trial","trial_index":228,"time_elapsed":1063282,"internal_node_id":"0.0-203.0","task_version":"battery-v0.2-trt"},{"rune":"K","rune_set":"bacs1","hex":"#f73b6a7A","correct":-1,"choice":-1,"rt":-1,"accuracy":1,"outcome":"-10","keys":[],"total_keys":0,"block":2,"trial":196,"stimulus":6,"robot":4,"valence":"lose","action":"no-go","sham":1,"trial_type":"pit-trial","trial_index":229,"time_elapsed":1067284,"internal_node_id":"0.0-204.0","task_version":"battery-v0.2-trt"},{"rune":"D","rune_set":"bacs1","hex":"#3366ff99","correct":-1,"choice":-1,"rt":-1,"accuracy":1,"outcome":"+1","keys":[],"total_keys":0,"block":2,"trial":197,"stimulus":7,"robot":2,"valence":"win","action":"no-go","sham":1,"trial_type":"pit-trial","trial_index":230,"time_elapsed":1071288,"internal_node_id":"0.0-205.0","task_version":"battery-v0.2-trt"},{"rune":"O","rune_set":"bacs1","hex":"#f73b6a7A","correct":32,"choice":32,"rt":599,"accuracy":1,"outcome":"-1","keys":[2100],"total_keys":1,"block":2,"trial":198,"stimulus":8,"robot":3,"valence":"lose","action":"go","sham":0,"trial_type":"pit-trial","trial_index":231,"time_elapsed":1074590,"internal_node_id":"0.0-206.0","task_version":"battery-v0.2-trt"},{"rune":"U","rune_set":"bacs1","hex":"#3366ff99","correct":32,"choice":32,"rt":626,"accuracy":1,"outcome":"+1","keys":[2127],"total_keys":1,"block":2,"trial":199,"stimulus":4,"robot":1,"valence":"win","action":"go","sham":1,"trial_type":"pit-trial","trial_index":232,"time_elapsed":1077917,"internal_node_id":"0.0-207.0","task_version":"battery-v0.2-trt"},{"rune":"K","rune_set":"bacs1","hex":"#f73b6a7A","correct":-1,"choice":-1,"rt":-1,"accuracy":1,"outcome":"-1","keys":[],"total_keys":0,"block":2,"trial":200,"stimulus":6,"robot":4,"valence":"lose","action":"no-go","sham":0,"trial_type":"pit-trial","trial_index":233,"time_elapsed":1081920,"internal_node_id":"0.0-208.0","task_version":"battery-v0.2-trt"},{"rune":"O","rune_set":"bacs1","hex":"#f73b6a7A","correct":32,"choice":32,"rt":735,"accuracy":1,"outcome":"-1","keys":[2235],"total_keys":1,"block":2,"trial":201,"stimulus":8,"robot":3,"valence":"lose","action":"go","sham":0,"trial_type":"pit-trial","trial_index":234,"time_elapsed":1085356,"internal_node_id":"0.0-209.0","task_version":"battery-v0.2-trt"},{"rune":"D","rune_set":"bacs1","hex":"#3366ff99","correct":-1,"choice":-1,"rt":-1,"accuracy":1,"outcome":"+10","keys":[],"total_keys":0,"block":2,"trial":202,"stimulus":7,"robot":2,"valence":"win","action":"no-go","sham":0,"trial_type":"pit-trial","trial_index":235,"time_elapsed":1089357,"internal_node_id":"0.0-210.0","task_version":"battery-v0.2-trt"},{"rune":"K","rune_set":"bacs1","hex":"#f73b6a7A","correct":-1,"choice":-1,"rt":-1,"accuracy":1,"outcome":"-1","keys":[],"total_keys":0,"block":2,"trial":203,"stimulus":6,"robot":4,"valence":"lose","action":"no-go","sham":0,"trial_type":"pit-trial","trial_index":236,"time_elapsed":1093360,"internal_node_id":"0.0-211.0","task_version":"battery-v0.2-trt"},{"rune":"I","rune_set":"bacs1","hex":"#f73b6a7A","correct":32,"choice":-1,"rt":-1,"accuracy":0,"outcome":"-10","keys":[],"total_keys":0,"block":2,"trial":204,"stimulus":9,"robot":3,"valence":"lose","action":"go","sham":0,"trial_type":"pit-trial","trial_index":237,"time_elapsed":1097364,"internal_node_id":"0.0-212.0","task_version":"battery-v0.2-trt"},{"rune":"O","rune_set":"bacs1","hex":"#f73b6a7A","correct":32,"choice":32,"rt":682,"accuracy":1,"outcome":"-1","keys":[2182],"total_keys":1,"block":2,"trial":205,"stimulus":8,"robot":3,"valence":"lose","action":"go","sham":0,"trial_type":"pit-trial","trial_index":238,"time_elapsed":1100748,"internal_node_id":"0.0-213.0","task_version":"battery-v0.2-trt"},{"rune":"K","rune_set":"bacs1","hex":"#f73b6a7A","correct":-1,"choice":-1,"rt":-1,"accuracy":1,"outcome":"-1","keys":[],"total_keys":0,"block":2,"trial":206,"stimulus":6,"robot":4,"valence":"lose","action":"no-go","sham":0,"trial_type":"pit-trial","trial_index":239,"time_elapsed":1104751,"internal_node_id":"0.0-214.0","task_version":"battery-v0.2-trt"},{"rune":"D","rune_set":"bacs1","hex":"#3366ff99","correct":-1,"choice":-1,"rt":-1,"accuracy":1,"outcome":"+10","keys":[],"total_keys":0,"block":2,"trial":207,"stimulus":7,"robot":2,"valence":"win","action":"no-go","sham":0,"trial_type":"pit-trial","trial_index":240,"time_elapsed":1108755,"internal_node_id":"0.0-215.0","task_version":"battery-v0.2-trt"},{"rune":"I","rune_set":"bacs1","hex":"#f73b6a7A","correct":32,"choice":32,"rt":685,"accuracy":1,"outcome":"-1","keys":[2185],"total_keys":1,"block":2,"trial":208,"stimulus":9,"robot":3,"valence":"lose","action":"go","sham":0,"trial_type":"pit-trial","trial_index":241,"time_elapsed":1112140,"internal_node_id":"0.0-216.0","task_version":"battery-v0.2-trt"},{"rune":"N","rune_set":"bacs1","hex":"#3366ff99","correct":-1,"choice":-1,"rt":-1,"accuracy":1,"outcome":"+10","keys":[],"total_keys":0,"block":2,"trial":209,"stimulus":11,"robot":2,"valence":"win","action":"no-go","sham":0,"trial_type":"pit-trial","trial_index":242,"time_elapsed":1116145,"internal_node_id":"0.0-217.0","task_version":"battery-v0.2-trt"},{"rune":"I","rune_set":"bacs1","hex":"#f73b6a7A","correct":32,"choice":32,"rt":783,"accuracy":1,"outcome":"-1","keys":[2283],"total_keys":1,"block":2,"trial":210,"stimulus":9,"robot":3,"valence":"lose","action":"go","sham":0,"trial_type":"pit-trial","trial_index":243,"time_elapsed":1119629,"internal_node_id":"0.0-218.0","task_version":"battery-v0.2-trt"},{"rune":"G","rune_set":"bacs1","hex":"#f73b6a7A","correct":-1,"choice":-1,"rt":-1,"accuracy":1,"outcome":"-10","keys":[],"total_keys":0,"block":2,"trial":211,"stimulus":10,"robot":4,"valence":"lose","action":"no-go","sham":1,"trial_type":"pit-trial","trial_index":244,"time_elapsed":1123631,"internal_node_id":"0.0-219.0","task_version":"battery-v0.2-trt"},{"rune":"O","rune_set":"bacs1","hex":"#f73b6a7A","correct":32,"choice":32,"rt":609,"accuracy":1,"outcome":"-1","keys":[2109],"total_keys":1,"block":2,"trial":212,"stimulus":8,"robot":3,"valence":"lose","action":"go","sham":0,"trial_type":"pit-trial","trial_index":245,"time_elapsed":1126940,"internal_node_id":"0.0-220.0","task_version":"battery-v0.2-trt"},{"rune":"N","rune_set":"bacs1","hex":"#3366ff99","correct":-1,"choice":-1,"rt":-1,"accuracy":1,"outcome":"+10","keys":[],"total_keys":0,"block":2,"trial":213,"stimulus":11,"robot":2,"valence":"win","action":"no-go","sham":0,"trial_type":"pit-trial","trial_index":246,"time_elapsed":1130942,"internal_node_id":"0.0-221.0","task_version":"battery-v0.2-trt"},{"rune":"I","rune_set":"bacs1","hex":"#f73b6a7A","correct":32,"choice":32,"rt":449,"accuracy":1,"outcome":"-10","keys":[1948],"total_keys":1,"block":2,"trial":214,"stimulus":9,"robot":3,"valence":"lose","action":"go","sham":1,"trial_type":"pit-trial","trial_index":247,"time_elapsed":1134093,"internal_node_id":"0.0-222.0","task_version":"battery-v0.2-trt"},{"rune":"O","rune_set":"bacs1","hex":"#f73b6a7A","correct":32,"choice":32,"rt":594,"accuracy":1,"outcome":"-10","keys":[2095],"total_keys":1,"block":2,"trial":215,"stimulus":8,"robot":3,"valence":"lose","action":"go","sham":1,"trial_type":"pit-trial","trial_index":248,"time_elapsed":1137388,"internal_node_id":"0.0-223.0","task_version":"battery-v0.2-trt"},{"rune":"G","rune_set":"bacs1","hex":"#f73b6a7A","correct":-1,"choice":-1,"rt":-1,"accuracy":1,"outcome":"-10","keys":[],"total_keys":0,"block":2,"trial":216,"stimulus":10,"robot":4,"valence":"lose","action":"no-go","sham":1,"trial_type":"pit-trial","trial_index":249,"time_elapsed":1141389,"internal_node_id":"0.0-224.0","task_version":"battery-v0.2-trt"},{"rune":"O","rune_set":"bacs1","hex":"#f73b6a7A","correct":32,"choice":32,"rt":514,"accuracy":1,"outcome":"-1","keys":[2015],"total_keys":1,"block":2,"trial":217,"stimulus":8,"robot":3,"valence":"lose","action":"go","sham":0,"trial_type":"pit-trial","trial_index":250,"time_elapsed":1144605,"internal_node_id":"0.0-225.0","task_version":"battery-v0.2-trt"},{"rune":"I","rune_set":"bacs1","hex":"#f73b6a7A","correct":32,"choice":32,"rt":530,"accuracy":1,"outcome":"-10","keys":[2030],"total_keys":1,"block":2,"trial":218,"stimulus":9,"robot":3,"valence":"lose","action":"go","sham":1,"trial_type":"pit-trial","trial_index":251,"time_elapsed":1147836,"internal_node_id":"0.0-226.0","task_version":"battery-v0.2-trt"},{"rune":"N","rune_set":"bacs1","hex":"#3366ff99","correct":-1,"choice":-1,"rt":-1,"accuracy":1,"outcome":"+10","keys":[],"total_keys":0,"block":2,"trial":219,"stimulus":11,"robot":2,"valence":"win","action":"no-go","sham":0,"trial_type":"pit-trial","trial_index":252,"time_elapsed":1151838,"internal_node_id":"0.0-227.0","task_version":"battery-v0.2-trt"},{"rune":"G","rune_set":"bacs1","hex":"#f73b6a7A","correct":-1,"choice":32,"rt":592,"accuracy":0,"outcome":"-1","keys":[2093],"total_keys":1,"block":2,"trial":220,"stimulus":10,"robot":4,"valence":"lose","action":"no-go","sham":1,"trial_type":"pit-trial","trial_index":253,"time_elapsed":1155133,"internal_node_id":"0.0-228.0","task_version":"battery-v0.2-trt"},{"rune":"I","rune_set":"bacs1","hex":"#f73b6a7A","correct":32,"choice":32,"rt":498,"accuracy":1,"outcome":"-1","keys":[1999],"total_keys":1,"block":2,"trial":221,"stimulus":9,"robot":3,"valence":"lose","action":"go","sham":0,"trial_type":"pit-trial","trial_index":254,"time_elapsed":1158332,"internal_node_id":"0.0-229.0","task_version":"battery-v0.2-trt"},{"rune":"G","rune_set":"bacs1","hex":"#f73b6a7A","correct":-1,"choice":32,"rt":579,"accuracy":0,"outcome":"-10","keys":[2079],"total_keys":1,"block":2,"trial":222,"stimulus":10,"robot":4,"valence":"lose","action":"no-go","sham":0,"trial_type":"pit-trial","trial_index":255,"time_elapsed":1161613,"internal_node_id":"0.0-230.0","task_version":"battery-v0.2-trt"},{"rune":"N","rune_set":"bacs1","hex":"#3366ff99","correct":-1,"choice":-1,"rt":-1,"accuracy":1,"outcome":"+10","keys":[],"total_keys":0,"block":2,"trial":223,"stimulus":11,"robot":2,"valence":"win","action":"no-go","sham":0,"trial_type":"pit-trial","trial_index":256,"time_elapsed":1165615,"internal_node_id":"0.0-231.0","task_version":"battery-v0.2-trt"},{"rune":"O","rune_set":"bacs1","hex":"#f73b6a7A","correct":32,"choice":32,"rt":465,"accuracy":1,"outcome":"-1","keys":[1965],"total_keys":1,"block":2,"trial":224,"stimulus":8,"robot":3,"valence":"lose","action":"go","sham":0,"trial_type":"pit-trial","trial_index":257,"time_elapsed":1168782,"internal_node_id":"0.0-232.0","task_version":"battery-v0.2-trt"},{"rune":"N","rune_set":"bacs1","hex":"#3366ff99","correct":-1,"choice":-1,"rt":-1,"accuracy":1,"outcome":"+10","keys":[],"total_keys":0,"block":2,"trial":225,"stimulus":11,"robot":2,"valence":"win","action":"no-go","sham":0,"trial_type":"pit-trial","trial_index":258,"time_elapsed":1172784,"internal_node_id":"0.0-233.0","task_version":"battery-v0.2-trt"},{"rune":"I","rune_set":"bacs1","hex":"#f73b6a7A","correct":32,"choice":32,"rt":623,"accuracy":1,"outcome":"-1","keys":[2123],"total_keys":1,"block":2,"trial":226,"stimulus":9,"robot":3,"valence":"lose","action":"go","sham":0,"trial_type":"pit-trial","trial_index":259,"time_elapsed":1176109,"internal_node_id":"0.0-234.0","task_version":"battery-v0.2-trt"},{"rune":"G","rune_set":"bacs1","hex":"#f73b6a7A","correct":-1,"choice":32,"rt":658,"accuracy":0,"outcome":"-10","keys":[2157],"total_keys":1,"block":2,"trial":227,"stimulus":10,"robot":4,"valence":"lose","action":"no-go","sham":0,"trial_type":"pit-trial","trial_index":260,"time_elapsed":1179470,"internal_node_id":"0.0-235.0","task_version":"battery-v0.2-trt"},{"rune":"O","rune_set":"bacs1","hex":"#f73b6a7A","correct":32,"choice":32,"rt":481,"accuracy":1,"outcome":"-1","keys":[1982],"total_keys":1,"block":2,"trial":228,"stimulus":8,"robot":3,"valence":"lose","action":"go","sham":0,"trial_type":"pit-trial","trial_index":261,"time_elapsed":1182653,"internal_node_id":"0.0-236.0","task_version":"battery-v0.2-trt"},{"rune":"O","rune_set":"bacs1","hex":"#f73b6a7A","correct":32,"choice":32,"rt":466,"accuracy":1,"outcome":"-1","keys":[1966],"total_keys":1,"block":2,"trial":229,"stimulus":8,"robot":3,"valence":"lose","action":"go","sham":0,"trial_type":"pit-trial","trial_index":262,"time_elapsed":1185821,"internal_node_id":"0.0-237.0","task_version":"battery-v0.2-trt"},{"rune":"I","rune_set":"bacs1","hex":"#f73b6a7A","correct":32,"choice":32,"rt":482,"accuracy":1,"outcome":"-10","keys":[1983],"total_keys":1,"block":2,"trial":230,"stimulus":9,"robot":3,"valence":"lose","action":"go","sham":1,"trial_type":"pit-trial","trial_index":263,"time_elapsed":1189005,"internal_node_id":"0.0-238.0","task_version":"battery-v0.2-trt"},{"rune":"G","rune_set":"bacs1","hex":"#f73b6a7A","correct":-1,"choice":32,"rt":561,"accuracy":0,"outcome":"-10","keys":[2061],"total_keys":1,"block":2,"trial":231,"stimulus":10,"robot":4,"valence":"lose","action":"no-go","sham":0,"trial_type":"pit-trial","trial_index":264,"time_elapsed":1192268,"internal_node_id":"0.0-239.0","task_version":"battery-v0.2-trt"},{"rune":"N","rune_set":"bacs1","hex":"#3366ff99","correct":-1,"choice":-1,"rt":-1,"accuracy":1,"outcome":"+1","keys":[],"total_keys":0,"block":2,"trial":232,"stimulus":11,"robot":2,"valence":"win","action":"no-go","sham":1,"trial_type":"pit-trial","trial_index":265,"time_elapsed":1196271,"internal_node_id":"0.0-240.0","task_version":"battery-v0.2-trt"},{"rune":"O","rune_set":"bacs1","hex":"#f73b6a7A","correct":32,"choice":32,"rt":399,"accuracy":1,"outcome":"-1","keys":[1901],"total_keys":1,"block":2,"trial":233,"stimulus":8,"robot":3,"valence":"lose","action":"go","sham":0,"trial_type":"pit-trial","trial_index":266,"time_elapsed":1199373,"internal_node_id":"0.0-241.0","task_version":"battery-v0.2-trt"},{"rune":"G","rune_set":"bacs1","hex":"#f73b6a7A","correct":-1,"choice":-1,"rt":-1,"accuracy":1,"outcome":"-1","keys":[],"total_keys":0,"block":2,"trial":234,"stimulus":10,"robot":4,"valence":"lose","action":"no-go","sham":0,"trial_type":"pit-trial","trial_index":267,"time_elapsed":1203374,"internal_node_id":"0.0-242.0","task_version":"battery-v0.2-trt"},{"rune":"N","rune_set":"bacs1","hex":"#3366ff99","correct":-1,"choice":-1,"rt":-1,"accuracy":1,"outcome":"+10","keys":[],"total_keys":0,"block":2,"trial":235,"stimulus":11,"robot":2,"valence":"win","action":"no-go","sham":0,"trial_type":"pit-trial","trial_index":268,"time_elapsed":1207377,"internal_node_id":"0.0-243.0","task_version":"battery-v0.2-trt"},{"rune":"I","rune_set":"bacs1","hex":"#f73b6a7A","correct":32,"choice":32,"rt":380,"accuracy":1,"outcome":"-1","keys":[1882],"total_keys":1,"block":2,"trial":236,"stimulus":9,"robot":3,"valence":"lose","action":"go","sham":0,"trial_type":"pit-trial","trial_index":269,"time_elapsed":1210461,"internal_node_id":"0.0-244.0","task_version":"battery-v0.2-trt"},{"rune":"G","rune_set":"bacs1","hex":"#f73b6a7A","correct":-1,"choice":-1,"rt":-1,"accuracy":1,"outcome":"-1","keys":[],"total_keys":0,"block":2,"trial":237,"stimulus":10,"robot":4,"valence":"lose","action":"no-go","sham":0,"trial_type":"pit-trial","trial_index":270,"time_elapsed":1214463,"internal_node_id":"0.0-245.0","task_version":"battery-v0.2-trt"},{"rune":"I","rune_set":"bacs1","hex":"#f73b6a7A","correct":32,"choice":32,"rt":512,"accuracy":1,"outcome":"-1","keys":[2012],"total_keys":1,"block":2,"trial":238,"stimulus":9,"robot":3,"valence":"lose","action":"go","sham":0,"trial_type":"pit-trial","trial_index":271,"time_elapsed":1217677,"internal_node_id":"0.0-246.0","task_version":"battery-v0.2-trt"},{"rune":"N","rune_set":"bacs1","hex":"#3366ff99","correct":-1,"choice":-1,"rt":-1,"accuracy":1,"outcome":"+1","keys":[],"total_keys":0,"block":2,"trial":239,"stimulus":11,"robot":2,"valence":"win","action":"no-go","sham":1,"trial_type":"pit-trial","trial_index":272,"time_elapsed":1221679,"internal_node_id":"0.0-247.0","task_version":"battery-v0.2-trt"},{"rune":"O","rune_set":"bacs1","hex":"#f73b6a7A","correct":32,"choice":32,"rt":528,"accuracy":1,"outcome":"-1","keys":[2029],"total_keys":1,"block":2,"trial":240,"stimulus":8,"robot":3,"valence":"lose","action":"go","sham":0,"trial_type":"pit-trial","trial_index":273,"time_elapsed":1224909,"internal_node_id":"0.0-248.0","task_version":"battery-v0.2-trt"},{"view_history":"[{\"page_index\":0,\"viewing_time\":2384}]","rt":2384,"trial_type":"pit-instructions","trial_index":274,"time_elapsed":1227294,"internal_node_id":"0.0-249.0","task_version":"battery-v0.2-trt"},{"rt":8769,"responses":{"age":"32","gender-categorical":"Male","gender-free-response":"","ethnicity":"Not Hispanic or Latino","race":["White"],"language":"Yes","fluency":"Very well"},"survey":"demographics","trial_type":"survey-demo","trial_index":275,"time_elapsed":1236065,"internal_node_id":"0.0-250.0","task_version":"battery-v0.2-trt"},{"rt":27973,"responses":{"difficulty":"2","fun":"3","clarity":"5","strategy":"no","feedback":"wouldn't be surprised if the median bonus is zero"},"survey":"debrief","trial_type":"survey-debrief","trial_index":276,"time_elapsed":1264040,"internal_node_id":"0.0-251.0","task_version":"battery-v0.2-trt","interactions":"[{\"event\":\"focus\",\"trial\":0,\"time\":0},{\"event\":\"blur\",\"trial\":6,\"time\":81524},{\"event\":\"focus\",\"trial\":6,\"time\":82756},{\"event\":\"blur\",\"trial\":94,\"time\":542002},{\"event\":\"focus\",\"trial\":94,\"time\":542729}]"}]