[{"view_history":"[{\"page_index\":0,\"viewing_time\":1846.929999999702}]","rt":1847.6899999950547,"trial_type":"instructions","trial_index":0,"time_elapsed":1861,"internal_node_id":"0.0-0.0","task_version":"battery-v0.2-trt"},{"slider_type":"valence","raw_loc":677,"loc":0.854,"trial_type":"affective-slider","trial_index":1,"time_elapsed":5048,"internal_node_id":"0.0-1.0","task_version":"battery-v0.2-trt"},{"responses":{"Q07":"0","Q05":"0","Q06":"0","Q08":"0","Q01":"0","Q04":"0","Q02":"0","Q03":"0"},"rt":5969.759999999951,"item_order":[6,4,5,7,0,3,1,2],"radio_events":[2616.8950000064797,3075.60000000376,3225.860000005923,3363.5450000001583,3517.3650000069756,3665.8100000058766,3972.280000001774,4380.225000000792],"key_events":[],"mouse_events":[2616.8950000064797,2765.820000000531,2929.8950000011246,3075.60000000376,3225.860000005923,3363.5450000001583,3517.3650000069756,3665.8100000058766,3815.310000005411,3972.280000001774,4380.225000000792,5967.915000001085],"straightlining":1,"zigzagging":0,"survey":"gad7","trial_type":"survey-template","trial_index":2,"time_elapsed":11023,"internal_node_id":"0.0-2.0","task_version":"battery-v0.2-trt","infrequency":0},{"responses":{"Q04":"0","Q06":"3","Q01":"0","Q08":"3","Q12":"3","Q03":"0","Q05":"3","Q07":"3","Q02":"0","Q09":"3","Q10":"3","Q11":"3","Q13":"0"},"rt":15274.9199999962,"item_order":[3,5,0,7,11,2,4,6,1,8,9,10,12],"radio_events":[1297.1249999973224,1454.6950000003562,1608.8650000019697,1751.989999997022,2043.9949999999953,2813.0099999980303,3448.29000000027,4563.69000000268,5572.074999996403,7268.799999998009,8985.524999996414,9902.939999999944,10051.59999999887,10398.260000001756,10575.729999996838,10871.995000001334,11563.645000001998,11838.004999997793,12894.26999999705],"key_events":[],"mouse_events":[1297.1249999973224,1454.6950000003562,1608.8650000019697,1751.989999997022,1906.3549999991665,2043.9949999999953,2188.509999999951,2342.575000002398,2488.210000003164,2813.0099999980303,3448.29000000027,4563.69000000268,5572.074999996403,7268.799999998009,8985.524999996414,9902.939999999944,10051.59999999887,10236.61500000162,10398.260000001756,10575.729999996838,10724.759999997332,10871.995000001334,11046.094999997877,11563.645000001998,11838.004999997793,12894.26999999705,15270.799999998417],"straightlining":0.6153846153846154,"zigzagging":0.6666666666666666,"survey":"bisbas","trial_type":"survey-template","trial_index":3,"time_elapsed":26310,"internal_node_id":"0.0-3.0","task_version":"battery-v0.2-trt","infrequency":0},{"responses":{"Q05":"0","Q07":"0","Q01":"0","Q06":"0","Q02":"0","Q08":"0","Q04":"0","Q03":"0"},"rt":4756.059999999707,"item_order":[4,6,0,5,1,7,3,2],"radio_events":[1846.6350000016973,2004.0550000048825,2151.0049999997136,2308.0250000057276,2790.6700000021374,3391.5300000007846,3683.0900000059046,3874.0150000012363],"key_events":[],"mouse_events":[1524.0699999994831,1687.7450000029057,1846.6350000016973,2004.0550000048825,2151.0049999997136,2308.0250000057276,2466.2050000042655,2626.7550000047777,2790.6700000021374,3391.5300000007846,3683.0900000059046,3874.0150000012363,4754.700000004959],"straightlining":1,"zigzagging":0,"survey":"dass_d","trial_type":"survey-template","trial_index":4,"time_elapsed":31078,"internal_node_id":"0.0-4.0","task_version":"battery-v0.2-trt","infrequency":1},{"value":[1,2.6153846153846154,0.6666666666666666],"trial_type":"call-function","trial_index":5,"time_elapsed":31088,"internal_node_id":"0.0-5.0","task_version":"battery-v0.2-trt"},{"view_history":"[{\"page_index\":0,\"viewing_time\":1532.2250000026543},{\"page_index\":1,\"viewing_time\":636.2399999998161},{\"page_index\":2,\"viewing_time\":763.1699999983539},{\"page_index\":3,\"viewing_time\":716.7350000017905},{\"page_index\":4,\"viewing_time\":3076.3349999979255},{\"page_index\":3,\"viewing_time\":1780.494999999064},{\"page_index\":4,\"viewing_time\":672.6849999977276},{\"page_index\":5,\"viewing_time\":1716.1450000057812},{\"page_index\":6,\"viewing_time\":982.384999995702},{\"page_index\":7,\"viewing_time\":1932.0300000035786},{\"page_index\":8,\"viewing_time\":2567.8100000004633},{\"page_index\":9,\"viewing_time\":2676.2999999991735}]","rt":19053.659999997762,"trial_type":"pit-instructions","trial_index":6,"time_elapsed":50146,"internal_node_id":"0.0-6.0-0.0","task_version":"battery-v0.2-trt"},{"rune":"1","rune_set":"elianto","hex":"#3366ff99","correct":32,"choice":32,"rt":469.88499999861233,"accuracy":1,"outcome":"+10","keys":[1971.2500000023283],"total_keys":1,"block":0,"practice":1,"trial_type":"pit-trial","trial_index":7,"time_elapsed":53327,"internal_node_id":"0.0-6.0-1.0-0.0","task_version":"battery-v0.2-trt"},{"rune":"1","rune_set":"elianto","hex":"#3366ff99","correct":32,"choice":32,"rt":252.0199999999022,"accuracy":1,"outcome":"+10","keys":[1752.7699999991455],"total_keys":1,"block":0,"practice":1,"trial_type":"pit-trial","trial_index":8,"time_elapsed":56291,"internal_node_id":"0.0-6.0-1.1-0.1","task_version":"battery-v0.2-trt"},{"rune":"1","rune_set":"elianto","hex":"#3366ff99","correct":32,"choice":32,"rt":241.3749999977881,"accuracy":1,"outcome":"+10","keys":[1741.7349999959697],"total_keys":1,"block":0,"practice":1,"trial_type":"pit-trial","trial_index":9,"time_elapsed":59243,"internal_node_id":"0.0-6.0-1.2-0.2","task_version":"battery-v0.2-trt"},{"rune":"1","rune_set":"elianto","hex":"#3366ff99","correct":32,"choice":32,"rt":193.43999999546213,"accuracy":1,"outcome":"+10","keys":[1694.2049999997835],"total_keys":1,"block":0,"practice":1,"trial_type":"pit-trial","trial_index":10,"time_elapsed":62148,"internal_node_id":"0.0-6.0-1.3-0.3","task_version":"battery-v0.2-trt"},{"trial_type":"call-function","trial_index":11,"time_elapsed":62156,"internal_node_id":"0.0-6.0-2.0","task_version":"battery-v0.2-trt"},{"view_history":"[{\"page_index\":0,\"viewing_time\":2139.5699999993667},{\"page_index\":1,\"viewing_time\":906.8499999993946}]","rt":3047.0749999949476,"trial_type":"pit-instructions","trial_index":12,"time_elapsed":65204,"internal_node_id":"0.0-6.0-3.0","task_version":"battery-v0.2-trt"},{"rune":"2","rune_set":"elianto","hex":"#3366ff99","correct":-1,"choice":32,"rt":353.98999999597436,"accuracy":0,"outcome":"+1","keys":[1854.5599999997648],"total_keys":1,"block":0,"practice":2,"trial_type":"pit-trial","trial_index":13,"time_elapsed":68270,"internal_node_id":"0.0-6.0-4.0-0.0","task_version":"battery-v0.2-trt"},{"rune":"2","rune_set":"elianto","hex":"#3366ff99","correct":-1,"choice":32,"rt":555.9450000000652,"accuracy":0,"outcome":"+1","keys":[2056.6649999964284],"total_keys":1,"block":0,"practice":2,"trial_type":"pit-trial","trial_index":14,"time_elapsed":71536,"internal_node_id":"0.0-6.0-4.1-0.1","task_version":"battery-v0.2-trt"},{"rune":"2","rune_set":"elianto","hex":"#3366ff99","correct":-1,"choice":32,"rt":828.3149999988382,"accuracy":0,"outcome":"+1","keys":[2330.260000002454],"total_keys":1,"block":0,"practice":2,"trial_type":"pit-trial","trial_index":15,"time_elapsed":75078,"internal_node_id":"0.0-6.0-4.2-0.2","task_version":"battery-v0.2-trt"},{"rune":"2","rune_set":"elianto","hex":"#3366ff99","correct":-1,"choice":32,"rt":137.21999999688705,"accuracy":0,"outcome":"+1","keys":[1637.6499999969383],"total_keys":1,"block":0,"practice":2,"trial_type":"pit-trial","trial_index":16,"time_elapsed":77927,"internal_node_id":"0.0-6.0-4.3-0.3","task_version":"battery-v0.2-trt"},{"rune":"2","rune_set":"elianto","hex":"#3366ff99","correct":-1,"choice":32,"rt":224.0250000031665,"accuracy":0,"outcome":"+1","keys":[1724.6999999988475],"total_keys":1,"block":0,"practice":2,"trial_type":"pit-trial","trial_index":17,"time_elapsed":80862,"internal_node_id":"0.0-6.0-4.4-0.4","task_version":"battery-v0.2-trt"},{"rune":"2","rune_set":"elianto","hex":"#3366ff99","correct":-1,"choice":32,"rt":230.05499999999302,"accuracy":0,"outcome":"+1","keys":[1730.6249999965075],"total_keys":1,"block":0,"practice":2,"trial_type":"pit-trial","trial_index":18,"time_elapsed":83803,"internal_node_id":"0.0-6.0-4.5-0.5","task_version":"battery-v0.2-trt"},{"rune":"2","rune_set":"elianto","hex":"#3366ff99","correct":-1,"choice":32,"rt":214.53499999915948,"accuracy":0,"outcome":"+1","keys":[1714.879999999539],"total_keys":1,"block":0,"practice":2,"trial_type":"pit-trial","trial_index":19,"time_elapsed":86880,"internal_node_id":"0.0-6.0-4.6-0.6","task_version":"battery-v0.2-trt"},{"rune":"2","rune_set":"elianto","hex":"#3366ff99","correct":-1,"choice":32,"rt":189.84500000078697,"accuracy":0,"outcome":"+1","keys":[1690.070000004198],"total_keys":1,"block":0,"practice":2,"trial_type":"pit-trial","trial_index":20,"time_elapsed":89978,"internal_node_id":"0.0-6.0-4.7-0.7","task_version":"battery-v0.2-trt"},{"rune":"2","rune_set":"elianto","hex":"#3366ff99","correct":-1,"choice":-1,"rt":-1,"accuracy":1,"outcome":"+10","keys":[2968.104999999923],"total_keys":1,"block":0,"practice":2,"trial_type":"pit-trial","trial_index":21,"time_elapsed":93995,"internal_node_id":"0.0-6.0-4.8-0.8","task_version":"battery-v0.2-trt"},{"rune":"2","rune_set":"elianto","hex":"#3366ff99","correct":-1,"choice":32,"rt":189.9649999977555,"accuracy":0,"outcome":"+1","keys":[1690.2599999957602],"total_keys":1,"block":0,"practice":2,"trial_type":"pit-trial","trial_index":22,"time_elapsed":96899,"internal_node_id":"0.0-6.0-4.9-0.9","task_version":"battery-v0.2-trt"},{"rune":"2","rune_set":"elianto","hex":"#3366ff99","correct":-1,"choice":32,"rt":305.0500000026659,"accuracy":0,"outcome":"+1","keys":[1805.65999999817],"total_keys":1,"block":0,"practice":2,"trial_type":"pit-trial","trial_index":23,"time_elapsed":99916,"internal_node_id":"0.0-6.0-4.10-0.10","task_version":"battery-v0.2-trt"},{"rune":"2","rune_set":"elianto","hex":"#3366ff99","correct":-1,"choice":32,"rt":315.7550000032643,"accuracy":0,"outcome":"+1","keys":[1816.1499999987427],"total_keys":1,"block":0,"practice":2,"trial_type":"pit-trial","trial_index":24,"time_elapsed":102945,"internal_node_id":"0.0-6.0-4.11-0.11","task_version":"battery-v0.2-trt"},{"rune":"2","rune_set":"elianto","hex":"#3366ff99","correct":-1,"choice":32,"rt":276.24500000092667,"accuracy":0,"outcome":"+1","keys":[1776.5999999974156],"total_keys":1,"block":0,"practice":2,"trial_type":"pit-trial","trial_index":25,"time_elapsed":105932,"internal_node_id":"0.0-6.0-4.12-0.12","task_version":"battery-v0.2-trt"},{"rune":"2","rune_set":"elianto","hex":"#3366ff99","correct":-1,"choice":32,"rt":164.8750000022119,"accuracy":0,"outcome":"+1","keys":[1666.095000000496],"total_keys":1,"block":0,"practice":2,"trial_type":"pit-trial","trial_index":26,"time_elapsed":108810,"internal_node_id":"0.0-6.0-4.13-0.13","task_version":"battery-v0.2-trt"},{"rune":"2","rune_set":"elianto","hex":"#3366ff99","correct":-1,"choice":32,"rt":150.37999999913154,"accuracy":0,"outcome":"+1","keys":[1651.2000000002445],"total_keys":1,"block":0,"practice":2,"trial_type":"pit-trial","trial_index":27,"time_elapsed":111674,"internal_node_id":"0.0-6.0-4.14-0.14","task_version":"battery-v0.2-trt"},{"rune":"2","rune_set":"elianto","hex":"#3366ff99","correct":-1,"choice":32,"rt":532.6600000043982,"accuracy":0,"outcome":"+1","keys":[2099.820000003092],"total_keys":1,"block":0,"practice":2,"trial_type":"pit-trial","trial_index":28,"time_elapsed":114986,"internal_node_id":"0.0-6.0-4.15-0.15","task_version":"battery-v0.2-trt"},{"rune":"2","rune_set":"elianto","hex":"#3366ff99","correct":-1,"choice":32,"rt":187.02499999926658,"accuracy":0,"outcome":"+1","keys":[1249.5150000031572,1687.8250000008848],"total_keys":2,"block":0,"practice":2,"trial_type":"pit-trial","trial_index":29,"time_elapsed":117888,"internal_node_id":"0.0-6.0-4.16-0.16","task_version":"battery-v0.2-trt"},{"rune":"2","rune_set":"elianto","hex":"#3366ff99","correct":-1,"choice":32,"rt":195.53499999892665,"accuracy":0,"outcome":"+1","keys":[1696.0049999979674],"total_keys":1,"block":0,"practice":2,"trial_type":"pit-trial","trial_index":30,"time_elapsed":120797,"internal_node_id":"0.0-6.0-4.17-0.17","task_version":"battery-v0.2-trt"},{"rune":"2","rune_set":"elianto","hex":"#3366ff99","correct":-1,"choice":32,"rt":294.99999999825377,"accuracy":0,"outcome":"+1","keys":[1795.2249999943888],"total_keys":1,"block":0,"practice":2,"trial_type":"pit-trial","trial_index":31,"time_elapsed":123806,"internal_node_id":"0.0-6.0-4.18-0.18","task_version":"battery-v0.2-trt"},{"rune":"2","rune_set":"elianto","hex":"#3366ff99","correct":-1,"choice":32,"rt":183.64999999903375,"accuracy":0,"outcome":"+1","keys":[1685.5450000002747],"total_keys":1,"block":0,"practice":2,"trial_type":"pit-trial","trial_index":32,"time_elapsed":126705,"internal_node_id":"0.0-6.0-4.19-0.19","task_version":"battery-v0.2-trt"},{"rune":"2","rune_set":"elianto","hex":"#3366ff99","correct":-1,"choice":-1,"rt":-1,"accuracy":1,"outcome":"+10","keys":[3601.3850000017555],"total_keys":1,"block":0,"practice":2,"trial_type":"pit-trial","trial_index":33,"time_elapsed":130720,"internal_node_id":"0.0-6.0-4.20-0.20","task_version":"battery-v0.2-trt"},{"rune":"2","rune_set":"elianto","hex":"#3366ff99","correct":-1,"choice":-1,"rt":-1,"accuracy":1,"outcome":"+10","keys":[],"total_keys":0,"block":0,"practice":2,"trial_type":"pit-trial","trial_index":34,"time_elapsed":134733,"internal_node_id":"0.0-6.0-4.21-0.21","task_version":"battery-v0.2-trt"},{"rune":"2","rune_set":"elianto","hex":"#3366ff99","correct":-1,"choice":-1,"rt":-1,"accuracy":1,"outcome":"+10","keys":[],"total_keys":0,"block":0,"practice":2,"trial_type":"pit-trial","trial_index":35,"time_elapsed":138745,"internal_node_id":"0.0-6.0-4.22-0.22","task_version":"battery-v0.2-trt"},{"trial_type":"call-function","trial_index":36,"time_elapsed":138754,"internal_node_id":"0.0-6.0-5.0","task_version":"battery-v0.2-trt"},{"view_history":"[{\"page_index\":0,\"viewing_time\":3479.0050000010524},{\"page_index\":1,\"viewing_time\":2419.545000004291},{\"page_index\":0,\"viewing_time\":5902.664999994158},{\"page_index\":1,\"viewing_time\":4281.705000001239}]","rt":16084.280000002764,"trial_type":"pit-instructions","trial_index":37,"time_elapsed":154839,"internal_node_id":"0.0-6.0-6.0","task_version":"battery-v0.2-trt"},{"rune":"3","rune_set":"elianto","hex":"#f73b6a7A","correct":-1,"choice":-1,"rt":-1,"accuracy":1,"outcome":"-1","keys":[],"total_keys":0,"block":0,"practice":3,"trial_type":"pit-trial","trial_index":38,"time_elapsed":158856,"internal_node_id":"0.0-6.0-7.0-0.0","task_version":"battery-v0.2-trt"},{"rune":"3","rune_set":"elianto","hex":"#f73b6a7A","correct":-1,"choice":-1,"rt":-1,"accuracy":1,"outcome":"-1","keys":[],"total_keys":0,"block":0,"practice":3,"trial_type":"pit-trial","trial_index":39,"time_elapsed":162869,"internal_node_id":"0.0-6.0-7.1-0.1","task_version":"battery-v0.2-trt"},{"rune":"3","rune_set":"elianto","hex":"#f73b6a7A","correct":-1,"choice":-1,"rt":-1,"accuracy":1,"outcome":"-1","keys":[],"total_keys":0,"block":0,"practice":3,"trial_type":"pit-trial","trial_index":40,"time_elapsed":166881,"internal_node_id":"0.0-6.0-7.2-0.2","task_version":"battery-v0.2-trt"},{"rune":"3","rune_set":"elianto","hex":"#f73b6a7A","correct":-1,"choice":-1,"rt":-1,"accuracy":1,"outcome":"-1","keys":[],"total_keys":0,"block":0,"practice":3,"trial_type":"pit-trial","trial_index":41,"time_elapsed":170902,"internal_node_id":"0.0-6.0-7.3-0.3","task_version":"battery-v0.2-trt"},{"trial_type":"call-function","trial_index":42,"time_elapsed":170914,"internal_node_id":"0.0-6.0-8.0","task_version":"battery-v0.2-trt"},{"view_history":"[{\"page_index\":0,\"viewing_time\":1844.66500000417},{\"page_index\":1,\"viewing_time\":1267.5749999980326}]","rt":3112.970000001951,"trial_type":"pit-instructions","trial_index":43,"time_elapsed":174027,"internal_node_id":"0.0-6.0-9.0","task_version":"battery-v0.2-trt"},{"rune":"4","rune_set":"elianto","hex":"#f73b6a7A","correct":32,"choice":-1,"rt":-1,"accuracy":0,"outcome":"-10","keys":[],"total_keys":0,"block":0,"practice":4,"trial_type":"pit-trial","trial_index":44,"time_elapsed":178040,"internal_node_id":"0.0-6.0-10.0-0.0","task_version":"battery-v0.2-trt"},{"rune":"4","rune_set":"elianto","hex":"#f73b6a7A","correct":32,"choice":32,"rt":338.43999999953667,"accuracy":1,"outcome":"-1","keys":[1839.2949999979464],"total_keys":1,"block":0,"practice":4,"trial_type":"pit-trial","trial_index":45,"time_elapsed":181093,"internal_node_id":"0.0-6.0-10.1-0.1","task_version":"battery-v0.2-trt"},{"rune":"4","rune_set":"elianto","hex":"#f73b6a7A","correct":32,"choice":32,"rt":219.06999999919208,"accuracy":1,"outcome":"-1","keys":[1719.8550000030082],"total_keys":1,"block":0,"practice":4,"trial_type":"pit-trial","trial_index":46,"time_elapsed":184029,"internal_node_id":"0.0-6.0-10.2-0.2","task_version":"battery-v0.2-trt"},{"rune":"4","rune_set":"elianto","hex":"#f73b6a7A","correct":32,"choice":32,"rt":192.49999999738066,"accuracy":1,"outcome":"-1","keys":[1692.8899999984424],"total_keys":1,"block":0,"practice":4,"trial_type":"pit-trial","trial_index":47,"time_elapsed":186938,"internal_node_id":"0.0-6.0-10.3-0.3","task_version":"battery-v0.2-trt"},{"trial_type":"call-function","trial_index":48,"time_elapsed":186952,"internal_node_id":"0.0-6.0-11.0","task_version":"battery-v0.2-trt"},{"view_history":"[{\"page_index\":0,\"viewing_time\":2260.809999999765},{\"page_index\":1,\"viewing_time\":1211.5699999994831},{\"page_index\":2,\"viewing_time\":924.8349999979837},{\"page_index\":3,\"viewing_time\":682.6300000029732},{\"page_index\":4,\"viewing_time\":674.6249999996508},{\"page_index\":5,\"viewing_time\":629.6700000020792}]","rt":6384.915000002366,"trial_type":"pit-instructions","trial_index":49,"time_elapsed":193339,"internal_node_id":"0.0-6.0-12.0","task_version":"battery-v0.2-trt"},{"responses":["Press SPACE","+10","-10","True","True"],"num_errors":1,"rt":6907.61499999644,"trial_type":"pit-comprehension","trial_index":50,"time_elapsed":200260,"internal_node_id":"0.0-6.0-13.0","task_version":"battery-v0.2-trt"},{"view_history":"[{\"page_index\":0,\"viewing_time\":2287.1499999964726},{\"page_index\":1,\"viewing_time\":2385.345000002417}]","rt":4673.2799999954295,"trial_type":"pit-instructions","trial_index":51,"time_elapsed":204950,"internal_node_id":"0.0-7.0","task_version":"battery-v0.2-trt"},{"rune":"Q","rune_set":"bacs1","hex":"#f73b6a7A","correct":-1,"choice":32,"rt":560.4749999984051,"accuracy":0,"outcome":"-1","keys":[2060.97499999305],"total_keys":1,"block":1,"trial":1,"stimulus":0,"robot":4,"valence":"lose","action":"no-go","sham":1,"trial_type":"pit-trial","trial_index":52,"time_elapsed":208228,"internal_node_id":"0.0-8.0","task_version":"battery-v0.2-trt"},{"rune":"C","rune_set":"bacs1","hex":"#3366ff99","correct":32,"choice":32,"rt":220.82500000396976,"accuracy":1,"outcome":"+10","keys":[1722.2550000005867],"total_keys":1,"block":1,"trial":2,"stimulus":2,"robot":1,"valence":"win","action":"go","sham":0,"trial_type":"pit-trial","trial_index":53,"time_elapsed":211161,"internal_node_id":"0.0-9.0","task_version":"battery-v0.2-trt"},{"rune":"A","rune_set":"bacs1","hex":"#3366ff99","correct":-1,"choice":32,"rt":222.30499999568565,"accuracy":0,"outcome":"+1","keys":[1723.710000005667],"total_keys":1,"block":1,"trial":3,"stimulus":3,"robot":2,"valence":"win","action":"no-go","sham":0,"trial_type":"pit-trial","trial_index":54,"time_elapsed":214098,"internal_node_id":"0.0-10.0","task_version":"battery-v0.2-trt"},{"rune":"L","rune_set":"bacs1","hex":"#f73b6a7A","correct":-1,"choice":-1,"rt":-1,"accuracy":1,"outcome":"-1","keys":[],"total_keys":0,"block":1,"trial":4,"stimulus":1,"robot":4,"valence":"lose","action":"no-go","sham":0,"trial_type":"pit-trial","trial_index":55,"time_elapsed":218109,"internal_node_id":"0.0-11.0","task_version":"battery-v0.2-trt"},{"rune":"L","rune_set":"bacs1","hex":"#f73b6a7A","correct":-1,"choice":-1,"rt":-1,"accuracy":1,"outcome":"-1","keys":[],"total_keys":0,"block":1,"trial":5,"stimulus":1,"robot":4,"valence":"lose","action":"no-go","sham":0,"trial_type":"pit-trial","trial_index":56,"time_elapsed":222119,"internal_node_id":"0.0-12.0","task_version":"battery-v0.2-trt"},{"rune":"C","rune_set":"bacs1","hex":"#3366ff99","correct":32,"choice":32,"rt":243.1049999941024,"accuracy":1,"outcome":"+1","keys":[1743.8250000050175],"total_keys":1,"block":1,"trial":6,"stimulus":2,"robot":1,"valence":"win","action":"go","sham":1,"trial_type":"pit-trial","trial_index":57,"time_elapsed":225074,"internal_node_id":"0.0-13.0","task_version":"battery-v0.2-trt"},{"rune":"Q","rune_set":"bacs1","hex":"#f73b6a7A","correct":-1,"choice":-1,"rt":-1,"accuracy":1,"outcome":"-10","keys":[],"total_keys":0,"block":1,"trial":7,"stimulus":0,"robot":4,"valence":"lose","action":"no-go","sham":1,"trial_type":"pit-trial","trial_index":58,"time_elapsed":229779,"internal_node_id":"0.0-14.0","task_version":"battery-v0.2-trt"},{"rune":"A","rune_set":"bacs1","hex":"#3366ff99","correct":-1,"choice":32,"rt":285.50999999424675,"accuracy":0,"outcome":"+1","keys":[1787.2300000017276],"total_keys":1,"block":1,"trial":8,"stimulus":3,"robot":2,"valence":"win","action":"no-go","sham":0,"trial_type":"pit-trial","trial_index":59,"time_elapsed":232783,"internal_node_id":"0.0-15.0","task_version":"battery-v0.2-trt"},{"rune":"A","rune_set":"bacs1","hex":"#3366ff99","correct":-1,"choice":32,"rt":480.5800000031013,"accuracy":0,"outcome":"+10","keys":[1981.5899999957765],"total_keys":1,"block":1,"trial":9,"stimulus":3,"robot":2,"valence":"win","action":"no-go","sham":1,"trial_type":"pit-trial","trial_index":60,"time_elapsed":235973,"internal_node_id":"0.0-16.0","task_version":"battery-v0.2-trt"},{"rune":"C","rune_set":"bacs1","hex":"#3366ff99","correct":32,"choice":32,"rt":482.06499999650987,"accuracy":1,"outcome":"+10","keys":[1982.3550000000978],"total_keys":1,"block":1,"trial":10,"stimulus":2,"robot":1,"valence":"win","action":"go","sham":0,"trial_type":"pit-trial","trial_index":61,"time_elapsed":239169,"internal_node_id":"0.0-17.0","task_version":"battery-v0.2-trt"},{"rune":"Q","rune_set":"bacs1","hex":"#f73b6a7A","correct":-1,"choice":-1,"rt":-1,"accuracy":1,"outcome":"-1","keys":[],"total_keys":0,"block":1,"trial":11,"stimulus":0,"robot":4,"valence":"lose","action":"no-go","sham":0,"trial_type":"pit-trial","trial_index":62,"time_elapsed":243181,"internal_node_id":"0.0-18.0","task_version":"battery-v0.2-trt"},{"rune":"L","rune_set":"bacs1","hex":"#f73b6a7A","correct":-1,"choice":-1,"rt":-1,"accuracy":1,"outcome":"-1","keys":[],"total_keys":0,"block":1,"trial":12,"stimulus":1,"robot":4,"valence":"lose","action":"no-go","sham":0,"trial_type":"pit-trial","trial_index":63,"time_elapsed":247191,"internal_node_id":"0.0-19.0","task_version":"battery-v0.2-trt"},{"rune":"Q","rune_set":"bacs1","hex":"#f73b6a7A","correct":-1,"choice":32,"rt":419.6150000061607,"accuracy":0,"outcome":"-10","keys":[1921.2049999987357],"total_keys":1,"block":1,"trial":13,"stimulus":0,"robot":4,"valence":"lose","action":"no-go","sham":0,"trial_type":"pit-trial","trial_index":64,"time_elapsed":250322,"internal_node_id":"0.0-20.0","task_version":"battery-v0.2-trt"},{"rune":"L","rune_set":"bacs1","hex":"#f73b6a7A","correct":-1,"choice":-1,"rt":-1,"accuracy":1,"outcome":"-1","keys":[],"total_keys":0,"block":1,"trial":14,"stimulus":1,"robot":4,"valence":"lose","action":"no-go","sham":0,"trial_type":"pit-trial","trial_index":65,"time_elapsed":254334,"internal_node_id":"0.0-21.0","task_version":"battery-v0.2-trt"},{"rune":"C","rune_set":"bacs1","hex":"#3366ff99","correct":32,"choice":32,"rt":1272.3100000002887,"accuracy":1,"outcome":"+1","keys":[2772.625000005064],"total_keys":1,"block":1,"trial":15,"stimulus":2,"robot":1,"valence":"win","action":"go","sham":1,"trial_type":"pit-trial","trial_index":66,"time_elapsed":258317,"internal_node_id":"0.0-22.0","task_version":"battery-v0.2-trt"},{"rune":"A","rune_set":"bacs1","hex":"#3366ff99","correct":-1,"choice":-1,"rt":-1,"accuracy":1,"outcome":"+10","keys":[],"total_keys":0,"block":1,"trial":16,"stimulus":3,"robot":2,"valence":"win","action":"no-go","sham":0,"trial_type":"pit-trial","trial_index":67,"time_elapsed":262326,"internal_node_id":"0.0-23.0","task_version":"battery-v0.2-trt"},{"rune":"Q","rune_set":"bacs1","hex":"#f73b6a7A","correct":-1,"choice":-1,"rt":-1,"accuracy":1,"outcome":"-1","keys":[],"total_keys":0,"block":1,"trial":17,"stimulus":0,"robot":4,"valence":"lose","action":"no-go","sham":0,"trial_type":"pit-trial","trial_index":68,"time_elapsed":266338,"internal_node_id":"0.0-24.0","task_version":"battery-v0.2-trt"},{"rune":"A","rune_set":"bacs1","hex":"#3366ff99","correct":-1,"choice":-1,"rt":-1,"accuracy":1,"outcome":"+10","keys":[3024.2050000015297],"total_keys":1,"block":1,"trial":18,"stimulus":3,"robot":2,"valence":"win","action":"no-go","sham":0,"trial_type":"pit-trial","trial_index":69,"time_elapsed":270348,"internal_node_id":"0.0-25.0","task_version":"battery-v0.2-trt"},{"rune":"C","rune_set":"bacs1","hex":"#3366ff99","correct":32,"choice":-1,"rt":-1,"accuracy":0,"outcome":"+1","keys":[2986.0550000012154],"total_keys":1,"block":1,"trial":19,"stimulus":2,"robot":1,"valence":"win","action":"go","sham":0,"trial_type":"pit-trial","trial_index":70,"time_elapsed":274361,"internal_node_id":"0.0-26.0","task_version":"battery-v0.2-trt"},{"rune":"L","rune_set":"bacs1","hex":"#f73b6a7A","correct":-1,"choice":-1,"rt":-1,"accuracy":1,"outcome":"-1","keys":[],"total_keys":0,"block":1,"trial":20,"stimulus":1,"robot":4,"valence":"lose","action":"no-go","sham":0,"trial_type":"pit-trial","trial_index":71,"time_elapsed":278372,"internal_node_id":"0.0-27.0","task_version":"battery-v0.2-trt"},{"rune":"C","rune_set":"bacs1","hex":"#3366ff99","correct":32,"choice":-1,"rt":-1,"accuracy":0,"outcome":"+1","keys":[2838.660000001255],"total_keys":1,"block":1,"trial":21,"stimulus":2,"robot":1,"valence":"win","action":"go","sham":0,"trial_type":"pit-trial","trial_index":72,"time_elapsed":282383,"internal_node_id":"0.0-28.0","task_version":"battery-v0.2-trt"},{"rune":"L","rune_set":"bacs1","hex":"#f73b6a7A","correct":-1,"choice":-1,"rt":-1,"accuracy":1,"outcome":"-1","keys":[],"total_keys":0,"block":1,"trial":22,"stimulus":1,"robot":4,"valence":"lose","action":"no-go","sham":0,"trial_type":"pit-trial","trial_index":73,"time_elapsed":286395,"internal_node_id":"0.0-29.0","task_version":"battery-v0.2-trt"},{"rune":"Q","rune_set":"bacs1","hex":"#f73b6a7A","correct":-1,"choice":-1,"rt":-1,"accuracy":1,"outcome":"-1","keys":[],"total_keys":0,"block":1,"trial":23,"stimulus":0,"robot":4,"valence":"lose","action":"no-go","sham":0,"trial_type":"pit-trial","trial_index":74,"time_elapsed":290411,"internal_node_id":"0.0-30.0","task_version":"battery-v0.2-trt"},{"rune":"A","rune_set":"bacs1","hex":"#3366ff99","correct":-1,"choice":32,"rt":272.15499999874737,"accuracy":0,"outcome":"+1","keys":[1772.3800000021583],"total_keys":1,"block":1,"trial":24,"stimulus":3,"robot":2,"valence":"win","action":"no-go","sham":0,"trial_type":"pit-trial","trial_index":75,"time_elapsed":293400,"internal_node_id":"0.0-31.0","task_version":"battery-v0.2-trt"},{"rune":"Q","rune_set":"bacs1","hex":"#f73b6a7A","correct":-1,"choice":-1,"rt":-1,"accuracy":1,"outcome":"-1","keys":[],"total_keys":0,"block":1,"trial":25,"stimulus":0,"robot":4,"valence":"lose","action":"no-go","sham":0,"trial_type":"pit-trial","trial_index":76,"time_elapsed":297410,"internal_node_id":"0.0-32.0","task_version":"battery-v0.2-trt"},{"rune":"L","rune_set":"bacs1","hex":"#f73b6a7A","correct":-1,"choice":-1,"rt":-1,"accuracy":1,"outcome":"-10","keys":[],"total_keys":0,"block":1,"trial":26,"stimulus":1,"robot":4,"valence":"lose","action":"no-go","sham":1,"trial_type":"pit-trial","trial_index":77,"time_elapsed":301423,"internal_node_id":"0.0-33.0","task_version":"battery-v0.2-trt"},{"rune":"C","rune_set":"bacs1","hex":"#3366ff99","correct":32,"choice":32,"rt":342.0899999982794,"accuracy":1,"outcome":"+1","keys":[1843.5150000004796],"total_keys":1,"block":1,"trial":27,"stimulus":2,"robot":1,"valence":"win","action":"go","sham":1,"trial_type":"pit-trial","trial_index":78,"time_elapsed":304479,"internal_node_id":"0.0-34.0","task_version":"battery-v0.2-trt"},{"rune":"A","rune_set":"bacs1","hex":"#3366ff99","correct":-1,"choice":32,"rt":508.29000000521773,"accuracy":0,"outcome":"+1","keys":[2008.7100000018836],"total_keys":1,"block":1,"trial":28,"stimulus":3,"robot":2,"valence":"win","action":"no-go","sham":0,"trial_type":"pit-trial","trial_index":79,"time_elapsed":307699,"internal_node_id":"0.0-35.0","task_version":"battery-v0.2-trt"},{"rune":"L","rune_set":"bacs1","hex":"#f73b6a7A","correct":-1,"choice":-1,"rt":-1,"accuracy":1,"outcome":"-1","keys":[],"total_keys":0,"block":1,"trial":29,"stimulus":1,"robot":4,"valence":"lose","action":"no-go","sham":0,"trial_type":"pit-trial","trial_index":80,"time_elapsed":311711,"internal_node_id":"0.0-36.0","task_version":"battery-v0.2-trt"},{"rune":"C","rune_set":"bacs1","hex":"#3366ff99","correct":32,"choice":32,"rt":460.4899999976624,"accuracy":1,"outcome":"+10","keys":[1961.5199999971082],"total_keys":1,"block":1,"trial":30,"stimulus":2,"robot":1,"valence":"win","action":"go","sham":0,"trial_type":"pit-trial","trial_index":81,"time_elapsed":314883,"internal_node_id":"0.0-37.0","task_version":"battery-v0.2-trt"},{"rune":"Q","rune_set":"bacs1","hex":"#f73b6a7A","correct":-1,"choice":-1,"rt":-1,"accuracy":1,"outcome":"-10","keys":[],"total_keys":0,"block":1,"trial":31,"stimulus":0,"robot":4,"valence":"lose","action":"no-go","sham":1,"trial_type":"pit-trial","trial_index":82,"time_elapsed":318895,"internal_node_id":"0.0-38.0","task_version":"battery-v0.2-trt"},{"rune":"A","rune_set":"bacs1","hex":"#3366ff99","correct":-1,"choice":32,"rt":1002.6799999977811,"accuracy":0,"outcome":"+1","keys":[2502.999999996973],"total_keys":1,"block":1,"trial":32,"stimulus":3,"robot":2,"valence":"win","action":"no-go","sham":0,"trial_type":"pit-trial","trial_index":83,"time_elapsed":322609,"internal_node_id":"0.0-39.0","task_version":"battery-v0.2-trt"},{"rune":"C","rune_set":"bacs1","hex":"#3366ff99","correct":32,"choice":32,"rt":395.66499999637017,"accuracy":1,"outcome":"+10","keys":[1896.5950000056182],"total_keys":1,"block":1,"trial":33,"stimulus":2,"robot":1,"valence":"win","action":"go","sham":0,"trial_type":"pit-trial","trial_index":84,"time_elapsed":325716,"internal_node_id":"0.0-40.0","task_version":"battery-v0.2-trt"},{"rune":"Q","rune_set":"bacs1","hex":"#f73b6a7A","correct":-1,"choice":-1,"rt":-1,"accuracy":1,"outcome":"-1","keys":[],"total_keys":0,"block":1,"trial":34,"stimulus":0,"robot":4,"valence":"lose","action":"no-go","sham":0,"trial_type":"pit-trial","trial_index":85,"time_elapsed":329730,"internal_node_id":"0.0-41.0","task_version":"battery-v0.2-trt"},{"rune":"F","rune_set":"bacs1","hex":"#f73b6a7A","correct":32,"choice":-1,"rt":-1,"accuracy":0,"outcome":"-1","keys":[],"total_keys":0,"block":1,"trial":35,"stimulus":4,"robot":3,"valence":"lose","action":"go","sham":1,"trial_type":"pit-trial","trial_index":86,"time_elapsed":333741,"internal_node_id":"0.0-42.0","task_version":"battery-v0.2-trt"},{"rune":"A","rune_set":"bacs1","hex":"#3366ff99","correct":-1,"choice":-1,"rt":-1,"accuracy":1,"outcome":"+10","keys":[3512.670000003709],"total_keys":1,"block":1,"trial":36,"stimulus":3,"robot":2,"valence":"win","action":"no-go","sham":0,"trial_type":"pit-trial","trial_index":87,"time_elapsed":337752,"internal_node_id":"0.0-43.0","task_version":"battery-v0.2-trt"},{"rune":"Q","rune_set":"bacs1","hex":"#f73b6a7A","correct":-1,"choice":-1,"rt":-1,"accuracy":1,"outcome":"-10","keys":[],"total_keys":0,"block":1,"trial":37,"stimulus":0,"robot":4,"valence":"lose","action":"no-go","sham":1,"trial_type":"pit-trial","trial_index":88,"time_elapsed":341764,"internal_node_id":"0.0-44.0","task_version":"battery-v0.2-trt"},{"rune":"C","rune_set":"bacs1","hex":"#3366ff99","correct":32,"choice":-1,"rt":-1,"accuracy":0,"outcome":"+1","keys":[],"total_keys":0,"block":1,"trial":38,"stimulus":2,"robot":1,"valence":"win","action":"go","sham":0,"trial_type":"pit-trial","trial_index":89,"time_elapsed":345978,"internal_node_id":"0.0-45.0","task_version":"battery-v0.2-trt"},{"rune":"F","rune_set":"bacs1","hex":"#f73b6a7A","correct":32,"choice":-1,"rt":-1,"accuracy":0,"outcome":"-10","keys":[],"total_keys":0,"block":1,"trial":39,"stimulus":4,"robot":3,"valence":"lose","action":"go","sham":0,"trial_type":"pit-trial","trial_index":90,"time_elapsed":349995,"internal_node_id":"0.0-46.0","task_version":"battery-v0.2-trt"},{"rune":"A","rune_set":"bacs1","hex":"#3366ff99","correct":-1,"choice":32,"rt":1013.585000000603,"accuracy":0,"outcome":"+1","keys":[2514.6349999995437],"total_keys":1,"block":1,"trial":40,"stimulus":3,"robot":2,"valence":"win","action":"no-go","sham":0,"trial_type":"pit-trial","trial_index":91,"time_elapsed":353725,"internal_node_id":"0.0-47.0","task_version":"battery-v0.2-trt"},{"rune":"Q","rune_set":"bacs1","hex":"#f73b6a7A","correct":-1,"choice":-1,"rt":-1,"accuracy":1,"outcome":"-1","keys":[],"total_keys":0,"block":1,"trial":41,"stimulus":0,"robot":4,"valence":"lose","action":"no-go","sham":0,"trial_type":"pit-trial","trial_index":92,"time_elapsed":357736,"internal_node_id":"0.0-48.0","task_version":"battery-v0.2-trt"},{"rune":"E","rune_set":"bacs1","hex":"#3366ff99","correct":32,"choice":32,"rt":458.7699999974575,"accuracy":1,"outcome":"+10","keys":[1959.1250000012224],"total_keys":1,"block":1,"trial":42,"stimulus":6,"robot":1,"valence":"win","action":"go","sham":0,"trial_type":"pit-trial","trial_index":93,"time_elapsed":360908,"internal_node_id":"0.0-49.0","task_version":"battery-v0.2-trt"},{"rune":"F","rune_set":"bacs1","hex":"#f73b6a7A","correct":32,"choice":-1,"rt":-1,"accuracy":0,"outcome":"-1","keys":[],"total_keys":0,"block":1,"trial":43,"stimulus":4,"robot":3,"valence":"lose","action":"go","sham":1,"trial_type":"pit-trial","trial_index":94,"time_elapsed":364924,"internal_node_id":"0.0-50.0","task_version":"battery-v0.2-trt"},{"rune":"T","rune_set":"bacs1","hex":"#3366ff99","correct":-1,"choice":-1,"rt":-1,"accuracy":1,"outcome":"+10","keys":[],"total_keys":0,"block":1,"trial":44,"stimulus":5,"robot":2,"valence":"win","action":"no-go","sham":0,"trial_type":"pit-trial","trial_index":95,"time_elapsed":368938,"internal_node_id":"0.0-51.0","task_version":"battery-v0.2-trt"},{"rune":"F","rune_set":"bacs1","hex":"#f73b6a7A","correct":32,"choice":-1,"rt":-1,"accuracy":0,"outcome":"-10","keys":[],"total_keys":0,"block":1,"trial":45,"stimulus":4,"robot":3,"valence":"lose","action":"go","sham":0,"trial_type":"pit-trial","trial_index":96,"time_elapsed":372951,"internal_node_id":"0.0-52.0","task_version":"battery-v0.2-trt"},{"rune":"E","rune_set":"bacs1","hex":"#3366ff99","correct":32,"choice":-1,"rt":-1,"accuracy":0,"outcome":"+10","keys":[3271.2699999974575],"total_keys":1,"block":1,"trial":46,"stimulus":6,"robot":1,"valence":"win","action":"go","sham":1,"trial_type":"pit-trial","trial_index":97,"time_elapsed":376965,"internal_node_id":"0.0-53.0","task_version":"battery-v0.2-trt"},{"rune":"Q","rune_set":"bacs1","hex":"#f73b6a7A","correct":-1,"choice":-1,"rt":-1,"accuracy":1,"outcome":"-1","keys":[],"total_keys":0,"block":1,"trial":47,"stimulus":0,"robot":4,"valence":"lose","action":"no-go","sham":0,"trial_type":"pit-trial","trial_index":98,"time_elapsed":380977,"internal_node_id":"0.0-54.0","task_version":"battery-v0.2-trt"},{"rune":"T","rune_set":"bacs1","hex":"#3366ff99","correct":-1,"choice":-1,"rt":-1,"accuracy":1,"outcome":"+10","keys":[],"total_keys":0,"block":1,"trial":48,"stimulus":5,"robot":2,"valence":"win","action":"no-go","sham":0,"trial_type":"pit-trial","trial_index":99,"time_elapsed":384994,"internal_node_id":"0.0-55.0","task_version":"battery-v0.2-trt"},{"rune":"T","rune_set":"bacs1","hex":"#3366ff99","correct":-1,"choice":-1,"rt":-1,"accuracy":1,"outcome":"+10","keys":[],"total_keys":0,"block":1,"trial":49,"stimulus":5,"robot":2,"valence":"win","action":"no-go","sham":0,"trial_type":"pit-trial","trial_index":100,"time_elapsed":389005,"internal_node_id":"0.0-56.0","task_version":"battery-v0.2-trt"},{"rune":"E","rune_set":"bacs1","hex":"#3366ff99","correct":32,"choice":-1,"rt":-1,"accuracy":0,"outcome":"+1","keys":[],"total_keys":0,"block":1,"trial":50,"stimulus":6,"robot":1,"valence":"win","action":"go","sham":0,"trial_type":"pit-trial","trial_index":101,"time_elapsed":393017,"internal_node_id":"0.0-57.0","task_version":"battery-v0.2-trt"},{"rune":"F","rune_set":"bacs1","hex":"#f73b6a7A","correct":32,"choice":-1,"rt":-1,"accuracy":0,"outcome":"-1","keys":[],"total_keys":0,"block":1,"trial":51,"stimulus":4,"robot":3,"valence":"lose","action":"go","sham":1,"trial_type":"pit-trial","trial_index":102,"time_elapsed":397028,"internal_node_id":"0.0-58.0","task_version":"battery-v0.2-trt"},{"rune":"V","rune_set":"bacs1","hex":"#f73b6a7A","correct":-1,"choice":-1,"rt":-1,"accuracy":1,"outcome":"-10","keys":[],"total_keys":0,"block":1,"trial":52,"stimulus":7,"robot":4,"valence":"lose","action":"no-go","sham":1,"trial_type":"pit-trial","trial_index":103,"time_elapsed":401041,"internal_node_id":"0.0-59.0","task_version":"battery-v0.2-trt"},{"rune":"F","rune_set":"bacs1","hex":"#f73b6a7A","correct":32,"choice":-1,"rt":-1,"accuracy":0,"outcome":"-10","keys":[],"total_keys":0,"block":1,"trial":53,"stimulus":4,"robot":3,"valence":"lose","action":"go","sham":0,"trial_type":"pit-trial","trial_index":104,"time_elapsed":405051,"internal_node_id":"0.0-60.0","task_version":"battery-v0.2-trt"},{"rune":"E","rune_set":"bacs1","hex":"#3366ff99","correct":32,"choice":-1,"rt":-1,"accuracy":0,"outcome":"+1","keys":[],"total_keys":0,"block":1,"trial":54,"stimulus":6,"robot":1,"valence":"win","action":"go","sham":0,"trial_type":"pit-trial","trial_index":105,"time_elapsed":409064,"internal_node_id":"0.0-61.0","task_version":"battery-v0.2-trt"},{"rune":"T","rune_set":"bacs1","hex":"#3366ff99","correct":-1,"choice":-1,"rt":-1,"accuracy":1,"outcome":"+10","keys":[],"total_keys":0,"block":1,"trial":55,"stimulus":5,"robot":2,"valence":"win","action":"no-go","sham":0,"trial_type":"pit-trial","trial_index":106,"time_elapsed":413075,"internal_node_id":"0.0-62.0","task_version":"battery-v0.2-trt"},{"rune":"V","rune_set":"bacs1","hex":"#f73b6a7A","correct":-1,"choice":-1,"rt":-1,"accuracy":1,"outcome":"-1","keys":[],"total_keys":0,"block":1,"trial":56,"stimulus":7,"robot":4,"valence":"lose","action":"no-go","sham":0,"trial_type":"pit-trial","trial_index":107,"time_elapsed":417088,"internal_node_id":"0.0-63.0","task_version":"battery-v0.2-trt"},{"rune":"V","rune_set":"bacs1","hex":"#f73b6a7A","correct":-1,"choice":-1,"rt":-1,"accuracy":1,"outcome":"-1","keys":[],"total_keys":0,"block":1,"trial":57,"stimulus":7,"robot":4,"valence":"lose","action":"no-go","sham":0,"trial_type":"pit-trial","trial_index":108,"time_elapsed":421102,"internal_node_id":"0.0-64.0","task_version":"battery-v0.2-trt"},{"rune":"E","rune_set":"bacs1","hex":"#3366ff99","correct":32,"choice":-1,"rt":-1,"accuracy":0,"outcome":"+1","keys":[],"total_keys":0,"block":1,"trial":58,"stimulus":6,"robot":1,"valence":"win","action":"go","sham":0,"trial_type":"pit-trial","trial_index":109,"time_elapsed":425115,"internal_node_id":"0.0-65.0","task_version":"battery-v0.2-trt"},{"rune":"F","rune_set":"bacs1","hex":"#f73b6a7A","correct":32,"choice":-1,"rt":-1,"accuracy":0,"outcome":"-10","keys":[],"total_keys":0,"block":1,"trial":59,"stimulus":4,"robot":3,"valence":"lose","action":"go","sham":0,"trial_type":"pit-trial","trial_index":110,"time_elapsed":429127,"internal_node_id":"0.0-66.0","task_version":"battery-v0.2-trt"},{"rune":"T","rune_set":"bacs1","hex":"#3366ff99","correct":-1,"choice":32,"rt":781.7849999992177,"accuracy":0,"outcome":"+1","keys":[2282.199999994191],"total_keys":1,"block":1,"trial":60,"stimulus":5,"robot":2,"valence":"win","action":"no-go","sham":0,"trial_type":"pit-trial","trial_index":111,"time_elapsed":432620,"internal_node_id":"0.0-67.0","task_version":"battery-v0.2-trt"},{"rune":"T","rune_set":"bacs1","hex":"#3366ff99","correct":-1,"choice":-1,"rt":-1,"accuracy":1,"outcome":"+10","keys":[],"total_keys":0,"block":1,"trial":61,"stimulus":5,"robot":2,"valence":"win","action":"no-go","sham":0,"trial_type":"pit-trial","trial_index":112,"time_elapsed":436630,"internal_node_id":"0.0-68.0","task_version":"battery-v0.2-trt"},{"rune":"V","rune_set":"bacs1","hex":"#f73b6a7A","correct":-1,"choice":-1,"rt":-1,"accuracy":1,"outcome":"-1","keys":[],"total_keys":0,"block":1,"trial":62,"stimulus":7,"robot":4,"valence":"lose","action":"no-go","sham":0,"trial_type":"pit-trial","trial_index":113,"time_elapsed":440641,"internal_node_id":"0.0-69.0","task_version":"battery-v0.2-trt"},{"rune":"E","rune_set":"bacs1","hex":"#3366ff99","correct":32,"choice":-1,"rt":-1,"accuracy":0,"outcome":"+1","keys":[],"total_keys":0,"block":1,"trial":63,"stimulus":6,"robot":1,"valence":"win","action":"go","sham":0,"trial_type":"pit-trial","trial_index":114,"time_elapsed":444650,"internal_node_id":"0.0-70.0","task_version":"battery-v0.2-trt"},{"rune":"F","rune_set":"bacs1","hex":"#f73b6a7A","correct":32,"choice":-1,"rt":-1,"accuracy":0,"outcome":"-10","keys":[],"total_keys":0,"block":1,"trial":64,"stimulus":4,"robot":3,"valence":"lose","action":"go","sham":0,"trial_type":"pit-trial","trial_index":115,"time_elapsed":448661,"internal_node_id":"0.0-71.0","task_version":"battery-v0.2-trt"},{"rune":"F","rune_set":"bacs1","hex":"#f73b6a7A","correct":32,"choice":-1,"rt":-1,"accuracy":0,"outcome":"-10","keys":[],"total_keys":0,"block":1,"trial":65,"stimulus":4,"robot":3,"valence":"lose","action":"go","sham":0,"trial_type":"pit-trial","trial_index":116,"time_elapsed":452673,"internal_node_id":"0.0-72.0","task_version":"battery-v0.2-trt"},{"rune":"E","rune_set":"bacs1","hex":"#3366ff99","correct":32,"choice":-1,"rt":-1,"accuracy":0,"outcome":"+1","keys":[],"total_keys":0,"block":1,"trial":66,"stimulus":6,"robot":1,"valence":"win","action":"go","sham":0,"trial_type":"pit-trial","trial_index":117,"time_elapsed":456685,"internal_node_id":"0.0-73.0","task_version":"battery-v0.2-trt"},{"rune":"T","rune_set":"bacs1","hex":"#3366ff99","correct":-1,"choice":-1,"rt":-1,"accuracy":1,"outcome":"+10","keys":[2815.3700000038953],"total_keys":1,"block":1,"trial":67,"stimulus":5,"robot":2,"valence":"win","action":"no-go","sham":0,"trial_type":"pit-trial","trial_index":118,"time_elapsed":460699,"internal_node_id":"0.0-74.0","task_version":"battery-v0.2-trt"},{"rune":"V","rune_set":"bacs1","hex":"#f73b6a7A","correct":-1,"choice":-1,"rt":-1,"accuracy":1,"outcome":"-1","keys":[],"total_keys":0,"block":1,"trial":68,"stimulus":7,"robot":4,"valence":"lose","action":"no-go","sham":0,"trial_type":"pit-trial","trial_index":119,"time_elapsed":464711,"internal_node_id":"0.0-75.0","task_version":"battery-v0.2-trt"},{"rune":"F","rune_set":"bacs1","hex":"#f73b6a7A","correct":32,"choice":-1,"rt":-1,"accuracy":0,"outcome":"-10","keys":[],"total_keys":0,"block":1,"trial":69,"stimulus":4,"robot":3,"valence":"lose","action":"go","sham":0,"trial_type":"pit-trial","trial_index":120,"time_elapsed":468723,"internal_node_id":"0.0-76.0","task_version":"battery-v0.2-trt"},{"rune":"V","rune_set":"bacs1","hex":"#f73b6a7A","correct":-1,"choice":-1,"rt":-1,"accuracy":1,"outcome":"-1","keys":[],"total_keys":0,"block":1,"trial":70,"stimulus":7,"robot":4,"valence":"lose","action":"no-go","sham":0,"trial_type":"pit-trial","trial_index":121,"time_elapsed":472735,"internal_node_id":"0.0-77.0","task_version":"battery-v0.2-trt"},{"rune":"E","rune_set":"bacs1","hex":"#3366ff99","correct":32,"choice":32,"rt":1187.709999998333,"accuracy":1,"outcome":"+10","keys":[2688.880000001518],"total_keys":1,"block":1,"trial":71,"stimulus":6,"robot":1,"valence":"win","action":"go","sham":0,"trial_type":"pit-trial","trial_index":122,"time_elapsed":476633,"internal_node_id":"0.0-78.0","task_version":"battery-v0.2-trt"},{"rune":"T","rune_set":"bacs1","hex":"#3366ff99","correct":-1,"choice":-1,"rt":-1,"accuracy":1,"outcome":"+10","keys":[],"total_keys":0,"block":1,"trial":72,"stimulus":5,"robot":2,"valence":"win","action":"no-go","sham":0,"trial_type":"pit-trial","trial_index":123,"time_elapsed":480645,"internal_node_id":"0.0-79.0","task_version":"battery-v0.2-trt"},{"rune":"R","rune_set":"bacs1","hex":"#3366ff99","correct":32,"choice":-1,"rt":-1,"accuracy":0,"outcome":"+1","keys":[181.82000000524567],"total_keys":1,"block":1,"trial":73,"stimulus":8,"robot":1,"valence":"win","action":"go","sham":0,"trial_type":"pit-trial","trial_index":124,"time_elapsed":484657,"internal_node_id":"0.0-80.0","task_version":"battery-v0.2-trt"},{"rune":"V","rune_set":"bacs1","hex":"#f73b6a7A","correct":-1,"choice":-1,"rt":-1,"accuracy":1,"outcome":"-10","keys":[275.8400000020629],"total_keys":1,"block":1,"trial":74,"stimulus":7,"robot":4,"valence":"lose","action":"no-go","sham":1,"trial_type":"pit-trial","trial_index":125,"time_elapsed":488670,"internal_node_id":"0.0-81.0","task_version":"battery-v0.2-trt"},{"rune":"T","rune_set":"bacs1","hex":"#3366ff99","correct":-1,"choice":32,"rt":847.2550000005867,"accuracy":0,"outcome":"+1","keys":[2348.2550000044284],"total_keys":1,"block":1,"trial":75,"stimulus":5,"robot":2,"valence":"win","action":"no-go","sham":0,"trial_type":"pit-trial","trial_index":126,"time_elapsed":492231,"internal_node_id":"0.0-82.0","task_version":"battery-v0.2-trt"},{"rune":"J","rune_set":"bacs1","hex":"#f73b6a7A","correct":32,"choice":-1,"rt":-1,"accuracy":0,"outcome":"-10","keys":[],"total_keys":0,"block":1,"trial":76,"stimulus":9,"robot":3,"valence":"lose","action":"go","sham":0,"trial_type":"pit-trial","trial_index":127,"time_elapsed":496243,"internal_node_id":"0.0-83.0","task_version":"battery-v0.2-trt"},{"rune":"T","rune_set":"bacs1","hex":"#3366ff99","correct":-1,"choice":32,"rt":292.32000000047265,"accuracy":0,"outcome":"+1","keys":[1793.2199999995646],"total_keys":1,"block":1,"trial":77,"stimulus":5,"robot":2,"valence":"win","action":"no-go","sham":0,"trial_type":"pit-trial","trial_index":128,"time_elapsed":499247,"internal_node_id":"0.0-84.0","task_version":"battery-v0.2-trt"},{"rune":"V","rune_set":"bacs1","hex":"#f73b6a7A","correct":-1,"choice":-1,"rt":-1,"accuracy":1,"outcome":"-10","keys":[],"total_keys":0,"block":1,"trial":78,"stimulus":7,"robot":4,"valence":"lose","action":"no-go","sham":1,"trial_type":"pit-trial","trial_index":129,"time_elapsed":503257,"internal_node_id":"0.0-85.0","task_version":"battery-v0.2-trt"},{"rune":"J","rune_set":"bacs1","hex":"#f73b6a7A","correct":32,"choice":-1,"rt":-1,"accuracy":0,"outcome":"-10","keys":[],"total_keys":0,"block":1,"trial":79,"stimulus":9,"robot":3,"valence":"lose","action":"go","sham":0,"trial_type":"pit-trial","trial_index":130,"time_elapsed":507270,"internal_node_id":"0.0-86.0","task_version":"battery-v0.2-trt"},{"rune":"R","rune_set":"bacs1","hex":"#3366ff99","correct":32,"choice":32,"rt":505.5750000028638,"accuracy":1,"outcome":"+10","keys":[2006.280000001425],"total_keys":1,"block":1,"trial":80,"stimulus":8,"robot":1,"valence":"win","action":"go","sham":0,"trial_type":"pit-trial","trial_index":131,"time_elapsed":510486,"internal_node_id":"0.0-87.0","task_version":"battery-v0.2-trt"},{"rune":"T","rune_set":"bacs1","hex":"#3366ff99","correct":-1,"choice":32,"rt":894.1300000005867,"accuracy":0,"outcome":"+1","keys":[2395.3049999981886],"total_keys":1,"block":1,"trial":81,"stimulus":5,"robot":2,"valence":"win","action":"no-go","sham":0,"trial_type":"pit-trial","trial_index":132,"time_elapsed":514093,"internal_node_id":"0.0-88.0","task_version":"battery-v0.2-trt"},{"rune":"V","rune_set":"bacs1","hex":"#f73b6a7A","correct":-1,"choice":-1,"rt":-1,"accuracy":1,"outcome":"-1","keys":[],"total_keys":0,"block":1,"trial":82,"stimulus":7,"robot":4,"valence":"lose","action":"no-go","sham":0,"trial_type":"pit-trial","trial_index":133,"time_elapsed":518105,"internal_node_id":"0.0-89.0","task_version":"battery-v0.2-trt"},{"rune":"J","rune_set":"bacs1","hex":"#f73b6a7A","correct":32,"choice":-1,"rt":-1,"accuracy":0,"outcome":"-10","keys":[],"total_keys":0,"block":1,"trial":83,"stimulus":9,"robot":3,"valence":"lose","action":"go","sham":0,"trial_type":"pit-trial","trial_index":134,"time_elapsed":522115,"internal_node_id":"0.0-90.0","task_version":"battery-v0.2-trt"},{"rune":"R","rune_set":"bacs1","hex":"#3366ff99","correct":32,"choice":32,"rt":245.97999999974854,"accuracy":1,"outcome":"+1","keys":[1747.8550000013784],"total_keys":1,"block":1,"trial":84,"stimulus":8,"robot":1,"valence":"win","action":"go","sham":1,"trial_type":"pit-trial","trial_index":135,"time_elapsed":525075,"internal_node_id":"0.0-91.0","task_version":"battery-v0.2-trt"},{"rune":"T","rune_set":"bacs1","hex":"#3366ff99","correct":-1,"choice":32,"rt":428.85499999823514,"accuracy":0,"outcome":"+1","keys":[1929.0550000004005],"total_keys":1,"block":1,"trial":85,"stimulus":5,"robot":2,"valence":"win","action":"no-go","sham":0,"trial_type":"pit-trial","trial_index":136,"time_elapsed":528214,"internal_node_id":"0.0-92.0","task_version":"battery-v0.2-trt"},{"rune":"J","rune_set":"bacs1","hex":"#f73b6a7A","correct":32,"choice":32,"rt":307.82499999622814,"accuracy":1,"outcome":"-1","keys":[1809.9049999946728],"total_keys":1,"block":1,"trial":86,"stimulus":9,"robot":3,"valence":"lose","action":"go","sham":0,"trial_type":"pit-trial","trial_index":137,"time_elapsed":531235,"internal_node_id":"0.0-93.0","task_version":"battery-v0.2-trt"},{"rune":"R","rune_set":"bacs1","hex":"#3366ff99","correct":32,"choice":32,"rt":300.34499999601394,"accuracy":1,"outcome":"+10","keys":[1801.670000000624],"total_keys":1,"block":1,"trial":87,"stimulus":8,"robot":1,"valence":"win","action":"go","sham":0,"trial_type":"pit-trial","trial_index":138,"time_elapsed":534248,"internal_node_id":"0.0-94.0","task_version":"battery-v0.2-trt"},{"rune":"V","rune_set":"bacs1","hex":"#f73b6a7A","correct":-1,"choice":32,"rt":583.5049999949988,"accuracy":0,"outcome":"-1","keys":[2084.1749999963213],"total_keys":1,"block":1,"trial":88,"stimulus":7,"robot":4,"valence":"lose","action":"no-go","sham":1,"trial_type":"pit-trial","trial_index":139,"time_elapsed":537542,"internal_node_id":"0.0-95.0","task_version":"battery-v0.2-trt"},{"rune":"B","rune_set":"bacs1","hex":"#3366ff99","correct":-1,"choice":32,"rt":360.36500000045635,"accuracy":0,"outcome":"+1","keys":[1860.7300000003306],"total_keys":1,"block":1,"trial":89,"stimulus":11,"robot":2,"valence":"win","action":"no-go","sham":0,"trial_type":"pit-trial","trial_index":140,"time_elapsed":540614,"internal_node_id":"0.0-96.0","task_version":"battery-v0.2-trt"},{"rune":"R","rune_set":"bacs1","hex":"#3366ff99","correct":32,"choice":32,"rt":423.96999999624677,"accuracy":1,"outcome":"+10","keys":[1924.8349999978673],"total_keys":1,"block":1,"trial":90,"stimulus":8,"robot":1,"valence":"win","action":"go","sham":0,"trial_type":"pit-trial","trial_index":141,"time_elapsed":543748,"internal_node_id":"0.0-97.0","task_version":"battery-v0.2-trt"},{"rune":"J","rune_set":"bacs1","hex":"#f73b6a7A","correct":32,"choice":-1,"rt":-1,"accuracy":0,"outcome":"-10","keys":[],"total_keys":0,"block":1,"trial":91,"stimulus":9,"robot":3,"valence":"lose","action":"go","sham":0,"trial_type":"pit-trial","trial_index":142,"time_elapsed":547760,"internal_node_id":"0.0-98.0","task_version":"battery-v0.2-trt"},{"rune":"Z","rune_set":"bacs1","hex":"#f73b6a7A","correct":32,"choice":-1,"rt":-1,"accuracy":0,"outcome":"-10","keys":[3204.6149999951012],"total_keys":1,"block":1,"trial":92,"stimulus":10,"robot":3,"valence":"lose","action":"go","sham":0,"trial_type":"pit-trial","trial_index":143,"time_elapsed":551771,"internal_node_id":"0.0-99.0","task_version":"battery-v0.2-trt"},{"rune":"J","rune_set":"bacs1","hex":"#f73b6a7A","correct":32,"choice":-1,"rt":-1,"accuracy":0,"outcome":"-1","keys":[],"total_keys":0,"block":1,"trial":93,"stimulus":9,"robot":3,"valence":"lose","action":"go","sham":1,"trial_type":"pit-trial","trial_index":144,"time_elapsed":555783,"internal_node_id":"0.0-100.0","task_version":"battery-v0.2-trt"},{"rune":"R","rune_set":"bacs1","hex":"#3366ff99","correct":32,"choice":32,"rt":347.3500000035856,"accuracy":1,"outcome":"+10","keys":[1847.4749999949709],"total_keys":1,"block":1,"trial":94,"stimulus":8,"robot":1,"valence":"win","action":"go","sham":0,"trial_type":"pit-trial","trial_index":145,"time_elapsed":558841,"internal_node_id":"0.0-101.0","task_version":"battery-v0.2-trt"},{"rune":"B","rune_set":"bacs1","hex":"#3366ff99","correct":-1,"choice":-1,"rt":-1,"accuracy":1,"outcome":"+1","keys":[3318.1899999980815],"total_keys":1,"block":1,"trial":95,"stimulus":11,"robot":2,"valence":"win","action":"no-go","sham":1,"trial_type":"pit-trial","trial_index":146,"time_elapsed":562852,"internal_node_id":"0.0-102.0","task_version":"battery-v0.2-trt"},{"rune":"Z","rune_set":"bacs1","hex":"#f73b6a7A","correct":32,"choice":32,"rt":426.4499999990221,"accuracy":1,"outcome":"-1","keys":[1928.2400000010384],"total_keys":1,"block":1,"trial":96,"stimulus":10,"robot":3,"valence":"lose","action":"go","sham":0,"trial_type":"pit-trial","trial_index":147,"time_elapsed":565991,"internal_node_id":"0.0-103.0","task_version":"battery-v0.2-trt"},{"rune":"J","rune_set":"bacs1","hex":"#f73b6a7A","correct":32,"choice":32,"rt":504.81500000017695,"accuracy":1,"outcome":"-1","keys":[2006.7699999999022],"total_keys":1,"block":1,"trial":97,"stimulus":9,"robot":3,"valence":"lose","action":"go","sham":0,"trial_type":"pit-trial","trial_index":148,"time_elapsed":569209,"internal_node_id":"0.0-104.0","task_version":"battery-v0.2-trt"},{"rune":"B","rune_set":"bacs1","hex":"#3366ff99","correct":-1,"choice":32,"rt":317.72999999520835,"accuracy":0,"outcome":"+1","keys":[1818.6449999993201],"total_keys":1,"block":1,"trial":98,"stimulus":11,"robot":2,"valence":"win","action":"no-go","sham":0,"trial_type":"pit-trial","trial_index":149,"time_elapsed":572238,"internal_node_id":"0.0-105.0","task_version":"battery-v0.2-trt"},{"rune":"R","rune_set":"bacs1","hex":"#3366ff99","correct":32,"choice":32,"rt":303.75500000081956,"accuracy":1,"outcome":"+10","keys":[1805.7950000001583],"total_keys":1,"block":1,"trial":99,"stimulus":8,"robot":1,"valence":"win","action":"go","sham":0,"trial_type":"pit-trial","trial_index":150,"time_elapsed":575254,"internal_node_id":"0.0-106.0","task_version":"battery-v0.2-trt"},{"rune":"Z","rune_set":"bacs1","hex":"#f73b6a7A","correct":32,"choice":32,"rt":444.1399999995483,"accuracy":1,"outcome":"-1","keys":[1944.42500000156],"total_keys":1,"block":1,"trial":100,"stimulus":10,"robot":3,"valence":"lose","action":"go","sham":0,"trial_type":"pit-trial","trial_index":151,"time_elapsed":578421,"internal_node_id":"0.0-107.0","task_version":"battery-v0.2-trt"},{"rune":"R","rune_set":"bacs1","hex":"#3366ff99","correct":32,"choice":32,"rt":287.0550000007497,"accuracy":1,"outcome":"+10","keys":[1787.9600000014761],"total_keys":1,"block":1,"trial":101,"stimulus":8,"robot":1,"valence":"win","action":"go","sham":0,"trial_type":"pit-trial","trial_index":152,"time_elapsed":581421,"internal_node_id":"0.0-108.0","task_version":"battery-v0.2-trt"},{"rune":"J","rune_set":"bacs1","hex":"#f73b6a7A","correct":32,"choice":32,"rt":737.0149999987334,"accuracy":1,"outcome":"-1","keys":[2238.3049999990035],"total_keys":1,"block":1,"trial":102,"stimulus":9,"robot":3,"valence":"lose","action":"go","sham":0,"trial_type":"pit-trial","trial_index":153,"time_elapsed":584871,"internal_node_id":"0.0-109.0","task_version":"battery-v0.2-trt"},{"rune":"Z","rune_set":"bacs1","hex":"#f73b6a7A","correct":32,"choice":32,"rt":381.31499999866355,"accuracy":1,"outcome":"-1","keys":[1881.3500000032363],"total_keys":1,"block":1,"trial":103,"stimulus":10,"robot":3,"valence":"lose","action":"go","sham":0,"trial_type":"pit-trial","trial_index":154,"time_elapsed":587963,"internal_node_id":"0.0-110.0","task_version":"battery-v0.2-trt"},{"rune":"B","rune_set":"bacs1","hex":"#3366ff99","correct":-1,"choice":32,"rt":572.8000000017928,"accuracy":0,"outcome":"+1","keys":[2073.465000001248],"total_keys":1,"block":1,"trial":104,"stimulus":11,"robot":2,"valence":"win","action":"no-go","sham":0,"trial_type":"pit-trial","trial_index":155,"time_elapsed":591247,"internal_node_id":"0.0-111.0","task_version":"battery-v0.2-trt"},{"rune":"R","rune_set":"bacs1","hex":"#3366ff99","correct":32,"choice":32,"rt":260.2049999986775,"accuracy":1,"outcome":"+10","keys":[1761.0950000017183],"total_keys":1,"block":1,"trial":105,"stimulus":8,"robot":1,"valence":"win","action":"go","sham":0,"trial_type":"pit-trial","trial_index":156,"time_elapsed":594220,"internal_node_id":"0.0-112.0","task_version":"battery-v0.2-trt"},{"rune":"B","rune_set":"bacs1","hex":"#3366ff99","correct":-1,"choice":32,"rt":264.93499999912456,"accuracy":0,"outcome":"+1","keys":[1765.834999998333],"total_keys":1,"block":1,"trial":106,"stimulus":11,"robot":2,"valence":"win","action":"no-go","sham":0,"trial_type":"pit-trial","trial_index":157,"time_elapsed":597198,"internal_node_id":"0.0-113.0","task_version":"battery-v0.2-trt"},{"rune":"J","rune_set":"bacs1","hex":"#f73b6a7A","correct":32,"choice":32,"rt":578.2149999940302,"accuracy":1,"outcome":"-1","keys":[2078.4050000001444],"total_keys":1,"block":1,"trial":107,"stimulus":9,"robot":3,"valence":"lose","action":"go","sham":0,"trial_type":"pit-trial","trial_index":158,"time_elapsed":600489,"internal_node_id":"0.0-114.0","task_version":"battery-v0.2-trt"},{"rune":"Z","rune_set":"bacs1","hex":"#f73b6a7A","correct":32,"choice":32,"rt":396.3800000055926,"accuracy":1,"outcome":"-10","keys":[1897.2649999996647],"total_keys":1,"block":1,"trial":108,"stimulus":10,"robot":3,"valence":"lose","action":"go","sham":1,"trial_type":"pit-trial","trial_index":159,"time_elapsed":603598,"internal_node_id":"0.0-115.0","task_version":"battery-v0.2-trt"},{"rune":"B","rune_set":"bacs1","hex":"#3366ff99","correct":-1,"choice":32,"rt":610.0349999979371,"accuracy":0,"outcome":"+1","keys":[2111.6799999944633],"total_keys":1,"block":1,"trial":109,"stimulus":11,"robot":2,"valence":"win","action":"no-go","sham":0,"trial_type":"pit-trial","trial_index":160,"time_elapsed":606926,"internal_node_id":"0.0-116.0","task_version":"battery-v0.2-trt"},{"rune":"J","rune_set":"bacs1","hex":"#f73b6a7A","correct":32,"choice":32,"rt":613.0399999965448,"accuracy":1,"outcome":"-10","keys":[2113.3350000018254],"total_keys":1,"block":1,"trial":110,"stimulus":9,"robot":3,"valence":"lose","action":"go","sham":1,"trial_type":"pit-trial","trial_index":161,"time_elapsed":610251,"internal_node_id":"0.0-117.0","task_version":"battery-v0.2-trt"},{"rune":"Z","rune_set":"bacs1","hex":"#f73b6a7A","correct":32,"choice":32,"rt":766.2099999942584,"accuracy":1,"outcome":"-1","keys":[2268.2700000004843],"total_keys":1,"block":1,"trial":111,"stimulus":10,"robot":3,"valence":"lose","action":"go","sham":0,"trial_type":"pit-trial","trial_index":162,"time_elapsed":613731,"internal_node_id":"0.0-118.0","task_version":"battery-v0.2-trt"},{"rune":"R","rune_set":"bacs1","hex":"#3366ff99","correct":32,"choice":32,"rt":383.8949999989709,"accuracy":1,"outcome":"+1","keys":[1884.7600000008242],"total_keys":1,"block":1,"trial":112,"stimulus":8,"robot":1,"valence":"win","action":"go","sham":1,"trial_type":"pit-trial","trial_index":163,"time_elapsed":616829,"internal_node_id":"0.0-119.0","task_version":"battery-v0.2-trt"},{"rune":"R","rune_set":"bacs1","hex":"#3366ff99","correct":32,"choice":-1,"rt":-1,"accuracy":0,"outcome":"+1","keys":[2866.6599999996834],"total_keys":1,"block":1,"trial":113,"stimulus":8,"robot":1,"valence":"win","action":"go","sham":0,"trial_type":"pit-trial","trial_index":164,"time_elapsed":620842,"internal_node_id":"0.0-120.0","task_version":"battery-v0.2-trt"},{"rune":"Z","rune_set":"bacs1","hex":"#f73b6a7A","correct":32,"choice":32,"rt":1087.1249999982538,"accuracy":1,"outcome":"-10","keys":[2588.4749999968335],"total_keys":1,"block":1,"trial":114,"stimulus":10,"robot":3,"valence":"lose","action":"go","sham":1,"trial_type":"pit-trial","trial_index":165,"time_elapsed":624642,"internal_node_id":"0.0-121.0","task_version":"battery-v0.2-trt"},{"rune":"B","rune_set":"bacs1","hex":"#3366ff99","correct":-1,"choice":-1,"rt":-1,"accuracy":1,"outcome":"+10","keys":[3132.955000001006],"total_keys":1,"block":1,"trial":115,"stimulus":11,"robot":2,"valence":"win","action":"no-go","sham":0,"trial_type":"pit-trial","trial_index":166,"time_elapsed":628654,"internal_node_id":"0.0-122.0","task_version":"battery-v0.2-trt"},{"rune":"J","rune_set":"bacs1","hex":"#f73b6a7A","correct":32,"choice":32,"rt":389.32000000204425,"accuracy":1,"outcome":"-1","keys":[1891.1999999980908],"total_keys":1,"block":1,"trial":116,"stimulus":9,"robot":3,"valence":"lose","action":"go","sham":0,"trial_type":"pit-trial","trial_index":167,"time_elapsed":631756,"internal_node_id":"0.0-123.0","task_version":"battery-v0.2-trt"},{"rune":"Z","rune_set":"bacs1","hex":"#f73b6a7A","correct":32,"choice":32,"rt":1176.4399999957532,"accuracy":1,"outcome":"-1","keys":[2676.5450000021374],"total_keys":1,"block":1,"trial":117,"stimulus":10,"robot":3,"valence":"lose","action":"go","sham":0,"trial_type":"pit-trial","trial_index":168,"time_elapsed":635644,"internal_node_id":"0.0-124.0","task_version":"battery-v0.2-trt"},{"rune":"R","rune_set":"bacs1","hex":"#3366ff99","correct":32,"choice":32,"rt":664.3849999964004,"accuracy":1,"outcome":"+1","keys":[2164.824999999837],"total_keys":1,"block":1,"trial":118,"stimulus":8,"robot":1,"valence":"win","action":"go","sham":1,"trial_type":"pit-trial","trial_index":169,"time_elapsed":639020,"internal_node_id":"0.0-125.0","task_version":"battery-v0.2-trt"},{"rune":"J","rune_set":"bacs1","hex":"#f73b6a7A","correct":32,"choice":-1,"rt":-1,"accuracy":0,"outcome":"-10","keys":[3405.9699999998556],"total_keys":1,"block":1,"trial":119,"stimulus":9,"robot":3,"valence":"lose","action":"go","sham":0,"trial_type":"pit-trial","trial_index":170,"time_elapsed":643032,"internal_node_id":"0.0-126.0","task_version":"battery-v0.2-trt"},{"rune":"B","rune_set":"bacs1","hex":"#3366ff99","correct":-1,"choice":32,"rt":870.7999999970198,"accuracy":0,"outcome":"+1","keys":[2371.435000000871],"total_keys":1,"block":1,"trial":120,"stimulus":11,"robot":2,"valence":"win","action":"no-go","sham":0,"trial_type":"pit-trial","trial_index":171,"time_elapsed":646614,"internal_node_id":"0.0-127.0","task_version":"battery-v0.2-trt"},{"view_history":"[{\"page_index\":0,\"viewing_time\":7663.68499999959},{\"page_index\":1,\"viewing_time\":1423.7649999995483}]","rt":9088.100000000908,"trial_type":"pit-instructions","trial_index":172,"time_elapsed":655712,"internal_node_id":"0.0-128.0","task_version":"battery-v0.2-trt"},{"rune":"G","rune_set":"bacs1","hex":"#3366ff99","correct":32,"choice":32,"rt":316.08000000426546,"accuracy":1,"outcome":"+10","keys":[1817.5000000046566],"total_keys":1,"block":2,"trial":121,"stimulus":1,"robot":1,"valence":"win","action":"go","sham":0,"trial_type":"pit-trial","trial_index":173,"time_elapsed":658742,"internal_node_id":"0.0-129.0","task_version":"battery-v0.2-trt"},{"rune":"N","rune_set":"bacs1","hex":"#3366ff99","correct":-1,"choice":32,"rt":271.41500000294764,"accuracy":0,"outcome":"+1","keys":[1771.7300000003306],"total_keys":1,"block":2,"trial":122,"stimulus":0,"robot":2,"valence":"win","action":"no-go","sham":0,"trial_type":"pit-trial","trial_index":174,"time_elapsed":661724,"internal_node_id":"0.0-130.0","task_version":"battery-v0.2-trt"},{"rune":"I","rune_set":"bacs1","hex":"#f73b6a7A","correct":-1,"choice":32,"rt":524.0149999954738,"accuracy":0,"outcome":"-10","keys":[2025.6200000003446],"total_keys":1,"block":2,"trial":123,"stimulus":2,"robot":4,"valence":"lose","action":"no-go","sham":0,"trial_type":"pit-trial","trial_index":175,"time_elapsed":664960,"internal_node_id":"0.0-131.0","task_version":"battery-v0.2-trt"},{"rune":"O","rune_set":"bacs1","hex":"#3366ff99","correct":32,"choice":32,"rt":533.0499999981839,"accuracy":1,"outcome":"+10","keys":[2033.115000005695],"total_keys":1,"block":2,"trial":124,"stimulus":3,"robot":1,"valence":"win","action":"go","sham":0,"trial_type":"pit-trial","trial_index":176,"time_elapsed":668203,"internal_node_id":"0.0-132.0","task_version":"battery-v0.2-trt"},{"rune":"I","rune_set":"bacs1","hex":"#f73b6a7A","correct":-1,"choice":32,"rt":842.5199999982724,"accuracy":0,"outcome":"-10","keys":[2342.9499999983236],"total_keys":1,"block":2,"trial":125,"stimulus":2,"robot":4,"valence":"lose","action":"no-go","sham":0,"trial_type":"pit-trial","trial_index":177,"time_elapsed":671757,"internal_node_id":"0.0-133.0","task_version":"battery-v0.2-trt"},{"rune":"G","rune_set":"bacs1","hex":"#3366ff99","correct":32,"choice":32,"rt":1031.8699999989476,"accuracy":1,"outcome":"+10","keys":[2533.3150000006426],"total_keys":1,"block":2,"trial":126,"stimulus":1,"robot":1,"valence":"win","action":"go","sham":0,"trial_type":"pit-trial","trial_index":178,"time_elapsed":675502,"internal_node_id":"0.0-134.0","task_version":"battery-v0.2-trt"},{"rune":"O","rune_set":"bacs1","hex":"#3366ff99","correct":32,"choice":32,"rt":932.8949999980396,"accuracy":1,"outcome":"+10","keys":[2433.165000002249],"total_keys":1,"block":2,"trial":127,"stimulus":3,"robot":1,"valence":"win","action":"go","sham":0,"trial_type":"pit-trial","trial_index":179,"time_elapsed":679146,"internal_node_id":"0.0-135.0","task_version":"battery-v0.2-trt"},{"rune":"N","rune_set":"bacs1","hex":"#3366ff99","correct":-1,"choice":32,"rt":591.2949999984121,"accuracy":0,"outcome":"+1","keys":[2091.7500000068685],"total_keys":1,"block":2,"trial":128,"stimulus":0,"robot":2,"valence":"win","action":"no-go","sham":0,"trial_type":"pit-trial","trial_index":180,"time_elapsed":682449,"internal_node_id":"0.0-136.0","task_version":"battery-v0.2-trt"},{"rune":"O","rune_set":"bacs1","hex":"#3366ff99","correct":32,"choice":-1,"rt":-1,"accuracy":0,"outcome":"+10","keys":[2906.6499999972293],"total_keys":1,"block":2,"trial":129,"stimulus":3,"robot":1,"valence":"win","action":"go","sham":1,"trial_type":"pit-trial","trial_index":181,"time_elapsed":686461,"internal_node_id":"0.0-137.0","task_version":"battery-v0.2-trt"},{"rune":"G","rune_set":"bacs1","hex":"#3366ff99","correct":32,"choice":-1,"rt":-1,"accuracy":0,"outcome":"+1","keys":[3208.7400000018533],"total_keys":1,"block":2,"trial":130,"stimulus":1,"robot":1,"valence":"win","action":"go","sham":0,"trial_type":"pit-trial","trial_index":182,"time_elapsed":690473,"internal_node_id":"0.0-138.0","task_version":"battery-v0.2-trt"},{"rune":"N","rune_set":"bacs1","hex":"#3366ff99","correct":-1,"choice":-1,"rt":-1,"accuracy":1,"outcome":"+10","keys":[],"total_keys":0,"block":2,"trial":131,"stimulus":0,"robot":2,"valence":"win","action":"no-go","sham":0,"trial_type":"pit-trial","trial_index":183,"time_elapsed":694486,"internal_node_id":"0.0-139.0","task_version":"battery-v0.2-trt"},{"rune":"I","rune_set":"bacs1","hex":"#f73b6a7A","correct":-1,"choice":-1,"rt":-1,"accuracy":1,"outcome":"-1","keys":[],"total_keys":0,"block":2,"trial":132,"stimulus":2,"robot":4,"valence":"lose","action":"no-go","sham":0,"trial_type":"pit-trial","trial_index":184,"time_elapsed":698503,"internal_node_id":"0.0-140.0","task_version":"battery-v0.2-trt"},{"rune":"O","rune_set":"bacs1","hex":"#3366ff99","correct":32,"choice":32,"rt":1008.8049999977229,"accuracy":1,"outcome":"+1","keys":[2509.1750000064494],"total_keys":1,"block":2,"trial":133,"stimulus":3,"robot":1,"valence":"win","action":"go","sham":1,"trial_type":"pit-trial","trial_index":185,"time_elapsed":702222,"internal_node_id":"0.0-141.0","task_version":"battery-v0.2-trt"},{"rune":"N","rune_set":"bacs1","hex":"#3366ff99","correct":-1,"choice":32,"rt":906.184999999823,"accuracy":0,"outcome":"+10","keys":[2407.055000003311],"total_keys":1,"block":2,"trial":134,"stimulus":0,"robot":2,"valence":"win","action":"no-go","sham":1,"trial_type":"pit-trial","trial_index":186,"time_elapsed":705841,"internal_node_id":"0.0-142.0","task_version":"battery-v0.2-trt"},{"rune":"G","rune_set":"bacs1","hex":"#3366ff99","correct":32,"choice":-1,"rt":-1,"accuracy":0,"outcome":"+1","keys":[3082.940000000177],"total_keys":1,"block":2,"trial":135,"stimulus":1,"robot":1,"valence":"win","action":"go","sham":0,"trial_type":"pit-trial","trial_index":187,"time_elapsed":709854,"internal_node_id":"0.0-143.0","task_version":"battery-v0.2-trt"},{"rune":"I","rune_set":"bacs1","hex":"#f73b6a7A","correct":-1,"choice":-1,"rt":-1,"accuracy":1,"outcome":"-1","keys":[3294.2150000017136],"total_keys":1,"block":2,"trial":136,"stimulus":2,"robot":4,"valence":"lose","action":"no-go","sham":0,"trial_type":"pit-trial","trial_index":188,"time_elapsed":713865,"internal_node_id":"0.0-144.0","task_version":"battery-v0.2-trt"},{"rune":"N","rune_set":"bacs1","hex":"#3366ff99","correct":-1,"choice":32,"rt":343.60000000009313,"accuracy":0,"outcome":"+1","keys":[1845.1100000020815],"total_keys":1,"block":2,"trial":137,"stimulus":0,"robot":2,"valence":"win","action":"no-go","sham":0,"trial_type":"pit-trial","trial_index":189,"time_elapsed":716922,"internal_node_id":"0.0-145.0","task_version":"battery-v0.2-trt"},{"rune":"G","rune_set":"bacs1","hex":"#3366ff99","correct":32,"choice":32,"rt":432.4449999985518,"accuracy":1,"outcome":"+10","keys":[1933.9599999948405],"total_keys":1,"block":2,"trial":138,"stimulus":1,"robot":1,"valence":"win","action":"go","sham":0,"trial_type":"pit-trial","trial_index":190,"time_elapsed":720979,"internal_node_id":"0.0-146.0","task_version":"battery-v0.2-trt"},{"rune":"O","rune_set":"bacs1","hex":"#3366ff99","correct":32,"choice":-1,"rt":-1,"accuracy":0,"outcome":"+10","keys":[3282.6849999981932],"total_keys":1,"block":2,"trial":139,"stimulus":3,"robot":1,"valence":"win","action":"go","sham":1,"trial_type":"pit-trial","trial_index":191,"time_elapsed":724997,"internal_node_id":"0.0-147.0","task_version":"battery-v0.2-trt"},{"rune":"I","rune_set":"bacs1","hex":"#f73b6a7A","correct":-1,"choice":-1,"rt":-1,"accuracy":1,"outcome":"-1","keys":[],"total_keys":0,"block":2,"trial":140,"stimulus":2,"robot":4,"valence":"lose","action":"no-go","sham":0,"trial_type":"pit-trial","trial_index":192,"time_elapsed":729007,"internal_node_id":"0.0-148.0","task_version":"battery-v0.2-trt"},{"rune":"O","rune_set":"bacs1","hex":"#3366ff99","correct":32,"choice":32,"rt":272.32000000355765,"accuracy":1,"outcome":"+10","keys":[1772.415000006673],"total_keys":1,"block":2,"trial":141,"stimulus":3,"robot":1,"valence":"win","action":"go","sham":0,"trial_type":"pit-trial","trial_index":193,"time_elapsed":731993,"internal_node_id":"0.0-149.0","task_version":"battery-v0.2-trt"},{"rune":"N","rune_set":"bacs1","hex":"#3366ff99","correct":-1,"choice":32,"rt":873.5000000016298,"accuracy":0,"outcome":"+10","keys":[2374.965000002645],"total_keys":1,"block":2,"trial":142,"stimulus":0,"robot":2,"valence":"win","action":"no-go","sham":1,"trial_type":"pit-trial","trial_index":194,"time_elapsed":735579,"internal_node_id":"0.0-150.0","task_version":"battery-v0.2-trt"},{"rune":"G","rune_set":"bacs1","hex":"#3366ff99","correct":32,"choice":-1,"rt":-1,"accuracy":0,"outcome":"+1","keys":[2838.504999999772],"total_keys":1,"block":2,"trial":143,"stimulus":1,"robot":1,"valence":"win","action":"go","sham":0,"trial_type":"pit-trial","trial_index":195,"time_elapsed":739596,"internal_node_id":"0.0-151.0","task_version":"battery-v0.2-trt"},{"rune":"I","rune_set":"bacs1","hex":"#f73b6a7A","correct":-1,"choice":-1,"rt":-1,"accuracy":1,"outcome":"-1","keys":[],"total_keys":0,"block":2,"trial":144,"stimulus":2,"robot":4,"valence":"lose","action":"no-go","sham":0,"trial_type":"pit-trial","trial_index":196,"time_elapsed":743610,"internal_node_id":"0.0-152.0","task_version":"battery-v0.2-trt"},{"rune":"G","rune_set":"bacs1","hex":"#3366ff99","correct":32,"choice":32,"rt":989.7550000022165,"accuracy":1,"outcome":"+10","keys":[2490.6600000030594],"total_keys":1,"block":2,"trial":145,"stimulus":1,"robot":1,"valence":"win","action":"go","sham":0,"trial_type":"pit-trial","trial_index":197,"time_elapsed":747316,"internal_node_id":"0.0-153.0","task_version":"battery-v0.2-trt"},{"rune":"I","rune_set":"bacs1","hex":"#f73b6a7A","correct":-1,"choice":-1,"rt":-1,"accuracy":1,"outcome":"-1","keys":[3885.329999997397],"total_keys":1,"block":2,"trial":146,"stimulus":2,"robot":4,"valence":"lose","action":"no-go","sham":0,"trial_type":"pit-trial","trial_index":198,"time_elapsed":751334,"internal_node_id":"0.0-154.0","task_version":"battery-v0.2-trt"},{"rune":"N","rune_set":"bacs1","hex":"#3366ff99","correct":-1,"choice":-1,"rt":-1,"accuracy":1,"outcome":"+10","keys":[3895.7550000050105],"total_keys":1,"block":2,"trial":147,"stimulus":0,"robot":2,"valence":"win","action":"no-go","sham":0,"trial_type":"pit-trial","trial_index":199,"time_elapsed":755347,"internal_node_id":"0.0-155.0","task_version":"battery-v0.2-trt"},{"rune":"O","rune_set":"bacs1","hex":"#3366ff99","correct":32,"choice":-1,"rt":-1,"accuracy":0,"outcome":"+1","keys":[3348.469999997178],"total_keys":1,"block":2,"trial":148,"stimulus":3,"robot":1,"valence":"win","action":"go","sham":0,"trial_type":"pit-trial","trial_index":200,"time_elapsed":759360,"internal_node_id":"0.0-156.0","task_version":"battery-v0.2-trt"},{"rune":"N","rune_set":"bacs1","hex":"#3366ff99","correct":-1,"choice":-1,"rt":-1,"accuracy":1,"outcome":"+10","keys":[],"total_keys":0,"block":2,"trial":149,"stimulus":0,"robot":2,"valence":"win","action":"no-go","sham":0,"trial_type":"pit-trial","trial_index":201,"time_elapsed":763370,"internal_node_id":"0.0-157.0","task_version":"battery-v0.2-trt"},{"rune":"G","rune_set":"bacs1","hex":"#3366ff99","correct":32,"choice":32,"rt":258.3900000026915,"accuracy":1,"outcome":"+10","keys":[1758.5249999973457],"total_keys":1,"block":2,"trial":150,"stimulus":1,"robot":1,"valence":"win","action":"go","sham":0,"trial_type":"pit-trial","trial_index":202,"time_elapsed":766341,"internal_node_id":"0.0-158.0","task_version":"battery-v0.2-trt"},{"rune":"O","rune_set":"bacs1","hex":"#3366ff99","correct":32,"choice":32,"rt":549.4600000020582,"accuracy":1,"outcome":"+10","keys":[2049.830000003567],"total_keys":1,"block":2,"trial":151,"stimulus":3,"robot":1,"valence":"win","action":"go","sham":0,"trial_type":"pit-trial","trial_index":203,"time_elapsed":769600,"internal_node_id":"0.0-159.0","task_version":"battery-v0.2-trt"},{"rune":"I","rune_set":"bacs1","hex":"#f73b6a7A","correct":-1,"choice":-1,"rt":-1,"accuracy":1,"outcome":"-1","keys":[],"total_keys":0,"block":2,"trial":152,"stimulus":2,"robot":4,"valence":"lose","action":"no-go","sham":0,"trial_type":"pit-trial","trial_index":204,"time_elapsed":773613,"internal_node_id":"0.0-160.0","task_version":"battery-v0.2-trt"},{"rune":"N","rune_set":"bacs1","hex":"#3366ff99","correct":-1,"choice":32,"rt":238.4550000061281,"accuracy":0,"outcome":"+1","keys":[1740.5199999993201],"total_keys":1,"block":2,"trial":153,"stimulus":0,"robot":2,"valence":"win","action":"no-go","sham":0,"trial_type":"pit-trial","trial_index":205,"time_elapsed":776566,"internal_node_id":"0.0-161.0","task_version":"battery-v0.2-trt"},{"rune":"I","rune_set":"bacs1","hex":"#f73b6a7A","correct":-1,"choice":-1,"rt":-1,"accuracy":1,"outcome":"-1","keys":[3363.535000004107],"total_keys":1,"block":2,"trial":154,"stimulus":2,"robot":4,"valence":"lose","action":"no-go","sham":0,"trial_type":"pit-trial","trial_index":206,"time_elapsed":780579,"internal_node_id":"0.0-162.0","task_version":"battery-v0.2-trt"},{"rune":"O","rune_set":"bacs1","hex":"#3366ff99","correct":32,"choice":-1,"rt":-1,"accuracy":0,"outcome":"+10","keys":[3154.029999997816],"total_keys":1,"block":2,"trial":155,"stimulus":3,"robot":1,"valence":"win","action":"go","sham":1,"trial_type":"pit-trial","trial_index":207,"time_elapsed":784591,"internal_node_id":"0.0-163.0","task_version":"battery-v0.2-trt"},{"rune":"D","rune_set":"bacs1","hex":"#3366ff99","correct":32,"choice":-1,"rt":-1,"accuracy":0,"outcome":"+10","keys":[3912.6699999979464],"total_keys":1,"block":2,"trial":156,"stimulus":4,"robot":1,"valence":"win","action":"go","sham":1,"trial_type":"pit-trial","trial_index":208,"time_elapsed":788602,"internal_node_id":"0.0-164.0","task_version":"battery-v0.2-trt"},{"rune":"I","rune_set":"bacs1","hex":"#f73b6a7A","correct":-1,"choice":-1,"rt":-1,"accuracy":1,"outcome":"-10","keys":[],"total_keys":0,"block":2,"trial":157,"stimulus":2,"robot":4,"valence":"lose","action":"no-go","sham":1,"trial_type":"pit-trial","trial_index":209,"time_elapsed":792616,"internal_node_id":"0.0-165.0","task_version":"battery-v0.2-trt"},{"rune":"N","rune_set":"bacs1","hex":"#3366ff99","correct":-1,"choice":-1,"rt":-1,"accuracy":1,"outcome":"+1","keys":[],"total_keys":0,"block":2,"trial":158,"stimulus":0,"robot":2,"valence":"win","action":"no-go","sham":1,"trial_type":"pit-trial","trial_index":210,"time_elapsed":796627,"internal_node_id":"0.0-166.0","task_version":"battery-v0.2-trt"},{"rune":"O","rune_set":"bacs1","hex":"#3366ff99","correct":32,"choice":32,"rt":182.20499999728054,"accuracy":1,"outcome":"+10","keys":[1683.104999996489],"total_keys":1,"block":2,"trial":159,"stimulus":3,"robot":1,"valence":"win","action":"go","sham":0,"trial_type":"pit-trial","trial_index":211,"time_elapsed":799521,"internal_node_id":"0.0-167.0","task_version":"battery-v0.2-trt"},{"rune":"D","rune_set":"bacs1","hex":"#3366ff99","correct":32,"choice":-1,"rt":-1,"accuracy":0,"outcome":"+1","keys":[],"total_keys":0,"block":2,"trial":160,"stimulus":4,"robot":1,"valence":"win","action":"go","sham":0,"trial_type":"pit-trial","trial_index":212,"time_elapsed":803533,"internal_node_id":"0.0-168.0","task_version":"battery-v0.2-trt"},{"rune":"S","rune_set":"bacs1","hex":"#f73b6a7A","correct":-1,"choice":32,"rt":1129.674999996554,"accuracy":0,"outcome":"-10","keys":[2630.190000003553],"total_keys":1,"block":2,"trial":161,"stimulus":6,"robot":4,"valence":"lose","action":"no-go","sham":0,"trial_type":"pit-trial","trial_index":213,"time_elapsed":807375,"internal_node_id":"0.0-169.0","task_version":"battery-v0.2-trt"},{"rune":"N","rune_set":"bacs1","hex":"#3366ff99","correct":-1,"choice":-1,"rt":-1,"accuracy":1,"outcome":"+1","keys":[],"total_keys":0,"block":2,"trial":162,"stimulus":0,"robot":2,"valence":"win","action":"no-go","sham":1,"trial_type":"pit-trial","trial_index":214,"time_elapsed":811388,"internal_node_id":"0.0-170.0","task_version":"battery-v0.2-trt"},{"rune":"K","rune_set":"bacs1","hex":"#f73b6a7A","correct":32,"choice":32,"rt":294.774999994901,"accuracy":1,"outcome":"-10","keys":[1796.640000000596],"total_keys":1,"block":2,"trial":163,"stimulus":5,"robot":3,"valence":"lose","action":"go","sham":1,"trial_type":"pit-trial","trial_index":215,"time_elapsed":814394,"internal_node_id":"0.0-171.0","task_version":"battery-v0.2-trt"},{"rune":"D","rune_set":"bacs1","hex":"#3366ff99","correct":32,"choice":-1,"rt":-1,"accuracy":0,"outcome":"+1","keys":[3029.689999995753],"total_keys":1,"block":2,"trial":164,"stimulus":4,"robot":1,"valence":"win","action":"go","sham":0,"trial_type":"pit-trial","trial_index":216,"time_elapsed":818407,"internal_node_id":"0.0-172.0","task_version":"battery-v0.2-trt"},{"rune":"N","rune_set":"bacs1","hex":"#3366ff99","correct":-1,"choice":-1,"rt":-1,"accuracy":1,"outcome":"+10","keys":[],"total_keys":0,"block":2,"trial":165,"stimulus":0,"robot":2,"valence":"win","action":"no-go","sham":0,"trial_type":"pit-trial","trial_index":217,"time_elapsed":822419,"internal_node_id":"0.0-173.0","task_version":"battery-v0.2-trt"},{"rune":"K","rune_set":"bacs1","hex":"#f73b6a7A","correct":32,"choice":32,"rt":256.8450000034645,"accuracy":1,"outcome":"-1","keys":[253.8399999976391,1757.7949999977136],"total_keys":2,"block":2,"trial":166,"stimulus":5,"robot":3,"valence":"lose","action":"go","sham":0,"trial_type":"pit-trial","trial_index":218,"time_elapsed":825386,"internal_node_id":"0.0-174.0","task_version":"battery-v0.2-trt"},{"rune":"D","rune_set":"bacs1","hex":"#3366ff99","correct":32,"choice":32,"rt":1057.440000004135,"accuracy":1,"outcome":"+10","keys":[2557.955000003916],"total_keys":1,"block":2,"trial":167,"stimulus":4,"robot":1,"valence":"win","action":"go","sham":0,"trial_type":"pit-trial","trial_index":219,"time_elapsed":829153,"internal_node_id":"0.0-175.0","task_version":"battery-v0.2-trt"},{"rune":"S","rune_set":"bacs1","hex":"#f73b6a7A","correct":-1,"choice":32,"rt":765.1049999985844,"accuracy":0,"outcome":"-1","keys":[2266.1149999984773],"total_keys":1,"block":2,"trial":168,"stimulus":6,"robot":4,"valence":"lose","action":"no-go","sham":1,"trial_type":"pit-trial","trial_index":220,"time_elapsed":832630,"internal_node_id":"0.0-176.0","task_version":"battery-v0.2-trt"},{"rune":"U","rune_set":"bacs1","hex":"#3366ff99","correct":-1,"choice":32,"rt":938.0149999996647,"accuracy":0,"outcome":"+10","keys":[2439.459999994142],"total_keys":1,"block":2,"trial":169,"stimulus":7,"robot":2,"valence":"win","action":"no-go","sham":1,"trial_type":"pit-trial","trial_index":221,"time_elapsed":836281,"internal_node_id":"0.0-177.0","task_version":"battery-v0.2-trt"},{"rune":"D","rune_set":"bacs1","hex":"#3366ff99","correct":32,"choice":-1,"rt":-1,"accuracy":0,"outcome":"+10","keys":[3185.480000000214],"total_keys":1,"block":2,"trial":170,"stimulus":4,"robot":1,"valence":"win","action":"go","sham":1,"trial_type":"pit-trial","trial_index":222,"time_elapsed":840292,"internal_node_id":"0.0-178.0","task_version":"battery-v0.2-trt"},{"rune":"K","rune_set":"bacs1","hex":"#f73b6a7A","correct":32,"choice":-1,"rt":-1,"accuracy":0,"outcome":"-10","keys":[3276.799999999581],"total_keys":1,"block":2,"trial":171,"stimulus":5,"robot":3,"valence":"lose","action":"go","sham":0,"trial_type":"pit-trial","trial_index":223,"time_elapsed":844304,"internal_node_id":"0.0-179.0","task_version":"battery-v0.2-trt"},{"rune":"S","rune_set":"bacs1","hex":"#f73b6a7A","correct":-1,"choice":-1,"rt":-1,"accuracy":1,"outcome":"-1","keys":[],"total_keys":0,"block":2,"trial":172,"stimulus":6,"robot":4,"valence":"lose","action":"no-go","sham":0,"trial_type":"pit-trial","trial_index":224,"time_elapsed":848317,"internal_node_id":"0.0-180.0","task_version":"battery-v0.2-trt"},{"rune":"K","rune_set":"bacs1","hex":"#f73b6a7A","correct":32,"choice":-1,"rt":-1,"accuracy":0,"outcome":"-10","keys":[2992.2050000022864],"total_keys":1,"block":2,"trial":173,"stimulus":5,"robot":3,"valence":"lose","action":"go","sham":0,"trial_type":"pit-trial","trial_index":225,"time_elapsed":852328,"internal_node_id":"0.0-181.0","task_version":"battery-v0.2-trt"},{"rune":"U","rune_set":"bacs1","hex":"#3366ff99","correct":-1,"choice":-1,"rt":-1,"accuracy":1,"outcome":"+10","keys":[3307.4849999975413],"total_keys":1,"block":2,"trial":174,"stimulus":7,"robot":2,"valence":"win","action":"no-go","sham":0,"trial_type":"pit-trial","trial_index":226,"time_elapsed":856338,"internal_node_id":"0.0-182.0","task_version":"battery-v0.2-trt"},{"rune":"D","rune_set":"bacs1","hex":"#3366ff99","correct":32,"choice":32,"rt":686.315000006347,"accuracy":1,"outcome":"+10","keys":[2186.9650000007823],"total_keys":1,"block":2,"trial":175,"stimulus":4,"robot":1,"valence":"win","action":"go","sham":0,"trial_type":"pit-trial","trial_index":227,"time_elapsed":859735,"internal_node_id":"0.0-183.0","task_version":"battery-v0.2-trt"},{"rune":"S","rune_set":"bacs1","hex":"#f73b6a7A","correct":-1,"choice":-1,"rt":-1,"accuracy":1,"outcome":"-1","keys":[3692.560000003199],"total_keys":1,"block":2,"trial":176,"stimulus":6,"robot":4,"valence":"lose","action":"no-go","sham":0,"trial_type":"pit-trial","trial_index":228,"time_elapsed":863748,"internal_node_id":"0.0-184.0","task_version":"battery-v0.2-trt"},{"rune":"K","rune_set":"bacs1","hex":"#f73b6a7A","correct":32,"choice":-1,"rt":-1,"accuracy":0,"outcome":"-1","keys":[3941.36499999871],"total_keys":1,"block":2,"trial":177,"stimulus":5,"robot":3,"valence":"lose","action":"go","sham":1,"trial_type":"pit-trial","trial_index":229,"time_elapsed":867765,"internal_node_id":"0.0-185.0","task_version":"battery-v0.2-trt"},{"rune":"S","rune_set":"bacs1","hex":"#f73b6a7A","correct":-1,"choice":32,"rt":543.7799999999115,"accuracy":0,"outcome":"-10","keys":[2044.084999994142],"total_keys":1,"block":2,"trial":178,"stimulus":6,"robot":4,"valence":"lose","action":"no-go","sham":0,"trial_type":"pit-trial","trial_index":230,"time_elapsed":871021,"internal_node_id":"0.0-186.0","task_version":"battery-v0.2-trt"},{"rune":"U","rune_set":"bacs1","hex":"#3366ff99","correct":-1,"choice":-1,"rt":-1,"accuracy":1,"outcome":"+10","keys":[3577.2250000010245],"total_keys":1,"block":2,"trial":179,"stimulus":7,"robot":2,"valence":"win","action":"no-go","sham":0,"trial_type":"pit-trial","trial_index":231,"time_elapsed":875031,"internal_node_id":"0.0-187.0","task_version":"battery-v0.2-trt"},{"rune":"D","rune_set":"bacs1","hex":"#3366ff99","correct":32,"choice":-1,"rt":-1,"accuracy":0,"outcome":"+10","keys":[2863.6249999981374],"total_keys":1,"block":2,"trial":180,"stimulus":4,"robot":1,"valence":"win","action":"go","sham":1,"trial_type":"pit-trial","trial_index":232,"time_elapsed":879044,"internal_node_id":"0.0-188.0","task_version":"battery-v0.2-trt"},{"rune":"U","rune_set":"bacs1","hex":"#3366ff99","correct":-1,"choice":-1,"rt":-1,"accuracy":1,"outcome":"+1","keys":[],"total_keys":0,"block":2,"trial":181,"stimulus":7,"robot":2,"valence":"win","action":"no-go","sham":1,"trial_type":"pit-trial","trial_index":233,"time_elapsed":883062,"internal_node_id":"0.0-189.0","task_version":"battery-v0.2-trt"},{"rune":"K","rune_set":"bacs1","hex":"#f73b6a7A","correct":32,"choice":32,"rt":1196.0199999958277,"accuracy":1,"outcome":"-1","keys":[143.54499999899417,2696.7599999989616],"total_keys":2,"block":2,"trial":182,"stimulus":5,"robot":3,"valence":"lose","action":"go","sham":0,"trial_type":"pit-trial","trial_index":234,"time_elapsed":886972,"internal_node_id":"0.0-190.0","task_version":"battery-v0.2-trt"},{"rune":"D","rune_set":"bacs1","hex":"#3366ff99","correct":32,"choice":-1,"rt":-1,"accuracy":0,"outcome":"+1","keys":[],"total_keys":0,"block":2,"trial":183,"stimulus":4,"robot":1,"valence":"win","action":"go","sham":0,"trial_type":"pit-trial","trial_index":235,"time_elapsed":890983,"internal_node_id":"0.0-191.0","task_version":"battery-v0.2-trt"},{"rune":"S","rune_set":"bacs1","hex":"#f73b6a7A","correct":-1,"choice":-1,"rt":-1,"accuracy":1,"outcome":"-10","keys":[444.55000000004657],"total_keys":1,"block":2,"trial":184,"stimulus":6,"robot":4,"valence":"lose","action":"no-go","sham":1,"trial_type":"pit-trial","trial_index":236,"time_elapsed":894997,"internal_node_id":"0.0-192.0","task_version":"battery-v0.2-trt"},{"rune":"D","rune_set":"bacs1","hex":"#3366ff99","correct":32,"choice":32,"rt":573.3949999994365,"accuracy":1,"outcome":"+10","keys":[2074.195000001113],"total_keys":1,"block":2,"trial":185,"stimulus":4,"robot":1,"valence":"win","action":"go","sham":0,"trial_type":"pit-trial","trial_index":237,"time_elapsed":898279,"internal_node_id":"0.0-193.0","task_version":"battery-v0.2-trt"},{"rune":"U","rune_set":"bacs1","hex":"#3366ff99","correct":-1,"choice":32,"rt":1025.6699999953853,"accuracy":0,"outcome":"+1","keys":[2526.1450000033947],"total_keys":1,"block":2,"trial":186,"stimulus":7,"robot":2,"valence":"win","action":"no-go","sham":0,"trial_type":"pit-trial","trial_index":238,"time_elapsed":902017,"internal_node_id":"0.0-194.0","task_version":"battery-v0.2-trt"},{"rune":"K","rune_set":"bacs1","hex":"#f73b6a7A","correct":32,"choice":-1,"rt":-1,"accuracy":0,"outcome":"-10","keys":[],"total_keys":0,"block":2,"trial":187,"stimulus":5,"robot":3,"valence":"lose","action":"go","sham":0,"trial_type":"pit-trial","trial_index":239,"time_elapsed":906030,"internal_node_id":"0.0-195.0","task_version":"battery-v0.2-trt"},{"rune":"S","rune_set":"bacs1","hex":"#f73b6a7A","correct":-1,"choice":32,"rt":184.2350000005681,"accuracy":0,"outcome":"-10","keys":[1686.3099999973783],"total_keys":1,"block":2,"trial":188,"stimulus":6,"robot":4,"valence":"lose","action":"no-go","sham":0,"trial_type":"pit-trial","trial_index":240,"time_elapsed":908928,"internal_node_id":"0.0-196.0","task_version":"battery-v0.2-trt"},{"rune":"D","rune_set":"bacs1","hex":"#3366ff99","correct":32,"choice":32,"rt":693.1549999936251,"accuracy":1,"outcome":"+10","keys":[2193.6600000044564],"total_keys":1,"block":2,"trial":189,"stimulus":4,"robot":1,"valence":"win","action":"go","sham":0,"trial_type":"pit-trial","trial_index":241,"time_elapsed":912332,"internal_node_id":"0.0-197.0","task_version":"battery-v0.2-trt"},{"rune":"U","rune_set":"bacs1","hex":"#3366ff99","correct":-1,"choice":32,"rt":428.4299999999348,"accuracy":0,"outcome":"+1","keys":[1929.4200000003912],"total_keys":1,"block":2,"trial":190,"stimulus":7,"robot":2,"valence":"win","action":"no-go","sham":0,"trial_type":"pit-trial","trial_index":242,"time_elapsed":915471,"internal_node_id":"0.0-198.0","task_version":"battery-v0.2-trt"},{"rune":"S","rune_set":"bacs1","hex":"#f73b6a7A","correct":-1,"choice":32,"rt":775.3050000028452,"accuracy":0,"outcome":"-10","keys":[2276.2949999959674],"total_keys":1,"block":2,"trial":191,"stimulus":6,"robot":4,"valence":"lose","action":"no-go","sham":0,"trial_type":"pit-trial","trial_index":243,"time_elapsed":918957,"internal_node_id":"0.0-199.0","task_version":"battery-v0.2-trt"},{"rune":"K","rune_set":"bacs1","hex":"#f73b6a7A","correct":32,"choice":32,"rt":1268.43000000366,"accuracy":1,"outcome":"-1","keys":[2769.3950000030454],"total_keys":1,"block":2,"trial":192,"stimulus":5,"robot":3,"valence":"lose","action":"go","sham":0,"trial_type":"pit-trial","trial_index":244,"time_elapsed":922937,"internal_node_id":"0.0-200.0","task_version":"battery-v0.2-trt"},{"rune":"M","rune_set":"bacs1","hex":"#f73b6a7A","correct":32,"choice":-1,"rt":-1,"accuracy":0,"outcome":"-1","keys":[3394.5499999972526],"total_keys":1,"block":2,"trial":193,"stimulus":8,"robot":3,"valence":"lose","action":"go","sham":1,"trial_type":"pit-trial","trial_index":245,"time_elapsed":926948,"internal_node_id":"0.0-201.0","task_version":"battery-v0.2-trt"},{"rune":"D","rune_set":"bacs1","hex":"#3366ff99","correct":32,"choice":-1,"rt":-1,"accuracy":0,"outcome":"+1","keys":[3530.1999999937834],"total_keys":1,"block":2,"trial":194,"stimulus":4,"robot":1,"valence":"win","action":"go","sham":0,"trial_type":"pit-trial","trial_index":246,"time_elapsed":930959,"internal_node_id":"0.0-202.0","task_version":"battery-v0.2-trt"},{"rune":"S","rune_set":"bacs1","hex":"#f73b6a7A","correct":-1,"choice":-1,"rt":-1,"accuracy":1,"outcome":"-1","keys":[],"total_keys":0,"block":2,"trial":195,"stimulus":6,"robot":4,"valence":"lose","action":"no-go","sham":0,"trial_type":"pit-trial","trial_index":247,"time_elapsed":934970,"internal_node_id":"0.0-203.0","task_version":"battery-v0.2-trt"},{"rune":"U","rune_set":"bacs1","hex":"#3366ff99","correct":-1,"choice":32,"rt":260.99499999696855,"accuracy":0,"outcome":"+1","keys":[1761.4649999958929],"total_keys":1,"block":2,"trial":196,"stimulus":7,"robot":2,"valence":"win","action":"no-go","sham":0,"trial_type":"pit-trial","trial_index":248,"time_elapsed":937944,"internal_node_id":"0.0-204.0","task_version":"battery-v0.2-trt"},{"rune":"D","rune_set":"bacs1","hex":"#3366ff99","correct":32,"choice":32,"rt":304.2000000058906,"accuracy":1,"outcome":"+10","keys":[1237.0300000038696,1805.8050000035437],"total_keys":2,"block":2,"trial":197,"stimulus":4,"robot":1,"valence":"win","action":"go","sham":0,"trial_type":"pit-trial","trial_index":249,"time_elapsed":940959,"internal_node_id":"0.0-205.0","task_version":"battery-v0.2-trt"},{"rune":"S","rune_set":"bacs1","hex":"#f73b6a7A","correct":-1,"choice":-1,"rt":-1,"accuracy":1,"outcome":"-1","keys":[],"total_keys":0,"block":2,"trial":198,"stimulus":6,"robot":4,"valence":"lose","action":"no-go","sham":0,"trial_type":"pit-trial","trial_index":250,"time_elapsed":944970,"internal_node_id":"0.0-206.0","task_version":"battery-v0.2-trt"},{"rune":"U","rune_set":"bacs1","hex":"#3366ff99","correct":-1,"choice":-1,"rt":-1,"accuracy":1,"outcome":"+10","keys":[3330.3799999994226],"total_keys":1,"block":2,"trial":199,"stimulus":7,"robot":2,"valence":"win","action":"no-go","sham":0,"trial_type":"pit-trial","trial_index":251,"time_elapsed":948981,"internal_node_id":"0.0-207.0","task_version":"battery-v0.2-trt"},{"rune":"M","rune_set":"bacs1","hex":"#f73b6a7A","correct":32,"choice":32,"rt":696.395000006305,"accuracy":1,"outcome":"-1","keys":[2198.309999999823],"total_keys":1,"block":2,"trial":200,"stimulus":8,"robot":3,"valence":"lose","action":"go","sham":0,"trial_type":"pit-trial","trial_index":252,"time_elapsed":952396,"internal_node_id":"0.0-208.0","task_version":"battery-v0.2-trt"},{"rune":"P","rune_set":"bacs1","hex":"#f73b6a7A","correct":32,"choice":-1,"rt":-1,"accuracy":0,"outcome":"-1","keys":[],"total_keys":0,"block":2,"trial":201,"stimulus":9,"robot":3,"valence":"lose","action":"go","sham":1,"trial_type":"pit-trial","trial_index":253,"time_elapsed":956410,"internal_node_id":"0.0-209.0","task_version":"battery-v0.2-trt"},{"rune":"U","rune_set":"bacs1","hex":"#3366ff99","correct":-1,"choice":32,"rt":289.010000000475,"accuracy":0,"outcome":"+1","keys":[1789.9449999968056],"total_keys":1,"block":2,"trial":202,"stimulus":7,"robot":2,"valence":"win","action":"no-go","sham":0,"trial_type":"pit-trial","trial_index":254,"time_elapsed":959412,"internal_node_id":"0.0-210.0","task_version":"battery-v0.2-trt"},{"rune":"S","rune_set":"bacs1","hex":"#f73b6a7A","correct":-1,"choice":32,"rt":395.33000000659376,"accuracy":0,"outcome":"-1","keys":[1895.4650000014808],"total_keys":1,"block":2,"trial":203,"stimulus":6,"robot":4,"valence":"lose","action":"no-go","sham":1,"trial_type":"pit-trial","trial_index":255,"time_elapsed":962524,"internal_node_id":"0.0-211.0","task_version":"battery-v0.2-trt"},{"rune":"M","rune_set":"bacs1","hex":"#f73b6a7A","correct":32,"choice":32,"rt":535.7199999998556,"accuracy":1,"outcome":"-1","keys":[2036.3450000004377],"total_keys":1,"block":2,"trial":204,"stimulus":8,"robot":3,"valence":"lose","action":"go","sham":0,"trial_type":"pit-trial","trial_index":256,"time_elapsed":965771,"internal_node_id":"0.0-212.0","task_version":"battery-v0.2-trt"},{"rune":"U","rune_set":"bacs1","hex":"#3366ff99","correct":-1,"choice":32,"rt":473.2399999992922,"accuracy":0,"outcome":"+10","keys":[1973.6899999988964],"total_keys":1,"block":2,"trial":205,"stimulus":7,"robot":2,"valence":"win","action":"no-go","sham":1,"trial_type":"pit-trial","trial_index":257,"time_elapsed":968955,"internal_node_id":"0.0-213.0","task_version":"battery-v0.2-trt"},{"rune":"S","rune_set":"bacs1","hex":"#f73b6a7A","correct":-1,"choice":32,"rt":370.7349999968428,"accuracy":0,"outcome":"-10","keys":[1871.4249999976018],"total_keys":1,"block":2,"trial":206,"stimulus":6,"robot":4,"valence":"lose","action":"no-go","sham":0,"trial_type":"pit-trial","trial_index":258,"time_elapsed":972038,"internal_node_id":"0.0-214.0","task_version":"battery-v0.2-trt"},{"rune":"M","rune_set":"bacs1","hex":"#f73b6a7A","correct":32,"choice":32,"rt":373.87000000313856,"accuracy":1,"outcome":"-10","keys":[1873.9649999988033],"total_keys":1,"block":2,"trial":207,"stimulus":8,"robot":3,"valence":"lose","action":"go","sham":1,"trial_type":"pit-trial","trial_index":259,"time_elapsed":975122,"internal_node_id":"0.0-215.0","task_version":"battery-v0.2-trt"},{"rune":"P","rune_set":"bacs1","hex":"#f73b6a7A","correct":32,"choice":32,"rt":1085.9599999967031,"accuracy":1,"outcome":"-10","keys":[2586.094999998808],"total_keys":1,"block":2,"trial":208,"stimulus":9,"robot":3,"valence":"lose","action":"go","sham":1,"trial_type":"pit-trial","trial_index":260,"time_elapsed":978919,"internal_node_id":"0.0-216.0","task_version":"battery-v0.2-trt"},{"rune":"M","rune_set":"bacs1","hex":"#f73b6a7A","correct":32,"choice":-1,"rt":-1,"accuracy":0,"outcome":"-1","keys":[3140.874999997439],"total_keys":1,"block":2,"trial":209,"stimulus":8,"robot":3,"valence":"lose","action":"go","sham":1,"trial_type":"pit-trial","trial_index":261,"time_elapsed":982930,"internal_node_id":"0.0-217.0","task_version":"battery-v0.2-trt"},{"rune":"Y","rune_set":"bacs1","hex":"#3366ff99","correct":-1,"choice":32,"rt":353.304999996908,"accuracy":0,"outcome":"+1","keys":[1853.7349999970756],"total_keys":1,"block":2,"trial":210,"stimulus":11,"robot":2,"valence":"win","action":"no-go","sham":0,"trial_type":"pit-trial","trial_index":262,"time_elapsed":985995,"internal_node_id":"0.0-218.0","task_version":"battery-v0.2-trt"},{"rune":"P","rune_set":"bacs1","hex":"#f73b6a7A","correct":32,"choice":32,"rt":711.9850000017323,"accuracy":1,"outcome":"-1","keys":[2212.374999995576],"total_keys":1,"block":2,"trial":211,"stimulus":9,"robot":3,"valence":"lose","action":"go","sham":0,"trial_type":"pit-trial","trial_index":263,"time_elapsed":989418,"internal_node_id":"0.0-219.0","task_version":"battery-v0.2-trt"},{"rune":"H","rune_set":"bacs1","hex":"#f73b6a7A","correct":-1,"choice":-1,"rt":-1,"accuracy":1,"outcome":"-10","keys":[],"total_keys":0,"block":2,"trial":212,"stimulus":10,"robot":4,"valence":"lose","action":"no-go","sham":1,"trial_type":"pit-trial","trial_index":264,"time_elapsed":993430,"internal_node_id":"0.0-220.0","task_version":"battery-v0.2-trt"},{"rune":"H","rune_set":"bacs1","hex":"#f73b6a7A","correct":-1,"choice":32,"rt":436.73000000137836,"accuracy":0,"outcome":"-10","keys":[1936.854999999865],"total_keys":1,"block":2,"trial":213,"stimulus":10,"robot":4,"valence":"lose","action":"no-go","sham":0,"trial_type":"pit-trial","trial_index":265,"time_elapsed":996580,"internal_node_id":"0.0-221.0","task_version":"battery-v0.2-trt"},{"rune":"P","rune_set":"bacs1","hex":"#f73b6a7A","correct":32,"choice":-1,"rt":-1,"accuracy":0,"outcome":"-10","keys":[],"total_keys":0,"block":2,"trial":214,"stimulus":9,"robot":3,"valence":"lose","action":"go","sham":0,"trial_type":"pit-trial","trial_index":266,"time_elapsed":1000591,"internal_node_id":"0.0-222.0","task_version":"battery-v0.2-trt"},{"rune":"Y","rune_set":"bacs1","hex":"#3366ff99","correct":-1,"choice":32,"rt":267.54000000073574,"accuracy":0,"outcome":"+1","keys":[1768.385000003036],"total_keys":1,"block":2,"trial":215,"stimulus":11,"robot":2,"valence":"win","action":"no-go","sham":0,"trial_type":"pit-trial","trial_index":267,"time_elapsed":1003571,"internal_node_id":"0.0-223.0","task_version":"battery-v0.2-trt"},{"rune":"M","rune_set":"bacs1","hex":"#f73b6a7A","correct":32,"choice":-1,"rt":-1,"accuracy":0,"outcome":"-10","keys":[3203.784999997937],"total_keys":1,"block":2,"trial":216,"stimulus":8,"robot":3,"valence":"lose","action":"go","sham":0,"trial_type":"pit-trial","trial_index":268,"time_elapsed":1007585,"internal_node_id":"0.0-224.0","task_version":"battery-v0.2-trt"},{"rune":"M","rune_set":"bacs1","hex":"#f73b6a7A","correct":32,"choice":32,"rt":925.1150000054622,"accuracy":1,"outcome":"-10","keys":[2425.7550000038464],"total_keys":1,"block":2,"trial":217,"stimulus":8,"robot":3,"valence":"lose","action":"go","sham":1,"trial_type":"pit-trial","trial_index":269,"time_elapsed":1011223,"internal_node_id":"0.0-225.0","task_version":"battery-v0.2-trt"},{"rune":"H","rune_set":"bacs1","hex":"#f73b6a7A","correct":-1,"choice":32,"rt":620.6349999993108,"accuracy":0,"outcome":"-10","keys":[2120.77500000305],"total_keys":1,"block":2,"trial":218,"stimulus":10,"robot":4,"valence":"lose","action":"no-go","sham":0,"trial_type":"pit-trial","trial_index":270,"time_elapsed":1014561,"internal_node_id":"0.0-226.0","task_version":"battery-v0.2-trt"},{"rune":"P","rune_set":"bacs1","hex":"#f73b6a7A","correct":32,"choice":-1,"rt":-1,"accuracy":0,"outcome":"-1","keys":[],"total_keys":0,"block":2,"trial":219,"stimulus":9,"robot":3,"valence":"lose","action":"go","sham":1,"trial_type":"pit-trial","trial_index":271,"time_elapsed":1018573,"internal_node_id":"0.0-227.0","task_version":"battery-v0.2-trt"},{"rune":"Y","rune_set":"bacs1","hex":"#3366ff99","correct":-1,"choice":-1,"rt":-1,"accuracy":1,"outcome":"+1","keys":[3246.3500000012573],"total_keys":1,"block":2,"trial":220,"stimulus":11,"robot":2,"valence":"win","action":"no-go","sham":1,"trial_type":"pit-trial","trial_index":272,"time_elapsed":1022586,"internal_node_id":"0.0-228.0","task_version":"battery-v0.2-trt"},