[{"view_history":"[{\"page_index\":0,\"viewing_time\":5858.035000041127}]","rt":5858.899999875575,"trial_type":"instructions","trial_index":0,"time_elapsed":5873,"internal_node_id":"0.0-0.0","task_version":"battery-v0.2-trt"},{"slider_type":"valence","raw_loc":699,"loc":0.898,"trial_type":"affective-slider","trial_index":1,"time_elapsed":12536,"internal_node_id":"0.0-1.0","task_version":"battery-v0.2-trt"},{"responses":{"Q03":"0","Q07":"0","Q01":"0","Q08":"0","Q05":"0","Q06":"0","Q02":"0","Q04":"0"},"rt":82772.36999990419,"item_order":[2,6,0,7,4,5,1,3],"radio_events":[5282.484999857843,71251.43499998376,73529.58499989472,74738.68499998935,76085.27499996126,77518.19500001147,78376.48499989882,81556.76000006497],"key_events":[],"mouse_events":[5282.484999857843,71251.43499998376,72422.94499999844,73529.58499989472,74738.68499998935,76085.27499996126,77518.19500001147,78376.48499989882,79646.8149998691,81556.76000006497,82770.09500004351],"straightlining":1,"zigzagging":0,"survey":"gad7","trial_type":"survey-template","trial_index":2,"time_elapsed":95315,"internal_node_id":"0.0-2.0","task_version":"battery-v0.2-trt","infrequency":0},{"responses":{"Q03":"0","Q08":"3","Q04":"0","Q01":"0","Q02":"0","Q06":"0","Q07":"0","Q05":"0"},"rt":19225.669999839738,"item_order":[2,7,3,0,1,5,6,4],"radio_events":[6079.769999952987,9316.039999946952,10841.75999998115,12736.379999900237,14603.494999930263,15667.589999968186,16816.934999777004,17718.55999995023],"key_events":[],"mouse_events":[6079.769999952987,9316.039999946952,10841.75999998115,12736.379999900237,14603.494999930263,15667.589999968186,16816.934999777004,17718.55999995023,19223.864999832585],"straightlining":0.875,"zigzagging":0.2857142857142857,"survey":"dass_d","trial_type":"survey-template","trial_index":3,"time_elapsed":114547,"internal_node_id":"0.0-3.0","task_version":"battery-v0.2-trt","infrequency":0.5},{"responses":{"Q09":"3","Q07":"3","Q05":"3","Q08":"3","Q03":"0","Q04":"1","Q13":"0","Q10":"3","Q11":"3","Q02":"1","Q06":"3","Q01":"0","Q12":"3"},"rt":57988.48499986343,"item_order":[8,6,4,7,2,3,12,9,10,1,5,0,11],"radio_events":[8238.174999831244,9102.339999983087,13048.59000002034,16774.72999994643,28399.914999958128,29484.739999985322,33827.56999996491,37965.39000002667,44252.274999860674,47943.20999993943,51725.48499982804,53194.57499985583,57260.63499995507],"key_events":[],"mouse_events":[6080.175000010058,8238.174999831244,9102.339999983087,13048.59000002034,16774.72999994643,22161.094999872148,28399.914999958128,29484.739999985322,33827.56999996491,37965.39000002667,44252.274999860674,47943.20999993943,51725.48499982804,53194.57499985583,57260.63499995507,57985.68499996327],"straightlining":0.6153846153846154,"zigzagging":0.5,"survey":"bisbas","trial_type":"survey-template","trial_index":4,"time_elapsed":172542,"internal_node_id":"0.0-4.0","task_version":"battery-v0.2-trt","infrequency":0},{"value":[0.5,2.4903846153846154,0.7857142857142857],"trial_type":"call-function","trial_index":5,"time_elapsed":172547,"internal_node_id":"0.0-5.0","task_version":"battery-v0.2-trt"},{"view_history":"[{\"page_index\":0,\"viewing_time\":49276.68000012636},{\"page_index\":1,\"viewing_time\":17631.825000047684},{\"page_index\":2,\"viewing_time\":5691.7799999937415},{\"page_index\":3,\"viewing_time\":7715.644999872893},{\"page_index\":4,\"viewing_time\":7556.7650001030415},{\"page_index\":5,\"viewing_time\":3790.5500000342727},{\"page_index\":6,\"viewing_time\":5839.589999988675},{\"page_index\":7,\"viewing_time\":10943.530000047758},{\"page_index\":8,\"viewing_time\":10202.434999868274},{\"page_index\":9,\"viewing_time\":6757.040000054985}]","rt":125407.47500001453,"trial_type":"pit-instructions","trial_index":6,"time_elapsed":297960,"internal_node_id":"0.0-6.0-0.0","task_version":"battery-v0.2-trt"},{"rune":"1","rune_set":"elianto","hex":"#3366ff99","correct":32,"choice":32,"rt":1045.7300001289696,"accuracy":1,"outcome":"+10","keys":[2546.1450000293553],"total_keys":1,"block":0,"practice":1,"trial_type":"pit-trial","trial_index":7,"time_elapsed":301711,"internal_node_id":"0.0-6.0-1.0-0.0","task_version":"battery-v0.2-trt"},{"rune":"1","rune_set":"elianto","hex":"#3366ff99","correct":32,"choice":32,"rt":816.869999980554,"accuracy":1,"outcome":"+10","keys":[2318.0500001180917],"total_keys":1,"block":0,"practice":1,"trial_type":"pit-trial","trial_index":8,"time_elapsed":305234,"internal_node_id":"0.0-6.0-1.1-0.1","task_version":"battery-v0.2-trt"},{"rune":"1","rune_set":"elianto","hex":"#3366ff99","correct":32,"choice":32,"rt":810.3699998464435,"accuracy":1,"outcome":"+10","keys":[2311.3899999298155],"total_keys":1,"block":0,"practice":1,"trial_type":"pit-trial","trial_index":9,"time_elapsed":308749,"internal_node_id":"0.0-6.0-1.2-0.2","task_version":"battery-v0.2-trt"},{"rune":"1","rune_set":"elianto","hex":"#3366ff99","correct":32,"choice":32,"rt":670.0650001876056,"accuracy":1,"outcome":"+10","keys":[2170.15999997966],"total_keys":1,"block":0,"practice":1,"trial_type":"pit-trial","trial_index":10,"time_elapsed":312124,"internal_node_id":"0.0-6.0-1.3-0.3","task_version":"battery-v0.2-trt"},{"trial_type":"call-function","trial_index":11,"time_elapsed":312128,"internal_node_id":"0.0-6.0-2.0","task_version":"battery-v0.2-trt"},{"view_history":"[{\"page_index\":0,\"viewing_time\":8059.9450001027435},{\"page_index\":1,\"viewing_time\":4833.415000000969}]","rt":12894.060000078753,"trial_type":"pit-instructions","trial_index":12,"time_elapsed":325023,"internal_node_id":"0.0-6.0-3.0","task_version":"battery-v0.2-trt"},{"rune":"2","rune_set":"elianto","hex":"#3366ff99","correct":-1,"choice":-1,"rt":-1,"accuracy":1,"outcome":"+10","keys":[],"total_keys":0,"block":0,"practice":2,"trial_type":"pit-trial","trial_index":13,"time_elapsed":329045,"internal_node_id":"0.0-6.0-4.0-0.0","task_version":"battery-v0.2-trt"},{"rune":"2","rune_set":"elianto","hex":"#3366ff99","correct":-1,"choice":-1,"rt":-1,"accuracy":1,"outcome":"+10","keys":[],"total_keys":0,"block":0,"practice":2,"trial_type":"pit-trial","trial_index":14,"time_elapsed":333050,"internal_node_id":"0.0-6.0-4.1-0.1","task_version":"battery-v0.2-trt"},{"rune":"2","rune_set":"elianto","hex":"#3366ff99","correct":-1,"choice":-1,"rt":-1,"accuracy":1,"outcome":"+10","keys":[],"total_keys":0,"block":0,"practice":2,"trial_type":"pit-trial","trial_index":15,"time_elapsed":337054,"internal_node_id":"0.0-6.0-4.2-0.2","task_version":"battery-v0.2-trt"},{"rune":"2","rune_set":"elianto","hex":"#3366ff99","correct":-1,"choice":-1,"rt":-1,"accuracy":1,"outcome":"+10","keys":[],"total_keys":0,"block":0,"practice":2,"trial_type":"pit-trial","trial_index":16,"time_elapsed":341059,"internal_node_id":"0.0-6.0-4.3-0.3","task_version":"battery-v0.2-trt"},{"trial_type":"call-function","trial_index":17,"time_elapsed":341060,"internal_node_id":"0.0-6.0-5.0","task_version":"battery-v0.2-trt"},{"view_history":"[{\"page_index\":0,\"viewing_time\":7295.674999943003},{\"page_index\":1,\"viewing_time\":2483.6300001479685}]","rt":9780.075000133365,"trial_type":"pit-instructions","trial_index":18,"time_elapsed":350841,"internal_node_id":"0.0-6.0-6.0","task_version":"battery-v0.2-trt"},{"rune":"3","rune_set":"elianto","hex":"#f73b6a7A","correct":-1,"choice":-1,"rt":-1,"accuracy":1,"outcome":"-1","keys":[],"total_keys":0,"block":0,"practice":3,"trial_type":"pit-trial","trial_index":19,"time_elapsed":354846,"internal_node_id":"0.0-6.0-7.0-0.0","task_version":"battery-v0.2-trt"},{"rune":"3","rune_set":"elianto","hex":"#f73b6a7A","correct":-1,"choice":-1,"rt":-1,"accuracy":1,"outcome":"-1","keys":[],"total_keys":0,"block":0,"practice":3,"trial_type":"pit-trial","trial_index":20,"time_elapsed":358850,"internal_node_id":"0.0-6.0-7.1-0.1","task_version":"battery-v0.2-trt"},{"rune":"3","rune_set":"elianto","hex":"#f73b6a7A","correct":-1,"choice":-1,"rt":-1,"accuracy":1,"outcome":"-1","keys":[],"total_keys":0,"block":0,"practice":3,"trial_type":"pit-trial","trial_index":21,"time_elapsed":362863,"internal_node_id":"0.0-6.0-7.2-0.2","task_version":"battery-v0.2-trt"},{"rune":"3","rune_set":"elianto","hex":"#f73b6a7A","correct":-1,"choice":-1,"rt":-1,"accuracy":1,"outcome":"-1","keys":[],"total_keys":0,"block":0,"practice":3,"trial_type":"pit-trial","trial_index":22,"time_elapsed":366869,"internal_node_id":"0.0-6.0-7.3-0.3","task_version":"battery-v0.2-trt"},{"trial_type":"call-function","trial_index":23,"time_elapsed":366871,"internal_node_id":"0.0-6.0-8.0","task_version":"battery-v0.2-trt"},{"view_history":"[{\"page_index\":0,\"viewing_time\":3455.5800000671297},{\"page_index\":1,\"viewing_time\":2029.9400000367314}]","rt":5485.890000127256,"trial_type":"pit-instructions","trial_index":24,"time_elapsed":372357,"internal_node_id":"0.0-6.0-9.0","task_version":"battery-v0.2-trt"},{"rune":"4","rune_set":"elianto","hex":"#f73b6a7A","correct":32,"choice":32,"rt":673.8499999046326,"accuracy":1,"outcome":"-1","keys":[2174.2799999192357],"total_keys":1,"block":0,"practice":4,"trial_type":"pit-trial","trial_index":25,"time_elapsed":375735,"internal_node_id":"0.0-6.0-10.0-0.0","task_version":"battery-v0.2-trt"},{"rune":"4","rune_set":"elianto","hex":"#f73b6a7A","correct":32,"choice":32,"rt":534.3549998942763,"accuracy":1,"outcome":"-1","keys":[2034.8449999000877],"total_keys":1,"block":0,"practice":4,"trial_type":"pit-trial","trial_index":26,"time_elapsed":378974,"internal_node_id":"0.0-6.0-10.1-0.1","task_version":"battery-v0.2-trt"},{"rune":"4","rune_set":"elianto","hex":"#f73b6a7A","correct":32,"choice":32,"rt":480.16500007361174,"accuracy":1,"outcome":"-1","keys":[1981.3800000119954],"total_keys":1,"block":0,"practice":4,"trial_type":"pit-trial","trial_index":27,"time_elapsed":382160,"internal_node_id":"0.0-6.0-10.2-0.2","task_version":"battery-v0.2-trt"},{"rune":"4","rune_set":"elianto","hex":"#f73b6a7A","correct":32,"choice":32,"rt":427.21499991603196,"accuracy":1,"outcome":"-1","keys":[1927.5449998676777],"total_keys":1,"block":0,"practice":4,"trial_type":"pit-trial","trial_index":28,"time_elapsed":385303,"internal_node_id":"0.0-6.0-10.3-0.3","task_version":"battery-v0.2-trt"},{"trial_type":"call-function","trial_index":29,"time_elapsed":385305,"internal_node_id":"0.0-6.0-11.0","task_version":"battery-v0.2-trt"},{"view_history":"[{\"page_index\":0,\"viewing_time\":2846.194999990985},{\"page_index\":1,\"viewing_time\":4989.559999899939},{\"page_index\":2,\"viewing_time\":6683.865000028163},{\"page_index\":3,\"viewing_time\":2433.1149999052286},{\"page_index\":4,\"viewing_time\":2624.7950000688434},{\"page_index\":5,\"viewing_time\":2555.3699999582022}]","rt":22133.629999822006,"trial_type":"pit-instructions","trial_index":30,"time_elapsed":407439,"internal_node_id":"0.0-6.0-12.0","task_version":"battery-v0.2-trt"},{"responses":["Press SPACE","+10","-1","True","True"],"num_errors":0,"rt":23741.11000006087,"trial_type":"pit-comprehension","trial_index":31,"time_elapsed":431185,"internal_node_id":"0.0-6.0-13.0","task_version":"battery-v0.2-trt"},{"view_history":"[{\"page_index\":0,\"viewing_time\":21348.57999999076},{\"page_index\":1,\"viewing_time\":4131.340000079945}]","rt":25480.62500008382,"trial_type":"pit-instructions","trial_index":32,"time_elapsed":456669,"internal_node_id":"0.0-7.0","task_version":"battery-v0.2-trt"},{"rune":"D","rune_set":"elianto","hex":"#f73b6a7A","correct":-1,"choice":32,"rt":659.8000000230968,"accuracy":0,"outcome":"-10","keys":[2160.2699998766184],"total_keys":1,"block":1,"trial":1,"stimulus":2,"robot":4,"valence":"lose","action":"no-go","sham":0,"trial_type":"pit-trial","trial_index":33,"time_elapsed":460036,"internal_node_id":"0.0-8.0","task_version":"battery-v0.2-trt"},{"rune":"V","rune_set":"elianto","hex":"#3366ff99","correct":-1,"choice":32,"rt":1017.4600000027567,"accuracy":0,"outcome":"+1","keys":[2517.69999996759],"total_keys":1,"block":1,"trial":2,"stimulus":0,"robot":2,"valence":"win","action":"no-go","sham":0,"trial_type":"pit-trial","trial_index":34,"time_elapsed":463757,"internal_node_id":"0.0-9.0","task_version":"battery-v0.2-trt"},{"rune":"J","rune_set":"elianto","hex":"#3366ff99","correct":32,"choice":32,"rt":806.8199998233467,"accuracy":1,"outcome":"+10","keys":[2308.2200000062585],"total_keys":1,"block":1,"trial":3,"stimulus":1,"robot":1,"valence":"win","action":"go","sham":0,"trial_type":"pit-trial","trial_index":35,"time_elapsed":467270,"internal_node_id":"0.0-10.0","task_version":"battery-v0.2-trt"},{"rune":"K","rune_set":"elianto","hex":"#3366ff99","correct":32,"choice":32,"rt":841.0950000397861,"accuracy":1,"outcome":"+1","keys":[2341.2250000983477],"total_keys":1,"block":1,"trial":4,"stimulus":3,"robot":1,"valence":"win","action":"go","sham":1,"trial_type":"pit-trial","trial_index":36,"time_elapsed":470815,"internal_node_id":"0.0-11.0","task_version":"battery-v0.2-trt"},{"rune":"K","rune_set":"elianto","hex":"#3366ff99","correct":32,"choice":32,"rt":676.6249998472631,"accuracy":1,"outcome":"+10","keys":[2177.7149999979883],"total_keys":1,"block":1,"trial":5,"stimulus":3,"robot":1,"valence":"win","action":"go","sham":0,"trial_type":"pit-trial","trial_index":37,"time_elapsed":474198,"internal_node_id":"0.0-12.0","task_version":"battery-v0.2-trt"},{"rune":"J","rune_set":"elianto","hex":"#3366ff99","correct":32,"choice":32,"rt":701.1599999386817,"accuracy":1,"outcome":"+10","keys":[2201.5400000382215],"total_keys":1,"block":1,"trial":6,"stimulus":1,"robot":1,"valence":"win","action":"go","sham":0,"trial_type":"pit-trial","trial_index":38,"time_elapsed":477607,"internal_node_id":"0.0-13.0","task_version":"battery-v0.2-trt"},{"rune":"D","rune_set":"elianto","hex":"#f73b6a7A","correct":-1,"choice":-1,"rt":-1,"accuracy":1,"outcome":"-1","keys":[],"total_keys":0,"block":1,"trial":7,"stimulus":2,"robot":4,"valence":"lose","action":"no-go","sham":0,"trial_type":"pit-trial","trial_index":39,"time_elapsed":481611,"internal_node_id":"0.0-14.0","task_version":"battery-v0.2-trt"},{"rune":"V","rune_set":"elianto","hex":"#3366ff99","correct":-1,"choice":-1,"rt":-1,"accuracy":1,"outcome":"+10","keys":[],"total_keys":0,"block":1,"trial":8,"stimulus":0,"robot":2,"valence":"win","action":"no-go","sham":0,"trial_type":"pit-trial","trial_index":40,"time_elapsed":485616,"internal_node_id":"0.0-15.0","task_version":"battery-v0.2-trt"},{"rune":"D","rune_set":"elianto","hex":"#f73b6a7A","correct":-1,"choice":32,"rt":916.2100001703948,"accuracy":0,"outcome":"-10","keys":[2418.0450001731515],"total_keys":1,"block":1,"trial":9,"stimulus":2,"robot":4,"valence":"lose","action":"no-go","sham":0,"trial_type":"pit-trial","trial_index":41,"time_elapsed":489238,"internal_node_id":"0.0-16.0","task_version":"battery-v0.2-trt"},{"rune":"K","rune_set":"elianto","hex":"#3366ff99","correct":32,"choice":32,"rt":656.6749999765307,"accuracy":1,"outcome":"+10","keys":[2157.524999929592],"total_keys":1,"block":1,"trial":10,"stimulus":3,"robot":1,"valence":"win","action":"go","sham":0,"trial_type":"pit-trial","trial_index":42,"time_elapsed":492599,"internal_node_id":"0.0-17.0","task_version":"battery-v0.2-trt"},{"rune":"V","rune_set":"elianto","hex":"#3366ff99","correct":-1,"choice":-1,"rt":-1,"accuracy":1,"outcome":"+10","keys":[],"total_keys":0,"block":1,"trial":11,"stimulus":0,"robot":2,"valence":"win","action":"no-go","sham":0,"trial_type":"pit-trial","trial_index":43,"time_elapsed":496603,"internal_node_id":"0.0-18.0","task_version":"battery-v0.2-trt"},{"rune":"J","rune_set":"elianto","hex":"#3366ff99","correct":32,"choice":32,"rt":662.0249999687076,"accuracy":1,"outcome":"+1","keys":[2162.8650000784546],"total_keys":1,"block":1,"trial":12,"stimulus":1,"robot":1,"valence":"win","action":"go","sham":1,"trial_type":"pit-trial","trial_index":44,"time_elapsed":499970,"internal_node_id":"0.0-19.0","task_version":"battery-v0.2-trt"},{"rune":"V","rune_set":"elianto","hex":"#3366ff99","correct":-1,"choice":-1,"rt":-1,"accuracy":1,"outcome":"+10","keys":[],"total_keys":0,"block":1,"trial":13,"stimulus":0,"robot":2,"valence":"win","action":"no-go","sham":0,"trial_type":"pit-trial","trial_index":45,"time_elapsed":503975,"internal_node_id":"0.0-20.0","task_version":"battery-v0.2-trt"},{"rune":"J","rune_set":"elianto","hex":"#3366ff99","correct":32,"choice":32,"rt":670.9250002168119,"accuracy":1,"outcome":"+10","keys":[2171.5450000483543],"total_keys":1,"block":1,"trial":14,"stimulus":1,"robot":1,"valence":"win","action":"go","sham":0,"trial_type":"pit-trial","trial_index":46,"time_elapsed":507351,"internal_node_id":"0.0-21.0","task_version":"battery-v0.2-trt"},{"rune":"K","rune_set":"elianto","hex":"#3366ff99","correct":32,"choice":32,"rt":709.5200000330806,"accuracy":1,"outcome":"+10","keys":[2209.8399999085814],"total_keys":1,"block":1,"trial":15,"stimulus":3,"robot":1,"valence":"win","action":"go","sham":0,"trial_type":"pit-trial","trial_index":47,"time_elapsed":510765,"internal_node_id":"0.0-22.0","task_version":"battery-v0.2-trt"},{"rune":"D","rune_set":"elianto","hex":"#f73b6a7A","correct":-1,"choice":-1,"rt":-1,"accuracy":1,"outcome":"-1","keys":[],"total_keys":0,"block":1,"trial":16,"stimulus":2,"robot":4,"valence":"lose","action":"no-go","sham":0,"trial_type":"pit-trial","trial_index":48,"time_elapsed":514769,"internal_node_id":"0.0-23.0","task_version":"battery-v0.2-trt"},{"rune":"K","rune_set":"elianto","hex":"#3366ff99","correct":32,"choice":32,"rt":620.3400001395494,"accuracy":1,"outcome":"+10","keys":[2121.1549998261034],"total_keys":1,"block":1,"trial":17,"stimulus":3,"robot":1,"valence":"win","action":"go","sham":0,"trial_type":"pit-trial","trial_index":49,"time_elapsed":518095,"internal_node_id":"0.0-24.0","task_version":"battery-v0.2-trt"},{"rune":"J","rune_set":"elianto","hex":"#3366ff99","correct":32,"choice":32,"rt":584.7350000403821,"accuracy":1,"outcome":"+10","keys":[2084.935000166297],"total_keys":1,"block":1,"trial":18,"stimulus":1,"robot":1,"valence":"win","action":"go","sham":0,"trial_type":"pit-trial","trial_index":50,"time_elapsed":521384,"internal_node_id":"0.0-25.0","task_version":"battery-v0.2-trt"},{"rune":"V","rune_set":"elianto","hex":"#3366ff99","correct":-1,"choice":-1,"rt":-1,"accuracy":1,"outcome":"+1","keys":[],"total_keys":0,"block":1,"trial":19,"stimulus":0,"robot":2,"valence":"win","action":"no-go","sham":1,"trial_type":"pit-trial","trial_index":51,"time_elapsed":525389,"internal_node_id":"0.0-26.0","task_version":"battery-v0.2-trt"},{"rune":"D","rune_set":"elianto","hex":"#f73b6a7A","correct":-1,"choice":-1,"rt":-1,"accuracy":1,"outcome":"-10","keys":[],"total_keys":0,"block":1,"trial":20,"stimulus":2,"robot":4,"valence":"lose","action":"no-go","sham":1,"trial_type":"pit-trial","trial_index":52,"time_elapsed":529393,"internal_node_id":"0.0-27.0","task_version":"battery-v0.2-trt"},{"rune":"V","rune_set":"elianto","hex":"#3366ff99","correct":-1,"choice":32,"rt":475.57999985292554,"accuracy":0,"outcome":"+1","keys":[1977.2499999962747],"total_keys":1,"block":1,"trial":21,"stimulus":0,"robot":2,"valence":"win","action":"no-go","sham":0,"trial_type":"pit-trial","trial_index":53,"time_elapsed":532575,"internal_node_id":"0.0-28.0","task_version":"battery-v0.2-trt"},{"rune":"J","rune_set":"elianto","hex":"#3366ff99","correct":32,"choice":32,"rt":402.6750000193715,"accuracy":1,"outcome":"+10","keys":[1902.9399999417365],"total_keys":1,"block":1,"trial":22,"stimulus":1,"robot":1,"valence":"win","action":"go","sham":0,"trial_type":"pit-trial","trial_index":54,"time_elapsed":535683,"internal_node_id":"0.0-29.0","task_version":"battery-v0.2-trt"},{"rune":"D","rune_set":"elianto","hex":"#f73b6a7A","correct":-1,"choice":-1,"rt":-1,"accuracy":1,"outcome":"-10","keys":[],"total_keys":0,"block":1,"trial":23,"stimulus":2,"robot":4,"valence":"lose","action":"no-go","sham":1,"trial_type":"pit-trial","trial_index":55,"time_elapsed":539689,"internal_node_id":"0.0-30.0","task_version":"battery-v0.2-trt"},{"rune":"K","rune_set":"elianto","hex":"#3366ff99","correct":32,"choice":32,"rt":486.2799998372793,"accuracy":1,"outcome":"+10","keys":[1988.1400000303984],"total_keys":1,"block":1,"trial":24,"stimulus":3,"robot":1,"valence":"win","action":"go","sham":0,"trial_type":"pit-trial","trial_index":56,"time_elapsed":542881,"internal_node_id":"0.0-31.0","task_version":"battery-v0.2-trt"},{"rune":"J","rune_set":"elianto","hex":"#3366ff99","correct":32,"choice":32,"rt":444.7449999861419,"accuracy":1,"outcome":"+10","keys":[1945.1200000476092],"total_keys":1,"block":1,"trial":25,"stimulus":1,"robot":1,"valence":"win","action":"go","sham":0,"trial_type":"pit-trial","trial_index":57,"time_elapsed":546030,"internal_node_id":"0.0-32.0","task_version":"battery-v0.2-trt"},{"rune":"K","rune_set":"elianto","hex":"#3366ff99","correct":32,"choice":32,"rt":579.9300000071526,"accuracy":1,"outcome":"+1","keys":[2080.6050000246614],"total_keys":1,"block":1,"trial":26,"stimulus":3,"robot":1,"valence":"win","action":"go","sham":1,"trial_type":"pit-trial","trial_index":58,"time_elapsed":549315,"internal_node_id":"0.0-33.0","task_version":"battery-v0.2-trt"},{"rune":"D","rune_set":"elianto","hex":"#f73b6a7A","correct":-1,"choice":-1,"rt":-1,"accuracy":1,"outcome":"-1","keys":[],"total_keys":0,"block":1,"trial":27,"stimulus":2,"robot":4,"valence":"lose","action":"no-go","sham":0,"trial_type":"pit-trial","trial_index":59,"time_elapsed":553320,"internal_node_id":"0.0-34.0","task_version":"battery-v0.2-trt"},{"rune":"V","rune_set":"elianto","hex":"#3366ff99","correct":-1,"choice":32,"rt":468.3900000527501,"accuracy":0,"outcome":"+1","keys":[1968.709999928251],"total_keys":1,"block":1,"trial":28,"stimulus":0,"robot":2,"valence":"win","action":"no-go","sham":0,"trial_type":"pit-trial","trial_index":60,"time_elapsed":556492,"internal_node_id":"0.0-35.0","task_version":"battery-v0.2-trt"},{"rune":"K","rune_set":"elianto","hex":"#3366ff99","correct":32,"choice":32,"rt":615.0699998252094,"accuracy":1,"outcome":"+10","keys":[2116.8899999465793],"total_keys":1,"block":1,"trial":29,"stimulus":3,"robot":1,"valence":"win","action":"go","sham":0,"trial_type":"pit-trial","trial_index":61,"time_elapsed":559813,"internal_node_id":"0.0-36.0","task_version":"battery-v0.2-trt"},{"rune":"D","rune_set":"elianto","hex":"#f73b6a7A","correct":-1,"choice":32,"rt":734.9899997934699,"accuracy":0,"outcome":"-1","keys":[2235.9899999573827],"total_keys":1,"block":1,"trial":30,"stimulus":2,"robot":4,"valence":"lose","action":"no-go","sham":1,"trial_type":"pit-trial","trial_index":62,"time_elapsed":563253,"internal_node_id":"0.0-37.0","task_version":"battery-v0.2-trt"},{"rune":"J","rune_set":"elianto","hex":"#3366ff99","correct":32,"choice":32,"rt":467.04500005580485,"accuracy":1,"outcome":"+10","keys":[1968.2350000366569],"total_keys":1,"block":1,"trial":31,"stimulus":1,"robot":1,"valence":"win","action":"go","sham":0,"trial_type":"pit-trial","trial_index":63,"time_elapsed":566424,"internal_node_id":"0.0-38.0","task_version":"battery-v0.2-trt"},{"rune":"V","rune_set":"elianto","hex":"#3366ff99","correct":-1,"choice":32,"rt":521.354999858886,"accuracy":0,"outcome":"+1","keys":[2022.8399999905378],"total_keys":1,"block":1,"trial":32,"stimulus":0,"robot":2,"valence":"win","action":"no-go","sham":0,"trial_type":"pit-trial","trial_index":64,"time_elapsed":569650,"internal_node_id":"0.0-39.0","task_version":"battery-v0.2-trt"},{"rune":"E","rune_set":"elianto","hex":"#3366ff99","correct":32,"choice":32,"rt":844.3299999926239,"accuracy":1,"outcome":"+10","keys":[2344.9049999471754],"total_keys":1,"block":1,"trial":33,"stimulus":4,"robot":1,"valence":"win","action":"go","sham":0,"trial_type":"pit-trial","trial_index":65,"time_elapsed":573200,"internal_node_id":"0.0-40.0","task_version":"battery-v0.2-trt"},{"rune":"K","rune_set":"elianto","hex":"#3366ff99","correct":32,"choice":32,"rt":591.3249999284744,"accuracy":1,"outcome":"+10","keys":[2091.5149999782443],"total_keys":1,"block":1,"trial":34,"stimulus":3,"robot":1,"valence":"win","action":"go","sham":0,"trial_type":"pit-trial","trial_index":66,"time_elapsed":576496,"internal_node_id":"0.0-41.0","task_version":"battery-v0.2-trt"},{"rune":"V","rune_set":"elianto","hex":"#3366ff99","correct":-1,"choice":32,"rt":616.5599999949336,"accuracy":0,"outcome":"+1","keys":[2117.9700000211596],"total_keys":1,"block":1,"trial":35,"stimulus":0,"robot":2,"valence":"win","action":"no-go","sham":0,"trial_type":"pit-trial","trial_index":67,"time_elapsed":579816,"internal_node_id":"0.0-42.0","task_version":"battery-v0.2-trt"},{"rune":"D","rune_set":"elianto","hex":"#f73b6a7A","correct":-1,"choice":32,"rt":449.54499998129904,"accuracy":0,"outcome":"-1","keys":[1950.135000050068],"total_keys":1,"block":1,"trial":36,"stimulus":2,"robot":4,"valence":"lose","action":"no-go","sham":1,"trial_type":"pit-trial","trial_index":68,"time_elapsed":582968,"internal_node_id":"0.0-43.0","task_version":"battery-v0.2-trt"},{"rune":"D","rune_set":"elianto","hex":"#f73b6a7A","correct":-1,"choice":32,"rt":1140.6050000805408,"accuracy":0,"outcome":"-10","keys":[2641.2199998740107],"total_keys":1,"block":1,"trial":37,"stimulus":2,"robot":4,"valence":"lose","action":"no-go","sham":0,"trial_type":"pit-trial","trial_index":69,"time_elapsed":586812,"internal_node_id":"0.0-44.0","task_version":"battery-v0.2-trt"},{"rune":"K","rune_set":"elianto","hex":"#3366ff99","correct":32,"choice":32,"rt":427.9649998061359,"accuracy":1,"outcome":"+10","keys":[1928.234999999404],"total_keys":1,"block":1,"trial":38,"stimulus":3,"robot":1,"valence":"win","action":"go","sham":0,"trial_type":"pit-trial","trial_index":70,"time_elapsed":589943,"internal_node_id":"0.0-45.0","task_version":"battery-v0.2-trt"},{"rune":"E","rune_set":"elianto","hex":"#3366ff99","correct":32,"choice":32,"rt":612.7150000538677,"accuracy":1,"outcome":"+10","keys":[2113.1599999498576],"total_keys":1,"block":1,"trial":39,"stimulus":4,"robot":1,"valence":"win","action":"go","sham":0,"trial_type":"pit-trial","trial_index":71,"time_elapsed":593260,"internal_node_id":"0.0-46.0","task_version":"battery-v0.2-trt"},{"rune":"V","rune_set":"elianto","hex":"#3366ff99","correct":-1,"choice":-1,"rt":-1,"accuracy":1,"outcome":"+10","keys":[],"total_keys":0,"block":1,"trial":40,"stimulus":0,"robot":2,"valence":"win","action":"no-go","sham":0,"trial_type":"pit-trial","trial_index":72,"time_elapsed":597264,"internal_node_id":"0.0-47.0","task_version":"battery-v0.2-trt"},{"rune":"E","rune_set":"elianto","hex":"#3366ff99","correct":32,"choice":32,"rt":544.2950001452118,"accuracy":1,"outcome":"+10","keys":[2045.1700000558048],"total_keys":1,"block":1,"trial":41,"stimulus":4,"robot":1,"valence":"win","action":"go","sham":0,"trial_type":"pit-trial","trial_index":73,"time_elapsed":600515,"internal_node_id":"0.0-48.0","task_version":"battery-v0.2-trt"},{"rune":"W","rune_set":"elianto","hex":"#f73b6a7A","correct":32,"choice":-1,"rt":-1,"accuracy":0,"outcome":"-10","keys":[],"total_keys":0,"block":1,"trial":42,"stimulus":5,"robot":3,"valence":"lose","action":"go","sham":0,"trial_type":"pit-trial","trial_index":74,"time_elapsed":604519,"internal_node_id":"0.0-49.0","task_version":"battery-v0.2-trt"},{"rune":"V","rune_set":"elianto","hex":"#3366ff99","correct":-1,"choice":32,"rt":490.14999996870756,"accuracy":0,"outcome":"+1","keys":[1991.2000000476837],"total_keys":1,"block":1,"trial":43,"stimulus":0,"robot":2,"valence":"win","action":"no-go","sham":0,"trial_type":"pit-trial","trial_index":75,"time_elapsed":607714,"internal_node_id":"0.0-50.0","task_version":"battery-v0.2-trt"},{"rune":"S","rune_set":"elianto","hex":"#f73b6a7A","correct":-1,"choice":32,"rt":812.1799998916686,"accuracy":0,"outcome":"-10","keys":[2313.2400000467896],"total_keys":1,"block":1,"trial":44,"stimulus":6,"robot":4,"valence":"lose","action":"no-go","sham":0,"trial_type":"pit-trial","trial_index":76,"time_elapsed":611232,"internal_node_id":"0.0-51.0","task_version":"battery-v0.2-trt"},{"rune":"E","rune_set":"elianto","hex":"#3366ff99","correct":32,"choice":32,"rt":446.53999991714954,"accuracy":1,"outcome":"+10","keys":[1947.334999917075],"total_keys":1,"block":1,"trial":45,"stimulus":4,"robot":1,"valence":"win","action":"go","sham":0,"trial_type":"pit-trial","trial_index":77,"time_elapsed":614382,"internal_node_id":"0.0-52.0","task_version":"battery-v0.2-trt"},{"rune":"W","rune_set":"elianto","hex":"#f73b6a7A","correct":32,"choice":32,"rt":847.5599999073893,"accuracy":1,"outcome":"-1","keys":[2348.3249999117106],"total_keys":1,"block":1,"trial":46,"stimulus":5,"robot":3,"valence":"lose","action":"go","sham":0,"trial_type":"pit-trial","trial_index":78,"time_elapsed":617933,"internal_node_id":"0.0-53.0","task_version":"battery-v0.2-trt"},{"rune":"S","rune_set":"elianto","hex":"#f73b6a7A","correct":-1,"choice":32,"rt":776.5349999535829,"accuracy":0,"outcome":"-10","keys":[2276.975000044331],"total_keys":1,"block":1,"trial":47,"stimulus":6,"robot":4,"valence":"lose","action":"no-go","sham":0,"trial_type":"pit-trial","trial_index":79,"time_elapsed":621414,"internal_node_id":"0.0-54.0","task_version":"battery-v0.2-trt"},{"rune":"V","rune_set":"elianto","hex":"#3366ff99","correct":-1,"choice":32,"rt":400.68999980576336,"accuracy":0,"outcome":"+1","keys":[1901.0199999902397],"total_keys":1,"block":1,"trial":48,"stimulus":0,"robot":2,"valence":"win","action":"no-go","sham":0,"trial_type":"pit-trial","trial_index":80,"time_elapsed":624518,"internal_node_id":"0.0-55.0","task_version":"battery-v0.2-trt"},{"rune":"P","rune_set":"elianto","hex":"#3366ff99","correct":-1,"choice":32,"rt":554.8400001134723,"accuracy":0,"outcome":"+10","keys":[2056.5899999346584],"total_keys":1,"block":1,"trial":49,"stimulus":7,"robot":2,"valence":"win","action":"no-go","sham":1,"trial_type":"pit-trial","trial_index":81,"time_elapsed":627778,"internal_node_id":"0.0-56.0","task_version":"battery-v0.2-trt"},{"rune":"S","rune_set":"elianto","hex":"#f73b6a7A","correct":-1,"choice":-1,"rt":-1,"accuracy":1,"outcome":"-1","keys":[],"total_keys":0,"block":1,"trial":50,"stimulus":6,"robot":4,"valence":"lose","action":"no-go","sham":0,"trial_type":"pit-trial","trial_index":82,"time_elapsed":631783,"internal_node_id":"0.0-57.0","task_version":"battery-v0.2-trt"},{"rune":"W","rune_set":"elianto","hex":"#f73b6a7A","correct":32,"choice":32,"rt":916.5300000458956,"accuracy":1,"outcome":"-1","keys":[2417.515000095591],"total_keys":1,"block":1,"trial":51,"stimulus":5,"robot":3,"valence":"lose","action":"go","sham":0,"trial_type":"pit-trial","trial_index":83,"time_elapsed":635405,"internal_node_id":"0.0-58.0","task_version":"battery-v0.2-trt"},{"rune":"E","rune_set":"elianto","hex":"#3366ff99","correct":32,"choice":32,"rt":496.3050000369549,"accuracy":1,"outcome":"+1","keys":[1996.999999973923],"total_keys":1,"block":1,"trial":52,"stimulus":4,"robot":1,"valence":"win","action":"go","sham":1,"trial_type":"pit-trial","trial_index":84,"time_elapsed":638605,"internal_node_id":"0.0-59.0","task_version":"battery-v0.2-trt"},{"rune":"S","rune_set":"elianto","hex":"#f73b6a7A","correct":-1,"choice":32,"rt":896.2749999482185,"accuracy":0,"outcome":"-1","keys":[2397.099999943748],"total_keys":1,"block":1,"trial":53,"stimulus":6,"robot":4,"valence":"lose","action":"no-go","sham":1,"trial_type":"pit-trial","trial_index":85,"time_elapsed":642205,"internal_node_id":"0.0-60.0","task_version":"battery-v0.2-trt"},{"rune":"E","rune_set":"elianto","hex":"#3366ff99","correct":32,"choice":32,"rt":592.9199999663979,"accuracy":1,"outcome":"+10","keys":[2093.72999984771],"total_keys":1,"block":1,"trial":54,"stimulus":4,"robot":1,"valence":"win","action":"go","sham":0,"trial_type":"pit-trial","trial_index":86,"time_elapsed":645502,"internal_node_id":"0.0-61.0","task_version":"battery-v0.2-trt"},{"rune":"P","rune_set":"elianto","hex":"#3366ff99","correct":-1,"choice":32,"rt":534.9900000728667,"accuracy":0,"outcome":"+10","keys":[2035.664999857545],"total_keys":1,"block":1,"trial":55,"stimulus":7,"robot":2,"valence":"win","action":"no-go","sham":1,"trial_type":"pit-trial","trial_index":87,"time_elapsed":648741,"internal_node_id":"0.0-62.0","task_version":"battery-v0.2-trt"},{"rune":"W","rune_set":"elianto","hex":"#f73b6a7A","correct":32,"choice":-1,"rt":-1,"accuracy":0,"outcome":"-10","keys":[],"total_keys":0,"block":1,"trial":56,"stimulus":5,"robot":3,"valence":"lose","action":"go","sham":0,"trial_type":"pit-trial","trial_index":88,"time_elapsed":652745,"internal_node_id":"0.0-63.0","task_version":"battery-v0.2-trt"},{"rune":"S","rune_set":"elianto","hex":"#f73b6a7A","correct":-1,"choice":32,"rt":593.0850000586361,"accuracy":0,"outcome":"-1","keys":[2094.6400000248104],"total_keys":1,"block":1,"trial":57,"stimulus":6,"robot":4,"valence":"lose","action":"no-go","sham":1,"trial_type":"pit-trial","trial_index":89,"time_elapsed":656043,"internal_node_id":"0.0-64.0","task_version":"battery-v0.2-trt"},{"rune":"P","rune_set":"elianto","hex":"#3366ff99","correct":-1,"choice":32,"rt":550.5249998532236,"accuracy":0,"outcome":"+1","keys":[2051.4400000683963],"total_keys":1,"block":1,"trial":58,"stimulus":7,"robot":2,"valence":"win","action":"no-go","sham":0,"trial_type":"pit-trial","trial_index":90,"time_elapsed":659298,"internal_node_id":"0.0-65.0","task_version":"battery-v0.2-trt"},{"rune":"E","rune_set":"elianto","hex":"#3366ff99","correct":32,"choice":32,"rt":491.67499993927777,"accuracy":1,"outcome":"+10","keys":[1991.8499998748302],"total_keys":1,"block":1,"trial":59,"stimulus":4,"robot":1,"valence":"win","action":"go","sham":0,"trial_type":"pit-trial","trial_index":91,"time_elapsed":662494,"internal_node_id":"0.0-66.0","task_version":"battery-v0.2-trt"},{"rune":"W","rune_set":"elianto","hex":"#f73b6a7A","correct":32,"choice":32,"rt":773.6049999948591,"accuracy":1,"outcome":"-10","keys":[2274.225000059232],"total_keys":1,"block":1,"trial":60,"stimulus":5,"robot":3,"valence":"lose","action":"go","sham":1,"trial_type":"pit-trial","trial_index":92,"time_elapsed":665973,"internal_node_id":"0.0-67.0","task_version":"battery-v0.2-trt"},{"rune":"E","rune_set":"elianto","hex":"#3366ff99","correct":32,"choice":32,"rt":449.0100000984967,"accuracy":1,"outcome":"+10","keys":[1949.1900000721216],"total_keys":1,"block":1,"trial":61,"stimulus":4,"robot":1,"valence":"win","action":"go","sham":0,"trial_type":"pit-trial","trial_index":93,"time_elapsed":669127,"internal_node_id":"0.0-68.0","task_version":"battery-v0.2-trt"},{"rune":"W","rune_set":"elianto","hex":"#f73b6a7A","correct":32,"choice":32,"rt":724.7100002132356,"accuracy":1,"outcome":"-10","keys":[2225.0000000931323],"total_keys":1,"block":1,"trial":62,"stimulus":5,"robot":3,"valence":"lose","action":"go","sham":1,"trial_type":"pit-trial","trial_index":94,"time_elapsed":672556,"internal_node_id":"0.0-69.0","task_version":"battery-v0.2-trt"},{"rune":"S","rune_set":"elianto","hex":"#f73b6a7A","correct":-1,"choice":32,"rt":575.4700000397861,"accuracy":0,"outcome":"-10","keys":[2076.4750000089407],"total_keys":1,"block":1,"trial":63,"stimulus":6,"robot":4,"valence":"lose","action":"no-go","sham":0,"trial_type":"pit-trial","trial_index":95,"time_elapsed":675836,"internal_node_id":"0.0-70.0","task_version":"battery-v0.2-trt"},{"rune":"P","rune_set":"elianto","hex":"#3366ff99","correct":-1,"choice":32,"rt":408.2849998958409,"accuracy":0,"outcome":"+1","keys":[1908.8149999734014],"total_keys":1,"block":1,"trial":64,"stimulus":7,"robot":2,"valence":"win","action":"no-go","sham":0,"trial_type":"pit-trial","trial_index":96,"time_elapsed":678950,"internal_node_id":"0.0-71.0","task_version":"battery-v0.2-trt"},{"rune":"S","rune_set":"elianto","hex":"#f73b6a7A","correct":-1,"choice":-1,"rt":-1,"accuracy":1,"outcome":"-1","keys":[],"total_keys":0,"block":1,"trial":65,"stimulus":6,"robot":4,"valence":"lose","action":"no-go","sham":0,"trial_type":"pit-trial","trial_index":97,"time_elapsed":682958,"internal_node_id":"0.0-72.0","task_version":"battery-v0.2-trt"},{"rune":"E","rune_set":"elianto","hex":"#3366ff99","correct":32,"choice":32,"rt":479.47499994188547,"accuracy":1,"outcome":"+10","keys":[1980.5149999447167],"total_keys":1,"block":1,"trial":66,"stimulus":4,"robot":1,"valence":"win","action":"go","sham":0,"trial_type":"pit-trial","trial_index":98,"time_elapsed":686142,"internal_node_id":"0.0-73.0","task_version":"battery-v0.2-trt"},{"rune":"P","rune_set":"elianto","hex":"#3366ff99","correct":-1,"choice":32,"rt":483.0000000074506,"accuracy":0,"outcome":"+1","keys":[1983.219999819994],"total_keys":1,"block":1,"trial":67,"stimulus":7,"robot":2,"valence":"win","action":"no-go","sham":0,"trial_type":"pit-trial","trial_index":99,"time_elapsed":689329,"internal_node_id":"0.0-74.0","task_version":"battery-v0.2-trt"},{"rune":"W","rune_set":"elianto","hex":"#f73b6a7A","correct":32,"choice":-1,"rt":-1,"accuracy":0,"outcome":"-10","keys":[],"total_keys":0,"block":1,"trial":68,"stimulus":5,"robot":3,"valence":"lose","action":"go","sham":0,"trial_type":"pit-trial","trial_index":100,"time_elapsed":693334,"internal_node_id":"0.0-75.0","task_version":"battery-v0.2-trt"},{"rune":"E","rune_set":"elianto","hex":"#3366ff99","correct":32,"choice":32,"rt":446.84999994933605,"accuracy":1,"outcome":"+10","keys":[1946.9699999317527],"total_keys":1,"block":1,"trial":69,"stimulus":4,"robot":1,"valence":"win","action":"go","sham":0,"trial_type":"pit-trial","trial_index":101,"time_elapsed":696485,"internal_node_id":"0.0-76.0","task_version":"battery-v0.2-trt"},{"rune":"S","rune_set":"elianto","hex":"#f73b6a7A","correct":-1,"choice":32,"rt":546.8200000468642,"accuracy":0,"outcome":"-10","keys":[2047.3899999633431],"total_keys":1,"block":1,"trial":70,"stimulus":6,"robot":4,"valence":"lose","action":"no-go","sham":0,"trial_type":"pit-trial","trial_index":102,"time_elapsed":699736,"internal_node_id":"0.0-77.0","task_version":"battery-v0.2-trt"},{"rune":"P","rune_set":"elianto","hex":"#3366ff99","correct":-1,"choice":32,"rt":582.4450000654906,"accuracy":0,"outcome":"+10","keys":[2082.949999952689],"total_keys":1,"block":1,"trial":71,"stimulus":7,"robot":2,"valence":"win","action":"no-go","sham":1,"trial_type":"pit-trial","trial_index":103,"time_elapsed":703022,"internal_node_id":"0.0-78.0","task_version":"battery-v0.2-trt"},{"rune":"W","rune_set":"elianto","hex":"#f73b6a7A","correct":32,"choice":-1,"rt":-1,"accuracy":0,"outcome":"-10","keys":[],"total_keys":0,"block":1,"trial":72,"stimulus":5,"robot":3,"valence":"lose","action":"go","sham":0,"trial_type":"pit-trial","trial_index":104,"time_elapsed":707026,"internal_node_id":"0.0-79.0","task_version":"battery-v0.2-trt"},{"rune":"E","rune_set":"elianto","hex":"#3366ff99","correct":32,"choice":32,"rt":396.1249999701977,"accuracy":1,"outcome":"+10","keys":[1897.4750000052154],"total_keys":1,"block":1,"trial":73,"stimulus":4,"robot":1,"valence":"win","action":"go","sham":0,"trial_type":"pit-trial","trial_index":105,"time_elapsed":710127,"internal_node_id":"0.0-80.0","task_version":"battery-v0.2-trt"},{"rune":"G","rune_set":"elianto","hex":"#f73b6a7A","correct":32,"choice":32,"rt":773.005000082776,"accuracy":1,"outcome":"-1","keys":[2273.4749999362975],"total_keys":1,"block":1,"trial":74,"stimulus":8,"robot":3,"valence":"lose","action":"go","sham":0,"trial_type":"pit-trial","trial_index":106,"time_elapsed":713604,"internal_node_id":"0.0-81.0","task_version":"battery-v0.2-trt"},{"rune":"S","rune_set":"elianto","hex":"#f73b6a7A","correct":-1,"choice":32,"rt":612.5450001563877,"accuracy":0,"outcome":"-10","keys":[2113.3550000377],"total_keys":1,"block":1,"trial":75,"stimulus":6,"robot":4,"valence":"lose","action":"no-go","sham":0,"trial_type":"pit-trial","trial_index":107,"time_elapsed":716921,"internal_node_id":"0.0-82.0","task_version":"battery-v0.2-trt"},{"rune":"P","rune_set":"elianto","hex":"#3366ff99","correct":-1,"choice":32,"rt":460.5000000447035,"accuracy":0,"outcome":"+10","keys":[1960.770000005141],"total_keys":1,"block":1,"trial":76,"stimulus":7,"robot":2,"valence":"win","action":"no-go","sham":1,"trial_type":"pit-trial","trial_index":108,"time_elapsed":720089,"internal_node_id":"0.0-83.0","task_version":"battery-v0.2-trt"},{"rune":"G","rune_set":"elianto","hex":"#f73b6a7A","correct":32,"choice":-1,"rt":-1,"accuracy":0,"outcome":"-10","keys":[],"total_keys":0,"block":1,"trial":77,"stimulus":8,"robot":3,"valence":"lose","action":"go","sham":0,"trial_type":"pit-trial","trial_index":109,"time_elapsed":724092,"internal_node_id":"0.0-84.0","task_version":"battery-v0.2-trt"},{"rune":"E","rune_set":"elianto","hex":"#3366ff99","correct":32,"choice":32,"rt":469.36500002630055,"accuracy":1,"outcome":"+10","keys":[1970.214999979362],"total_keys":1,"block":1,"trial":78,"stimulus":4,"robot":1,"valence":"win","action":"go","sham":0,"trial_type":"pit-trial","trial_index":110,"time_elapsed":727266,"internal_node_id":"0.0-85.0","task_version":"battery-v0.2-trt"},{"rune":"P","rune_set":"elianto","hex":"#3366ff99","correct":-1,"choice":32,"rt":542.6499999593943,"accuracy":0,"outcome":"+10","keys":[2043.0199999827892],"total_keys":1,"block":1,"trial":79,"stimulus":7,"robot":2,"valence":"win","action":"no-go","sham":1,"trial_type":"pit-trial","trial_index":111,"time_elapsed":730512,"internal_node_id":"0.0-86.0","task_version":"battery-v0.2-trt"},{"rune":"S","rune_set":"elianto","hex":"#f73b6a7A","correct":-1,"choice":32,"rt":877.8599998913705,"accuracy":0,"outcome":"-10","keys":[2379.0150000713766],"total_keys":1,"block":1,"trial":80,"stimulus":6,"robot":4,"valence":"lose","action":"no-go","sham":0,"trial_type":"pit-trial","trial_index":112,"time_elapsed":734095,"internal_node_id":"0.0-87.0","task_version":"battery-v0.2-trt"},{"rune":"S","rune_set":"elianto","hex":"#f73b6a7A","correct":-1,"choice":-1,"rt":-1,"accuracy":1,"outcome":"-1","keys":[],"total_keys":0,"block":1,"trial":81,"stimulus":6,"robot":4,"valence":"lose","action":"no-go","sham":0,"trial_type":"pit-trial","trial_index":113,"time_elapsed":738100,"internal_node_id":"0.0-88.0","task_version":"battery-v0.2-trt"},{"rune":"P","rune_set":"elianto","hex":"#3366ff99","correct":-1,"choice":32,"rt":467.77500002644956,"accuracy":0,"outcome":"+1","keys":[1969.7350000496954],"total_keys":1,"block":1,"trial":82,"stimulus":7,"robot":2,"valence":"win","action":"no-go","sham":0,"trial_type":"pit-trial","trial_index":114,"time_elapsed":741273,"internal_node_id":"0.0-89.0","task_version":"battery-v0.2-trt"},{"rune":"A","rune_set":"elianto","hex":"#f73b6a7A","correct":32,"choice":-1,"rt":-1,"accuracy":0,"outcome":"-10","keys":[],"total_keys":0,"block":1,"trial":83,"stimulus":9,"robot":3,"valence":"lose","action":"go","sham":0,"trial_type":"pit-trial","trial_index":115,"time_elapsed":745278,"internal_node_id":"0.0-90.0","task_version":"battery-v0.2-trt"},{"rune":"G","rune_set":"elianto","hex":"#f73b6a7A","correct":32,"choice":32,"rt":1263.9999999664724,"accuracy":1,"outcome":"-1","keys":[2764.8649998009205],"total_keys":1,"block":1,"trial":84,"stimulus":8,"robot":3,"valence":"lose","action":"go","sham":0,"trial_type":"pit-trial","trial_index":116,"time_elapsed":749246,"internal_node_id":"0.0-91.0","task_version":"battery-v0.2-trt"},{"rune":"A","rune_set":"elianto","hex":"#f73b6a7A","correct":32,"choice":32,"rt":759.7350000869483,"accuracy":1,"outcome":"-1","keys":[2260.0300000049174],"total_keys":1,"block":1,"trial":85,"stimulus":9,"robot":3,"valence":"lose","action":"go","sham":0,"trial_type":"pit-trial","trial_index":117,"time_elapsed":752710,"internal_node_id":"0.0-92.0","task_version":"battery-v0.2-trt"},{"rune":"G","rune_set":"elianto","hex":"#f73b6a7A","correct":32,"choice":32,"rt":933.1150001380593,"accuracy":1,"outcome":"-1","keys":[2434.0500000398606],"total_keys":1,"block":1,"trial":86,"stimulus":8,"robot":3,"valence":"lose","action":"go","sham":0,"trial_type":"pit-trial","trial_index":118,"time_elapsed":756347,"internal_node_id":"0.0-93.0","task_version":"battery-v0.2-trt"},{"rune":"S","rune_set":"elianto","hex":"#f73b6a7A","correct":-1,"choice":32,"rt":1095.7150000613183,"accuracy":0,"outcome":"-10","keys":[2597.594999941066],"total_keys":1,"block":1,"trial":87,"stimulus":6,"robot":4,"valence":"lose","action":"no-go","sham":0,"trial_type":"pit-trial","trial_index":119,"time_elapsed":760149,"internal_node_id":"0.0-94.0","task_version":"battery-v0.2-trt"},{"rune":"P","rune_set":"elianto","hex":"#3366ff99","correct":-1,"choice":32,"rt":452.9399999883026,"accuracy":0,"outcome":"+1","keys":[1953.830000013113],"total_keys":1,"block":1,"trial":88,"stimulus":7,"robot":2,"valence":"win","action":"no-go","sham":0,"trial_type":"pit-trial","trial_index":120,"time_elapsed":763316,"internal_node_id":"0.0-95.0","task_version":"battery-v0.2-trt"},{"rune":"U","rune_set":"elianto","hex":"#3366ff99","correct":-1,"choice":32,"rt":563.8649999164045,"accuracy":0,"outcome":"+1","keys":[2064.7099998313934],"total_keys":1,"block":1,"trial":89,"stimulus":11,"robot":2,"valence":"win","action":"no-go","sham":0,"trial_type":"pit-trial","trial_index":121,"time_elapsed":766585,"internal_node_id":"0.0-96.0","task_version":"battery-v0.2-trt"},{"rune":"A","rune_set":"elianto","hex":"#f73b6a7A","correct":32,"choice":32,"rt":847.4399999249727,"accuracy":1,"outcome":"-1","keys":[2348.3150000683963],"total_keys":1,"block":1,"trial":90,"stimulus":9,"robot":3,"valence":"lose","action":"go","sham":0,"trial_type":"pit-trial","trial_index":122,"time_elapsed":770137,"internal_node_id":"0.0-97.0","task_version":"battery-v0.2-trt"},{"rune":"L","rune_set":"elianto","hex":"#f73b6a7A","correct":-1,"choice":-1,"rt":-1,"accuracy":1,"outcome":"-10","keys":[],"total_keys":0,"block":1,"trial":91,"stimulus":10,"robot":4,"valence":"lose","action":"no-go","sham":1,"trial_type":"pit-trial","trial_index":123,"time_elapsed":774141,"internal_node_id":"0.0-98.0","task_version":"battery-v0.2-trt"},{"rune":"G","rune_set":"elianto","hex":"#f73b6a7A","correct":32,"choice":32,"rt":540.9900001250207,"accuracy":1,"outcome":"-10","keys":[2042.0900001190603],"total_keys":1,"block":1,"trial":92,"stimulus":8,"robot":3,"valence":"lose","action":"go","sham":1,"trial_type":"pit-trial","trial_index":124,"time_elapsed":777387,"internal_node_id":"0.0-99.0","task_version":"battery-v0.2-trt"},{"rune":"A","rune_set":"elianto","hex":"#f73b6a7A","correct":32,"choice":32,"rt":520.7799999043345,"accuracy":1,"outcome":"-1","keys":[2021.6399999335408],"total_keys":1,"block":1,"trial":93,"stimulus":9,"robot":3,"valence":"lose","action":"go","sham":0,"trial_type":"pit-trial","trial_index":125,"time_elapsed":780612,"internal_node_id":"0.0-100.0","task_version":"battery-v0.2-trt"},{"rune":"L","rune_set":"elianto","hex":"#f73b6a7A","correct":-1,"choice":32,"rt":737.1249999850988,"accuracy":0,"outcome":"-10","keys":[2237.304999958724],"total_keys":1,"block":1,"trial":94,"stimulus":10,"robot":4,"valence":"lose","action":"no-go","sham":0,"trial_type":"pit-trial","trial_index":126,"time_elapsed":784053,"internal_node_id":"0.0-101.0","task_version":"battery-v0.2-trt"},{"rune":"G","rune_set":"elianto","hex":"#f73b6a7A","correct":32,"choice":32,"rt":614.0900000464171,"accuracy":1,"outcome":"-1","keys":[2114.7900000214577],"total_keys":1,"block":1,"trial":95,"stimulus":8,"robot":3,"valence":"lose","action":"go","sham":0,"trial_type":"pit-trial","trial_index":127,"time_elapsed":787372,"internal_node_id":"0.0-102.0","task_version":"battery-v0.2-trt"},{"rune":"U","rune_set":"elianto","hex":"#3366ff99","correct":-1,"choice":32,"rt":564.7350000217557,"accuracy":0,"outcome":"+1","keys":[2064.8749999236315],"total_keys":1,"block":1,"trial":96,"stimulus":11,"robot":2,"valence":"win","action":"no-go","sham":0,"trial_type":"pit-trial","trial_index":128,"time_elapsed":790641,"internal_node_id":"0.0-103.0","task_version":"battery-v0.2-trt"},{"rune":"G","rune_set":"elianto","hex":"#f73b6a7A","correct":32,"choice":32,"rt":612.2899998445064,"accuracy":1,"outcome":"-1","keys":[2112.97499993816],"total_keys":1,"block":1,"trial":97,"stimulus":8,"robot":3,"valence":"lose","action":"go","sham":0,"trial_type":"pit-trial","trial_index":129,"time_elapsed":793957,"internal_node_id":"0.0-104.0","task_version":"battery-v0.2-trt"},{"rune":"A","rune_set":"elianto","hex":"#f73b6a7A","correct":32,"choice":32,"rt":593.5550001449883,"accuracy":1,"outcome":"-1","keys":[2093.8600001391023],"total_keys":1,"block":1,"trial":98,"stimulus":9,"robot":3,"valence":"lose","action":"go","sham":0,"trial_type":"pit-trial","trial_index":130,"time_elapsed":797255,"internal_node_id":"0.0-105.0","task_version":"battery-v0.2-trt"},{"rune":"L","rune_set":"elianto","hex":"#f73b6a7A","correct":-1,"choice":-1,"rt":-1,"accuracy":1,"outcome":"-1","keys":[],"total_keys":0,"block":1,"trial":99,"stimulus":10,"robot":4,"valence":"lose","action":"no-go","sham":0,"trial_type":"pit-trial","trial_index":131,"time_elapsed":801260,"internal_node_id":"0.0-106.0","task_version":"battery-v0.2-trt"},{"rune":"U","rune_set":"elianto","hex":"#3366ff99","correct":-1,"choice":32,"rt":836.9850001763552,"accuracy":0,"outcome":"+1","keys":[2337.9300001543015],"total_keys":1,"block":1,"trial":100,"stimulus":11,"robot":2,"valence":"win","action":"no-go","sham":0,"trial_type":"pit-trial","trial_index":132,"time_elapsed":804802,"internal_node_id":"0.0-107.0","task_version":"battery-v0.2-trt"},{"rune":"U","rune_set":"elianto","hex":"#3366ff99","correct":-1,"choice":-1,"rt":-1,"accuracy":1,"outcome":"+1","keys":[],"total_keys":0,"block":1,"trial":101,"stimulus":11,"robot":2,"valence":"win","action":"no-go","sham":1,"trial_type":"pit-trial","trial_index":133,"time_elapsed":808806,"internal_node_id":"0.0-108.0","task_version":"battery-v0.2-trt"},{"rune":"L","rune_set":"elianto","hex":"#f73b6a7A","correct":-1,"choice":-1,"rt":-1,"accuracy":1,"outcome":"-10","keys":[],"total_keys":0,"block":1,"trial":102,"stimulus":10,"robot":4,"valence":"lose","action":"no-go","sham":1,"trial_type":"pit-trial","trial_index":134,"time_elapsed":812810,"internal_node_id":"0.0-109.0","task_version":"battery-v0.2-trt"},{"rune":"G","rune_set":"elianto","hex":"#f73b6a7A","correct":32,"choice":32,"rt":608.4400000981987,"accuracy":1,"outcome":"-1","keys":[2109.0750000439584],"total_keys":1,"block":1,"trial":103,"stimulus":8,"robot":3,"valence":"lose","action":"go","sham":0,"trial_type":"pit-trial","trial_index":135,"time_elapsed":816123,"internal_node_id":"0.0-110.0","task_version":"battery-v0.2-trt"},{"rune":"A","rune_set":"elianto","hex":"#f73b6a7A","correct":32,"choice":32,"rt":601.5049999114126,"accuracy":1,"outcome":"-10","keys":[2101.740000071004],"total_keys":1,"block":1,"trial":104,"stimulus":9,"robot":3,"valence":"lose","action":"go","sham":1,"trial_type":"pit-trial","trial_index":136,"time_elapsed":819428,"internal_node_id":"0.0-111.0","task_version":"battery-v0.2-trt"},{"rune":"L","rune_set":"elianto","hex":"#f73b6a7A","correct":-1,"choice":32,"rt":764.4299999810755,"accuracy":0,"outcome":"-10","keys":[2264.7049999795854],"total_keys":1,"block":1,"trial":105,"stimulus":10,"robot":4,"valence":"lose","action":"no-go","sham":0,"trial_type":"pit-trial","trial_index":137,"time_elapsed":822897,"internal_node_id":"0.0-112.0","task_version":"battery-v0.2-trt"},{"rune":"A","rune_set":"elianto","hex":"#f73b6a7A","correct":32,"choice":32,"rt":609.6200000029057,"accuracy":1,"outcome":"-10","keys":[2110.0400001741946],"total_keys":1,"block":1,"trial":106,"stimulus":9,"robot":3,"valence":"lose","action":"go","sham":1,"trial_type":"pit-trial","trial_index":138,"time_elapsed":826210,"internal_node_id":"0.0-113.0","task_version":"battery-v0.2-trt"},{"rune":"U","rune_set":"elianto","hex":"#3366ff99","correct":-1,"choice":-1,"rt":-1,"accuracy":1,"outcome":"+10","keys":[],"total_keys":0,"block":1,"trial":107,"stimulus":11,"robot":2,"valence":"win","action":"no-go","sham":0,"trial_type":"pit-trial","trial_index":139,"time_elapsed":830216,"internal_node_id":"0.0-114.0","task_version":"battery-v0.2-trt"},{"rune":"G","rune_set":"elianto","hex":"#f73b6a7A","correct":32,"choice":32,"rt":612.1400000993162,"accuracy":1,"outcome":"-1","keys":[2113.3499999996275],"total_keys":1,"block":1,"trial":108,"stimulus":8,"robot":3,"valence":"lose","action":"go","sham":0,"trial_type":"pit-trial","trial_index":140,"time_elapsed":833532,"internal_node_id":"0.0-115.0","task_version":"battery-v0.2-trt"},{"rune":"U","rune_set":"elianto","hex":"#3366ff99","correct":-1,"choice":-1,"rt":-1,"accuracy":1,"outcome":"+1","keys":[],"total_keys":0,"block":1,"trial":109,"stimulus":11,"robot":2,"valence":"win","action":"no-go","sham":1,"trial_type":"pit-trial","trial_index":141,"time_elapsed":837536,"internal_node_id":"0.0-116.0","task_version":"battery-v0.2-trt"},{"rune":"L","rune_set":"elianto","hex":"#f73b6a7A","correct":-1,"choice":-1,"rt":-1,"accuracy":1,"outcome":"-1","keys":[],"total_keys":0,"block":1,"trial":110,"stimulus":10,"robot":4,"valence":"lose","action":"no-go","sham":0,"trial_type":"pit-trial","trial_index":142,"time_elapsed":841540,"internal_node_id":"0.0-117.0","task_version":"battery-v0.2-trt"},{"rune":"A","rune_set":"elianto","hex":"#f73b6a7A","correct":32,"choice":32,"rt":662.8750001545995,"accuracy":1,"outcome":"-1","keys":[2164.050000021234],"total_keys":1,"block":1,"trial":111,"stimulus":9,"robot":3,"valence":"lose","action":"go","sham":0,"trial_type":"pit-trial","trial_index":143,"time_elapsed":844908,"internal_node_id":"0.0-118.0","task_version":"battery-v0.2-trt"},{"rune":"G","rune_set":"elianto","hex":"#f73b6a7A","correct":32,"choice":32,"rt":830.3999998606741,"accuracy":1,"outcome":"-1","keys":[2330.654999939725],"total_keys":1,"block":1,"trial":112,"stimulus":8,"robot":3,"valence":"lose","action":"go","sham":0,"trial_type":"pit-trial","trial_index":144,"time_elapsed":848443,"internal_node_id":"0.0-119.0","task_version":"battery-v0.2-trt"},{"rune":"G","rune_set":"elianto","hex":"#f73b6a7A","correct":32,"choice":-1,"rt":-1,"accuracy":0,"outcome":"-10","keys":[],"total_keys":0,"block":1,"trial":113,"stimulus":8,"robot":3,"valence":"lose","action":"go","sham":0,"trial_type":"pit-trial","trial_index":145,"time_elapsed":852449,"internal_node_id":"0.0-120.0","task_version":"battery-v0.2-trt"},{"rune":"U","rune_set":"elianto","hex":"#3366ff99","correct":-1,"choice":-1,"rt":-1,"accuracy":1,"outcome":"+10","keys":[],"total_keys":0,"block":1,"trial":114,"stimulus":11,"robot":2,"valence":"win","action":"no-go","sham":0,"trial_type":"pit-trial","trial_index":146,"time_elapsed":856455,"internal_node_id":"0.0-121.0","task_version":"battery-v0.2-trt"},{"rune":"L","rune_set":"elianto","hex":"#f73b6a7A","correct":-1,"choice":32,"rt":634.2700000386685,"accuracy":0,"outcome":"-10","keys":[2135.0849999580532],"total_keys":1,"block":1,"trial":115,"stimulus":10,"robot":4,"valence":"lose","action":"no-go","sham":0,"trial_type":"pit-trial","trial_index":147,"time_elapsed":859795,"internal_node_id":"0.0-122.0","task_version":"battery-v0.2-trt"},{"rune":"A","rune_set":"elianto","hex":"#f73b6a7A","correct":32,"choice":32,"rt":551.1350000742823,"accuracy":1,"outcome":"-1","keys":[2052.1949999965727],"total_keys":1,"block":1,"trial":116,"stimulus":9,"robot":3,"valence":"lose","action":"go","sham":0,"trial_type":"pit-trial","trial_index":148,"time_elapsed":863052,"internal_node_id":"0.0-123.0","task_version":"battery-v0.2-trt"},{"rune":"U","rune_set":"elianto","hex":"#3366ff99","correct":-1,"choice":-1,"rt":-1,"accuracy":1,"outcome":"+10","keys":[],"total_keys":0,"block":1,"trial":117,"stimulus":11,"robot":2,"valence":"win","action":"no-go","sham":0,"trial_type":"pit-trial","trial_index":149,"time_elapsed":867056,"internal_node_id":"0.0-124.0","task_version":"battery-v0.2-trt"},{"rune":"A","rune_set":"elianto","hex":"#f73b6a7A","correct":32,"choice":32,"rt":553.6149998661131,"accuracy":1,"outcome":"-1","keys":[2053.790000034496],"total_keys":1,"block":1,"trial":118,"stimulus":9,"robot":3,"valence":"lose","action":"go","sham":0,"trial_type":"pit-trial","trial_index":150,"time_elapsed":870313,"internal_node_id":"0.0-125.0","task_version":"battery-v0.2-trt"},{"rune":"L","rune_set":"elianto","hex":"#f73b6a7A","correct":-1,"choice":-1,"rt":-1,"accuracy":1,"outcome":"-1","keys":[],"total_keys":0,"block":1,"trial":119,"stimulus":10,"robot":4,"valence":"lose","action":"no-go","sham":0,"trial_type":"pit-trial","trial_index":151,"time_elapsed":874318,"internal_node_id":"0.0-126.0","task_version":"battery-v0.2-trt"},{"rune":"G","rune_set":"elianto","hex":"#f73b6a7A","correct":32,"choice":32,"rt":600.9400000330061,"accuracy":1,"outcome":"-10","keys":[2102.290000068024],"total_keys":1,"block":1,"trial":120,"stimulus":8,"robot":3,"valence":"lose","action":"go","sham":1,"trial_type":"pit-trial","trial_index":152,"time_elapsed":877625,"internal_node_id":"0.0-127.0","task_version":"battery-v0.2-trt"},{"view_history":"[{\"page_index\":0,\"viewing_time\":3061.130000045523},{\"page_index\":1,\"viewing_time\":2229.6100000385195}]","rt":5291.519999969751,"trial_type":"pit-instructions","trial_index":153,"time_elapsed":882919,"internal_node_id":"0.0-128.0","task_version":"battery-v0.2-trt"},{"rune":"M","rune_set":"elianto","hex":"#f73b6a7A","correct":-1,"choice":32,"rt":588.4649998042732,"accuracy":0,"outcome":"-10","keys":[2090.1300001423806],"total_keys":1,"block":2,"trial":121,"stimulus":0,"robot":4,"valence":"lose","action":"no-go","sham":0,"trial_type":"pit-trial","trial_index":154,"time_elapsed":886216,"internal_node_id":"0.0-129.0","task_version":"battery-v0.2-trt"},{"rune":"H","rune_set":"elianto","hex":"#3366ff99","correct":-1,"choice":32,"rt":491.9649998191744,"accuracy":0,"outcome":"+1","keys":[1992.9599999450147],"total_keys":1,"block":2,"trial":122,"stimulus":3,"robot":2,"valence":"win","action":"no-go","sham":0,"trial_type":"pit-trial","trial_index":155,"time_elapsed":889413,"internal_node_id":"0.0-130.0","task_version":"battery-v0.2-trt"},{"rune":"Y","rune_set":"elianto","hex":"#3366ff99","correct":32,"choice":32,"rt":779.5500000938773,"accuracy":1,"outcome":"+10","keys":[2280.1600000821054],"total_keys":1,"block":2,"trial":123,"stimulus":2,"robot":1,"valence":"win","action":"go","sham":0,"trial_type":"pit-trial","trial_index":156,"time_elapsed":892896,"internal_node_id":"0.0-131.0","task_version":"battery-v0.2-trt"},{"rune":"R","rune_set":"elianto","hex":"#f73b6a7A","correct":-1,"choice":-1,"rt":-1,"accuracy":1,"outcome":"-1","keys":[],"total_keys":0,"block":2,"trial":124,"stimulus":1,"robot":4,"valence":"lose","action":"no-go","sham":0,"trial_type":"pit-trial","trial_index":157,"time_elapsed":896899,"internal_node_id":"0.0-132.0","task_version":"battery-v0.2-trt"},{"rune":"R","rune_set":"elianto","hex":"#f73b6a7A","correct":-1,"choice":-1,"rt":-1,"accuracy":1,"outcome":"-1","keys":[],"total_keys":0,"block":2,"trial":125,"stimulus":1,"robot":4,"valence":"lose","action":"no-go","sham":0,"trial_type":"pit-trial","trial_index":158,"time_elapsed":900905,"internal_node_id":"0.0-133.0","task_version":"battery-v0.2-trt"},{"rune":"Y","rune_set":"elianto","hex":"#3366ff99","correct":32,"choice":32,"rt":412.5399999320507,"accuracy":1,"outcome":"+1","keys":[1913.4750000666827],"total_keys":1,"block":2,"trial":126,"stimulus":2,"robot":1,"valence":"win","action":"go","sham":1,"trial_type":"pit-trial","trial_index":159,"time_elapsed":904024,"internal_node_id":"0.0-134.0","task_version":"battery-v0.2-trt"},{"rune":"M","rune_set":"elianto","hex":"#f73b6a7A","correct":-1,"choice":-1,"rt":-1,"accuracy":1,"outcome":"-1","keys":[],"total_keys":0,"block":2,"trial":127,"stimulus":0,"robot":4,"valence":"lose","action":"no-go","sham":0,"trial_type":"pit-trial","trial_index":160,"time_elapsed":908029,"internal_node_id":"0.0-135.0","task_version":"battery-v0.2-trt"},{"rune":"H","rune_set":"elianto","hex":"#3366ff99","correct":-1,"choice":32,"rt":802.3400001693517,"accuracy":0,"outcome":"+1","keys":[2302.4599999189377],"total_keys":1,"block":2,"trial":128,"stimulus":3,"robot":2,"valence":"win","action":"no-go","sham":0,"trial_type":"pit-trial","trial_index":161,"time_elapsed":911546,"internal_node_id":"0.0-136.0","task_version":"battery-v0.2-trt"},{"rune":"M","rune_set":"elianto","hex":"#f73b6a7A","correct":-1,"choice":-1,"rt":-1,"accuracy":1,"outcome":"-1","keys":[],"total_keys":0,"block":2,"trial":129,"stimulus":0,"robot":4,"valence":"lose","action":"no-go","sham":0,"trial_type":"pit-trial","trial_index":162,"time_elapsed":915551,"internal_node_id":"0.0-137.0","task_version":"battery-v0.2-trt"},{"rune":"R","rune_set":"elianto","hex":"#f73b6a7A","correct":-1,"choice":-1,"rt":-1,"accuracy":1,"outcome":"-1","keys":[],"total_keys":0,"block":2,"trial":130,"stimulus":1,"robot":4,"valence":"lose","action":"no-go","sham":0,"trial_type":"pit-trial","trial_index":163,"time_elapsed":919555,"internal_node_id":"0.0-138.0","task_version":"battery-v0.2-trt"},{"rune":"H","rune_set":"elianto","hex":"#3366ff99","correct":-1,"choice":-1,"rt":-1,"accuracy":1,"outcome":"+10","keys":[],"total_keys":0,"block":2,"trial":131,"stimulus":3,"robot":2,"valence":"win","action":"no-go","sham":0,"trial_type":"pit-trial","trial_index":164,"time_elapsed":923560,"internal_node_id":"0.0-139.0","task_version":"battery-v0.2-trt"},{"rune":"Y","rune_set":"elianto","hex":"#3366ff99","correct":32,"choice":32,"rt":910.6749999336898,"accuracy":1,"outcome":"+1","keys":[2410.990000003949],"total_keys":1,"block":2,"trial":132,"stimulus":2,"robot":1,"valence":"win","action":"go","sham":1,"trial_type":"pit-trial","trial_index":165,"time_elapsed":927175,"internal_node_id":"0.0-140.0","task_version":"battery-v0.2-trt"},{"rune":"M","rune_set":"elianto","hex":"#f73b6a7A","correct":-1,"choice":-1,"rt":-1,"accuracy":1,"outcome":"-10","keys":[],"total_keys":0,"block":2,"trial":133,"stimulus":0,"robot":4,"valence":"lose","action":"no-go","sham":1,"trial_type":"pit-trial","trial_index":166,"time_elapsed":931179,"internal_node_id":"0.0-141.0","task_version":"battery-v0.2-trt"},{"rune":"H","rune_set":"elianto","hex":"#3366ff99","correct":-1,"choice":-1,"rt":-1,"accuracy":1,"outcome":"+10","keys":[],"total_keys":0,"block":2,"trial":134,"stimulus":3,"robot":2,"valence":"win","action":"no-go","sham":0,"trial_type":"pit-trial","trial_index":167,"time_elapsed":935184,"internal_node_id":"0.0-142.0","task_version":"battery-v0.2-trt"},{"rune":"Y","rune_set":"elianto","hex":"#3366ff99","correct":32,"choice":-1,"rt":-1,"accuracy":0,"outcome":"+1","keys":[],"total_keys":0,"block":2,"trial":135,"stimulus":2,"robot":1,"valence":"win","action":"go","sham":0,"trial_type":"pit-trial","trial_index":168,"time_elapsed":939188,"internal_node_id":"0.0-143.0","task_version":"battery-v0.2-trt"},{"rune":"R","rune_set":"elianto","hex":"#f73b6a7A","correct":-1,"choice":32,"rt":593.3850000146776,"accuracy":0,"outcome":"-10","keys":[2094.359999988228],"total_keys":1,"block":2,"trial":136,"stimulus":1,"robot":4,"valence":"lose","action":"no-go","sham":0,"trial_type":"pit-trial","trial_index":169,"time_elapsed":942487,"internal_node_id":"0.0-144.0","task_version":"battery-v0.2-trt"},{"rune":"H","rune_set":"elianto","hex":"#3366ff99","correct":-1,"choice":-1,"rt":-1,"accuracy":1,"outcome":"+10","keys":[],"total_keys":0,"block":2,"trial":137,"stimulus":3,"robot":2,"valence":"win","action":"no-go","sham":0,"trial_type":"pit-trial","trial_index":170,"time_elapsed":946493,"internal_node_id":"0.0-145.0","task_version":"battery-v0.2-trt"},{"rune":"Y","rune_set":"elianto","hex":"#3366ff99","correct":32,"choice":32,"rt":784.5600000582635,"accuracy":1,"outcome":"+10","keys":[2285.1749998517334],"total_keys":1,"block":2,"trial":138,"stimulus":2,"robot":1,"valence":"win","action":"go","sham":0,"trial_type":"pit-trial","trial_index":171,"time_elapsed":949982,"internal_node_id":"0.0-146.0","task_version":"battery-v0.2-trt"},{"rune":"R","rune_set":"elianto","hex":"#f73b6a7A","correct":-1,"choice":-1,"rt":-1,"accuracy":1,"outcome":"-1","keys":[],"total_keys":0,"block":2,"trial":139,"stimulus":1,"robot":4,"valence":"lose","action":"no-go","sham":0,"trial_type":"pit-trial","trial_index":172,"time_elapsed":953986,"internal_node_id":"0.0-147.0","task_version":"battery-v0.2-trt"},{"rune":"M","rune_set":"elianto","hex":"#f73b6a7A","correct":-1,"choice":32,"rt":823.6899999901652,"accuracy":0,"outcome":"-1","keys":[2324.3099998217076],"total_keys":1,"block":2,"trial":140,"stimulus":0,"robot":4,"valence":"lose","action":"no-go","sham":1,"trial_type":"pit-trial","trial_index":173,"time_elapsed":957514,"internal_node_id":"0.0-148.0","task_version":"battery-v0.2-trt"},{"rune":"M","rune_set":"elianto","hex":"#f73b6a7A","correct":-1,"choice":32,"rt":482.2899999562651,"accuracy":0,"outcome":"-10","keys":[1983.0300000030547],"total_keys":1,"block":2,"trial":141,"stimulus":0,"robot":4,"valence":"lose","action":"no-go","sham":0,"trial_type":"pit-trial","trial_index":174,"time_elapsed":960700,"internal_node_id":"0.0-149.0","task_version":"battery-v0.2-trt"},{"rune":"R","rune_set":"elianto","hex":"#f73b6a7A","correct":-1,"choice":32,"rt":550.9049999527633,"accuracy":0,"outcome":"-10","keys":[2051.065000006929],"total_keys":1,"block":2,"trial":142,"stimulus":1,"robot":4,"valence":"lose","action":"no-go","sham":0,"trial_type":"pit-trial","trial_index":175,"time_elapsed":963954,"internal_node_id":"0.0-150.0","task_version":"battery-v0.2-trt"},{"rune":"H","rune_set":"elianto","hex":"#3366ff99","correct":-1,"choice":-1,"rt":-1,"accuracy":1,"outcome":"+10","keys":[],"total_keys":0,"block":2,"trial":143,"stimulus":3,"robot":2,"valence":"win","action":"no-go","sham":0,"trial_type":"pit-trial","trial_index":176,"time_elapsed":967959,"internal_node_id":"0.0-151.0","task_version":"battery-v0.2-trt"},{"rune":"Y","rune_set":"elianto","hex":"#3366ff99","correct":32,"choice":32,"rt":790.4850000049919,"accuracy":1,"outcome":"+10","keys":[2291.5300000458956],"total_keys":1,"block":2,"trial":144,"stimulus":2,"robot":1,"valence":"win","action":"go","sham":0,"trial_type":"pit-trial","trial_index":177,"time_elapsed":971455,"internal_node_id":"0.0-152.0","task_version":"battery-v0.2-trt"},{"rune":"R","rune_set":"elianto","hex":"#f73b6a7A","correct":-1,"choice":-1,"rt":-1,"accuracy":1,"outcome":"-10","keys":[],"total_keys":0,"block":2,"trial":145,"stimulus":1,"robot":4,"valence":"lose","action":"no-go","sham":1,"trial_type":"pit-trial","trial_index":178,"time_elapsed":975462,"internal_node_id":"0.0-153.0","task_version":"battery-v0.2-trt"},{"rune":"H","rune_set":"elianto","hex":"#3366ff99","correct":-1,"choice":-1,"rt":-1,"accuracy":1,"outcome":"+1","keys":[],"total_keys":0,"block":2,"trial":146,"stimulus":3,"robot":2,"valence":"win","action":"no-go","sham":1,"trial_type":"pit-trial","trial_index":179,"time_elapsed":979467,"internal_node_id":"0.0-154.0","task_version":"battery-v0.2-trt"},{"rune":"M","rune_set":"elianto","hex":"#f73b6a7A","correct":-1,"choice":-1,"rt":-1,"accuracy":1,"outcome":"-1","keys":[],"total_keys":0,"block":2,"trial":147,"stimulus":0,"robot":4,"valence":"lose","action":"no-go","sham":0,"trial_type":"pit-trial","trial_index":180,"time_elapsed":983472,"internal_node_id":"0.0-155.0","task_version":"battery-v0.2-trt"},{"rune":"Y","rune_set":"elianto","hex":"#3366ff99","correct":32,"choice":-1,"rt":-1,"accuracy":0,"outcome":"+1","keys":[],"total_keys":0,"block":2,"trial":148,"stimulus":2,"robot":1,"valence":"win","action":"go","sham":0,"trial_type":"pit-trial","trial_index":181,"time_elapsed":987476,"internal_node_id":"0.0-156.0","task_version":"battery-v0.2-trt"},{"rune":"H","rune_set":"elianto","hex":"#3366ff99","correct":-1,"choice":-1,"rt":-1,"accuracy":1,"outcome":"+10","keys":[],"total_keys":0,"block":2,"trial":149,"stimulus":3,"robot":2,"valence":"win","action":"no-go","sham":0,"trial_type":"pit-trial","trial_index":182,"time_elapsed":991483,"internal_node_id":"0.0-157.0","task_version":"battery-v0.2-trt"},{"rune":"Y","rune_set":"elianto","hex":"#3366ff99","correct":32,"choice":32,"rt":632.2050001472235,"accuracy":1,"outcome":"+10","keys":[2133.725000079721],"total_keys":1,"block":2,"trial":150,"stimulus":2,"robot":1,"valence":"win","action":"go","sham":0,"trial_type":"pit-trial","trial_index":183,"time_elapsed":994823,"internal_node_id":"0.0-158.0","task_version":"battery-v0.2-trt"},{"rune":"R","rune_set":"elianto","hex":"#f73b6a7A","correct":-1,"choice":32,"rt":693.0849999189377,"accuracy":0,"outcome":"-10","keys":[2193.345000036061],"total_keys":1,"block":2,"trial":151,"stimulus":1,"robot":4,"valence":"lose","action":"no-go","sham":0,"trial_type":"pit-trial","trial_index":184,"time_elapsed":998220,"internal_node_id":"0.0-159.0","task_version":"battery-v0.2-trt"},{"rune":"M","rune_set":"elianto","hex":"#f73b6a7A","correct":-1,"choice":32,"rt":1053.0000000726432,"accuracy":0,"outcome":"-10","keys":[2553.8200000301003],"total_keys":1,"block":2,"trial":152,"stimulus":0,"robot":4,"valence":"lose","action":"no-go","sham":0,"trial_type":"pit-trial","trial_index":185,"time_elapsed":1001977,"internal_node_id":"0.0-160.0","task_version":"battery-v0.2-trt"},{"rune":"H","rune_set":"elianto","hex":"#3366ff99","correct":-1,"choice":-1,"rt":-1,"accuracy":1,"outcome":"+10","keys":[],"total_keys":0,"block":2,"trial":153,"stimulus":3,"robot":2,"valence":"win","action":"no-go","sham":0,"trial_type":"pit-trial","trial_index":186,"time_elapsed":1005980,"internal_node_id":"0.0-161.0","task_version":"battery-v0.2-trt"},{"rune":"Y","rune_set":"elianto","hex":"#3366ff99","correct":32,"choice":32,"rt":615.5450001824647,"accuracy":1,"outcome":"+10","keys":[2116.89000017941],"total_keys":1,"block":2,"trial":154,"stimulus":2,"robot":1,"valence":"win","action":"go","sham":0,"trial_type":"pit-trial","trial_index":187,"time_elapsed":1009300,"internal_node_id":"0.0-162.0","task_version":"battery-v0.2-trt"},{"rune":"M","rune_set":"elianto","hex":"#f73b6a7A","correct":-1,"choice":-1,"rt":-1,"accuracy":1,"outcome":"-1","keys":[],"total_keys":0,"block":2,"trial":155,"stimulus":0,"robot":4,"valence":"lose","action":"no-go","sham":0,"trial_type":"pit-trial","trial_index":188,"time_elapsed":1013303,"internal_node_id":"0.0-163.0","task_version":"battery-v0.2-trt"},{"rune":"Z","rune_set":"elianto","hex":"#f73b6a7A","correct":32,"choice":-1,"rt":-1,"accuracy":0,"outcome":"-10","keys":[],"total_keys":0,"block":2,"trial":156,"stimulus":4,"robot":3,"valence":"lose","action":"go","sham":0,"trial_type":"pit-trial","trial_index":189,"time_elapsed":1017307,"internal_node_id":"0.0-164.0","task_version":"battery-v0.2-trt"},{"rune":"Y","rune_set":"elianto","hex":"#3366ff99","correct":32,"choice":32,"rt":859.4400000292808,"accuracy":1,"outcome":"+10","keys":[2360.4099999647588],"total_keys":1,"block":2,"trial":157,"stimulus":2,"robot":1,"valence":"win","action":"go","sham":0,"trial_type":"pit-trial","trial_index":190,"time_elapsed":1020871,"internal_node_id":"0.0-165.0","task_version":"battery-v0.2-trt"},{"rune":"H","rune_set":"elianto","hex":"#3366ff99","correct":-1,"choice":32,"rt":635.8450001571327,"accuracy":0,"outcome":"+1","keys":[2136.299999896437],"total_keys":1,"block":2,"trial":158,"stimulus":3,"robot":2,"valence":"win","action":"no-go","sham":0,"trial_type":"pit-trial","trial_index":191,"time_elapsed":1024212,"internal_node_id":"0.0-166.0","task_version":"battery-v0.2-trt"},{"rune":"M","rune_set":"elianto","hex":"#f73b6a7A","correct":-1,"choice":32,"rt":755.424999864772,"accuracy":0,"outcome":"-10","keys":[2255.824999883771],"total_keys":1,"block":2,"trial":159,"stimulus":0,"robot":4,"valence":"lose","action":"no-go","sham":0,"trial_type":"pit-trial","trial_index":192,"time_elapsed":1027672,"internal_node_id":"0.0-167.0","task_version":"battery-v0.2-trt"},{"rune":"Z","rune_set":"elianto","hex":"#f73b6a7A","correct":32,"choice":-1,"rt":-1,"accuracy":0,"outcome":"-10","keys":[],"total_keys":0,"block":2,"trial":160,"stimulus":4,"robot":3,"valence":"lose","action":"go","sham":0,"trial_type":"pit-trial","trial_index":193,"time_elapsed":1031676,"internal_node_id":"0.0-168.0","task_version":"battery-v0.2-trt"},{"rune":"B","rune_set":"elianto","hex":"#3366ff99","correct":32,"choice":32,"rt":662.4450001399964,"accuracy":1,"outcome":"+10","keys":[2163.1800001487136],"total_keys":1,"block":2,"trial":161,"stimulus":6,"robot":1,"valence":"win","action":"go","sham":0,"trial_type":"pit-trial","trial_index":194,"time_elapsed":1035043,"internal_node_id":"0.0-169.0","task_version":"battery-v0.2-trt"},{"rune":"C","rune_set":"elianto","hex":"#3366ff99","correct":-1,"choice":32,"rt":749.1699999663979,"accuracy":0,"outcome":"+10","keys":[2250.334999989718],"total_keys":1,"block":2,"trial":162,"stimulus":5,"robot":2,"valence":"win","action":"no-go","sham":1,"trial_type":"pit-trial","trial_index":195,"time_elapsed":1038496,"internal_node_id":"0.0-170.0","task_version":"battery-v0.2-trt"},{"rune":"Z","rune_set":"elianto","hex":"#f73b6a7A","correct":32,"choice":-1,"rt":-1,"accuracy":0,"outcome":"-10","keys":[],"total_keys":0,"block":2,"trial":163,"stimulus":4,"robot":3,"valence":"lose","action":"go","sham":0,"trial_type":"pit-trial","trial_index":196,"time_elapsed":1042500,"internal_node_id":"0.0-171.0","task_version":"battery-v0.2-trt"},{"rune":"M","rune_set":"elianto","hex":"#f73b6a7A","correct":-1,"choice":-1,"rt":-1,"accuracy":1,"outcome":"-1","keys":[],"total_keys":0,"block":2,"trial":164,"stimulus":0,"robot":4,"valence":"lose","action":"no-go","sham":0,"trial_type":"pit-trial","trial_index":197,"time_elapsed":1046504,"internal_node_id":"0.0-172.0","task_version":"battery-v0.2-trt"},{"rune":"M","rune_set":"elianto","hex":"#f73b6a7A","correct":-1,"choice":-1,"rt":-1,"accuracy":1,"outcome":"-1","keys":[],"total_keys":0,"block":2,"trial":165,"stimulus":0,"robot":4,"valence":"lose","action":"no-go","sham":0,"trial_type":"pit-trial","trial_index":198,"time_elapsed":1050509,"internal_node_id":"0.0-173.0","task_version":"battery-v0.2-trt"},{"rune":"B","rune_set":"elianto","hex":"#3366ff99","correct":32,"choice":32,"rt":461.51000005193055,"accuracy":1,"outcome":"+10","keys":[1962.129999883473],"total_keys":1,"block":2,"trial":166,"stimulus":6,"robot":1,"valence":"win","action":"go","sham":0,"trial_type":"pit-trial","trial_index":199,"time_elapsed":1053675,"internal_node_id":"0.0-174.0","task_version":"battery-v0.2-trt"},{"rune":"Z","rune_set":"elianto","hex":"#f73b6a7A","correct":32,"choice":32,"rt":1089.905000058934,"accuracy":1,"outcome":"-1","keys":[2591.1850000265986],"total_keys":1,"block":2,"trial":167,"stimulus":4,"robot":3,"valence":"lose","action":"go","sham":0,"trial_type":"pit-trial","trial_index":200,"time_elapsed":1057471,"internal_node_id":"0.0-175.0","task_version":"battery-v0.2-trt"},{"rune":"C","rune_set":"elianto","hex":"#3366ff99","correct":-1,"choice":32,"rt":529.575000051409,"accuracy":0,"outcome":"+1","keys":[2030.155000044033],"total_keys":1,"block":2,"trial":168,"stimulus":5,"robot":2,"valence":"win","action":"no-go","sham":0,"trial_type":"pit-trial","trial_index":201,"time_elapsed":1060705,"internal_node_id":"0.0-176.0","task_version":"battery-v0.2-trt"},{"rune":"T","rune_set":"elianto","hex":"#f73b6a7A","correct":-1,"choice":-1,"rt":-1,"accuracy":1,"outcome":"-1","keys":[],"total_keys":0,"block":2,"trial":169,"stimulus":7,"robot":4,"valence":"lose","action":"no-go","sham":0,"trial_type":"pit-trial","trial_index":202,"time_elapsed":1064710,"internal_node_id":"0.0-177.0","task_version":"battery-v0.2-trt"},{"rune":"B","rune_set":"elianto","hex":"#3366ff99","correct":32,"choice":32,"rt":675.1850000582635,"accuracy":1,"outcome":"+10","keys":[2175.224999897182],"total_keys":1,"block":2,"trial":170,"stimulus":6,"robot":1,"valence":"win","action":"go","sham":0,"trial_type":"pit-trial","trial_index":203,"time_elapsed":1068089,"internal_node_id":"0.0-178.0","task_version":"battery-v0.2-trt"},{"rune":"C","rune_set":"elianto","hex":"#3366ff99","correct":-1,"choice":32,"rt":544.6049999445677,"accuracy":0,"outcome":"+1","keys":[2045.105000026524],"total_keys":1,"block":2,"trial":171,"stimulus":5,"robot":2,"valence":"win","action":"no-go","sham":0,"trial_type":"pit-trial","trial_index":204,"time_elapsed":1071338,"internal_node_id":"0.0-179.0","task_version":"battery-v0.2-trt"},{"rune":"Z","rune_set":"elianto","hex":"#f73b6a7A","correct":32,"choice":32,"rt":780.2049999590963,"accuracy":1,"outcome":"-1","keys":[2282.1599999442697],"total_keys":1,"block":2,"trial":172,"stimulus":4,"robot":3,"valence":"lose","action":"go","sham":0,"trial_type":"pit-trial","trial_index":205,"time_elapsed":1074824,"internal_node_id":"0.0-180.0","task_version":"battery-v0.2-trt"},{"rune":"B","rune_set":"elianto","hex":"#3366ff99","correct":32,"choice":32,"rt":545.9799999371171,"accuracy":1,"outcome":"+10","keys":[2046.0049998946488],"total_keys":1,"block":2,"trial":173,"stimulus":6,"robot":1,"valence":"win","action":"go","sham":0,"trial_type":"pit-trial","trial_index":206,"time_elapsed":1078074,"internal_node_id":"0.0-181.0","task_version":"battery-v0.2-trt"},{"rune":"T","rune_set":"elianto","hex":"#f73b6a7A","correct":-1,"choice":32,"rt":952.2300001699477,"accuracy":0,"outcome":"-1","keys":[2452.894999878481],"total_keys":1,"block":2,"trial":174,"stimulus":7,"robot":4,"valence":"lose","action":"no-go","sham":1,"trial_type":"pit-trial","trial_index":207,"time_elapsed":1081731,"internal_node_id":"0.0-182.0","task_version":"battery-v0.2-trt"},{"rune":"Z","rune_set":"elianto","hex":"#f73b6a7A","correct":32,"choice":32,"rt":563.1450000219047,"accuracy":1,"outcome":"-1","keys":[2063.480000011623],"total_keys":1,"block":2,"trial":175,"stimulus":4,"robot":3,"valence":"lose","action":"go","sham":0,"trial_type":"pit-trial","trial_index":208,"time_elapsed":1084997,"internal_node_id":"0.0-183.0","task_version":"battery-v0.2-trt"},{"rune":"C","rune_set":"elianto","hex":"#3366ff99","correct":-1,"choice":-1,"rt":-1,"accuracy":1,"outcome":"+10","keys":[],"total_keys":0,"block":2,"trial":176,"stimulus":5,"robot":2,"valence":"win","action":"no-go","sham":0,"trial_type":"pit-trial","trial_index":209,"time_elapsed":1089002,"internal_node_id":"0.0-184.0","task_version":"battery-v0.2-trt"},{"rune":"C","rune_set":"elianto","hex":"#3366ff99","correct":-1,"choice":-1,"rt":-1,"accuracy":1,"outcome":"+10","keys":[],"total_keys":0,"block":2,"trial":177,"stimulus":5,"robot":2,"valence":"win","action":"no-go","sham":0,"trial_type":"pit-trial","trial_index":210,"time_elapsed":1093007,"internal_node_id":"0.0-185.0","task_version":"battery-v0.2-trt"},{"rune":"T","rune_set":"elianto","hex":"#f73b6a7A","correct":-1,"choice":32,"rt":716.2450000178069,"accuracy":0,"outcome":"-10","keys":[2216.685000108555],"total_keys":1,"block":2,"trial":178,"stimulus":7,"robot":4,"valence":"lose","action":"no-go","sham":0,"trial_type":"pit-trial","trial_index":211,"time_elapsed":1096428,"internal_node_id":"0.0-186.0","task_version":"battery-v0.2-trt"},{"rune":"Z","rune_set":"elianto","hex":"#f73b6a7A","correct":32,"choice":32,"rt":1188.8299998827279,"accuracy":1,"outcome":"-1","keys":[2689.8650000803173],"total_keys":1,"block":2,"trial":179,"stimulus":4,"robot":3,"valence":"lose","action":"go","sham":0,"trial_type":"pit-trial","trial_index":212,"time_elapsed":1100322,"internal_node_id":"0.0-187.0","task_version":"battery-v0.2-trt"},{"rune":"B","rune_set":"elianto","hex":"#3366ff99","correct":32,"choice":32,"rt":539.2450001090765,"accuracy":1,"outcome":"+10","keys":[2039.5400000270456],"total_keys":1,"block":2,"trial":180,"stimulus":6,"robot":1,"valence":"win","action":"go","sham":0,"trial_type":"pit-trial","trial_index":213,"time_elapsed":1103564,"internal_node_id":"0.0-188.0","task_version":"battery-v0.2-trt"},{"rune":"B","rune_set":"elianto","hex":"#3366ff99","correct":32,"choice":32,"rt":525.0399999786168,"accuracy":1,"outcome":"+10","keys":[2025.6350000854582],"total_keys":1,"block":2,"trial":181,"stimulus":6,"robot":1,"valence":"win","action":"go","sham":0,"trial_type":"pit-trial","trial_index":214,"time_elapsed":1106800,"internal_node_id":"0.0-189.0","task_version":"battery-v0.2-trt"},{"rune":"Z","rune_set":"elianto","hex":"#f73b6a7A","correct":32,"choice":32,"rt":896.6250000521541,"accuracy":1,"outcome":"-1","keys":[2397.300000069663],"total_keys":1,"block":2,"trial":182,"stimulus":4,"robot":3,"valence":"lose","action":"go","sham":0,"trial_type":"pit-trial","trial_index":215,"time_elapsed":1110402,"internal_node_id":"0.0-190.0","task_version":"battery-v0.2-trt"},{"rune":"C","rune_set":"elianto","hex":"#3366ff99","correct":-1,"choice":-1,"rt":-1,"accuracy":1,"outcome":"+10","keys":[],"total_keys":0,"block":2,"trial":183,"stimulus":5,"robot":2,"valence":"win","action":"no-go","sham":0,"trial_type":"pit-trial","trial_index":216,"time_elapsed":1114407,"internal_node_id":"0.0-191.0","task_version":"battery-v0.2-trt"},{"rune":"T","rune_set":"elianto","hex":"#f73b6a7A","correct":-1,"choice":32,"rt":606.4549998845905,"accuracy":0,"outcome":"-10","keys":[2106.9249999709427],"total_keys":1,"block":2,"trial":184,"stimulus":7,"robot":4,"valence":"lose","action":"no-go","sham":0,"trial_type":"pit-trial","trial_index":217,"time_elapsed":1117718,"internal_node_id":"0.0-192.0","task_version":"battery-v0.2-trt"},{"rune":"B","rune_set":"elianto","hex":"#3366ff99","correct":32,"choice":32,"rt":589.7899998817593,"accuracy":1,"outcome":"+10","keys":[2090.7550000119954],"total_keys":1,"block":2,"trial":185,"stimulus":6,"robot":1,"valence":"win","action":"go","sham":0,"trial_type":"pit-trial","trial_index":218,"time_elapsed":1121014,"internal_node_id":"0.0-193.0","task_version":"battery-v0.2-trt"},{"rune":"Z","rune_set":"elianto","hex":"#f73b6a7A","correct":32,"choice":32,"rt":617.1899999026209,"accuracy":1,"outcome":"-1","keys":[2117.829999886453],"total_keys":1,"block":2,"trial":186,"stimulus":4,"robot":3,"valence":"lose","action":"go","sham":0,"trial_type":"pit-trial","trial_index":219,"time_elapsed":1124340,"internal_node_id":"0.0-194.0","task_version":"battery-v0.2-trt"},{"rune":"C","rune_set":"elianto","hex":"#3366ff99","correct":-1,"choice":-1,"rt":-1,"accuracy":1,"outcome":"+1","keys":[],"total_keys":0,"block":2,"trial":187,"stimulus":5,"robot":2,"valence":"win","action":"no-go","sham":1,"trial_type":"pit-trial","trial_index":220,"time_elapsed":1128345,"internal_node_id":"0.0-195.0","task_version":"battery-v0.2-trt"},{"rune":"T","rune_set":"elianto","hex":"#f73b6a7A","correct":-1,"choice":-1,"rt":-1,"accuracy":1,"outcome":"-1","keys":[],"total_keys":0,"block":2,"trial":188,"stimulus":7,"robot":4,"valence":"lose","action":"no-go","sham":0,"trial_type":"pit-trial","trial_index":221,"time_elapsed":1132351,"internal_node_id":"0.0-196.0","task_version":"battery-v0.2-trt"},{"rune":"B","rune_set":"elianto","hex":"#3366ff99","correct":32,"choice":32,"rt":484.3949999194592,"accuracy":1,"outcome":"+1","keys":[1984.8350000102073],"total_keys":1,"block":2,"trial":189,"stimulus":6,"robot":1,"valence":"win","action":"go","sham":1,"trial_type":"pit-trial","trial_index":222,"time_elapsed":1135539,"internal_node_id":"0.0-197.0","task_version":"battery-v0.2-trt"},{"rune":"Z","rune_set":"elianto","hex":"#f73b6a7A","correct":32,"choice":32,"rt":744.9449999257922,"accuracy":1,"outcome":"-1","keys":[2246.9849998597056],"total_keys":1,"block":2,"trial":190,"stimulus":4,"robot":3,"valence":"lose","action":"go","sham":0,"trial_type":"pit-trial","trial_index":223,"time_elapsed":1138990,"internal_node_id":"0.0-198.0","task_version":"battery-v0.2-trt"},{"rune":"C","rune_set":"elianto","hex":"#3366ff99","correct":-1,"choice":-1,"rt":-1,"accuracy":1,"outcome":"+1","keys":[],"total_keys":0,"block":2,"trial":191,"stimulus":5,"robot":2,"valence":"win","action":"no-go","sham":1,"trial_type":"pit-trial","trial_index":224,"time_elapsed":1142995,"internal_node_id":"0.0-199.0","task_version":"battery-v0.2-trt"},{"rune":"T","rune_set":"elianto","hex":"#f73b6a7A","correct":-1,"choice":-1,"rt":-1,"accuracy":1,"outcome":"-1","keys":[],"total_keys":0,"block":2,"trial":192,"stimulus":7,"robot":4,"valence":"lose","action":"no-go","sham":0,"trial_type":"pit-trial","trial_index":225,"time_elapsed":1146998,"internal_node_id":"0.0-200.0","task_version":"battery-v0.2-trt"},{"rune":"T","rune_set":"elianto","hex":"#f73b6a7A","correct":-1,"choice":-1,"rt":-1,"accuracy":1,"outcome":"-1","keys":[],"total_keys":0,"block":2,"trial":193,"stimulus":7,"robot":4,"valence":"lose","action":"no-go","sham":0,"trial_type":"pit-trial","trial_index":226,"time_elapsed":1151003,"internal_node_id":"0.0-201.0","task_version":"battery-v0.2-trt"},{"rune":"X","rune_set":"elianto","hex":"#3366ff99","correct":32,"choice":32,"rt":640.2449999004602,"accuracy":1,"outcome":"+10","keys":[2140.2849999722093],"total_keys":1,"block":2,"trial":194,"stimulus":8,"robot":1,"valence":"win","action":"go","sham":0,"trial_type":"pit-trial","trial_index":227,"time_elapsed":1154347,"internal_node_id":"0.0-202.0","task_version":"battery-v0.2-trt"},{"rune":"F","rune_set":"elianto","hex":"#f73b6a7A","correct":32,"choice":-1,"rt":-1,"accuracy":0,"outcome":"-10","keys":[],"total_keys":0,"block":2,"trial":195,"stimulus":9,"robot":3,"valence":"lose","action":"go","sham":0,"trial_type":"pit-trial","trial_index":228,"time_elapsed":1158352,"internal_node_id":"0.0-203.0","task_version":"battery-v0.2-trt"},{"rune":"C","rune_set":"elianto","hex":"#3366ff99","correct":-1,"choice":-1,"rt":-1,"accuracy":1,"outcome":"+10","keys":[],"total_keys":0,"block":2,"trial":196,"stimulus":5,"robot":2,"valence":"win","action":"no-go","sham":0,"trial_type":"pit-trial","trial_index":229,"time_elapsed":1162355,"internal_node_id":"0.0-204.0","task_version":"battery-v0.2-trt"},{"rune":"T","rune_set":"elianto","hex":"#f73b6a7A","correct":-1,"choice":-1,"rt":-1,"accuracy":1,"outcome":"-1","keys":[],"total_keys":0,"block":2,"trial":197,"stimulus":7,"robot":4,"valence":"lose","action":"no-go","sham":0,"trial_type":"pit-trial","trial_index":230,"time_elapsed":1166375,"internal_node_id":"0.0-205.0","task_version":"battery-v0.2-trt"},{"rune":"F","rune_set":"elianto","hex":"#f73b6a7A","correct":32,"choice":32,"rt":648.1500000227243,"accuracy":1,"outcome":"-1","keys":[2149.3800000753254],"total_keys":1,"block":2,"trial":198,"stimulus":9,"robot":3,"valence":"lose","action":"go","sham":0,"trial_type":"pit-trial","trial_index":231,"time_elapsed":1169728,"internal_node_id":"0.0-206.0","task_version":"battery-v0.2-trt"},{"rune":"X","rune_set":"elianto","hex":"#3366ff99","correct":32,"choice":32,"rt":595.204999903217,"accuracy":1,"outcome":"+10","keys":[2096.075000008568],"total_keys":1,"block":2,"trial":199,"stimulus":8,"robot":1,"valence":"win","action":"go","sham":0,"trial_type":"pit-trial","trial_index":232,"time_elapsed":1173028,"internal_node_id":"0.0-207.0","task_version":"battery-v0.2-trt"},{"rune":"C","rune_set":"elianto","hex":"#3366ff99","correct":-1,"choice":-1,"rt":-1,"accuracy":1,"outcome":"+10","keys":[],"total_keys":0,"block":2,"trial":200,"stimulus":5,"robot":2,"valence":"win","action":"no-go","sham":0,"trial_type":"pit-trial","trial_index":233,"time_elapsed":1177044,"internal_node_id":"0.0-208.0","task_version":"battery-v0.2-trt"},{"rune":"T","rune_set":"elianto","hex":"#f73b6a7A","correct":-1,"choice":32,"rt":693.9550000242889,"accuracy":0,"outcome":"-1","keys":[2194.0549998544157],"total_keys":1,"block":2,"trial":201,"stimulus":7,"robot":4,"valence":"lose","action":"no-go","sham":1,"trial_type":"pit-trial","trial_index":234,"time_elapsed":1180442,"internal_node_id":"0.0-209.0","task_version":"battery-v0.2-trt"},{"rune":"F","rune_set":"elianto","hex":"#f73b6a7A","correct":32,"choice":-1,"rt":-1,"accuracy":0,"outcome":"-10","keys":[],"total_keys":0,"block":2,"trial":202,"stimulus":9,"robot":3,"valence":"lose","action":"go","sham":0,"trial_type":"pit-trial","trial_index":235,"time_elapsed":1184446,"internal_node_id":"0.0-210.0","task_version":"battery-v0.2-trt"},{"rune":"C","rune_set":"elianto","hex":"#3366ff99","correct":-1,"choice":-1,"rt":-1,"accuracy":1,"outcome":"+1","keys":[],"total_keys":0,"block":2,"trial":203,"stimulus":5,"robot":2,"valence":"win","action":"no-go","sham":1,"trial_type":"pit-trial","trial_index":236,"time_elapsed":1188451,"internal_node_id":"0.0-211.0","task_version":"battery-v0.2-trt"},{"rune":"X","rune_set":"elianto","hex":"#3366ff99","correct":32,"choice":32,"rt":524.8249999713153,"accuracy":1,"outcome":"+10","keys":[2025.2649998292327],"total_keys":1,"block":2,"trial":204,"stimulus":8,"robot":1,"valence":"win","action":"go","sham":0,"trial_type":"pit-trial","trial_index":237,"time_elapsed":1191679,"internal_node_id":"0.0-212.0","task_version":"battery-v0.2-trt"},{"rune":"X","rune_set":"elianto","hex":"#3366ff99","correct":32,"choice":32,"rt":575.6149999797344,"accuracy":1,"outcome":"+10","keys":[2075.935000088066],"total_keys":1,"block":2,"trial":205,"stimulus":8,"robot":1,"valence":"win","action":"go","sham":0,"trial_type":"pit-trial","trial_index":238,"time_elapsed":1194959,"internal_node_id":"0.0-213.0","task_version":"battery-v0.2-trt"},{"rune":"T","rune_set":"elianto","hex":"#f73b6a7A","correct":-1,"choice":32,"rt":656.5199999604374,"accuracy":0,"outcome":"-1","keys":[2157.69000002183],"total_keys":1,"block":2,"trial":206,"stimulus":7,"robot":4,"valence":"lose","action":"no-go","sham":1,"trial_type":"pit-trial","trial_index":239,"time_elapsed":1198321,"internal_node_id":"0.0-214.0","task_version":"battery-v0.2-trt"},{"rune":"F","rune_set":"elianto","hex":"#f73b6a7A","correct":32,"choice":-1,"rt":-1,"accuracy":0,"outcome":"-10","keys":[],"total_keys":0,"block":2,"trial":207,"stimulus":9,"robot":3,"valence":"lose","action":"go","sham":0,"trial_type":"pit-trial","trial_index":240,"time_elapsed":1202327,"internal_node_id":"0.0-215.0","task_version":"battery-v0.2-trt"},{"rune":"C","rune_set":"elianto","hex":"#3366ff99","correct":-1,"choice":-1,"rt":-1,"accuracy":1,"outcome":"+10","keys":[],"total_keys":0,"block":2,"trial":208,"stimulus":5,"robot":2,"valence":"win","action":"no-go","sham":0,"trial_type":"pit-trial","trial_index":241,"time_elapsed":1206332,"internal_node_id":"0.0-216.0","task_version":"battery-v0.2-trt"},{"rune":"N","rune_set":"elianto","hex":"#f73b6a7A","correct":32,"choice":-1,"rt":-1,"accuracy":0,"outcome":"-1","keys":[],"total_keys":0,"block":2,"trial":209,"stimulus":10,"robot":3,"valence":"lose","action":"go","sham":1,"trial_type":"pit-trial","trial_index":242,"time_elapsed":1210336,"internal_node_id":"0.0-217.0","task_version":"battery-v0.2-trt"},{"rune":"F","rune_set":"elianto","hex":"#f73b6a7A","correct":32,"choice":32,"rt":792.0800000429153,"accuracy":1,"outcome":"-1","keys":[2292.4399999901652],"total_keys":1,"block":2,"trial":210,"stimulus":9,"robot":3,"valence":"lose","action":"go","sham":0,"trial_type":"pit-trial","trial_index":243,"time_elapsed":1213832,"internal_node_id":"0.0-218.0","task_version":"battery-v0.2-trt"},{"rune":"X","rune_set":"elianto","hex":"#3366ff99","correct":32,"choice":32,"rt":429.2599998880178,"accuracy":1,"outcome":"+10","keys":[1929.679999826476],"total_keys":1,"block":2,"trial":211,"stimulus":8,"robot":1,"valence":"win","action":"go","sham":0,"trial_type":"pit-trial","trial_index":244,"time_elapsed":1216965,"internal_node_id":"0.0-219.0","task_version":"battery-v0.2-trt"},{"rune":"Q","rune_set":"elianto","hex":"#3366ff99","correct":-1,"choice":32,"rt":641.4699999149889,"accuracy":0,"outcome":"+10","keys":[2141.6500001214445],"total_keys":1,"block":2,"trial":212,"stimulus":11,"robot":2,"valence":"win","action":"no-go","sham":1,"trial_type":"pit-trial","trial_index":245,"time_elapsed":1220311,"internal_node_id":"0.0-220.0","task_version":"battery-v0.2-trt"},{"rune":"X","rune_set":"elianto","hex":"#3366ff99","correct":32,"choice":32,"rt":525.6699998863041,"accuracy":1,"outcome":"+10","keys":[2026.3499999418855],"total_keys":1,"block":2,"trial":213,"stimulus":8,"robot":1,"valence":"win","action":"go","sham":0,"trial_type":"pit-trial","trial_index":246,"time_elapsed":1223541,"internal_node_id":"0.0-221.0","task_version":"battery-v0.2-trt"},{"rune":"F","rune_set":"elianto","hex":"#f73b6a7A","correct":32,"choice":32,"rt":907.4599999003112,"accuracy":1,"outcome":"-1","keys":[2409.345000050962],"total_keys":1,"block":2,"trial":214,"stimulus":9,"robot":3,"valence":"lose","action":"go","sham":0,"trial_type":"pit-trial","trial_index":247,"time_elapsed":1227154,"internal_node_id":"0.0-222.0","task_version":"battery-v0.2-trt"},{"rune":"Q","rune_set":"elianto","hex":"#3366ff99","correct":-1,"choice":32,"rt":534.1300000436604,"accuracy":0,"outcome":"+1","keys":[2035.2150001563132],"total_keys":1,"block":2,"trial":215,"stimulus":11,"robot":2,"valence":"win","action":"no-go","sham":0,"trial_type":"pit-trial","trial_index":248,"time_elapsed":1230393,"internal_node_id":"0.0-223.0","task_version":"battery-v0.2-trt"},{"rune":"N","rune_set":"elianto","hex":"#f73b6a7A","correct":32,"choice":32,"rt":842.0850001275539,"accuracy":1,"outcome":"-1","keys":[2342.5000000279397],"total_keys":1,"block":2,"trial":216,"stimulus":10,"robot":3,"valence":"lose","action":"go","sham":0,"trial_type":"pit-trial","trial_index":249,"time_elapsed":1233939,"internal_node_id":"0.0-224.0","task_version":"battery-v0.2-trt"},{"rune":"X","rune_set":"elianto","hex":"#3366ff99","correct":32,"choice":32,"rt":532.7149999793619,"accuracy":1,"outcome":"+1","keys":[2033.24000001885],"total_keys":1,"block":2,"trial":217,"stimulus":8,"robot":1,"valence":"win","action":"go","sham":1,"trial_type":"pit-trial","trial_index":250,"time_elapsed":1237177,"internal_node_id":"0.0-225.0","task_version":"battery-v0.2-trt"},{"rune":"Q","rune_set":"elianto","hex":"#3366ff99","correct":-1,"choice":32,"rt":553.3900000154972,"accuracy":0,"outcome":"+1","keys":[2053.4399999305606],"total_keys":1,"block":2,"trial":218,"stimulus":11,"robot":2,"valence":"win","action":"no-go","sham":0,"trial_type":"pit-trial","trial_index":251,"time_elapsed":1240434,"internal_node_id":"0.0-226.0","task_version":"battery-v0.2-trt"},{"rune":"N","rune_set":"elianto","hex":"#f73b6a7A","correct":32,"choice":32,"rt":652.1799999754876,"accuracy":1,"outcome":"-1","keys":[2152.9800000134856],"total_keys":1,"block":2,"trial":219,"stimulus":10,"robot":3,"valence":"lose","action":"go","sham":0,"trial_type":"pit-trial","trial_index":252,"time_elapsed":1243791,"internal_node_id":"0.0-227.0","task_version":"battery-v0.2-trt"},{"rune":"F","rune_set":"elianto","hex":"#f73b6a7A","correct":32,"choice":32,"rt":659.9349998869002,"accuracy":1,"outcome":"-1","keys":[2160.715000005439],"total_keys":1,"block":2,"trial":220,"stimulus":9,"robot":3,"valence":"lose","action":"go","sham":0,"trial_type":"pit-trial","trial_index":253,"time_elapsed":1247155,"internal_node_id":"0.0-228.0","task_version":"battery-v0.2-trt"},{"rune":"F","rune_set":"elianto","hex":"#f73b6a7A","correct":32,"choice":-1,"rt":-1,"accuracy":0,"outcome":"-10","keys":[],"total_keys":0,"block":2,"trial":221,"stimulus":9,"robot":3,"valence":"lose","action":"go","sham":0,"trial_type":"pit-trial","trial_index":254,"time_elapsed":1251160,"internal_node_id":"0.0-229.0","task_version":"battery-v0.2-trt"},{"rune":"X","rune_set":"elianto","hex":"#3366ff99","correct":32,"choice":32,"rt":460.2250000461936,"accuracy":1,"outcome":"+10","keys":[1960.5749999172986],"total_keys":1,"block":2,"trial":222,"stimulus":8,"robot":1,"valence":"win","action":"go","sham":0,"trial_type":"pit-trial","trial_index":255,"time_elapsed":1254325,"internal_node_id":"0.0-230.0","task_version":"battery-v0.2-trt"},{"rune":"Q","rune_set":"elianto","hex":"#3366ff99","correct":-1,"choice":32,"rt":554.6549998689443,"accuracy":0,"outcome":"+10","keys":[2055.4299999494106],"total_keys":1,"block":2,"trial":223,"stimulus":11,"robot":2,"valence":"win","action":"no-go","sham":1,"trial_type":"pit-trial","trial_index":256,"time_elapsed":1257584,"internal_node_id":"0.0-231.0","task_version":"battery-v0.2-trt"},{"rune":"N","rune_set":"elianto","hex":"#f73b6a7A","correct":32,"choice":32,"rt":645.4049998428673,"accuracy":1,"outcome":"-1","keys":[2145.814999938011],"total_keys":1,"block":2,"trial":224,"stimulus":10,"robot":3,"valence":"lose","action":"go","sham":0,"trial_type":"pit-trial","trial_index":257,"time_elapsed":1260934,"internal_node_id":"0.0-232.0","task_version":"battery-v0.2-trt"},{"rune":"F","rune_set":"elianto","hex":"#f73b6a7A","correct":32,"choice":32,"rt":621.4350000955164,"accuracy":1,"outcome":"-1","keys":[2121.705000055954],"total_keys":1,"block":2,"trial":225,"stimulus":9,"robot":3,"valence":"lose","action":"go","sham":0,"trial_type":"pit-trial","trial_index":258,"time_elapsed":1264262,"internal_node_id":"0.0-233.0","task_version":"battery-v0.2-trt"},{"rune":"Q","rune_set":"elianto","hex":"#3366ff99","correct":-1,"choice":32,"rt":446.4100000914186,"accuracy":0,"outcome":"+1","keys":[1946.669999975711],"total_keys":1,"block":2,"trial":226,"stimulus":11,"robot":2,"valence":"win","action":"no-go","sham":0,"trial_type":"pit-trial","trial_index":259,"time_elapsed":1267412,"internal_node_id":"0.0-234.0","task_version":"battery-v0.2-trt"},{"rune":"X","rune_set":"elianto","hex":"#3366ff99","correct":32,"choice":32,"rt":416.51000012643635,"accuracy":1,"outcome":"+10","keys":[1917.4050001893193],"total_keys":1,"block":2,"trial":227,"stimulus":8,"robot":1,"valence":"win","action":"go","sham":0,"trial_type":"pit-trial","trial_index":260,"time_elapsed":1270533,"internal_node_id":"0.0-235.0","task_version":"battery-v0.2-trt"},{"rune":"N","rune_set":"elianto","hex":"#f73b6a7A","correct":32,"choice":32,"rt":583.4999999497086,"accuracy":1,"outcome":"-1","keys":[2084.6800000872463],"total_keys":1,"block":2,"trial":228,"stimulus":10,"robot":3,"valence":"lose","action":"go","sham":0,"trial_type":"pit-trial","trial_index":261,"time_elapsed":1273822,"internal_node_id":"0.0-236.0","task_version":"battery-v0.2-trt"},{"rune":"F","rune_set":"elianto","hex":"#f73b6a7A","correct":32,"choice":32,"rt":553.5500000696629,"accuracy":1,"outcome":"-10","keys":[2055.2850000094622],"total_keys":1,"block":2,"trial":229,"stimulus":9,"robot":3,"valence":"lose","action":"go","sham":1,"trial_type":"pit-trial","trial_index":262,"time_elapsed":1277082,"internal_node_id":"0.0-237.0","task_version":"battery-v0.2-trt"},{"rune":"X","rune_set":"elianto","hex":"#3366ff99","correct":32,"choice":32,"rt":350.6249999627471,"accuracy":1,"outcome":"+10","keys":[1851.1900000739843],"total_keys":1,"block":2,"trial":230,"stimulus":8,"robot":1,"valence":"win","action":"go","sham":0,"trial_type":"pit-trial","trial_index":263,"time_elapsed":1280137,"internal_node_id":"0.0-238.0","task_version":"battery-v0.2-trt"},{"rune":"N","rune_set":"elianto","hex":"#f73b6a7A","correct":32,"choice":32,"rt":557.9150000121444,"accuracy":1,"outcome":"-1","keys":[2058.5750001482666],"total_keys":1,"block":2,"trial":231,"stimulus":10,"robot":3,"valence":"lose","action":"go","sham":0,"trial_type":"pit-trial","trial_index":264,"time_elapsed":1283400,"internal_node_id":"0.0-239.0","task_version":"battery-v0.2-trt"},{"rune":"Q","rune_set":"elianto","hex":"#3366ff99","correct":-1,"choice":32,"rt":435.8699999283999,"accuracy":0,"outcome":"+1","keys":[1936.8950000498444],"total_keys":1,"block":2,"trial":232,"stimulus":11,"robot":2,"valence":"win","action":"no-go","sham":0,"trial_type":"pit-trial","trial_index":265,"time_elapsed":1286541,"internal_node_id":"0.0-240.0","task_version":"battery-v0.2-trt"},{"rune":"Q","rune_set":"elianto","hex":"#3366ff99","correct":-1,"choice":32,"rt":432.3499999009073,"accuracy":0,"outcome":"+1","keys":[1932.8649998642504],"total_keys":1,"block":2,"trial":233,"stimulus":11,"robot":2,"valence":"win","action":"no-go","sham":0,"trial_type":"pit-trial","trial_index":266,"time_elapsed":1289677,"internal_node_id":"0.0-241.0","task_version":"battery-v0.2-trt"},{"rune":"X","rune_set":"elianto","hex":"#3366ff99","correct":32,"choice":32,"rt":474.4750000536442,"accuracy":1,"outcome":"+1","keys":[1974.6600000653416],"total_keys":1,"block":2,"trial":234,"stimulus":8,"robot":1,"valence":"win","action":"go","sham":1,"trial_type":"pit-trial","trial_index":267,"time_elapsed":1292857,"internal_node_id":"0.0-242.0","task_version":"battery-v0.2-trt"},{"rune":"F","rune_set":"elianto","hex":"#f73b6a7A","correct":32,"choice":32,"rt":555.5799999274313,"accuracy":1,"outcome":"-1","keys":[2056.570000015199],"total_keys":1,"block":2,"trial":235,"stimulus":9,"robot":3,"valence":"lose","action":"go","sham":0,"trial_type":"pit-trial","trial_index":268,"time_elapsed":1296117,"internal_node_id":"0.0-243.0","task_version":