[{"view_history":"[{\"page_index\":0,\"viewing_time\":1836}]","rt":1836,"trial_type":"instructions","trial_index":0,"time_elapsed":1840,"internal_node_id":"0.0-0.0","task_version":"battery-v0.2-trt"},{"slider_type":"valence","raw_loc":522,"loc":0.544,"trial_type":"affective-slider","trial_index":1,"time_elapsed":6487,"internal_node_id":"0.0-1.0","task_version":"battery-v0.2-trt"},{"responses":{"Q07":"3","Q11":"0","Q08":"2","Q05":"3","Q12":"0","Q03":"3","Q04":"3","Q09":"0","Q10":"0","Q02":"3","Q06":"1","Q13":"0","Q01":"3"},"rt":62458,"item_order":[6,10,7,4,11,2,3,8,9,1,5,12,0],"radio_events":[5905,14601,20537,26923,31503,36077,41049,45337,47193,49855,55883,59675,61678],"key_events":[],"mouse_events":[5905,14601,19231,20537,26923,31503,35547,36077,41049,44679,45337,47193,49855,53205,55883,59675,61678,62457],"straightlining":0.46153846153846156,"zigzagging":0.6666666666666666,"survey":"bisbas","trial_type":"survey-template","trial_index":2,"time_elapsed":68953,"internal_node_id":"0.0-2.0","task_version":"battery-v0.2-trt","infrequency":0},{"responses":{"Q04":"3","Q02":"3","Q01":"3","Q08":"2","Q05":"3","Q03":"3","Q07":"3","Q06":"3"},"rt":26306,"item_order":[3,1,0,7,4,2,6,5],"radio_events":[4432,7820,11584,15930,19465,21564,23153,25169],"key_events":[],"mouse_events":[3992,4432,7820,11584,15930,19465,21564,23153,25169,26306],"straightlining":0.875,"zigzagging":0.2857142857142857,"survey":"dass_d","trial_type":"survey-template","trial_index":3,"time_elapsed":95267,"internal_node_id":"0.0-3.0","task_version":"battery-v0.2-trt","infrequency":1},{"responses":{"Q05":"3","Q08":"0","Q04":"3","Q01":"3","Q07":"3","Q03":"3","Q02":"3","Q06":"2"},"rt":22090,"item_order":[4,7,3,0,6,2,1,5],"radio_events":[5364,6978,10618,12504,13773,16626,17675,18623,21094],"key_events":[],"mouse_events":[5364,6978,9888,10618,12504,13773,14917,16626,17675,18623,21094,22090],"straightlining":0.75,"zigzagging":0.42857142857142855,"survey":"gad7","trial_type":"survey-template","trial_index":4,"time_elapsed":117362,"internal_node_id":"0.0-4.0","task_version":"battery-v0.2-trt","infrequency":0},{"value":[1,2.0865384615384617,1.380952380952381],"trial_type":"call-function","trial_index":5,"time_elapsed":117366,"internal_node_id":"0.0-5.0","task_version":"battery-v0.2-trt"},{"view_history":"[{\"page_index\":0,\"viewing_time\":2734},{\"page_index\":1,\"viewing_time\":4494},{\"page_index\":2,\"viewing_time\":3901},{\"page_index\":3,\"viewing_time\":7073},{\"page_index\":4,\"viewing_time\":6654},{\"page_index\":5,\"viewing_time\":5038},{\"page_index\":6,\"viewing_time\":5436},{\"page_index\":7,\"viewing_time\":10601},{\"page_index\":8,\"viewing_time\":41661},{\"page_index\":9,\"viewing_time\":4842}]","rt":92434,"trial_type":"pit-instructions","trial_index":6,"time_elapsed":209804,"internal_node_id":"0.0-6.0-0.0","task_version":"battery-v0.2-trt"},{"rune":"1","rune_set":"elianto","hex":"#3366ff99","correct":32,"choice":32,"rt":305,"accuracy":1,"outcome":"+10","keys":[1817],"total_keys":1,"block":0,"practice":1,"trial_type":"pit-trial","trial_index":7,"time_elapsed":212838,"internal_node_id":"0.0-6.0-1.0-0.0","task_version":"battery-v0.2-trt"},{"rune":"1","rune_set":"elianto","hex":"#3366ff99","correct":32,"choice":32,"rt":411,"accuracy":1,"outcome":"+10","keys":[1928],"total_keys":1,"block":0,"practice":1,"trial_type":"pit-trial","trial_index":8,"time_elapsed":215978,"internal_node_id":"0.0-6.0-1.1-0.1","task_version":"battery-v0.2-trt"},{"rune":"1","rune_set":"elianto","hex":"#3366ff99","correct":32,"choice":32,"rt":472,"accuracy":1,"outcome":"+10","keys":[1987],"total_keys":1,"block":0,"practice":1,"trial_type":"pit-trial","trial_index":9,"time_elapsed":219188,"internal_node_id":"0.0-6.0-1.2-0.2","task_version":"battery-v0.2-trt"},{"rune":"1","rune_set":"elianto","hex":"#3366ff99","correct":32,"choice":32,"rt":621,"accuracy":1,"outcome":"+10","keys":[2137],"total_keys":1,"block":0,"practice":1,"trial_type":"pit-trial","trial_index":10,"time_elapsed":222548,"internal_node_id":"0.0-6.0-1.3-0.3","task_version":"battery-v0.2-trt"},{"trial_type":"call-function","trial_index":11,"time_elapsed":222550,"internal_node_id":"0.0-6.0-2.0","task_version":"battery-v0.2-trt"},{"view_history":"[{\"page_index\":0,\"viewing_time\":5556},{\"page_index\":1,\"viewing_time\":3762}]","rt":9318,"trial_type":"pit-instructions","trial_index":12,"time_elapsed":231869,"internal_node_id":"0.0-6.0-3.0","task_version":"battery-v0.2-trt"},{"rune":"2","rune_set":"elianto","hex":"#3366ff99","correct":-1,"choice":32,"rt":118,"accuracy":0,"outcome":"+1","keys":[1624],"total_keys":1,"block":0,"practice":2,"trial_type":"pit-trial","trial_index":13,"time_elapsed":234698,"internal_node_id":"0.0-6.0-4.0-0.0","task_version":"battery-v0.2-trt"},{"rune":"2","rune_set":"elianto","hex":"#3366ff99","correct":-1,"choice":-1,"rt":-1,"accuracy":1,"outcome":"+10","keys":[],"total_keys":0,"block":0,"practice":2,"trial_type":"pit-trial","trial_index":14,"time_elapsed":238728,"internal_node_id":"0.0-6.0-4.1-0.1","task_version":"battery-v0.2-trt"},{"rune":"2","rune_set":"elianto","hex":"#3366ff99","correct":-1,"choice":-1,"rt":-1,"accuracy":1,"outcome":"+10","keys":[],"total_keys":0,"block":0,"practice":2,"trial_type":"pit-trial","trial_index":15,"time_elapsed":242766,"internal_node_id":"0.0-6.0-4.2-0.2","task_version":"battery-v0.2-trt"},{"rune":"2","rune_set":"elianto","hex":"#3366ff99","correct":-1,"choice":-1,"rt":-1,"accuracy":1,"outcome":"+10","keys":[],"total_keys":0,"block":0,"practice":2,"trial_type":"pit-trial","trial_index":16,"time_elapsed":246803,"internal_node_id":"0.0-6.0-4.3-0.3","task_version":"battery-v0.2-trt"},{"trial_type":"call-function","trial_index":17,"time_elapsed":246804,"internal_node_id":"0.0-6.0-5.0","task_version":"battery-v0.2-trt"},{"view_history":"[{\"page_index\":0,\"viewing_time\":17470},{\"page_index\":1,\"viewing_time\":7812}]","rt":25282,"trial_type":"pit-instructions","trial_index":18,"time_elapsed":272088,"internal_node_id":"0.0-6.0-6.0","task_version":"battery-v0.2-trt"},{"rune":"3","rune_set":"elianto","hex":"#f73b6a7A","correct":-1,"choice":32,"rt":461,"accuracy":0,"outcome":"-10","keys":[1979],"total_keys":1,"block":0,"practice":3,"trial_type":"pit-trial","trial_index":19,"time_elapsed":275288,"internal_node_id":"0.0-6.0-7.0-0.0","task_version":"battery-v0.2-trt"},{"rune":"3","rune_set":"elianto","hex":"#f73b6a7A","correct":-1,"choice":-1,"rt":-1,"accuracy":1,"outcome":"-1","keys":[],"total_keys":0,"block":0,"practice":3,"trial_type":"pit-trial","trial_index":20,"time_elapsed":279306,"internal_node_id":"0.0-6.0-7.1-0.1","task_version":"battery-v0.2-trt"},{"rune":"3","rune_set":"elianto","hex":"#f73b6a7A","correct":-1,"choice":-1,"rt":-1,"accuracy":1,"outcome":"-1","keys":[],"total_keys":0,"block":0,"practice":3,"trial_type":"pit-trial","trial_index":21,"time_elapsed":283328,"internal_node_id":"0.0-6.0-7.2-0.2","task_version":"battery-v0.2-trt"},{"rune":"3","rune_set":"elianto","hex":"#f73b6a7A","correct":-1,"choice":-1,"rt":-1,"accuracy":1,"outcome":"-1","keys":[],"total_keys":0,"block":0,"practice":3,"trial_type":"pit-trial","trial_index":22,"time_elapsed":287350,"internal_node_id":"0.0-6.0-7.3-0.3","task_version":"battery-v0.2-trt"},{"trial_type":"call-function","trial_index":23,"time_elapsed":287353,"internal_node_id":"0.0-6.0-8.0","task_version":"battery-v0.2-trt"},{"view_history":"[{\"page_index\":0,\"viewing_time\":3690},{\"page_index\":1,\"viewing_time\":2866}]","rt":6557,"trial_type":"pit-instructions","trial_index":24,"time_elapsed":293912,"internal_node_id":"0.0-6.0-9.0","task_version":"battery-v0.2-trt"},{"rune":"4","rune_set":"elianto","hex":"#f73b6a7A","correct":32,"choice":32,"rt":481,"accuracy":1,"outcome":"-1","keys":[1985],"total_keys":1,"block":0,"practice":4,"trial_type":"pit-trial","trial_index":25,"time_elapsed":297108,"internal_node_id":"0.0-6.0-10.0-0.0","task_version":"battery-v0.2-trt"},{"rune":"4","rune_set":"elianto","hex":"#f73b6a7A","correct":32,"choice":32,"rt":313,"accuracy":1,"outcome":"-1","keys":[1828],"total_keys":1,"block":0,"practice":4,"trial_type":"pit-trial","trial_index":26,"time_elapsed":300147,"internal_node_id":"0.0-6.0-10.1-0.1","task_version":"battery-v0.2-trt"},{"rune":"4","rune_set":"elianto","hex":"#f73b6a7A","correct":32,"choice":32,"rt":322,"accuracy":1,"outcome":"-1","keys":[1840],"total_keys":1,"block":0,"practice":4,"trial_type":"pit-trial","trial_index":27,"time_elapsed":303206,"internal_node_id":"0.0-6.0-10.2-0.2","task_version":"battery-v0.2-trt"},{"rune":"4","rune_set":"elianto","hex":"#f73b6a7A","correct":32,"choice":32,"rt":394,"accuracy":1,"outcome":"-1","keys":[1909],"total_keys":1,"block":0,"practice":4,"trial_type":"pit-trial","trial_index":28,"time_elapsed":306327,"internal_node_id":"0.0-6.0-10.3-0.3","task_version":"battery-v0.2-trt"},{"trial_type":"call-function","trial_index":29,"time_elapsed":306330,"internal_node_id":"0.0-6.0-11.0","task_version":"battery-v0.2-trt"},{"view_history":"[{\"page_index\":0,\"viewing_time\":2142},{\"page_index\":1,\"viewing_time\":9572},{\"page_index\":2,\"viewing_time\":5673},{\"page_index\":3,\"viewing_time\":2372},{\"page_index\":4,\"viewing_time\":3132},{\"page_index\":5,\"viewing_time\":1427}]","rt":24318,"trial_type":"pit-instructions","trial_index":30,"time_elapsed":330650,"internal_node_id":"0.0-6.0-12.0","task_version":"battery-v0.2-trt"},{"responses":["Press SPACE","+10","-1","True","True"],"num_errors":0,"rt":21165,"trial_type":"pit-comprehension","trial_index":31,"time_elapsed":351820,"internal_node_id":"0.0-6.0-13.0","task_version":"battery-v0.2-trt"},{"view_history":"[{\"page_index\":0,\"viewing_time\":2673},{\"page_index\":1,\"viewing_time\":4457}]","rt":7130,"trial_type":"pit-instructions","trial_index":32,"time_elapsed":358953,"internal_node_id":"0.0-7.0","task_version":"battery-v0.2-trt"},{"rune":"X","rune_set":"bacs2","hex":"#3366ff99","correct":32,"choice":32,"rt":533,"accuracy":1,"outcome":"+10","keys":[2052],"total_keys":1,"block":1,"trial":1,"stimulus":2,"robot":1,"valence":"win","action":"go","sham":0,"trial_type":"pit-trial","trial_index":33,"time_elapsed":362217,"internal_node_id":"0.0-8.0","task_version":"battery-v0.2-trt"},{"rune":"Z","rune_set":"bacs2","hex":"#3366ff99","correct":-1,"choice":-1,"rt":-1,"accuracy":1,"outcome":"+10","keys":[],"total_keys":0,"block":1,"trial":2,"stimulus":3,"robot":2,"valence":"win","action":"no-go","sham":0,"trial_type":"pit-trial","trial_index":34,"time_elapsed":366257,"internal_node_id":"0.0-9.0","task_version":"battery-v0.2-trt"},{"rune":"W","rune_set":"bacs2","hex":"#f73b6a7A","correct":-1,"choice":32,"rt":780,"accuracy":0,"outcome":"-10","keys":[2296],"total_keys":1,"block":1,"trial":3,"stimulus":1,"robot":4,"valence":"lose","action":"no-go","sham":0,"trial_type":"pit-trial","trial_index":35,"time_elapsed":369767,"internal_node_id":"0.0-10.0","task_version":"battery-v0.2-trt"},{"rune":"J","rune_set":"bacs2","hex":"#f73b6a7A","correct":-1,"choice":32,"rt":609,"accuracy":0,"outcome":"-10","keys":[2130],"total_keys":1,"block":1,"trial":4,"stimulus":0,"robot":4,"valence":"lose","action":"no-go","sham":0,"trial_type":"pit-trial","trial_index":36,"time_elapsed":373117,"internal_node_id":"0.0-11.0","task_version":"battery-v0.2-trt"},{"rune":"X","rune_set":"bacs2","hex":"#3366ff99","correct":32,"choice":32,"rt":557,"accuracy":1,"outcome":"+1","keys":[2073],"total_keys":1,"block":1,"trial":5,"stimulus":2,"robot":1,"valence":"win","action":"go","sham":1,"trial_type":"pit-trial","trial_index":37,"time_elapsed":376398,"internal_node_id":"0.0-12.0","task_version":"battery-v0.2-trt"},{"rune":"J","rune_set":"bacs2","hex":"#f73b6a7A","correct":-1,"choice":32,"rt":752,"accuracy":0,"outcome":"-10","keys":[2266],"total_keys":1,"block":1,"trial":6,"stimulus":0,"robot":4,"valence":"lose","action":"no-go","sham":0,"trial_type":"pit-trial","trial_index":38,"time_elapsed":379877,"internal_node_id":"0.0-13.0","task_version":"battery-v0.2-trt"},{"rune":"Z","rune_set":"bacs2","hex":"#3366ff99","correct":-1,"choice":32,"rt":616,"accuracy":0,"outcome":"+1","keys":[2122],"total_keys":1,"block":1,"trial":7,"stimulus":3,"robot":2,"valence":"win","action":"no-go","sham":0,"trial_type":"pit-trial","trial_index":39,"time_elapsed":383207,"internal_node_id":"0.0-14.0","task_version":"battery-v0.2-trt"},{"rune":"W","rune_set":"bacs2","hex":"#f73b6a7A","correct":-1,"choice":32,"rt":690,"accuracy":0,"outcome":"-10","keys":[2206],"total_keys":1,"block":1,"trial":8,"stimulus":1,"robot":4,"valence":"lose","action":"no-go","sham":0,"trial_type":"pit-trial","trial_index":40,"time_elapsed":386628,"internal_node_id":"0.0-15.0","task_version":"battery-v0.2-trt"},{"rune":"Z","rune_set":"bacs2","hex":"#3366ff99","correct":-1,"choice":32,"rt":597,"accuracy":0,"outcome":"+1","keys":[2109],"total_keys":1,"block":1,"trial":9,"stimulus":3,"robot":2,"valence":"win","action":"no-go","sham":0,"trial_type":"pit-trial","trial_index":41,"time_elapsed":389957,"internal_node_id":"0.0-16.0","task_version":"battery-v0.2-trt"},{"rune":"X","rune_set":"bacs2","hex":"#3366ff99","correct":32,"choice":-1,"rt":-1,"accuracy":0,"outcome":"+1","keys":[],"total_keys":0,"block":1,"trial":10,"stimulus":2,"robot":1,"valence":"win","action":"go","sham":0,"trial_type":"pit-trial","trial_index":42,"time_elapsed":393987,"internal_node_id":"0.0-17.0","task_version":"battery-v0.2-trt"},{"rune":"W","rune_set":"bacs2","hex":"#f73b6a7A","correct":-1,"choice":32,"rt":662,"accuracy":0,"outcome":"-10","keys":[2179],"total_keys":1,"block":1,"trial":11,"stimulus":1,"robot":4,"valence":"lose","action":"no-go","sham":0,"trial_type":"pit-trial","trial_index":43,"time_elapsed":397386,"internal_node_id":"0.0-18.0","task_version":"battery-v0.2-trt"},{"rune":"J","rune_set":"bacs2","hex":"#f73b6a7A","correct":-1,"choice":-1,"rt":-1,"accuracy":1,"outcome":"-1","keys":[],"total_keys":0,"block":1,"trial":12,"stimulus":0,"robot":4,"valence":"lose","action":"no-go","sham":0,"trial_type":"pit-trial","trial_index":44,"time_elapsed":401417,"internal_node_id":"0.0-19.0","task_version":"battery-v0.2-trt"},{"rune":"W","rune_set":"bacs2","hex":"#f73b6a7A","correct":-1,"choice":32,"rt":871,"accuracy":0,"outcome":"-10","keys":[2380],"total_keys":1,"block":1,"trial":13,"stimulus":1,"robot":4,"valence":"lose","action":"no-go","sham":0,"trial_type":"pit-trial","trial_index":45,"time_elapsed":405017,"internal_node_id":"0.0-20.0","task_version":"battery-v0.2-trt"},{"rune":"Z","rune_set":"bacs2","hex":"#3366ff99","correct":-1,"choice":-1,"rt":-1,"accuracy":1,"outcome":"+10","keys":[],"total_keys":0,"block":1,"trial":14,"stimulus":3,"robot":2,"valence":"win","action":"no-go","sham":0,"trial_type":"pit-trial","trial_index":46,"time_elapsed":409057,"internal_node_id":"0.0-21.0","task_version":"battery-v0.2-trt"},{"rune":"J","rune_set":"bacs2","hex":"#f73b6a7A","correct":-1,"choice":-1,"rt":-1,"accuracy":1,"outcome":"-1","keys":[],"total_keys":0,"block":1,"trial":15,"stimulus":0,"robot":4,"valence":"lose","action":"no-go","sham":0,"trial_type":"pit-trial","trial_index":47,"time_elapsed":413087,"internal_node_id":"0.0-22.0","task_version":"battery-v0.2-trt"},{"rune":"X","rune_set":"bacs2","hex":"#3366ff99","correct":32,"choice":32,"rt":687,"accuracy":1,"outcome":"+10","keys":[2195],"total_keys":1,"block":1,"trial":16,"stimulus":2,"robot":1,"valence":"win","action":"go","sham":0,"trial_type":"pit-trial","trial_index":48,"time_elapsed":416498,"internal_node_id":"0.0-23.0","task_version":"battery-v0.2-trt"},{"rune":"W","rune_set":"bacs2","hex":"#f73b6a7A","correct":-1,"choice":-1,"rt":-1,"accuracy":1,"outcome":"-10","keys":[],"total_keys":0,"block":1,"trial":17,"stimulus":1,"robot":4,"valence":"lose","action":"no-go","sham":1,"trial_type":"pit-trial","trial_index":49,"time_elapsed":420517,"internal_node_id":"0.0-24.0","task_version":"battery-v0.2-trt"},{"rune":"J","rune_set":"bacs2","hex":"#f73b6a7A","correct":-1,"choice":-1,"rt":-1,"accuracy":1,"outcome":"-10","keys":[],"total_keys":0,"block":1,"trial":18,"stimulus":0,"robot":4,"valence":"lose","action":"no-go","sham":1,"trial_type":"pit-trial","trial_index":50,"time_elapsed":424537,"internal_node_id":"0.0-25.0","task_version":"battery-v0.2-trt"},{"rune":"Z","rune_set":"bacs2","hex":"#3366ff99","correct":-1,"choice":-1,"rt":-1,"accuracy":1,"outcome":"+1","keys":[],"total_keys":0,"block":1,"trial":19,"stimulus":3,"robot":2,"valence":"win","action":"no-go","sham":1,"trial_type":"pit-trial","trial_index":51,"time_elapsed":428557,"internal_node_id":"0.0-26.0","task_version":"battery-v0.2-trt"},{"rune":"X","rune_set":"bacs2","hex":"#3366ff99","correct":32,"choice":32,"rt":673,"accuracy":1,"outcome":"+10","keys":[2189],"total_keys":1,"block":1,"trial":20,"stimulus":2,"robot":1,"valence":"win","action":"go","sham":0,"trial_type":"pit-trial","trial_index":52,"time_elapsed":431957,"internal_node_id":"0.0-27.0","task_version":"battery-v0.2-trt"},{"rune":"W","rune_set":"bacs2","hex":"#f73b6a7A","correct":-1,"choice":32,"rt":447,"accuracy":0,"outcome":"-10","keys":[1965],"total_keys":1,"block":1,"trial":21,"stimulus":1,"robot":4,"valence":"lose","action":"no-go","sham":0,"trial_type":"pit-trial","trial_index":53,"time_elapsed":435137,"internal_node_id":"0.0-28.0","task_version":"battery-v0.2-trt"},{"rune":"X","rune_set":"bacs2","hex":"#3366ff99","correct":32,"choice":32,"rt":740,"accuracy":1,"outcome":"+10","keys":[2248],"total_keys":1,"block":1,"trial":22,"stimulus":2,"robot":1,"valence":"win","action":"go","sham":0,"trial_type":"pit-trial","trial_index":54,"time_elapsed":438605,"internal_node_id":"0.0-29.0","task_version":"battery-v0.2-trt"},{"rune":"J","rune_set":"bacs2","hex":"#f73b6a7A","correct":-1,"choice":32,"rt":535,"accuracy":0,"outcome":"-10","keys":[2057],"total_keys":1,"block":1,"trial":23,"stimulus":0,"robot":4,"valence":"lose","action":"no-go","sham":0,"trial_type":"pit-trial","trial_index":55,"time_elapsed":441868,"internal_node_id":"0.0-30.0","task_version":"battery-v0.2-trt"},{"rune":"Z","rune_set":"bacs2","hex":"#3366ff99","correct":-1,"choice":-1,"rt":-1,"accuracy":1,"outcome":"+10","keys":[],"total_keys":0,"block":1,"trial":24,"stimulus":3,"robot":2,"valence":"win","action":"no-go","sham":0,"trial_type":"pit-trial","trial_index":56,"time_elapsed":445877,"internal_node_id":"0.0-31.0","task_version":"battery-v0.2-trt"},{"rune":"W","rune_set":"bacs2","hex":"#f73b6a7A","correct":-1,"choice":-1,"rt":-1,"accuracy":1,"outcome":"-1","keys":[],"total_keys":0,"block":1,"trial":25,"stimulus":1,"robot":4,"valence":"lose","action":"no-go","sham":0,"trial_type":"pit-trial","trial_index":57,"time_elapsed":449915,"internal_node_id":"0.0-32.0","task_version":"battery-v0.2-trt"},{"rune":"Z","rune_set":"bacs2","hex":"#3366ff99","correct":-1,"choice":-1,"rt":-1,"accuracy":1,"outcome":"+10","keys":[],"total_keys":0,"block":1,"trial":26,"stimulus":3,"robot":2,"valence":"win","action":"no-go","sham":0,"trial_type":"pit-trial","trial_index":58,"time_elapsed":453947,"internal_node_id":"0.0-33.0","task_version":"battery-v0.2-trt"},{"rune":"X","rune_set":"bacs2","hex":"#3366ff99","correct":32,"choice":32,"rt":559,"accuracy":1,"outcome":"+1","keys":[2067],"total_keys":1,"block":1,"trial":27,"stimulus":2,"robot":1,"valence":"win","action":"go","sham":1,"trial_type":"pit-trial","trial_index":59,"time_elapsed":457217,"internal_node_id":"0.0-34.0","task_version":"battery-v0.2-trt"},{"rune":"J","rune_set":"bacs2","hex":"#f73b6a7A","correct":-1,"choice":-1,"rt":-1,"accuracy":1,"outcome":"-1","keys":[],"total_keys":0,"block":1,"trial":28,"stimulus":0,"robot":4,"valence":"lose","action":"no-go","sham":0,"trial_type":"pit-trial","trial_index":60,"time_elapsed":461246,"internal_node_id":"0.0-35.0","task_version":"battery-v0.2-trt"},{"rune":"W","rune_set":"bacs2","hex":"#f73b6a7A","correct":-1,"choice":-1,"rt":-1,"accuracy":1,"outcome":"-10","keys":[],"total_keys":0,"block":1,"trial":29,"stimulus":1,"robot":4,"valence":"lose","action":"no-go","sham":1,"trial_type":"pit-trial","trial_index":61,"time_elapsed":465266,"internal_node_id":"0.0-36.0","task_version":"battery-v0.2-trt"},{"rune":"X","rune_set":"bacs2","hex":"#3366ff99","correct":32,"choice":32,"rt":781,"accuracy":1,"outcome":"+10","keys":[2293],"total_keys":1,"block":1,"trial":30,"stimulus":2,"robot":1,"valence":"win","action":"go","sham":0,"trial_type":"pit-trial","trial_index":62,"time_elapsed":468767,"internal_node_id":"0.0-37.0","task_version":"battery-v0.2-trt"},{"rune":"Z","rune_set":"bacs2","hex":"#3366ff99","correct":-1,"choice":-1,"rt":-1,"accuracy":1,"outcome":"+10","keys":[],"total_keys":0,"block":1,"trial":31,"stimulus":3,"robot":2,"valence":"win","action":"no-go","sham":0,"trial_type":"pit-trial","trial_index":63,"time_elapsed":472777,"internal_node_id":"0.0-38.0","task_version":"battery-v0.2-trt"},{"rune":"J","rune_set":"bacs2","hex":"#f73b6a7A","correct":-1,"choice":-1,"rt":-1,"accuracy":1,"outcome":"-1","keys":[],"total_keys":0,"block":1,"trial":32,"stimulus":0,"robot":4,"valence":"lose","action":"no-go","sham":0,"trial_type":"pit-trial","trial_index":64,"time_elapsed":476808,"internal_node_id":"0.0-39.0","task_version":"battery-v0.2-trt"},{"rune":"X","rune_set":"bacs2","hex":"#3366ff99","correct":32,"choice":32,"rt":827,"accuracy":1,"outcome":"+10","keys":[2334],"total_keys":1,"block":1,"trial":33,"stimulus":2,"robot":1,"valence":"win","action":"go","sham":0,"trial_type":"pit-trial","trial_index":65,"time_elapsed":480355,"internal_node_id":"0.0-40.0","task_version":"battery-v0.2-trt"},{"rune":"Z","rune_set":"bacs2","hex":"#3366ff99","correct":-1,"choice":-1,"rt":-1,"accuracy":1,"outcome":"+1","keys":[],"total_keys":0,"block":1,"trial":34,"stimulus":3,"robot":2,"valence":"win","action":"no-go","sham":1,"trial_type":"pit-trial","trial_index":66,"time_elapsed":484387,"internal_node_id":"0.0-41.0","task_version":"battery-v0.2-trt"},{"rune":"G","rune_set":"bacs2","hex":"#f73b6a7A","correct":32,"choice":32,"rt":892,"accuracy":1,"outcome":"-1","keys":[2408],"total_keys":1,"block":1,"trial":35,"stimulus":4,"robot":3,"valence":"lose","action":"go","sham":0,"trial_type":"pit-trial","trial_index":67,"time_elapsed":488006,"internal_node_id":"0.0-42.0","task_version":"battery-v0.2-trt"},{"rune":"J","rune_set":"bacs2","hex":"#f73b6a7A","correct":-1,"choice":-1,"rt":-1,"accuracy":1,"outcome":"-1","keys":[],"total_keys":0,"block":1,"trial":36,"stimulus":0,"robot":4,"valence":"lose","action":"no-go","sham":0,"trial_type":"pit-trial","trial_index":68,"time_elapsed":492036,"internal_node_id":"0.0-43.0","task_version":"battery-v0.2-trt"},{"rune":"Z","rune_set":"bacs2","hex":"#3366ff99","correct":-1,"choice":32,"rt":588,"accuracy":0,"outcome":"+1","keys":[2105],"total_keys":1,"block":1,"trial":37,"stimulus":3,"robot":2,"valence":"win","action":"no-go","sham":0,"trial_type":"pit-trial","trial_index":69,"time_elapsed":495357,"internal_node_id":"0.0-44.0","task_version":"battery-v0.2-trt"},{"rune":"J","rune_set":"bacs2","hex":"#f73b6a7A","correct":-1,"choice":-1,"rt":-1,"accuracy":1,"outcome":"-10","keys":[],"total_keys":0,"block":1,"trial":38,"stimulus":0,"robot":4,"valence":"lose","action":"no-go","sham":1,"trial_type":"pit-trial","trial_index":70,"time_elapsed":499367,"internal_node_id":"0.0-45.0","task_version":"battery-v0.2-trt"},{"rune":"X","rune_set":"bacs2","hex":"#3366ff99","correct":32,"choice":32,"rt":738,"accuracy":1,"outcome":"+10","keys":[2251],"total_keys":1,"block":1,"trial":39,"stimulus":2,"robot":1,"valence":"win","action":"go","sham":0,"trial_type":"pit-trial","trial_index":71,"time_elapsed":502838,"internal_node_id":"0.0-46.0","task_version":"battery-v0.2-trt"},{"rune":"G","rune_set":"bacs2","hex":"#f73b6a7A","correct":32,"choice":32,"rt":785,"accuracy":1,"outcome":"-1","keys":[2300],"total_keys":1,"block":1,"trial":40,"stimulus":4,"robot":3,"valence":"lose","action":"go","sham":0,"trial_type":"pit-trial","trial_index":72,"time_elapsed":506357,"internal_node_id":"0.0-47.0","task_version":"battery-v0.2-trt"},{"rune":"G","rune_set":"bacs2","hex":"#f73b6a7A","correct":32,"choice":32,"rt":674,"accuracy":1,"outcome":"-1","keys":[2180],"total_keys":1,"block":1,"trial":41,"stimulus":4,"robot":3,"valence":"lose","action":"go","sham":0,"trial_type":"pit-trial","trial_index":73,"time_elapsed":509747,"internal_node_id":"0.0-48.0","task_version":"battery-v0.2-trt"},{"rune":"O","rune_set":"bacs2","hex":"#3366ff99","correct":-1,"choice":32,"rt":581,"accuracy":0,"outcome":"+1","keys":[2086],"total_keys":1,"block":1,"trial":42,"stimulus":5,"robot":2,"valence":"win","action":"no-go","sham":0,"trial_type":"pit-trial","trial_index":74,"time_elapsed":513057,"internal_node_id":"0.0-49.0","task_version":"battery-v0.2-trt"},{"rune":"C","rune_set":"bacs2","hex":"#3366ff99","correct":32,"choice":32,"rt":703,"accuracy":1,"outcome":"+1","keys":[2219],"total_keys":1,"block":1,"trial":43,"stimulus":6,"robot":1,"valence":"win","action":"go","sham":1,"trial_type":"pit-trial","trial_index":75,"time_elapsed":516497,"internal_node_id":"0.0-50.0","task_version":"battery-v0.2-trt"},{"rune":"J","rune_set":"bacs2","hex":"#f73b6a7A","correct":-1,"choice":32,"rt":1066,"accuracy":0,"outcome":"-10","keys":[2582],"total_keys":1,"block":1,"trial":44,"stimulus":0,"robot":4,"valence":"lose","action":"no-go","sham":0,"trial_type":"pit-trial","trial_index":76,"time_elapsed":520289,"internal_node_id":"0.0-51.0","task_version":"battery-v0.2-trt"},{"rune":"G","rune_set":"bacs2","hex":"#f73b6a7A","correct":32,"choice":32,"rt":685,"accuracy":1,"outcome":"-1","keys":[2197],"total_keys":1,"block":1,"trial":45,"stimulus":4,"robot":3,"valence":"lose","action":"go","sham":0,"trial_type":"pit-trial","trial_index":77,"time_elapsed":523708,"internal_node_id":"0.0-52.0","task_version":"battery-v0.2-trt"},{"rune":"O","rune_set":"bacs2","hex":"#3366ff99","correct":-1,"choice":32,"rt":624,"accuracy":0,"outcome":"+1","keys":[2138],"total_keys":1,"block":1,"trial":46,"stimulus":5,"robot":2,"valence":"win","action":"no-go","sham":0,"trial_type":"pit-trial","trial_index":78,"time_elapsed":527067,"internal_node_id":"0.0-53.0","task_version":"battery-v0.2-trt"},{"rune":"J","rune_set":"bacs2","hex":"#f73b6a7A","correct":-1,"choice":32,"rt":927,"accuracy":0,"outcome":"-10","keys":[2432],"total_keys":1,"block":1,"trial":47,"stimulus":0,"robot":4,"valence":"lose","action":"no-go","sham":0,"trial_type":"pit-trial","trial_index":79,"time_elapsed":530717,"internal_node_id":"0.0-54.0","task_version":"battery-v0.2-trt"},{"rune":"C","rune_set":"bacs2","hex":"#3366ff99","correct":32,"choice":-1,"rt":-1,"accuracy":0,"outcome":"+10","keys":[],"total_keys":0,"block":1,"trial":48,"stimulus":6,"robot":1,"valence":"win","action":"go","sham":1,"trial_type":"pit-trial","trial_index":80,"time_elapsed":534738,"internal_node_id":"0.0-55.0","task_version":"battery-v0.2-trt"},{"rune":"C","rune_set":"bacs2","hex":"#3366ff99","correct":32,"choice":-1,"rt":-1,"accuracy":0,"outcome":"+1","keys":[],"total_keys":0,"block":1,"trial":49,"stimulus":6,"robot":1,"valence":"win","action":"go","sham":0,"trial_type":"pit-trial","trial_index":81,"time_elapsed":538766,"internal_node_id":"0.0-56.0","task_version":"battery-v0.2-trt"},{"rune":"G","rune_set":"bacs2","hex":"#f73b6a7A","correct":32,"choice":32,"rt":601,"accuracy":1,"outcome":"-1","keys":[2119],"total_keys":1,"block":1,"trial":50,"stimulus":4,"robot":3,"valence":"lose","action":"go","sham":0,"trial_type":"pit-trial","trial_index":82,"time_elapsed":542107,"internal_node_id":"0.0-57.0","task_version":"battery-v0.2-trt"},{"rune":"E","rune_set":"bacs2","hex":"#f73b6a7A","correct":-1,"choice":-1,"rt":-1,"accuracy":1,"outcome":"-10","keys":[],"total_keys":0,"block":1,"trial":51,"stimulus":7,"robot":4,"valence":"lose","action":"no-go","sham":1,"trial_type":"pit-trial","trial_index":83,"time_elapsed":546147,"internal_node_id":"0.0-58.0","task_version":"battery-v0.2-trt"},{"rune":"O","rune_set":"bacs2","hex":"#3366ff99","correct":-1,"choice":-1,"rt":-1,"accuracy":1,"outcome":"+10","keys":[],"total_keys":0,"block":1,"trial":52,"stimulus":5,"robot":2,"valence":"win","action":"no-go","sham":0,"trial_type":"pit-trial","trial_index":84,"time_elapsed":550188,"internal_node_id":"0.0-59.0","task_version":"battery-v0.2-trt"},{"rune":"O","rune_set":"bacs2","hex":"#3366ff99","correct":-1,"choice":-1,"rt":-1,"accuracy":1,"outcome":"+10","keys":[],"total_keys":0,"block":1,"trial":53,"stimulus":5,"robot":2,"valence":"win","action":"no-go","sham":0,"trial_type":"pit-trial","trial_index":85,"time_elapsed":554218,"internal_node_id":"0.0-60.0","task_version":"battery-v0.2-trt"},{"rune":"G","rune_set":"bacs2","hex":"#f73b6a7A","correct":32,"choice":32,"rt":780,"accuracy":1,"outcome":"-10","keys":[2286],"total_keys":1,"block":1,"trial":54,"stimulus":4,"robot":3,"valence":"lose","action":"go","sham":1,"trial_type":"pit-trial","trial_index":86,"time_elapsed":557726,"internal_node_id":"0.0-61.0","task_version":"battery-v0.2-trt"},{"rune":"C","rune_set":"bacs2","hex":"#3366ff99","correct":32,"choice":-1,"rt":-1,"accuracy":0,"outcome":"+10","keys":[],"total_keys":0,"block":1,"trial":55,"stimulus":6,"robot":1,"valence":"win","action":"go","sham":1,"trial_type":"pit-trial","trial_index":87,"time_elapsed":561757,"internal_node_id":"0.0-62.0","task_version":"battery-v0.2-trt"},{"rune":"E","rune_set":"bacs2","hex":"#f73b6a7A","correct":-1,"choice":32,"rt":753,"accuracy":0,"outcome":"-10","keys":[2269],"total_keys":1,"block":1,"trial":56,"stimulus":7,"robot":4,"valence":"lose","action":"no-go","sham":0,"trial_type":"pit-trial","trial_index":88,"time_elapsed":565237,"internal_node_id":"0.0-63.0","task_version":"battery-v0.2-trt"},{"rune":"C","rune_set":"bacs2","hex":"#3366ff99","correct":32,"choice":-1,"rt":-1,"accuracy":0,"outcome":"+10","keys":[],"total_keys":0,"block":1,"trial":57,"stimulus":6,"robot":1,"valence":"win","action":"go","sham":1,"trial_type":"pit-trial","trial_index":89,"time_elapsed":569277,"internal_node_id":"0.0-64.0","task_version":"battery-v0.2-trt"},{"rune":"O","rune_set":"bacs2","hex":"#3366ff99","correct":-1,"choice":-1,"rt":-1,"accuracy":1,"outcome":"+10","keys":[],"total_keys":0,"block":1,"trial":58,"stimulus":5,"robot":2,"valence":"win","action":"no-go","sham":0,"trial_type":"pit-trial","trial_index":90,"time_elapsed":573307,"internal_node_id":"0.0-65.0","task_version":"battery-v0.2-trt"},{"rune":"E","rune_set":"bacs2","hex":"#f73b6a7A","correct":-1,"choice":-1,"rt":-1,"accuracy":1,"outcome":"-1","keys":[],"total_keys":0,"block":1,"trial":59,"stimulus":7,"robot":4,"valence":"lose","action":"no-go","sham":0,"trial_type":"pit-trial","trial_index":91,"time_elapsed":577346,"internal_node_id":"0.0-66.0","task_version":"battery-v0.2-trt"},{"rune":"G","rune_set":"bacs2","hex":"#f73b6a7A","correct":32,"choice":-1,"rt":-1,"accuracy":0,"outcome":"-10","keys":[],"total_keys":0,"block":1,"trial":60,"stimulus":4,"robot":3,"valence":"lose","action":"go","sham":0,"trial_type":"pit-trial","trial_index":92,"time_elapsed":581377,"internal_node_id":"0.0-67.0","task_version":"battery-v0.2-trt"},{"rune":"G","rune_set":"bacs2","hex":"#f73b6a7A","correct":32,"choice":32,"rt":799,"accuracy":1,"outcome":"-1","keys":[2315],"total_keys":1,"block":1,"trial":61,"stimulus":4,"robot":3,"valence":"lose","action":"go","sham":0,"trial_type":"pit-trial","trial_index":93,"time_elapsed":584896,"internal_node_id":"0.0-68.0","task_version":"battery-v0.2-trt"},{"rune":"C","rune_set":"bacs2","hex":"#3366ff99","correct":32,"choice":-1,"rt":-1,"accuracy":0,"outcome":"+1","keys":[],"total_keys":0,"block":1,"trial":62,"stimulus":6,"robot":1,"valence":"win","action":"go","sham":0,"trial_type":"pit-trial","trial_index":94,"time_elapsed":588937,"internal_node_id":"0.0-69.0","task_version":"battery-v0.2-trt"},{"rune":"E","rune_set":"bacs2","hex":"#f73b6a7A","correct":-1,"choice":32,"rt":689,"accuracy":0,"outcome":"-10","keys":[2205],"total_keys":1,"block":1,"trial":63,"stimulus":7,"robot":4,"valence":"lose","action":"no-go","sham":0,"trial_type":"pit-trial","trial_index":95,"time_elapsed":592357,"internal_node_id":"0.0-70.0","task_version":"battery-v0.2-trt"},{"rune":"O","rune_set":"bacs2","hex":"#3366ff99","correct":-1,"choice":32,"rt":646,"accuracy":0,"outcome":"+1","keys":[2162],"total_keys":1,"block":1,"trial":64,"stimulus":5,"robot":2,"valence":"win","action":"no-go","sham":0,"trial_type":"pit-trial","trial_index":96,"time_elapsed":595736,"internal_node_id":"0.0-71.0","task_version":"battery-v0.2-trt"},{"rune":"G","rune_set":"bacs2","hex":"#f73b6a7A","correct":32,"choice":32,"rt":981,"accuracy":1,"outcome":"-1","keys":[2502],"total_keys":1,"block":1,"trial":65,"stimulus":4,"robot":3,"valence":"lose","action":"go","sham":0,"trial_type":"pit-trial","trial_index":97,"time_elapsed":599456,"internal_node_id":"0.0-72.0","task_version":"battery-v0.2-trt"},{"rune":"E","rune_set":"bacs2","hex":"#f73b6a7A","correct":-1,"choice":-1,"rt":-1,"accuracy":1,"outcome":"-10","keys":[],"total_keys":0,"block":1,"trial":66,"stimulus":7,"robot":4,"valence":"lose","action":"no-go","sham":1,"trial_type":"pit-trial","trial_index":98,"time_elapsed":603487,"internal_node_id":"0.0-73.0","task_version":"battery-v0.2-trt"},{"rune":"O","rune_set":"bacs2","hex":"#3366ff99","correct":-1,"choice":32,"rt":886,"accuracy":0,"outcome":"+1","keys":[2402],"total_keys":1,"block":1,"trial":67,"stimulus":5,"robot":2,"valence":"win","action":"no-go","sham":0,"trial_type":"pit-trial","trial_index":99,"time_elapsed":607109,"internal_node_id":"0.0-74.0","task_version":"battery-v0.2-trt"},{"rune":"C","rune_set":"bacs2","hex":"#3366ff99","correct":32,"choice":-1,"rt":-1,"accuracy":0,"outcome":"+10","keys":[],"total_keys":0,"block":1,"trial":68,"stimulus":6,"robot":1,"valence":"win","action":"go","sham":1,"trial_type":"pit-trial","trial_index":100,"time_elapsed":611147,"internal_node_id":"0.0-75.0","task_version":"battery-v0.2-trt"},{"rune":"G","rune_set":"bacs2","hex":"#f73b6a7A","correct":32,"choice":32,"rt":972,"accuracy":1,"outcome":"-1","keys":[2487],"total_keys":1,"block":1,"trial":69,"stimulus":4,"robot":3,"valence":"lose","action":"go","sham":0,"trial_type":"pit-trial","trial_index":101,"time_elapsed":614857,"internal_node_id":"0.0-76.0","task_version":"battery-v0.2-trt"},{"rune":"C","rune_set":"bacs2","hex":"#3366ff99","correct":32,"choice":-1,"rt":-1,"accuracy":0,"outcome":"+1","keys":[],"total_keys":0,"block":1,"trial":70,"stimulus":6,"robot":1,"valence":"win","action":"go","sham":0,"trial_type":"pit-trial","trial_index":102,"time_elapsed":618897,"internal_node_id":"0.0-77.0","task_version":"battery-v0.2-trt"},{"rune":"O","rune_set":"bacs2","hex":"#3366ff99","correct":-1,"choice":32,"rt":831,"accuracy":0,"outcome":"+1","keys":[2347],"total_keys":1,"block":1,"trial":71,"stimulus":5,"robot":2,"valence":"win","action":"no-go","sham":0,"trial_type":"pit-trial","trial_index":103,"time_elapsed":622468,"internal_node_id":"0.0-78.0","task_version":"battery-v0.2-trt"},{"rune":"E","rune_set":"bacs2","hex":"#f73b6a7A","correct":-1,"choice":32,"rt":815,"accuracy":0,"outcome":"-1","keys":[2331],"total_keys":1,"block":1,"trial":72,"stimulus":7,"robot":4,"valence":"lose","action":"no-go","sham":1,"trial_type":"pit-trial","trial_index":104,"time_elapsed":626007,"internal_node_id":"0.0-79.0","task_version":"battery-v0.2-trt"},{"rune":"H","rune_set":"bacs2","hex":"#3366ff99","correct":32,"choice":32,"rt":758,"accuracy":1,"outcome":"+10","keys":[2264],"total_keys":1,"block":1,"trial":73,"stimulus":8,"robot":1,"valence":"win","action":"go","sham":0,"trial_type":"pit-trial","trial_index":105,"time_elapsed":629486,"internal_node_id":"0.0-80.0","task_version":"battery-v0.2-trt"},{"rune":"Q","rune_set":"bacs2","hex":"#f73b6a7A","correct":32,"choice":32,"rt":700,"accuracy":1,"outcome":"-1","keys":[2216],"total_keys":1,"block":1,"trial":74,"stimulus":9,"robot":3,"valence":"lose","action":"go","sham":0,"trial_type":"pit-trial","trial_index":106,"time_elapsed":632918,"internal_node_id":"0.0-81.0","task_version":"battery-v0.2-trt"},{"rune":"O","rune_set":"bacs2","hex":"#3366ff99","correct":-1,"choice":-1,"rt":-1,"accuracy":1,"outcome":"+1","keys":[],"total_keys":0,"block":1,"trial":75,"stimulus":5,"robot":2,"valence":"win","action":"no-go","sham":1,"trial_type":"pit-trial","trial_index":107,"time_elapsed":636947,"internal_node_id":"0.0-82.0","task_version":"battery-v0.2-trt"},{"rune":"E","rune_set":"bacs2","hex":"#f73b6a7A","correct":-1,"choice":32,"rt":701,"accuracy":0,"outcome":"-10","keys":[2207],"total_keys":1,"block":1,"trial":76,"stimulus":7,"robot":4,"valence":"lose","action":"no-go","sham":0,"trial_type":"pit-trial","trial_index":108,"time_elapsed":640377,"internal_node_id":"0.0-83.0","task_version":"battery-v0.2-trt"},{"rune":"O","rune_set":"bacs2","hex":"#3366ff99","correct":-1,"choice":32,"rt":650,"accuracy":0,"outcome":"+1","keys":[2166],"total_keys":1,"block":1,"trial":77,"stimulus":5,"robot":2,"valence":"win","action":"no-go","sham":0,"trial_type":"pit-trial","trial_index":109,"time_elapsed":643766,"internal_node_id":"0.0-84.0","task_version":"battery-v0.2-trt"},{"rune":"E","rune_set":"bacs2","hex":"#f73b6a7A","correct":-1,"choice":32,"rt":903,"accuracy":0,"outcome":"-10","keys":[2420],"total_keys":1,"block":1,"trial":78,"stimulus":7,"robot":4,"valence":"lose","action":"no-go","sham":0,"trial_type":"pit-trial","trial_index":110,"time_elapsed":647407,"internal_node_id":"0.0-85.0","task_version":"battery-v0.2-trt"},{"rune":"H","rune_set":"bacs2","hex":"#3366ff99","correct":32,"choice":32,"rt":645,"accuracy":1,"outcome":"+10","keys":[2150],"total_keys":1,"block":1,"trial":79,"stimulus":8,"robot":1,"valence":"win","action":"go","sham":0,"trial_type":"pit-trial","trial_index":111,"time_elapsed":650787,"internal_node_id":"0.0-86.0","task_version":"battery-v0.2-trt"},{"rune":"Q","rune_set":"bacs2","hex":"#f73b6a7A","correct":32,"choice":32,"rt":791,"accuracy":1,"outcome":"-10","keys":[2296],"total_keys":1,"block":1,"trial":80,"stimulus":9,"robot":3,"valence":"lose","action":"go","sham":1,"trial_type":"pit-trial","trial_index":112,"time_elapsed":654297,"internal_node_id":"0.0-87.0","task_version":"battery-v0.2-trt"},{"rune":"Q","rune_set":"bacs2","hex":"#f73b6a7A","correct":32,"choice":-1,"rt":-1,"accuracy":0,"outcome":"-10","keys":[],"total_keys":0,"block":1,"trial":81,"stimulus":9,"robot":3,"valence":"lose","action":"go","sham":0,"trial_type":"pit-trial","trial_index":113,"time_elapsed":658326,"internal_node_id":"0.0-88.0","task_version":"battery-v0.2-trt"},{"rune":"H","rune_set":"bacs2","hex":"#3366ff99","correct":32,"choice":32,"rt":591,"accuracy":1,"outcome":"+10","keys":[2107],"total_keys":1,"block":1,"trial":82,"stimulus":8,"robot":1,"valence":"win","action":"go","sham":0,"trial_type":"pit-trial","trial_index":114,"time_elapsed":661647,"internal_node_id":"0.0-89.0","task_version":"battery-v0.2-trt"},{"rune":"E","rune_set":"bacs2","hex":"#f73b6a7A","correct":-1,"choice":32,"rt":860,"accuracy":0,"outcome":"-10","keys":[2377],"total_keys":1,"block":1,"trial":83,"stimulus":7,"robot":4,"valence":"lose","action":"no-go","sham":0,"trial_type":"pit-trial","trial_index":115,"time_elapsed":665247,"internal_node_id":"0.0-90.0","task_version":"battery-v0.2-trt"},{"rune":"O","rune_set":"bacs2","hex":"#3366ff99","correct":-1,"choice":-1,"rt":-1,"accuracy":1,"outcome":"+10","keys":[],"total_keys":0,"block":1,"trial":84,"stimulus":5,"robot":2,"valence":"win","action":"no-go","sham":0,"trial_type":"pit-trial","trial_index":116,"time_elapsed":669257,"internal_node_id":"0.0-91.0","task_version":"battery-v0.2-trt"},{"rune":"E","rune_set":"bacs2","hex":"#f73b6a7A","correct":-1,"choice":-1,"rt":-1,"accuracy":1,"outcome":"-1","keys":[],"total_keys":0,"block":1,"trial":85,"stimulus":7,"robot":4,"valence":"lose","action":"no-go","sham":0,"trial_type":"pit-trial","trial_index":117,"time_elapsed":673297,"internal_node_id":"0.0-92.0","task_version":"battery-v0.2-trt"},{"rune":"O","rune_set":"bacs2","hex":"#3366ff99","correct":-1,"choice":-1,"rt":-1,"accuracy":1,"outcome":"+10","keys":[],"total_keys":0,"block":1,"trial":86,"stimulus":5,"robot":2,"valence":"win","action":"no-go","sham":0,"trial_type":"pit-trial","trial_index":118,"time_elapsed":677326,"internal_node_id":"0.0-93.0","task_version":"battery-v0.2-trt"},{"rune":"Q","rune_set":"bacs2","hex":"#f73b6a7A","correct":32,"choice":-1,"rt":-1,"accuracy":0,"outcome":"-1","keys":[],"total_keys":0,"block":1,"trial":87,"stimulus":9,"robot":3,"valence":"lose","action":"go","sham":1,"trial_type":"pit-trial","trial_index":119,"time_elapsed":681356,"internal_node_id":"0.0-94.0","task_version":"battery-v0.2-trt"},{"rune":"H","rune_set":"bacs2","hex":"#3366ff99","correct":32,"choice":32,"rt":648,"accuracy":1,"outcome":"+10","keys":[2164],"total_keys":1,"block":1,"trial":88,"stimulus":8,"robot":1,"valence":"win","action":"go","sham":0,"trial_type":"pit-trial","trial_index":120,"time_elapsed":684737,"internal_node_id":"0.0-95.0","task_version":"battery-v0.2-trt"},{"rune":"T","rune_set":"bacs2","hex":"#f73b6a7A","correct":32,"choice":-1,"rt":-1,"accuracy":0,"outcome":"-10","keys":[],"total_keys":0,"block":1,"trial":89,"stimulus":10,"robot":3,"valence":"lose","action":"go","sham":0,"trial_type":"pit-trial","trial_index":121,"time_elapsed":688747,"internal_node_id":"0.0-96.0","task_version":"battery-v0.2-trt"},{"rune":"Q","rune_set":"bacs2","hex":"#f73b6a7A","correct":32,"choice":-1,"rt":-1,"accuracy":0,"outcome":"-10","keys":[3512],"total_keys":1,"block":1,"trial":90,"stimulus":9,"robot":3,"valence":"lose","action":"go","sham":0,"trial_type":"pit-trial","trial_index":122,"time_elapsed":692787,"internal_node_id":"0.0-97.0","task_version":"battery-v0.2-trt"},{"rune":"Y","rune_set":"bacs2","hex":"#3366ff99","correct":-1,"choice":32,"rt":770,"accuracy":0,"outcome":"+1","keys":[2286],"total_keys":1,"block":1,"trial":91,"stimulus":11,"robot":2,"valence":"win","action":"no-go","sham":0,"trial_type":"pit-trial","trial_index":123,"time_elapsed":696287,"internal_node_id":"0.0-98.0","task_version":"battery-v0.2-trt"},{"rune":"H","rune_set":"bacs2","hex":"#3366ff99","correct":32,"choice":32,"rt":1036,"accuracy":1,"outcome":"+10","keys":[2551],"total_keys":1,"block":1,"trial":92,"stimulus":8,"robot":1,"valence":"win","action":"go","sham":0,"trial_type":"pit-trial","trial_index":124,"time_elapsed":700047,"internal_node_id":"0.0-99.0","task_version":"battery-v0.2-trt"},{"rune":"Y","rune_set":"bacs2","hex":"#3366ff99","correct":-1,"choice":32,"rt":729,"accuracy":0,"outcome":"+10","keys":[2234],"total_keys":1,"block":1,"trial":93,"stimulus":11,"robot":2,"valence":"win","action":"no-go","sham":1,"trial_type":"pit-trial","trial_index":125,"time_elapsed":703497,"internal_node_id":"0.0-100.0","task_version":"battery-v0.2-trt"},{"rune":"Q","rune_set":"bacs2","hex":"#f73b6a7A","correct":32,"choice":32,"rt":1006,"accuracy":1,"outcome":"-1","keys":[2520],"total_keys":1,"block":1,"trial":94,"stimulus":9,"robot":3,"valence":"lose","action":"go","sham":0,"trial_type":"pit-trial","trial_index":126,"time_elapsed":707232,"internal_node_id":"0.0-101.0","task_version":"battery-v0.2-trt"},{"rune":"H","rune_set":"bacs2","hex":"#3366ff99","correct":32,"choice":32,"rt":781,"accuracy":1,"outcome":"+10","keys":[2300],"total_keys":1,"block":1,"trial":95,"stimulus":8,"robot":1,"valence":"win","action":"go","sham":0,"trial_type":"pit-trial","trial_index":127,"time_elapsed":710758,"internal_node_id":"0.0-102.0","task_version":"battery-v0.2-trt"},{"rune":"T","rune_set":"bacs2","hex":"#f73b6a7A","correct":32,"choice":32,"rt":692,"accuracy":1,"outcome":"-1","keys":[2208],"total_keys":1,"block":1,"trial":96,"stimulus":10,"robot":3,"valence":"lose","action":"go","sham":0,"trial_type":"pit-trial","trial_index":128,"time_elapsed":714177,"internal_node_id":"0.0-103.0","task_version":"battery-v0.2-trt"},{"rune":"H","rune_set":"bacs2","hex":"#3366ff99","correct":32,"choice":32,"rt":660,"accuracy":1,"outcome":"+10","keys":[2170],"total_keys":1,"block":1,"trial":97,"stimulus":8,"robot":1,"valence":"win","action":"go","sham":0,"trial_type":"pit-trial","trial_index":129,"time_elapsed":717557,"internal_node_id":"0.0-104.0","task_version":"battery-v0.2-trt"},{"rune":"T","rune_set":"bacs2","hex":"#f73b6a7A","correct":32,"choice":32,"rt":808,"accuracy":1,"outcome":"-1","keys":[2325],"total_keys":1,"block":1,"trial":98,"stimulus":10,"robot":3,"valence":"lose","action":"go","sham":0,"trial_type":"pit-trial","trial_index":130,"time_elapsed":721098,"internal_node_id":"0.0-105.0","task_version":"battery-v0.2-trt"},{"rune":"Y","rune_set":"bacs2","hex":"#3366ff99","correct":-1,"choice":32,"rt":550,"accuracy":0,"outcome":"+1","keys":[2064],"total_keys":1,"block":1,"trial":99,"stimulus":11,"robot":2,"valence":"win","action":"no-go","sham":0,"trial_type":"pit-trial","trial_index":131,"time_elapsed":724377,"internal_node_id":"0.0-106.0","task_version":"battery-v0.2-trt"},{"rune":"Q","rune_set":"bacs2","hex":"#f73b6a7A","correct":32,"choice":32,"rt":864,"accuracy":1,"outcome":"-1","keys":[2379],"total_keys":1,"block":1,"trial":100,"stimulus":9,"robot":3,"valence":"lose","action":"go","sham":0,"trial_type":"pit-trial","trial_index":132,"time_elapsed":727978,"internal_node_id":"0.0-107.0","task_version":"battery-v0.2-trt"},{"rune":"Y","rune_set":"bacs2","hex":"#3366ff99","correct":-1,"choice":32,"rt":739,"accuracy":0,"outcome":"+1","keys":[2253],"total_keys":1,"block":1,"trial":101,"stimulus":11,"robot":2,"valence":"win","action":"no-go","sham":0,"trial_type":"pit-trial","trial_index":133,"time_elapsed":731437,"internal_node_id":"0.0-108.0","task_version":"battery-v0.2-trt"},{"rune":"Q","rune_set":"bacs2","hex":"#f73b6a7A","correct":32,"choice":32,"rt":671,"accuracy":1,"outcome":"-1","keys":[2187],"total_keys":1,"block":1,"trial":102,"stimulus":9,"robot":3,"valence":"lose","action":"go","sham":0,"trial_type":"pit-trial","trial_index":134,"time_elapsed":734836,"internal_node_id":"0.0-109.0","task_version":"battery-v0.2-trt"},{"rune":"T","rune_set":"bacs2","hex":"#f73b6a7A","correct":32,"choice":32,"rt":766,"accuracy":1,"outcome":"-1","keys":[2283],"total_keys":1,"block":1,"trial":103,"stimulus":10,"robot":3,"valence":"lose","action":"go","sham":0,"trial_type":"pit-trial","trial_index":135,"time_elapsed":738337,"internal_node_id":"0.0-110.0","task_version":"battery-v0.2-trt"},{"rune":"H","rune_set":"bacs2","hex":"#3366ff99","correct":32,"choice":32,"rt":577,"accuracy":1,"outcome":"+10","keys":[2094],"total_keys":1,"block":1,"trial":104,"stimulus":8,"robot":1,"valence":"win","action":"go","sham":0,"trial_type":"pit-trial","trial_index":136,"time_elapsed":741648,"internal_node_id":"0.0-111.0","task_version":"battery-v0.2-trt"},{"rune":"H","rune_set":"bacs2","hex":"#3366ff99","correct":32,"choice":32,"rt":610,"accuracy":1,"outcome":"+10","keys":[2124],"total_keys":1,"block":1,"trial":105,"stimulus":8,"robot":1,"valence":"win","action":"go","sham":0,"trial_type":"pit-trial","trial_index":137,"time_elapsed":744987,"internal_node_id":"0.0-112.0","task_version":"battery-v0.2-trt"},{"rune":"Y","rune_set":"bacs2","hex":"#3366ff99","correct":-1,"choice":-1,"rt":-1,"accuracy":1,"outcome":"+1","keys":[],"total_keys":0,"block":1,"trial":106,"stimulus":11,"robot":2,"valence":"win","action":"no-go","sham":1,"trial_type":"pit-trial","trial_index":138,"time_elapsed":749007,"internal_node_id":"0.0-113.0","task_version":"battery-v0.2-trt"},{"rune":"Q","rune_set":"bacs2","hex":"#f73b6a7A","correct":32,"choice":32,"rt":725,"accuracy":1,"outcome":"-1","keys":[2232],"total_keys":1,"block":1,"trial":107,"stimulus":9,"robot":3,"valence":"lose","action":"go","sham":0,"trial_type":"pit-trial","trial_index":139,"time_elapsed":752457,"internal_node_id":"0.0-114.0","task_version":"battery-v0.2-trt"},{"rune":"T","rune_set":"bacs2","hex":"#f73b6a7A","correct":32,"choice":32,"rt":679,"accuracy":1,"outcome":"-1","keys":[2193],"total_keys":1,"block":1,"trial":108,"stimulus":10,"robot":3,"valence":"lose","action":"go","sham":0,"trial_type":"pit-trial","trial_index":140,"time_elapsed":755857,"internal_node_id":"0.0-115.0","task_version":"battery-v0.2-trt"},{"rune":"T","rune_set":"bacs2","hex":"#f73b6a7A","correct":32,"choice":32,"rt":551,"accuracy":1,"outcome":"-1","keys":[2054],"total_keys":1,"block":1,"trial":109,"stimulus":10,"robot":3,"valence":"lose","action":"go","sham":0,"trial_type":"pit-trial","trial_index":141,"time_elapsed":759126,"internal_node_id":"0.0-116.0","task_version":"battery-v0.2-trt"},{"rune":"Y","rune_set":"bacs2","hex":"#3366ff99","correct":-1,"choice":32,"rt":703,"accuracy":0,"outcome":"+10","keys":[2220],"total_keys":1,"block":1,"trial":110,"stimulus":11,"robot":2,"valence":"win","action":"no-go","sham":1,"trial_type":"pit-trial","trial_index":142,"time_elapsed":762567,"internal_node_id":"0.0-117.0","task_version":"battery-v0.2-trt"},{"rune":"H","rune_set":"bacs2","hex":"#3366ff99","correct":32,"choice":32,"rt":585,"accuracy":1,"outcome":"+10","keys":[2090],"total_keys":1,"block":1,"trial":111,"stimulus":8,"robot":1,"valence":"win","action":"go","sham":0,"trial_type":"pit-trial","trial_index":143,"time_elapsed":765867,"internal_node_id":"0.0-118.0","task_version":"battery-v0.2-trt"},{"rune":"Q","rune_set":"bacs2","hex":"#f73b6a7A","correct":32,"choice":32,"rt":709,"accuracy":1,"outcome":"-1","keys":[2214],"total_keys":1,"block":1,"trial":112,"stimulus":9,"robot":3,"valence":"lose","action":"go","sham":0,"trial_type":"pit-trial","trial_index":144,"time_elapsed":769287,"internal_node_id":"0.0-119.0","task_version":"battery-v0.2-trt"},{"rune":"T","rune_set":"bacs2","hex":"#f73b6a7A","correct":32,"choice":32,"rt":764,"accuracy":1,"outcome":"-10","keys":[2279],"total_keys":1,"block":1,"trial":113,"stimulus":10,"robot":3,"valence":"lose","action":"go","sham":1,"trial_type":"pit-trial","trial_index":145,"time_elapsed":772787,"internal_node_id":"0.0-120.0","task_version":"battery-v0.2-trt"},{"rune":"Y","rune_set":"bacs2","hex":"#3366ff99","correct":-1,"choice":32,"rt":594,"accuracy":0,"outcome":"+1","keys":[2109],"total_keys":1,"block":1,"trial":114,"stimulus":11,"robot":2,"valence":"win","action":"no-go","sham":0,"trial_type":"pit-trial","trial_index":146,"time_elapsed":776107,"internal_node_id":"0.0-121.0","task_version":"battery-v0.2-trt"},{"rune":"Q","rune_set":"bacs2","hex":"#f73b6a7A","correct":32,"choice":32,"rt":709,"accuracy":1,"outcome":"-1","keys":[2221],"total_keys":1,"block":1,"trial":115,"stimulus":9,"robot":3,"valence":"lose","action":"go","sham":0,"trial_type":"pit-trial","trial_index":147,"time_elapsed":779548,"internal_node_id":"0.0-122.0","task_version":"battery-v0.2-trt"},{"rune":"H","rune_set":"bacs2","hex":"#3366ff99","correct":32,"choice":32,"rt":601,"accuracy":1,"outcome":"+10","keys":[2106],"total_keys":1,"block":1,"trial":116,"stimulus":8,"robot":1,"valence":"win","action":"go","sham":0,"trial_type":"pit-trial","trial_index":148,"time_elapsed":782867,"internal_node_id":"0.0-123.0","task_version":"battery-v0.2-trt"},{"rune":"Y","rune_set":"bacs2","hex":"#3366ff99","correct":-1,"choice":32,"rt":756,"accuracy":0,"outcome":"+10","keys":[2270],"total_keys":1,"block":1,"trial":117,"stimulus":11,"robot":2,"valence":"win","action":"no-go","sham":1,"trial_type":"pit-trial","trial_index":149,"time_elapsed":786346,"internal_node_id":"0.0-124.0","task_version":"battery-v0.2-trt"},{"rune":"H","rune_set":"bacs2","hex":"#3366ff99","correct":32,"choice":32,"rt":659,"accuracy":1,"outcome":"+10","keys":[2171],"total_keys":1,"block":1,"trial":118,"stimulus":8,"robot":1,"valence":"win","action":"go","sham":0,"trial_type":"pit-trial","trial_index":150,"time_elapsed":789727,"internal_node_id":"0.0-125.0","task_version":"battery-v0.2-trt"},{"rune":"Q","rune_set":"bacs2","hex":"#f73b6a7A","correct":32,"choice":32,"rt":650,"accuracy":1,"outcome":"-10","keys":[2160],"total_keys":1,"block":1,"trial":119,"stimulus":9,"robot":3,"valence":"lose","action":"go","sham":1,"trial_type":"pit-trial","trial_index":151,"time_elapsed":793106,"internal_node_id":"0.0-126.0","task_version":"battery-v0.2-trt"},{"rune":"T","rune_set":"bacs2","hex":"#f73b6a7A","correct":32,"choice":-1,"rt":-1,"accuracy":0,"outcome":"-10","keys":[],"total_keys":0,"block":1,"trial":120,"stimulus":10,"robot":3,"valence":"lose","action":"go","sham":0,"trial_type":"pit-trial","trial_index":152,"time_elapsed":797143,"internal_node_id":"0.0-127.0","task_version":"battery-v0.2-trt"},{"view_history":"[{\"page_index\":0,\"viewing_time\":5529},{\"page_index\":1,\"viewing_time\":1814}]","rt":7343,"trial_type":"pit-instructions","trial_index":153,"time_elapsed":804489,"internal_node_id":"0.0-128.0","task_version":"battery-v0.2-trt"},{"rune":"M","rune_set":"bacs2","hex":"#3366ff99","correct":-1,"choice":32,"rt":619,"accuracy":0,"outcome":"+1","keys":[2132],"total_keys":1,"block":2,"trial":121,"stimulus":0,"robot":2,"valence":"win","action":"no-go","sham":0,"trial_type":"pit-trial","trial_index":154,"time_elapsed":807836,"internal_node_id":"0.0-129.0","task_version":"battery-v0.2-trt"},{"rune":"V","rune_set":"bacs2","hex":"#3366ff99","correct":32,"choice":32,"rt":863,"accuracy":1,"outcome":"+10","keys":[2381],"total_keys":1,"block":2,"trial":122,"stimulus":3,"robot":1,"valence":"win","action":"go","sham":0,"trial_type":"pit-trial","trial_index":155,"time_elapsed":811436,"internal_node_id":"0.0-130.0","task_version":"battery-v0.2-trt"},{"rune":"K","rune_set":"bacs2","hex":"#f73b6a7A","correct":-1,"choice":-1,"rt":-1,"accuracy":1,"outcome":"-10","keys":[],"total_keys":0,"block":2,"trial":123,"stimulus":2,"robot":4,"valence":"lose","action":"no-go","sham":1,"trial_type":"pit-trial","trial_index":156,"time_elapsed":815476,"internal_node_id":"0.0-131.0","task_version":"battery-v0.2-trt"},{"rune":"B","rune_set":"bacs2","hex":"#3366ff99","correct":32,"choice":32,"rt":587,"accuracy":1,"outcome":"+10","keys":[2104],"total_keys":1,"block":2,"trial":124,"stimulus":1,"robot":1,"valence":"win","action":"go","sham":0,"trial_type":"pit-trial","trial_index":157,"time_elapsed":818787,"internal_node_id":"0.0-132.0","task_version":"battery-v0.2-trt"},{"rune":"V","rune_set":"bacs2","hex":"#3366ff99","correct":32,"choice":32,"rt":752,"accuracy":1,"outcome":"+10","keys":[2259],"total_keys":1,"block":2,"trial":125,"stimulus":3,"robot":1,"valence":"win","action":"go","sham":0,"trial_type":"pit-trial","trial_index":158,"time_elapsed":822256,"internal_node_id":"0.0-133.0","task_version":"battery-v0.2-trt"},{"rune":"B","rune_set":"bacs2","hex":"#3366ff99","correct":32,"choice":32,"rt":958,"accuracy":1,"outcome":"+10","keys":[2477],"total_keys":1,"block":2,"trial":126,"stimulus":1,"robot":1,"valence":"win","action":"go","sham":0,"trial_type":"pit-trial","trial_index":159,"time_elapsed":825956,"internal_node_id":"0.0-134.0","task_version":"battery-v0.2-trt"},{"rune":"M","rune_set":"bacs2","hex":"#3366ff99","correct":-1,"choice":-1,"rt":-1,"accuracy":1,"outcome":"+1","keys":[],"total_keys":0,"block":2,"trial":127,"stimulus":0,"robot":2,"valence":"win","action":"no-go","sham":1,"trial_type":"pit-trial","trial_index":160,"time_elapsed":829997,"internal_node_id":"0.0-135.0","task_version":"battery-v0.2-trt"},{"rune":"K","rune_set":"bacs2","hex":"#f73b6a7A","correct":-1,"choice":32,"rt":500,"accuracy":0,"outcome":"-1","keys":[2016],"total_keys":1,"block":2,"trial":128,"stimulus":2,"robot":4,"valence":"lose","action":"no-go","sham":1,"trial_type":"pit-trial","trial_index":161,"time_elapsed":833227,"internal_node_id":"0.0-136.0","task_version":"battery-v0.2-trt"},{"rune":"B","rune_set":"bacs2","hex":"#3366ff99","correct":32,"choice":32,"rt":603,"accuracy":1,"outcome":"+1","keys":[2115],"total_keys":1,"block":2,"trial":129,"stimulus":1,"robot":1,"valence":"win","action":"go","sham":1,"trial_type":"pit-trial","trial_index":162,"time_elapsed":836557,"internal_node_id":"0.0-137.0","task_version":"battery-v0.2-trt"},{"rune":"M","rune_set":"bacs2","hex":"#3366ff99","correct":-1,"choice":32,"rt":667,"accuracy":0,"outcome":"+1","keys":[2182],"total_keys":1,"block":2,"trial":130,"stimulus":0,"robot":2,"valence":"win","action":"no-go","sham":0,"trial_type":"pit-trial","trial_index":163,"time_elapsed":839956,"internal_node_id":"0.0-138.0","task_version":"battery-v0.2-trt"},{"rune":"V","rune_set":"bacs2","hex":"#3366ff99","correct":32,"choice":32,"rt":623,"accuracy":1,"outcome":"+10","keys":[2144],"total_keys":1,"block":2,"trial":131,"stimulus":3,"robot":1,"valence":"win","action":"go","sham":0,"trial_type":"pit-trial","trial_index":164,"time_elapsed":843316,"internal_node_id":"0.0-139.0","task_version":"battery-v0.2-trt"},{"rune":"K","rune_set":"bacs2","hex":"#f73b6a7A","correct":-1,"choice":32,"rt":563,"accuracy":0,"outcome":"-1","keys":[2080],"total_keys":1,"block":2,"trial":132,"stimulus":2,"robot":4,"valence":"lose","action":"no-go","sham":1,"trial_type":"pit-trial","trial_index":165,"time_elapsed":846607,"internal_node_id":"0.0-140.0","task_version":"battery-v0.2-trt"},{"rune":"K","rune_set":"bacs2","hex":"#f73b6a7A","correct":-1,"choice":32,"rt":655,"accuracy":0,"outcome":"-10","keys":[2170],"total_keys":1,"block":2,"trial":133,"stimulus":2,"robot":4,"valence":"lose","action":"no-go","sham":0,"trial_type":"pit-trial","trial_index":166,"time_elapsed":849997,"internal_node_id":"0.0-141.0","task_version":"battery-v0.2-trt"},{"rune":"M","rune_set":"bacs2","hex":"#3366ff99","correct":-1,"choice":32,"rt":820,"accuracy":0,"outcome":"+1","keys":[2336],"total_keys":1,"block":2,"trial":134,"stimulus":0,"robot":2,"valence":"win","action":"no-go","sham":0,"trial_type":"pit-trial","trial_index":167,"time_elapsed":853556,"internal_node_id":"0.0-142.0","task_version":"battery-v0.2-trt"},{"rune":"B","rune_set":"bacs2","hex":"#3366ff99","correct":32,"choice":-1,"rt":-1,"accuracy":0,"outcome":"+1","keys":[],"total_keys":0,"block":2,"trial":135,"stimulus":1,"robot":1,"valence":"win","action":"go","sham":0,"trial_type":"pit-trial","trial_index":168,"time_elapsed":857567,"internal_node_id":"0.0-143.0","task_version":"battery-v0.2-trt"},{"rune":"V","rune_set":"bacs2","hex":"#3366ff99","correct":32,"choice":32,"rt":505,"accuracy":1,"outcome":"+10","keys":[2008],"total_keys":1,"block":2,"trial":136,"stimulus":3,"robot":1,"valence":"win","action":"go","sham":0,"trial_type":"pit-trial","trial_index":169,"time_elapsed":860796,"internal_node_id":"0.0-144.0","task_version":"battery-v0.2-trt"},{"rune":"K","rune_set":"bacs2","hex":"#f73b6a7A","correct":-1,"choice":32,"rt":463,"accuracy":0,"outcome":"-10","keys":[1980],"total_keys":1,"block":2,"trial":137,"stimulus":2,"robot":4,"valence":"lose","action":"no-go","sham":0,"trial_type":"pit-trial","trial_index":170,"time_elapsed":863987,"internal_node_id":"0.0-145.0","task_version":"battery-v0.2-trt"},{"rune":"M","rune_set":"bacs2","hex":"#3366ff99","correct":-1,"choice":32,"rt":607,"accuracy":0,"outcome":"+1","keys":[2123],"total_keys":1,"block":2,"trial":138,"stimulus":0,"robot":2,"valence":"win","action":"no-go","sham":0,"trial_type":"pit-trial","trial_index":171,"time_elapsed":867317,"internal_node_id":"0.0-146.0","task_version":"battery-v0.2-trt"},{"rune":"V","rune_set":"bacs2","hex":"#3366ff99","correct":32,"choice":32,"rt":627,"accuracy":1,"outcome":"+1","keys":[2146],"total_keys":1,"block":2,"trial":139,"stimulus":3,"robot":1,"valence":"win","action":"go","sham":1,"trial_type":"pit-trial","trial_index":172,"time_elapsed":870676,"internal_node_id":"0.0-147.0","task_version":"battery-v0.2-trt"},{"rune":"B","rune_set":"bacs2","hex":"#3366ff99","correct":32,"choice":-1,"rt":-1,"accuracy":0,"outcome":"+1","keys":[],"total_keys":0,"block":2,"trial":140,"stimulus":1,"robot":1,"valence":"win","action":"go","sham":0,"trial_type":"pit-trial","trial_index":173,"time_elapsed":874706,"internal_node_id":"0.0-148.0","task_version":"battery-v0.2-trt"},{"rune":"V","rune_set":"bacs2","hex":"#3366ff99","correct":32,"choice":32,"rt":577,"accuracy":1,"outcome":"+1","keys":[2095],"total_keys":1,"block":2,"trial":141,"stimulus":3,"robot":1,"valence":"win","action":"go","sham":1,"trial_type":"pit-trial","trial_index":174,"time_elapsed":878006,"internal_node_id":"0.0-149.0","task_version":"battery-v0.2-trt"},{"rune":"B","rune_set":"bacs2","hex":"#3366ff99","correct":32,"choice":-1,"rt":-1,"accuracy":0,"outcome":"+1","keys":[],"total_keys":0,"block":2,"trial":142,"stimulus":1,"robot":1,"valence":"win","action":"go","sham":0,"trial_type":"pit-trial","trial_index":175,"time_elapsed":882037,"internal_node_id":"0.0-150.0","task_version":"battery-v0.2-trt"},{"rune":"K","rune_set":"bacs2","hex":"#f73b6a7A","correct":-1,"choice":32,"rt":668,"accuracy":0,"outcome":"-1","keys":[2188],"total_keys":1,"block":2,"trial":143,"stimulus":2,"robot":4,"valence":"lose","action":"no-go","sham":1,"trial_type":"pit-trial","trial_index":176,"time_elapsed":885437,"internal_node_id":"0.0-151.0","task_version":"battery-v0.2-trt"},{"rune":"M","rune_set":"bacs2","hex":"#3366ff99","correct":-1,"choice":32,"rt":586,"accuracy":0,"outcome":"+1","keys":[2102],"total_keys":1,"block":2,"trial":144,"stimulus":0,"robot":2,"valence":"win","action":"no-go","sham":0,"trial_type":"pit-trial","trial_index":177,"time_elapsed":888756,"internal_node_id":"0.0-152.0","task_version":"battery-v0.2-trt"},{"rune":"M","rune_set":"bacs2","hex":"#3366ff99","correct":-1,"choice":-1,"rt":-1,"accuracy":1,"outcome":"+10","keys":[],"total_keys":0,"block":2,"trial":145,"stimulus":0,"robot":2,"valence":"win","action":"no-go","sham":0,"trial_type":"pit-trial","trial_index":178,"time_elapsed":892767,"internal_node_id":"0.0-153.0","task_version":"battery-v0.2-trt"},{"rune":"B","rune_set":"bacs2","hex":"#3366ff99","correct":32,"choice":32,"rt":746,"accuracy":1,"outcome":"+10","keys":[2248],"total_keys":1,"block":2,"trial":146,"stimulus":1,"robot":1,"valence":"win","action":"go","sham":0,"trial_type":"pit-trial","trial_index":179,"time_elapsed":896226,"internal_node_id":"0.0-154.0","task_version":"battery-v0.2-trt"},{"rune":"V","rune_set":"bacs2","hex":"#3366ff99","correct":32,"choice":-1,"rt":-1,"accuracy":0,"outcome":"+1","keys":[],"total_keys":0,"block":2,"trial":147,"stimulus":3,"robot":1,"valence":"win","action":"go","sham":0,"trial_type":"pit-trial","trial_index":180,"time_elapsed":900257,"internal_node_id":"0.0-155.0","task_version":"battery-v0.2-trt"},{"rune":"K","rune_set":"bacs2","hex":"#f73b6a7A","correct":-1,"choice":32,"rt":467,"accuracy":0,"outcome":"-10","keys":[1983],"total_keys":1,"block":2,"trial":148,"stimulus":2,"robot":4,"valence":"lose","action":"no-go","sham":0,"trial_type":"pit-trial","trial_index":181,"time_elapsed":903456,"internal_node_id":"0.0-156.0","task_version":"battery-v0.2-trt"},{"rune":"B","rune_set":"bacs2","hex":"#3366ff99","correct":32,"choice":32,"rt":590,"accuracy":1,"outcome":"+10","keys":[2105],"total_keys":1,"block":2,"trial":149,"stimulus":1,"robot":1,"valence":"win","action":"go","sham":0,"trial_type":"pit-trial","trial_index":182,"time_elapsed":906776,"internal_node_id":"0.0-157.0","task_version":"battery-v0.2-trt"},{"rune":"M","rune_set":"bacs2","hex":"#3366ff99","correct":-1,"choice":-1,"rt":-1,"accuracy":1,"outcome":"+1","keys":[],"total_keys":0,"block":2,"trial":150,"stimulus":0,"robot":2,"valence":"win","action":"no-go","sham":1,"trial_type":"pit-trial","trial_index":183,"time_elapsed":910806,"internal_node_id":"0.0-158.0","task_version":"battery-v0.2-trt"},{"rune":"K","rune_set":"bacs2","hex":"#f73b6a7A","correct":-1,"choice":32,"rt":573,"accuracy":0,"outcome":"-10","keys":[2089],"total_keys":1,"block":2,"trial":151,"stimulus":2,"robot":4,"valence":"lose","action":"no-go","sham":0,"trial_type":"pit-trial","trial_index":184,"time_elapsed":914107,"internal_node_id":"0.0-159.0","task_version":"battery-v0.2-trt"},{"rune":"V","rune_set":"bacs2","hex":"#3366ff99","correct":32,"choice":32,"rt":668,"accuracy":1,"outcome":"+10","keys":[2183],"total_keys":1,"block":2,"trial":152,"stimulus":3,"robot":1,"valence":"win","action":"go","sham":0,"trial_type":"pit-trial","trial_index":185,"time_elapsed":917497,"internal_node_id":"0.0-160.0","task_version":"battery-v0.2-trt"},{"rune":"K","rune_set":"bacs2","hex":"#f73b6a7A","correct":-1,"choice":32,"rt":693,"accuracy":0,"outcome":"-10","keys":[2209],"total_keys":1,"block":2,"trial":153,"stimulus":2,"robot":4,"valence":"lose","action":"no-go","sham":0,"trial_type":"pit-trial","trial_index":186,"time_elapsed":920927,"internal_node_id":"0.0-161.0","task_version":"battery-v0.2-trt"},{"rune":"M","rune_set":"bacs2","hex":"#3366ff99","correct":-1,"choice":32,"rt":828,"accuracy":0,"outcome":"+1","keys":[2345],"total_keys":1,"block":2,"trial":154,"stimulus":0,"robot":2,"valence":"win","action":"no-go","sham":0,"trial_type":"pit-trial","trial_index":187,"time_elapsed":924486,"internal_node_id":"0.0-162.0","task_version":"battery-v0.2-trt"},{"rune":"V","rune_set":"bacs2","hex":"#3366ff99","correct":32,"choice":32,"rt":612,"accuracy":1,"outcome":"+1","keys":[2119],"total_keys":1,"block":2,"trial":155,"stimulus":3,"robot":1,"valence":"win","action":"go","sham":1,"trial_type":"pit-trial","trial_index":188,"time_elapsed":927817,"internal_node_id":"0.0-163.0","task_version":"battery-v0.2-trt"},{"rune":"R","rune_set":"bacs2","hex":"#3366ff99","correct":32,"choice":32,"rt":626,"accuracy":1,"outcome":"+10","keys":[2141],"total_keys":1,"block":2,"trial":156,"stimulus":4,"robot":1,"valence":"win","action":"go","sham":0,"trial_type":"pit-trial","trial_index":189,"time_elapsed":931177,"internal_node_id":"0.0-164.0","task_version":"battery-v0.2-trt"},{"rune":"V","rune_set":"bacs2","hex":"#3366ff99","correct":32,"choice":32,"rt":515,"accuracy":1,"outcome":"+10","keys":[2032],"total_keys":1,"block":2,"trial":157,"stimulus":3,"robot":1,"valence":"win","action":"go","sham":0,"trial_type":"pit-trial","trial_index":190,"time_elapsed":934417,"internal_node_id":"0.0-165.0","task_version":"battery-v0.2-trt"},{"rune":"R","rune_set":"bacs2","hex":"#3366ff99","correct":32,"choice":32,"rt":691,"accuracy":1,"outcome":"+10","keys":[2217],"total_keys":1,"block":2,"trial":158,"stimulus":4,"robot":1,"valence":"win","action":"go","sham":0,"trial_type":"pit-trial","trial_index":191,"time_elapsed":937846,"internal_node_id":"0.0-166.0","task_version":"battery-v0.2-trt"},{"rune":"K","rune_set":"bacs2","hex":"#f73b6a7A","correct":-1,"choice":-1,"rt":-1,"accuracy":1,"outcome":"-1","keys":[],"total_keys":0,"block":2,"trial":159,"stimulus":2,"robot":4,"valence":"lose","action":"no-go","sham":0,"trial_type":"pit-trial","trial_index":192,"time_elapsed":941877,"internal_node_id":"0.0-167.0","task_version":"battery-v0.2-trt"},{"rune":"M","rune_set":"bacs2","hex":"#3366ff99","correct":-1,"choice":-1,"rt":-1,"accuracy":1,"outcome":"+10","keys":[],"total_keys":0,"block":2,"trial":160,"stimulus":0,"robot":2,"valence":"win","action":"no-go","sham":0,"trial_type":"pit-trial","trial_index":193,"time_elapsed":945897,"internal_node_id":"0.0-168.0","task_version":"battery-v0.2-trt"},{"rune":"L","rune_set":"bacs2","hex":"#f73b6a7A","correct":-1,"choice":32,"rt":580,"accuracy":0,"outcome":"-10","keys":[2096],"total_keys":1,"block":2,"trial":161,"stimulus":6,"robot":4,"valence":"lose","action":"no-go","sham":0,"trial_type":"pit-trial","trial_index":194,"time_elapsed":949217,"internal_node_id":"0.0-169.0","task_version":"battery-v0.2-trt"},{"rune":"P","rune_set":"bacs2","hex":"#f73b6a7A","correct":32,"choice":32,"rt":1029,"accuracy":1,"outcome":"-1","keys":[2534],"total_keys":1,"block":2,"trial":162,"stimulus":5,"robot":3,"valence":"lose","action":"go","sham":0,"trial_type":"pit-trial","trial_index":195,"time_elapsed":952967,"internal_node_id":"0.0-170.0","task_version":"battery-v0.2-trt"},{"rune":"R","rune_set":"bacs2","hex":"#3366ff99","correct":32,"choice":32,"rt":786,"accuracy":1,"outcome":"+10","keys":[2291],"total_keys":1,"block":2,"trial":163,"stimulus":4,"robot":1,"valence":"win","action":"go","sham":0,"trial_type":"pit-trial","trial_index":196,"time_elapsed":956477,"internal_node_id":"0.0-171.0","task_version":"battery-v0.2-trt"},{"rune":"M","rune_set":"bacs2","hex":"#3366ff99","correct":-1,"choice":32,"rt":1144,"accuracy":0,"outcome":"+1","keys":[2657],"total_keys":1,"block":2,"trial":164,"stimulus":0,"robot":2,"valence":"win","action":"no-go","sham":0,"trial_type":"pit-trial","trial_index":197,"time_elapsed":960357,"internal_node_id":"0.0-172.0","task_version":"battery-v0.2-trt"},{"rune":"M","rune_set":"bacs2","hex":"#3366ff99","correct":-1,"choice":-1,"rt":-1,"accuracy":1,"outcome":"+10","keys":[],"total_keys":0,"block":2,"trial":165,"stimulus":0,"robot":2,"valence":"win","action":"no-go","sham":0,"trial_type":"pit-trial","trial_index":198,"time_elapsed":964396,"internal_node_id":"0.0-173.0","task_version":"battery-v0.2-trt"},{"rune":"P","rune_set":"bacs2","hex":"#f73b6a7A","correct":32,"choice":-1,"rt":-1,"accuracy":0,"outcome":"-10","keys":[3285],"total_keys":1,"block":2,"trial":166,"stimulus":5,"robot":3,"valence":"lose","action":"go","sham":0,"trial_type":"pit-trial","trial_index":199,"time_elapsed":968436,"internal_node_id":"0.0-174.0","task_version":"battery-v0.2-trt"},{"rune":"R","rune_set":"bacs2","hex":"#3366ff99","correct":32,"choice":32,"rt":725,"accuracy":1,"outcome":"+10","keys":[2244],"total_keys":1,"block":2,"trial":167,"stimulus":4,"robot":1,"valence":"win","action":"go","sham":0,"trial_type":"pit-trial","trial_index":200,"time_elapsed":971886,"internal_node_id":"0.0-175.0","task_version":"battery-v0.2-trt"},{"rune":"L","rune_set":"bacs2","hex":"#f73b6a7A","correct":-1,"choice":32,"rt":904,"accuracy":0,"outcome":"-1","keys":[2419],"total_keys":1,"block":2,"trial":168,"stimulus":6,"robot":4,"valence":"lose","action":"no-go","sham":1,"trial_type":"pit-trial","trial_index":201,"time_elapsed":975526,"internal_node_id":"0.0-176.0","task_version":"battery-v0.2-trt"},{"rune":"L","rune_set":"bacs2","hex":"#f73b6a7A","correct":-1,"choice":32,"rt":669,"accuracy":0,"outcome":"-10","keys":[2187],"total_keys":1,"block":2,"trial":169,"stimulus":6,"robot":4,"valence":"lose","action":"no-go","sham":0,"trial_type":"pit-trial","trial_index":202,"time_elapsed":978916,"internal_node_id":"0.0-177.0","task_version":"battery-v0.2-trt"},{"rune":"R","rune_set":"bacs2","hex":"#3366ff99","correct":32,"choice":32,"rt":623,"accuracy":1,"outcome":"+10","keys":[2140],"total_keys":1,"block":2,"trial":170,"stimulus":4,"robot":1,"valence":"win","action":"go","sham":0,"trial_type":"pit-trial","trial_index":203,"time_elapsed":982277,"internal_node_id":"0.0-178.0","task_version":"battery-v0.2-trt"},{"rune":"S","rune_set":"bacs2","hex":"#3366ff99","correct":-1,"choice":32,"rt":799,"accuracy":0,"outcome":"+1","keys":[2315],"total_keys":1,"block":2,"trial":171,"stimulus":7,"robot":2,"valence":"win","action":"no-go","sham":0,"trial_type":"pit-trial","trial_index":204,"time_elapsed":985806,"internal_node_id":"0.0-179.0","task_version":"battery-v0.2-trt"},{"rune":"P","rune_set":"bacs2","hex":"#f73b6a7A","correct":32,"choice":-1,"rt":-1,"accuracy":0,"outcome":"-1","keys":[],"total_keys":0,"block":2,"trial":172,"stimulus":5,"robot":3,"valence":"lose","action":"go","sham":1,"trial_type":"pit-trial","trial_index":205,"time_elapsed":989827,"internal_node_id":"0.0-180.0","task_version":"battery-v0.2-trt"},{"rune":"R","rune_set":"bacs2","hex":"#3366ff99","correct":32,"choice":32,"rt":664,"accuracy":1,"outcome":"+10","keys":[2183],"total_keys":1,"block":2,"trial":173,"stimulus":4,"robot":1,"valence":"win","action":"go","sham":0,"trial_type":"pit-trial","trial_index":206,"time_elapsed":993227,"internal_node_id":"0.0-181.0","task_version":"battery-v0.2-trt"},{"rune":"P","rune_set":"bacs2","hex":"#f73b6a7A","correct":32,"choice":32,"rt":1089,"accuracy":1,"outcome":"-1","keys":[2603],"total_keys":1,"block":2,"trial":174,"stimulus":5,"robot":3,"valence":"lose","action":"go","sham":0,"trial_type":"pit-trial","trial_index":207,"time_elapsed":997037,"internal_node_id":"0.0-182.0","task_version":"battery-v0.2-trt"},{"rune":"L","rune_set":"bacs2","hex":"#f73b6a7A","correct":-1,"choice":-1,"rt":-1,"accuracy":1,"outcome":"-1","keys":[],"total_keys":0,"block":2,"trial":175,"stimulus":6,"robot":4,"valence":"lose","action":"no-go","sham":0,"trial_type":"pit-trial","trial_index":208,"time_elapsed":1001066,"internal_node_id":"0.0-183.0","task_version":"battery-v0.2-trt"},{"rune":"S","rune_set":"bacs2","hex":"#3366ff99","correct":-1,"choice":32,"rt":1122,"accuracy":0,"outcome":"+1","keys":[2626],"total_keys":1,"block":2,"trial":176,"stimulus":7,"robot":2,"valence":"win","action":"no-go","sham":0,"trial_type":"pit-trial","trial_index":209,"time_elapsed":1004907,"internal_node_id":"0.0-184.0","task_version":"battery-v0.2-trt"},{"rune":"P","rune_set":"bacs2","hex":"#f73b6a7A","correct":32,"choice":-1,"rt":-1,"accuracy":0,"outcome":"-1","keys":[],"total_keys":0,"block":2,"trial":177,"stimulus":5,"robot":3,"valence":"lose","action":"go","sham":1,"trial_type":"pit-trial","trial_index":210,"time_elapsed":1008926,"internal_node_id":"0.0-185.0","task_version":"battery-v0.2-trt"},{"rune":"R","rune_set":"bacs2","hex":"#3366ff99","correct":32,"choice":32,"rt":494,"accuracy":1,"outcome":"+10","keys":[2015],"total_keys":1,"block":2,"trial":178,"stimulus":4,"robot":1,"valence":"win","action":"go","sham":0,"trial_type":"pit-trial","trial_index":211,"time_elapsed":1012147,"internal_node_id":"0.0-186.0","task_version":"battery-v0.2-trt"},{"rune":"S","rune_set":"bacs2","hex":"#3366ff99","correct":-1,"choice":-1,"rt":-1,"accuracy":1,"outcome":"+10","keys":[],"total_keys":0,"block":2,"trial":179,"stimulus":7,"robot":2,"valence":"win","action":"no-go","sham":0,"trial_type":"pit-trial","trial_index":212,"time_elapsed":1016176,"internal_node_id":"0.0-187.0","task_version":"battery-v0.2-trt"},{"rune":"L","rune_set":"bacs2","hex":"#f73b6a7A","correct":-1,"choice":-1,"rt":-1,"accuracy":1,"outcome":"-10","keys":[],"total_keys":0,"block":2,"trial":180,"stimulus":6,"robot":4,"valence":"lose","action":"no-go","sham":1,"trial_type":"pit-trial","trial_index":213,"time_elapsed":1020206,"internal_node_id":"0.0-188.0","task_version":"battery-v0.2-trt"},{"rune":"R","rune_set":"bacs2","hex":"#3366ff99","correct":32,"choice":32,"rt":598,"accuracy":1,"outcome":"+10","keys":[2115],"total_keys":1,"block":2,"trial":181,"stimulus":4,"robot":1,"valence":"win","action":"go","sham":0,"trial_type":"pit-trial","trial_index":214,"time_elapsed":1023536,"internal_node_id":"0.0-189.0","task_version":"battery-v0.2-trt"},{"rune":"L","rune_set":"bacs2","hex":"#f73b6a7A","correct":-1,"choice":32,"rt":930,"accuracy":0,"outcome":"-10","keys":[2443],"total_keys":1,"block":2,"trial":182,"stimulus":6,"robot":4,"valence":"lose","action":"no-go","sham":0,"trial_type":"pit-trial","trial_index":215,"time_elapsed":1027197,"internal_node_id":"0.0-190.0","task_version":"battery-v0.2-trt"},{"rune":"S","rune_set":"bacs2","hex":"#3366ff99","correct":-1,"choice":32,"rt":722,"accuracy":0,"outcome":"+1","keys":[2238],"total_keys":1,"block":2,"trial":183,"stimulus":7,"robot":2,"valence":"win","action":"no-go","sham":0,"trial_type":"pit-trial","trial_index":216,"time_elapsed":1030656,"internal_node_id":"0.0-191.0","task_version":"battery-v0.2-trt"},{"rune":"P","rune_set":"bacs2","hex":"#f73b6a7A","correct":32,"choice":-1,"rt":-1,"accuracy":0,"outcome":"-10","keys":[],"total_keys":0,"block":2,"trial":184,"stimulus":5,"robot":3,"valence":"lose","action":"go","sham":0,"trial_type":"pit-trial","trial_index":217,"time_elapsed":1034697,"internal_node_id":"0.0-192.0","task_version":"battery-v0.2-trt"},{"rune":"L","rune_set":"bacs2","hex":"#f73b6a7A","correct":-1,"choice":-1,"rt":-1,"accuracy":1,"outcome":"-1","keys":[],"total_keys":0,"block":2,"trial":185,"stimulus":6,"robot":4,"valence":"lose","action":"no-go","sham":0,"trial_type":"pit-trial","trial_index":218,"time_elapsed":1038707,"internal_node_id":"0.0-193.0","task_version":"battery-v0.2-trt"},{"rune":"S","rune_set":"bacs2","hex":"#3366ff99","correct":-1,"choice":-1,"rt":-1,"accuracy":1,"outcome":"+10","keys":[],"total_keys":0,"block":2,"trial":186,"stimulus":7,"robot":2,"valence":"win","action":"no-go","sham":0,"trial_type":"pit-trial","trial_index":219,"time_elapsed":1042736,"internal_node_id":"0.0-194.0","task_version":"battery-v0.2-trt"},{"rune":"P","rune_set":"bacs2","hex":"#f73b6a7A","correct":32,"choice":32,"rt":801,"accuracy":1,"outcome":"-1","keys":[2317],"total_keys":1,"block":2,"trial":187,"stimulus":5,"robot":3,"valence":"lose","action":"go","sham":0,"trial_type":"pit-trial","trial_index":220,"time_elapsed":1046277,"internal_node_id":"0.0-195.0","task_version":"battery-v0.2-trt"},{"rune":"R","rune_set":"bacs2","hex":"#3366ff99","correct":32,"choice":32,"rt":575,"accuracy":1,"outcome":"+10","keys":[2089],"total_keys":1,"block":2,"trial":188,"stimulus":4,"robot":1,"valence":"win","action":"go","sham":0,"trial_type":"pit-trial","trial_index":221,"time_elapsed":1049585,"internal_node_id":"0.0-196.0","task_version":"battery-v0.2-trt"},{"rune":"S","rune_set":"bacs2","hex":"#3366ff99","correct":-1,"choice":-1,"rt":-1,"accuracy":1,"outcome":"+10","keys":[],"total_keys":0,"block":2,"trial":189,"stimulus":7,"robot":2,"valence":"win","action":"no-go","sham":0,"trial_type":"pit-trial","trial_index":222,"time_elapsed":1053626,"internal_node_id":"0.0-197.0","task_version":"battery-v0.2-trt"},{"rune":"R","rune_set":"bacs2","hex":"#3366ff99","correct":32,"choice":32,"rt":531,"accuracy":1,"outcome":"+10","keys":[2047],"total_keys":1,"block":2,"trial":190,"stimulus":4,"robot":1,"valence":"win","action":"go","sham":0,"trial_type":"pit-trial","trial_index":223,"time_elapsed":1056886,"internal_node_id":"0.0-198.0","task_version":"battery-v0.2-trt"},{"rune":"P","rune_set":"bacs2","hex":"#f73b6a7A","correct":32,"choice":32,"rt":943,"accuracy":1,"outcome":"-1","keys":[2458],"total_keys":1,"block":2,"trial":191,"stimulus":5,"robot":3,"valence":"lose","action":"go","sham":0,"trial_type":"pit-trial","trial_index":224,"time_elapsed":1060567,"internal_node_id":"0.0-199.0","task_version":"battery-v0.2-trt"},{"rune":"L","rune_set":"bacs2","hex":"#f73b6a7A","correct":-1,"choice":-1,"rt":-1,"accuracy":1,"outcome":"-1","keys":[],"total_keys":0,"block":2,"trial":192,"stimulus":6,"robot":4,"valence":"lose","action":"no-go","sham":0,"trial_type":"pit-trial","trial_index":225,"time_elapsed":1064607,"internal_node_id":"0.0-200.0","task_version":"battery-v0.2-trt"},{"rune":"U","rune_set":"bacs2","hex":"#f73b6a7A","correct":32,"choice":32,"rt":691,"accuracy":1,"outcome":"-1","keys":[2206],"total_keys":1,"block":2,"trial":193,"stimulus":8,"robot":3,"valence":"lose","action":"go","sham":0,"trial_type":"pit-trial","trial_index":226,"time_elapsed":1068027,"internal_node_id":"0.0-201.0","task_version":"battery-v0.2-trt"},{"rune":"L","rune_set":"bacs2","hex":"#f73b6a7A","correct":-1,"choice":-1,"rt":-1,"accuracy":1,"outcome":"-1","keys":[],"total_keys":0,"block":2,"trial":194,"stimulus":6,"robot":4,"valence":"lose","action":"no-go","sham":0,"trial_type":"pit-trial","trial_index":227,"time_elapsed":1072067,"internal_node_id":"0.0-202.0","task_version":"battery-v0.2-trt"},{"rune":"S","rune_set":"bacs2","hex":"#3366ff99","correct":-1,"choice":-1,"rt":-1,"accuracy":1,"outcome":"+10","keys":[],"total_keys":0,"block":2,"trial":195,"stimulus":7,"robot":2,"valence":"win","action":"no-go","sham":0,"trial_type":"pit-trial","trial_index":228,"time_elapsed":1076107,"internal_node_id":"0.0-203.0","task_version":"battery-v0.2-trt"},{"rune":"R","rune_set":"bacs2","hex":"#3366ff99","correct":32,"choice":32,"rt":545,"accuracy":1,"outcome":"+10","keys":[2060],"total_keys":1,"block":2,"trial":196,"stimulus":4,"robot":1,"valence":"win","action":"go","sham":0,"trial_type":"pit-trial","trial_index":229,"time_elapsed":1079386,"internal_node_id":"0.0-204.0","task_version":"battery-v0.2-trt"},{"rune":"L","rune_set":"bacs2","hex":"#f73b6a7A","correct":-1,"choice":-1,"rt":-1,"accuracy":1,"outcome":"-1","keys":[],"total_keys":0,"block":2,"trial":197,"stimulus":6,"robot":4,"valence":"lose","action":"no-go","sham":0,"trial_type":"pit-trial","trial_index":230,"time_elapsed":1083406,"internal_node_id":"0.0-205.0","task_version":"battery-v0.2-trt"},{"rune":"R","rune_set":"bacs2","hex":"#3366ff99","correct":32,"choice":32,"rt":506,"accuracy":1,"outcome":"+10","keys":[2019],"total_keys":1,"block":2,"trial":198,"stimulus":4,"robot":1,"valence":"win","action":"go","sham":0,"trial_type":"pit-trial","trial_index":231,"time_elapsed":1086636,"internal_node_id":"0.0-206.0","task_version":"battery-v0.2-trt"},{"rune":"U","rune_set":"bacs2","hex":"#f73b6a7A","correct":32,"choice":32,"rt":743,"accuracy":1,"outcome":"-1","keys":[2292],"total_keys":1,"block":2,"trial":199,"stimulus":8,"robot":3,"valence":"lose","action":"go","sham":0,"trial_type":"pit-trial","trial_index":232,"time_elapsed":1090139,"internal_node_id":"0.0-207.0","task_version":"battery-v0.2-trt"},{"rune":"S","rune_set":"bacs2","hex":"#3366ff99","correct":-1,"choice":-1,"rt":-1,"accuracy":1,"outcome":"+10","keys":[],"total_keys":0,"block":2,"trial":200,"stimulus":7,"robot":2,"valence":"win","action":"no-go","sham":0,"trial_type":"pit-trial","trial_index":233,"time_elapsed":1094177,"internal_node_id":"0.0-208.0","task_version":"battery-v0.2-trt"},{"rune":"U","rune_set":"bacs2","hex":"#f73b6a7A","correct":32,"choice":32,"rt":497,"accuracy":1,"outcome":"-10","keys":[2011],"total_keys":1,"block":2,"trial":201,"stimulus":8,"robot":3,"valence":"lose","action":"go","sham":1,"trial_type":"pit-trial","trial_index":234,"time_elapsed":1097406,"internal_node_id":"0.0-209.0","task_version":"battery-v0.2-trt"},{"rune":"A","rune_set":"bacs2","hex":"#f73b6a7A","correct":32,"choice":32,"rt":600,"accuracy":1,"outcome":"-1","keys":[2116],"total_keys":1,"block":2,"trial":202,"stimulus":9,"robot":3,"valence":"lose","action":"go","sham":0,"trial_type":"pit-trial","trial_index":235,"time_elapsed":1100747,"internal_node_id":"0.0-210.0","task_version":"battery-v0.2-trt"},{"rune":"L","rune_set":"bacs2","hex":"#f73b6a7A","correct":-1,"choice":-1,"rt":-1,"accuracy":1,"outcome":"-1","keys":[],"total_keys":0,"block":2,"trial":203,"stimulus":6,"robot":4,"valence":"lose","action":"no-go","sham":0,"trial_type":"pit-trial","trial_index":236,"time_elapsed":1104786,"internal_node_id":"0.0-211.0","task_version":"battery-v0.2-trt"},{"rune":"S","rune_set":"bacs2","hex":"#3366ff99","correct":-1,"choice":-1,"rt":-1,"accuracy":1,"outcome":"+10","keys":[],"total_keys":0,"block":2,"trial":204,"stimulus":7,"robot":2,"valence":"win","action":"no-go","sham":0,"trial_type":"pit-trial","trial_index":237,"time_elapsed":1108816,"internal_node_id":"0.0-212.0","task_version":"battery-v0.2-trt"},{"rune":"A","rune_set":"bacs2","hex":"#f73b6a7A","correct":32,"choice":32,"rt":813,"accuracy":1,"outcome":"-1","keys":[2320],"total_keys":1,"block":2,"trial":205,"stimulus":9,"robot":3,"valence":"lose","action":"go","sham":0,"trial_type":"pit-trial","trial_index":238,"time_elapsed":1112357,"internal_node_id":"0.0-213.0","task_version":"battery-v0.2-trt"},{"rune":"S","rune_set":"bacs2","hex":"#3366ff99","correct":-1,"choice":-1,"rt":-1,"accuracy":1,"outcome":"+1","keys":[],"total_keys":0,"block":2,"trial":206,"stimulus":7,"robot":2,"valence":"win","action":"no-go","sham":1,"trial_type":"pit-trial","trial_index":239,"time_elapsed":1116387,"internal_node_id":"0.0-214.0","task_version":"battery-v0.2-trt"},{"rune":"U","rune_set":"bacs2","hex":"#f73b6a7A","correct":32,"choice":32,"rt":697,"accuracy":1,"outcome":"-1","keys":[2212],"total_keys":1,"block":2,"trial":207,"stimulus":8,"robot":3,"valence":"lose","action":"go","sham":0,"trial_type":"pit-trial","trial_index":240,"time_elapsed":1119808,"internal_node_id":"0.0-215.0","task_version":"battery-v0.2-trt"},{"rune":"L","rune_set":"bacs2","hex":"#f73b6a7A","correct":-1,"choice":32,"rt":936,"accuracy":0,"outcome":"-10","keys":[2451],"total_keys":1,"block":2,"trial":208,"stimulus":6,"robot":4,"valence":"lose","action":"no-go","sham":0,"trial_type":"pit-trial","trial_index":241,"time_elapsed":1123476,"internal_node_id":"0.0-216.0","task_version":"battery-v0.2-trt"},{"rune":"A","rune_set":"bacs2","hex":"#f73b6a7A","correct":32,"choice":32,"rt":758,"accuracy":1,"outcome":"-1","keys":[2278],"total_keys":1,"block":2,"trial":209,"stimulus":9,"robot":3,"valence":"lose","action":"go","sham":0,"trial_type":"pit-trial","trial_index":242,"time_elapsed":1126977,"internal_node_id":"0.0-217.0","task_version":"battery-v0.2-trt"},{"rune":"F","rune_set":"bacs2","hex":"#f73b6a7A","correct":-1,"choice":32,"rt":557,"accuracy":0,"outcome":"-10","keys":[2072],"total_keys":1,"block":2,"trial":210,"stimulus":10,"robot":4,"valence":"lose","action":"no-go","sham":0,"trial_type":"pit-trial","trial_index":243,"time_elapsed":1130267,"internal_node_id":"0.0-218.0","task_version":"battery-v0.2-trt"},{"rune":"N","rune_set":"bacs2","hex":"#3366ff99","correct":-1,"choice":32,"rt":609,"accuracy":0,"outcome":"+1","keys":[2122],"total_keys":1,"block":2,"trial":211,"stimulus":11,"robot":2,"valence":"win","action":"no-go","sham":0,"trial_type":"pit-trial","trial_index":244,"time_elapsed":1133596,"internal_node_id":"0.0-219.0","task_version":"battery-v0.2-trt"},{"rune":"U","rune_set":"bacs2","hex":"#f73b6a7A","correct":32,"choice":32,"rt":696,"accuracy":1,"outcome":"-1","keys":[2203],"total_keys":1,"block":2,"trial":212,"stimulus":8,"robot":3,"valence":"lose","action":"go","sham":0,"trial_type":"pit-trial","trial_index":245,"time_elapsed":1137007,"internal_node_id":"0.0-220.0","task_version":"battery-v0.2-trt"},{"rune":"U","rune_set":"bacs2","hex":"#f73b6a7A","correct":32,"choice":32,"rt":611,"accuracy":1,"outcome":"-1","keys":[2117],"total_keys":1,"block":2,"trial":213,"stimulus":8,"robot":3,"valence":"lose","action":"go","sham":0,"trial_type":"pit-trial","trial_index":246,"time_elapsed":1140336,"internal_node_id":"0.0-221.0","task_version":"battery-v0.2-trt"},{"rune":"F","rune_set":"bacs2","hex":"#f73b6a7A","correct":-1,"choice":-1,"rt":-1,"accuracy":1,"outcome":"-1","keys":[],"total_keys":0,"block":2,"trial":214,"stimulus":10,"robot":4,"valence":"lose","action":"no-go","sham":0,"trial_type":"pit-trial","trial_index":247,"time_elapsed":1144376,"internal_node_id":"0.0-222.0","task_version":"battery-v0.2-trt"},{"rune":"A","rune_set":"bacs2","hex":"#f73b6a7A","correct":32,"choice":32,"rt":802,"accuracy":1,"outcome":"-1","keys":[2317],"total_keys":1,"block":2,"trial":215,"stimulus":9,"robot":3,"valence":"lose","action":"go","sham":0,"trial_type":"pit-trial","trial_index":248,"time_elapsed":1147916,"internal_node_id":"0.0-223.0","task_version":"battery-v0.2-trt"},{"rune":"N","rune_set":"bacs2","hex":"#3366ff99","correct":-1,"choice":-1,"rt":-1,"accuracy":1,"outcome":"+10","keys":[],"total_keys":0,"block":2,"trial":216,"stimulus":11,"robot":2,"valence":"win","action":"no-go","sham":0,"trial_type":"pit-trial","trial_index":249,"time_elapsed":1151926,"internal_node_id":"0.0-224.0","task_version":"battery-v0.2-trt"},{"rune":"N","rune_set":"bacs2","hex":"#3366ff99","correct":-1,"choice":-1,"rt":-1,"accuracy":1,"outcome":"+1","keys":[],"total_keys":0,"block":2,"trial":217,"stimulus":11,"robot":2,"valence":"win","action":"no-go","sham":1,"trial_type":"pit-trial","trial_index":250,"time_elapsed":1155936,"internal_node_id":"0.0-225.0","task_version":"battery-v0.2-trt"},{"rune":"U","rune_set":"bacs2","hex":"#f73b6a7A","correct":32,"choice":32,"rt":657,"accuracy":1,"outcome":"-1","keys":[2169],"total_keys":1,"block":2,"trial":218,"stimulus":8,"robot":3,"valence":"lose","action":"go","sham":0,"trial_type":"pit-trial","trial_index":251,"time_elapsed":1159316,"internal_node_id":"0.0-226.0","task_version":"battery-v0.2-trt"},{"rune":"A","rune_set":"bacs2","hex":"#f73b6a7A","correct":32,"choice":32,"rt":795,"accuracy":1,"outcome":"-10","keys":[2312],"total_keys":1,"block":2,"trial":219,"stimulus":9,"robot":3,"valence":"lose","action":"go","sham":1,"trial_type":"pit-trial","trial_index":252,"time_elapsed":1162835,"internal_node_id":"0.0-227.0","task_version":"battery-v0.2-trt"},{"rune":"F","rune_set":"bacs2","hex":"#f73b6a7A","correct":-1,"choice":32,"rt":964,"accuracy":0,"outcome":"-10","keys":[2482],"total_keys":1,"block":2,"trial":220,"stimulus":10,"robot":4,"valence":"lose","action":"no-go","sham":0,"trial_type":"pit-trial","trial_index":253,"time_elapsed":1166526,"internal_node_id":"0.0-228.0","task_version":"battery-v0.2-trt"},{"rune":"U","rune_set":"bacs2","hex":"#f73b6a7A","correct":32,"choice":32,"rt":700,"accuracy":1,"outcome":"-1","keys":[2215],"total_keys":1,"block":2,"trial":221,"stimulus":8,"robot":3,"valence":"lose","action":"go","sham":0,"trial_type":"pit-trial","trial_index":254,"time_elapsed":1169965,"internal_node_id":"0.0-229.0","task_version":"battery-v0.2-trt"},{"rune":"F","rune_set":"bacs2","hex":"#f73b6a7A","correct":-1,"choice":32,"rt":1001,"accuracy":0,"outcome":"-10","keys":[2517],"total_keys":1,"block":2,"trial":222,"stimulus":10,"robot":4,"valence":"lose","action":"no-go","sham":0,"trial_type":"pit-trial","trial_index":255,"time_elapsed":1173696,"internal_node_id":"0.0-230.0","task_version":"battery-v0.2-trt"},{"rune":"A","rune_set":"bacs2","hex":"#f73b6a7A","correct":32,"choice":32,"rt":1185,"accuracy":1,"outcome":"-1","keys":[2701],"total_keys":1,"block":2,"trial":223,"stimulus":9,"robot":3,"valence":"lose","action":"go","sham":0,"trial_type":"pit-trial","trial_index":256,"time_elapsed":1177616,"internal_node_id":"0.0-231.0","task_version":"battery-v0.2-trt"},{"rune":"N","rune_set":"bacs2","hex":"#3366ff99","correct":-1,"choice":-1,"rt":-1,"accuracy":1,"outcome":"+1","keys":[],"total_keys":0,"block":2,"trial":224,"stimulus":11,"robot":2,"valence":"win","action":"no-go","sham":1,"trial_type":"pit-trial","trial_index":257,"time_elapsed":1181636,"internal_node_id":"0.0-232.0","task_version":"battery-v0.2-trt"},{"rune":"U","rune_set":"bacs2","hex":"#f73b6a7A","correct":32,"choice":-1,"rt":-1,"accuracy":0,"outcome":"-1","keys":[],"total_keys":0,"block":2,"trial":225,"stimulus":8,"robot":3,"valence":"lose","action":"go","sham":1,"trial_type":"pit-trial","trial_index":258,"time_elapsed":1185666,"internal_node_id":"0.0-233.0","task_version":"battery-v0.2-trt"},{"rune":"F","rune_set":"bacs2","hex":"#f73b6a7A","correct":-1,"choice":-1,"rt":-1,"accuracy":1,"outcome":"-1","keys":[],"total_keys":0,"block":2,"trial":226,"stimulus":10,"robot":4,"valence":"lose","action":"no-go","sham":0,"trial_type":"pit-trial","trial_index":259,"time_elapsed":1189706,"internal_node_id":"0.0-234.0","task_version":"battery-v0.2-trt"},{"rune":"A","rune_set":"bacs2","hex":"#f73b6a7A","correct":32,"choice":32,"rt":774,"accuracy":1,"outcome":"-10","keys":[2290],"total_keys":1,"block":2,"trial":227,"stimulus":9,"robot":3,"valence":"lose","action":"go","sham":1,"trial_type":"pit-trial","trial_index":260,"time_elapsed":1193206,"internal_node_id":"0.0-235.0","task_version":"battery-v0.2-trt"},{"rune":"N","rune_set":"bacs2","hex":"#3366ff99","correct":-1,"choice":32,"rt":961,"accuracy":0,"outcome":"+10","keys":[2481],"total_keys":1,"block":2,"trial":228,"stimulus":11,"robot":2,"valence":"win","action":"no-go","sham":1,"trial_type":"pit-trial","trial_index":261,"time_elapsed":1196891,"internal_node_id":"0.0-236.0","task_version":"battery-v0.2-trt"},{"rune":"N","rune_set":"bacs2","hex":"#3366ff99","correct":-1,"choice":32,"rt":549,"accuracy":0,"outcome":"+10","keys":[2061],"total_keys":1,"block":2,"trial":229,"stimulus":11,"robot":2,"valence":"win","action":"no-go","sham":1,"trial_type":"pit-trial","trial_index":262,"time_elapsed":1200156,"internal_node_id":"0.0-237.0","task_version":"battery-v0.2-trt"},{"rune":"U","rune_set":"bacs2","hex":"#f73b6a7A","correct":32,"choice":32,"rt":744,"accuracy":1,"outcome":"-1","keys":[2259],"total_keys":1,"block":2,"trial":230,"stimulus":8,"robot":3,"valence":"lose","action":"go","sham":0,"trial_type":"pit-trial","trial_index":263,"time_elapsed":1203626,"internal_node_id":"0.0-238.0","task_version":"battery-v0.2-trt"},{"rune":"A","rune_set":"bacs2","hex":"#f73b6a7A","correct":32,"choice":-1,"rt":-1,"accuracy":0,"outcome":"-10","keys":[],"total_keys":0,"block":2,"trial":231,"stimulus":9,"robot":3,"valence":"lose","action":"go","sham":0,"trial_type":"pit-trial","trial_index":264,"time_elapsed":1207656,"internal_node_id":"0.0-239.0","task_version":"battery-v0.2-trt"},{"rune":"F","rune_set":"bacs2","hex":"#f73b6a7A","correct":-1,"choice":-1,"rt":-1,"accuracy":1,"outcome":"-1","keys":[],"total_keys":0,"block":2,"trial":232,"stimulus":10,"robot":4,"valence":"lose","action":"no-go","sham":0,"trial_type":"pit-trial","trial_index":265,"time_elapsed":1211686,"internal_node_id":"0.0-240.0","task_version":"battery-v0.2-trt"},{"rune":"A","rune_set":"bacs2","hex":"#f73b6a7A","correct":32,"choice":32,"rt":495,"accuracy":1,"outcome":"-1","keys":[2012],"total_keys":1,"block":2,"trial":233,"stimulus":9,"robot":3,"valence":"lose","action":"go","sham":0,"trial_type":"pit-trial","trial_index":266,"time_elapsed":1214903,"internal_node_id":"0.0-241.0","task_version":"battery-v0.2-trt"},{"rune":"U","rune_set":"bacs2","hex":"#f73b6a7A","correct":32,"choice":32,"rt":881,"accuracy":1,"outcome":"-1","keys":[2402],"total_keys":1,"block":2,"trial":234,"stimulus":8,"robot":3,"valence":"lose","action":"go","sham":0,"trial_type":"pit-trial","trial_index":267,"time_elapsed":1218526,"internal_node_id":"0.0-242.0","task_version":"battery-v0.2-trt"},{"rune":"F","rune_set":"bacs2","hex":"#f73b6a7A","correct":-1,"choice":-1,"rt":-1,"accuracy":1,"outcome":"-1","keys":[],"total_keys":0,"block":2,"trial":235,"stimulus":10,"robot":4,"valence":"lose","action":"no-go","sham":0,"trial_type":"pit-trial","trial_index":268,"time_elapsed":1222546,"internal_node_id":"0.0-243.0","task_version":"battery-v0.2-trt"},{"rune":"N","rune_set":"bacs2","hex":"#3366ff99","correct":-1,"choice":32,"rt":715,"accuracy":0,"outcome":"+1","keys":[2229],"total_keys":1,"block":2,"trial":236,"stimulus":11,"robot":2,"valence":"win","action":"no-go","sham":0,"trial_type":"pit-trial","trial_index":269,"time_elapsed":1225985,"internal_node_id":"0.0-244.0","task_version":"battery-v0.2-trt"},{"rune":"A","rune_set":"bacs2","hex":"#f73b6a7A","correct":32,"choice":-1,"rt":-1,"accuracy":0,"outcome":"-10","keys":[],"total_keys":0,"block":2,"trial":237,"stimulus":9,"robot":3,"valence":"lose","action":"go","sham":0,"trial_type":"pit-trial","trial_index":270,"time_elapsed":1229997,"internal_node_id":"0.0-245.0","task_version":"battery-v0.2-trt"},{"rune":"U","rune_set":"bacs2","hex":"#f73b6a7A","correct":32,"choice":32,"rt":664,"accuracy":1,"outcome":"-1","keys":[2174],"total_keys":1,"block":2,"trial":238,"stimulus":8,"robot":3,"valence":"lose","action":"go","sham":0,"trial_type":"pit-trial","trial_index":271,"time_elapsed":1233395,"internal_node_id":"0.0-246.0","task_version":"battery-v0.2-trt"},{"rune":"N","rune_set":"bacs2","hex":"#3366ff99","correct":-1,"choice":-1,"rt":-1,"accuracy":1,"outcome":"+10","keys":[],"total_keys":0,"block":2,"trial":239,"stimulus":11,"robot":2,"valence":"win","action":"no-go","sham":0,"trial_type":"pit-trial","trial_index":272,"time_elapsed":1237417,"internal_node_id":"0.0-247.0","task_version":"battery-v0.2-trt"},{"rune":"F","rune_set":"bacs2","hex":"#f73b6a7A","correct":-1,"choice":-1,"rt":-1,"accuracy":1,"outcome":"-1","keys":[],"total_keys":0,"block":2,"trial":240,"stimulus":10,"robot":4,"valence":"lose","action":"no-go","sham":0,"trial_type":"pit-trial","trial_index":273,"time_elapsed":1241427,"internal_node_id":"0.0-248.0","task_version":"battery-v0.2-trt"},{"view_history":"[{\"page_index\":0,\"viewing_time\":1497}]","rt":1497,"trial_type":"pit-instructions","trial_index":274,"time_elapsed":1242928,"internal_node_id":"0.0-249.0","task_version":"battery-v0.2-trt"},{"rt":21966,"responses":{"age":"28","gender-categorical":"Female","gender-free-response":"","ethnicity":"Not Hispanic or Latino","race":["White"],"language":"Yes","fluency":"Very well"},"survey":"demographics","trial_type":"survey-demo","trial_index":275,"time_elapsed":1264902,"internal_node_id":"0.0-250.0","task_version":"battery-v0.2-trt"},{"rt":27522,"responses":{"difficulty":"1","fun":"4","clarity":"5","strategy":"No strategy, just try to remember.","feedback":"None."},"survey":"debrief","trial_type":"survey-debrief","trial_index":276,"time_elapsed":1292429,"internal_node_id":"0.0-251.0","task_version":"battery-v0.2-trt","interactions":"[{\"event\":\"focus\",\"trial\":0,\"time\":0}]"}]