[{"view_history":"[{\"page_index\":0,\"viewing_time\":2216.4150000025984}]","rt":2216.6850000212435,"trial_type":"instructions","trial_index":0,"time_elapsed":2245,"internal_node_id":"0.0-0.0","task_version":"battery-v0.2-trt"},{"slider_type":"valence","raw_loc":606,"loc":0.712,"trial_type":"affective-slider","trial_index":1,"time_elapsed":6967,"internal_node_id":"0.0-1.0","task_version":"battery-v0.2-trt"},{"responses":{"Q04":"3","Q01":"2","Q03":"2","Q08":"2","Q10":"1","Q13":"0","Q12":"2","Q02":"0","Q07":"3","Q06":"3","Q09":"2","Q05":"3","Q11":"2"},"rt":48600.53500000504,"item_order":[3,0,2,7,9,12,11,1,6,5,8,4,10],"radio_events":[7824.41000000108,8683.350000006612,9089.984999998705,9633.12000001315,14965.01499999431,16730.53999998956,18945.765000011306,21039.929999999003,24125.404999998864,27127.444999990985,28530.380000011064,30260.50999999279,33372.535000002244,39244.92500000633,44802.85000000731,47806.54499999946],"key_events":[],"mouse_events":[6239.204999990761,7226.965000008931,7502.184999990277,7824.41000000108,8683.350000006612,9089.984999998705,9633.12000001315,14965.01499999431,16730.53999998956,18945.765000011306,21039.929999999003,24125.404999998864,27127.444999990985,28530.380000011064,30260.50999999279,33372.535000002244,39244.92500000633,44802.85000000731,47243.8700000057,47806.54499999946,48599.4650000066],"straightlining":0.46153846153846156,"zigzagging":0.5833333333333334,"survey":"bisbas","trial_type":"survey-template","trial_index":2,"time_elapsed":55571,"internal_node_id":"0.0-2.0","task_version":"battery-v0.2-trt","infrequency":0},{"responses":{"Q01":"1","Q04":"2","Q05":"0","Q02":"2","Q03":"0","Q07":"1","Q06":"2","Q08":"0"},"rt":24609.519999998156,"item_order":[0,3,4,1,2,6,5,7],"radio_events":[3246.2850000010803,4287.340000009863,7179.239999997662,8423.905000003288,12102.925000013784,15160.640000016429,21027.725000021746,22140.66500001354,23597.620000015013],"key_events":[],"mouse_events":[3246.2850000010803,4287.340000009863,5766.245000006165,7179.239999997662,8423.905000003288,11363.850000023376,12102.925000013784,14608.72499999823,15160.640000016429,21027.725000021746,21632.485000009183,22140.66500001354,23597.620000015013,24608.615000004647],"straightlining":0.375,"zigzagging":0.42857142857142855,"survey":"gad7","trial_type":"survey-template","trial_index":3,"time_elapsed":80184,"internal_node_id":"0.0-3.0","task_version":"battery-v0.2-trt","infrequency":0},{"responses":{"Q06":"0","Q03":"0","Q05":"0","Q08":"0","Q04":"0","Q01":"0","Q07":"0","Q02":"1"},"rt":11799.625000014203,"item_order":[5,2,4,7,3,0,6,1],"radio_events":[2655.910000001313,4965.844999998808,5429.850000014994,6037.595000001602,7875.5050000036135,8333.689999999478,9328.559999994468,10995.495000010123],"key_events":[],"mouse_events":[2655.910000001313,3528.550000017276,4538.650000002235,4965.844999998808,5429.850000014994,6037.595000001602,6676.910000009229,7320.615000004182,7875.5050000036135,8333.689999999478,9328.559999994468,10995.495000010123,11799.075000017183],"straightlining":0.875,"zigzagging":0.14285714285714285,"survey":"dass_d","trial_type":"survey-template","trial_index":4,"time_elapsed":91986,"internal_node_id":"0.0-4.0","task_version":"battery-v0.2-trt","infrequency":1},{"value":[1,1.7115384615384617,1.1547619047619047],"trial_type":"call-function","trial_index":5,"time_elapsed":91987,"internal_node_id":"0.0-5.0","task_version":"battery-v0.2-trt"},{"view_history":"[{\"page_index\":0,\"viewing_time\":1842.5550000101794},{\"page_index\":1,\"viewing_time\":2244.349999993574},{\"page_index\":2,\"viewing_time\":2731.870000017807},{\"page_index\":3,\"viewing_time\":3970.899999985704},{\"page_index\":4,\"viewing_time\":4767.755000008037},{\"page_index\":5,\"viewing_time\":1795.4500000050757},{\"page_index\":6,\"viewing_time\":4783.389999996871},{\"page_index\":7,\"viewing_time\":9437.60000000475},{\"page_index\":8,\"viewing_time\":3334.839999995893},{\"page_index\":9,\"viewing_time\":1108.894999983022}]","rt":36019.00000000023,"trial_type":"pit-instructions","trial_index":6,"time_elapsed":128009,"internal_node_id":"0.0-6.0-0.0","task_version":"battery-v0.2-trt"},{"rune":"1","rune_set":"elianto","hex":"#3366ff99","correct":32,"choice":32,"rt":483.08999999426305,"accuracy":1,"outcome":"+10","keys":[1983.2049999968149],"total_keys":1,"block":0,"practice":1,"trial_type":"pit-trial","trial_index":7,"time_elapsed":131195,"internal_node_id":"0.0-6.0-1.0-0.0","task_version":"battery-v0.2-trt"},{"rune":"1","rune_set":"elianto","hex":"#3366ff99","correct":32,"choice":32,"rt":394.6750000177417,"accuracy":1,"outcome":"+10","keys":[1894.750000006752],"total_keys":1,"block":0,"practice":1,"trial_type":"pit-trial","trial_index":8,"time_elapsed":134292,"internal_node_id":"0.0-6.0-1.1-0.1","task_version":"battery-v0.2-trt"},{"rune":"1","rune_set":"elianto","hex":"#3366ff99","correct":32,"choice":32,"rt":226.5600000100676,"accuracy":1,"outcome":"+10","keys":[1726.620000001276],"total_keys":1,"block":0,"practice":1,"trial_type":"pit-trial","trial_index":9,"time_elapsed":137220,"internal_node_id":"0.0-6.0-1.2-0.2","task_version":"battery-v0.2-trt"},{"rune":"1","rune_set":"elianto","hex":"#3366ff99","correct":32,"choice":32,"rt":312.49499999103136,"accuracy":1,"outcome":"+10","keys":[1812.579999997979],"total_keys":1,"block":0,"practice":1,"trial_type":"pit-trial","trial_index":10,"time_elapsed":140234,"internal_node_id":"0.0-6.0-1.3-0.3","task_version":"battery-v0.2-trt"},{"trial_type":"call-function","trial_index":11,"time_elapsed":140235,"internal_node_id":"0.0-6.0-2.0","task_version":"battery-v0.2-trt"},{"view_history":"[{\"page_index\":0,\"viewing_time\":3327.9100000218023},{\"page_index\":1,\"viewing_time\":1691.0099999804515}]","rt":5019.224999996368,"trial_type":"pit-instructions","trial_index":12,"time_elapsed":145254,"internal_node_id":"0.0-6.0-3.0","task_version":"battery-v0.2-trt"},{"rune":"2","rune_set":"elianto","hex":"#3366ff99","correct":-1,"choice":32,"rt":506.91500000539236,"accuracy":0,"outcome":"+1","keys":[2006.9950000033714],"total_keys":1,"block":0,"practice":2,"trial_type":"pit-trial","trial_index":13,"time_elapsed":148463,"internal_node_id":"0.0-6.0-4.0-0.0","task_version":"battery-v0.2-trt"},{"rune":"2","rune_set":"elianto","hex":"#3366ff99","correct":-1,"choice":32,"rt":242.35500002396293,"accuracy":0,"outcome":"+1","keys":[1742.4650000175461],"total_keys":1,"block":0,"practice":2,"trial_type":"pit-trial","trial_index":14,"time_elapsed":151406,"internal_node_id":"0.0-6.0-4.1-0.1","task_version":"battery-v0.2-trt"},{"rune":"2","rune_set":"elianto","hex":"#3366ff99","correct":-1,"choice":32,"rt":129.78499999735504,"accuracy":0,"outcome":"+1","keys":[1629.8700000043027],"total_keys":1,"block":0,"practice":2,"trial_type":"pit-trial","trial_index":15,"time_elapsed":154238,"internal_node_id":"0.0-6.0-4.2-0.2","task_version":"battery-v0.2-trt"},{"rune":"2","rune_set":"elianto","hex":"#3366ff99","correct":-1,"choice":32,"rt":180.73500000173226,"accuracy":0,"outcome":"+1","keys":[1680.8149999997113],"total_keys":1,"block":0,"practice":2,"trial_type":"pit-trial","trial_index":16,"time_elapsed":157120,"internal_node_id":"0.0-6.0-4.3-0.3","task_version":"battery-v0.2-trt"},{"rune":"2","rune_set":"elianto","hex":"#3366ff99","correct":-1,"choice":32,"rt":130.60000000405125,"accuracy":0,"outcome":"+1","keys":[1630.684999981895],"total_keys":1,"block":0,"practice":2,"trial_type":"pit-trial","trial_index":17,"time_elapsed":159952,"internal_node_id":"0.0-6.0-4.4-0.4","task_version":"battery-v0.2-trt"},{"rune":"2","rune_set":"elianto","hex":"#3366ff99","correct":-1,"choice":32,"rt":99.50000001117587,"accuracy":0,"outcome":"+1","keys":[1599.5750000001863],"total_keys":1,"block":0,"practice":2,"trial_type":"pit-trial","trial_index":18,"time_elapsed":162754,"internal_node_id":"0.0-6.0-4.5-0.5","task_version":"battery-v0.2-trt"},{"rune":"2","rune_set":"elianto","hex":"#3366ff99","correct":-1,"choice":-1,"rt":-1,"accuracy":1,"outcome":"+10","keys":[],"total_keys":0,"block":0,"practice":2,"trial_type":"pit-trial","trial_index":19,"time_elapsed":166756,"internal_node_id":"0.0-6.0-4.6-0.6","task_version":"battery-v0.2-trt"},{"rune":"2","rune_set":"elianto","hex":"#3366ff99","correct":-1,"choice":-1,"rt":-1,"accuracy":1,"outcome":"+10","keys":[],"total_keys":0,"block":0,"practice":2,"trial_type":"pit-trial","trial_index":20,"time_elapsed":170758,"internal_node_id":"0.0-6.0-4.7-0.7","task_version":"battery-v0.2-trt"},{"rune":"2","rune_set":"elianto","hex":"#3366ff99","correct":-1,"choice":-1,"rt":-1,"accuracy":1,"outcome":"+10","keys":[],"total_keys":0,"block":0,"practice":2,"trial_type":"pit-trial","trial_index":21,"time_elapsed":174759,"internal_node_id":"0.0-6.0-4.8-0.8","task_version":"battery-v0.2-trt"},{"trial_type":"call-function","trial_index":22,"time_elapsed":174760,"internal_node_id":"0.0-6.0-5.0","task_version":"battery-v0.2-trt"},{"view_history":"[{\"page_index\":0,\"viewing_time\":7418.239999999059},{\"page_index\":1,\"viewing_time\":1253.8950000016484}]","rt":8672.57499997504,"trial_type":"pit-instructions","trial_index":23,"time_elapsed":183433,"internal_node_id":"0.0-6.0-6.0","task_version":"battery-v0.2-trt"},{"rune":"3","rune_set":"elianto","hex":"#f73b6a7A","correct":-1,"choice":-1,"rt":-1,"accuracy":1,"outcome":"-1","keys":[],"total_keys":0,"block":0,"practice":3,"trial_type":"pit-trial","trial_index":24,"time_elapsed":187435,"internal_node_id":"0.0-6.0-7.0-0.0","task_version":"battery-v0.2-trt"},{"rune":"3","rune_set":"elianto","hex":"#f73b6a7A","correct":-1,"choice":-1,"rt":-1,"accuracy":1,"outcome":"-1","keys":[],"total_keys":0,"block":0,"practice":3,"trial_type":"pit-trial","trial_index":25,"time_elapsed":191437,"internal_node_id":"0.0-6.0-7.1-0.1","task_version":"battery-v0.2-trt"},{"rune":"3","rune_set":"elianto","hex":"#f73b6a7A","correct":-1,"choice":-1,"rt":-1,"accuracy":1,"outcome":"-1","keys":[],"total_keys":0,"block":0,"practice":3,"trial_type":"pit-trial","trial_index":26,"time_elapsed":195439,"internal_node_id":"0.0-6.0-7.2-0.2","task_version":"battery-v0.2-trt"},{"rune":"3","rune_set":"elianto","hex":"#f73b6a7A","correct":-1,"choice":-1,"rt":-1,"accuracy":1,"outcome":"-1","keys":[],"total_keys":0,"block":0,"practice":3,"trial_type":"pit-trial","trial_index":27,"time_elapsed":199440,"internal_node_id":"0.0-6.0-7.3-0.3","task_version":"battery-v0.2-trt"},{"trial_type":"call-function","trial_index":28,"time_elapsed":199441,"internal_node_id":"0.0-6.0-8.0","task_version":"battery-v0.2-trt"},{"view_history":"[{\"page_index\":0,\"viewing_time\":6619.854999997187},{\"page_index\":1,\"viewing_time\":1310.810000024503}]","rt":7931.100000016158,"trial_type":"pit-instructions","trial_index":29,"time_elapsed":207373,"internal_node_id":"0.0-6.0-9.0","task_version":"battery-v0.2-trt"},{"rune":"4","rune_set":"elianto","hex":"#f73b6a7A","correct":32,"choice":32,"rt":320.129999978235,"accuracy":1,"outcome":"-1","keys":[1820.1950000075158],"total_keys":1,"block":0,"practice":4,"trial_type":"pit-trial","trial_index":30,"time_elapsed":210395,"internal_node_id":"0.0-6.0-10.0-0.0","task_version":"battery-v0.2-trt"},{"rune":"4","rune_set":"elianto","hex":"#f73b6a7A","correct":32,"choice":32,"rt":225.97500000847504,"accuracy":1,"outcome":"-1","keys":[1726.0449999885168],"total_keys":1,"block":0,"practice":4,"trial_type":"pit-trial","trial_index":31,"time_elapsed":213323,"internal_node_id":"0.0-6.0-10.1-0.1","task_version":"battery-v0.2-trt"},{"rune":"4","rune_set":"elianto","hex":"#f73b6a7A","correct":32,"choice":-1,"rt":-1,"accuracy":0,"outcome":"-10","keys":[],"total_keys":0,"block":0,"practice":4,"trial_type":"pit-trial","trial_index":32,"time_elapsed":217324,"internal_node_id":"0.0-6.0-10.2-0.2","task_version":"battery-v0.2-trt"},{"rune":"4","rune_set":"elianto","hex":"#f73b6a7A","correct":32,"choice":32,"rt":184.36000001383945,"accuracy":1,"outcome":"-1","keys":[1684.4350000028498],"total_keys":1,"block":0,"practice":4,"trial_type":"pit-trial","trial_index":33,"time_elapsed":220210,"internal_node_id":"0.0-6.0-10.3-0.3","task_version":"battery-v0.2-trt"},{"rune":"4","rune_set":"elianto","hex":"#f73b6a7A","correct":32,"choice":32,"rt":606.3100000028498,"accuracy":1,"outcome":"-1","keys":[2106.3800000119954],"total_keys":1,"block":0,"practice":4,"trial_type":"pit-trial","trial_index":34,"time_elapsed":223518,"internal_node_id":"0.0-6.0-10.4-0.4","task_version":"battery-v0.2-trt"},{"rune":"4","rune_set":"elianto","hex":"#f73b6a7A","correct":32,"choice":-1,"rt":-1,"accuracy":0,"outcome":"-10","keys":[3079.8000000067987],"total_keys":1,"block":0,"practice":4,"trial_type":"pit-trial","trial_index":35,"time_elapsed":227519,"internal_node_id":"0.0-6.0-10.5-0.5","task_version":"battery-v0.2-trt"},{"rune":"4","rune_set":"elianto","hex":"#f73b6a7A","correct":32,"choice":32,"rt":324.5900000038091,"accuracy":1,"outcome":"-1","keys":[1094.3550000083633,1824.6649999928195],"total_keys":2,"block":0,"practice":4,"trial_type":"pit-trial","trial_index":36,"time_elapsed":230545,"internal_node_id":"0.0-6.0-10.6-0.6","task_version":"battery-v0.2-trt"},{"rune":"4","rune_set":"elianto","hex":"#f73b6a7A","correct":32,"choice":32,"rt":310.315000009723,"accuracy":1,"outcome":"-1","keys":[1810.3750000009313],"total_keys":1,"block":0,"practice":4,"trial_type":"pit-trial","trial_index":37,"time_elapsed":233557,"internal_node_id":"0.0-6.0-10.7-0.7","task_version":"battery-v0.2-trt"},{"rune":"4","rune_set":"elianto","hex":"#f73b6a7A","correct":32,"choice":-1,"rt":-1,"accuracy":0,"outcome":"-10","keys":[923.0099999986123,1425.21499999566],"total_keys":2,"block":0,"practice":4,"trial_type":"pit-trial","trial_index":38,"time_elapsed":237559,"internal_node_id":"0.0-6.0-10.8-0.8","task_version":"battery-v0.2-trt"},{"rune":"4","rune_set":"elianto","hex":"#f73b6a7A","correct":32,"choice":32,"rt":161.76000001723878,"accuracy":1,"outcome":"-1","keys":[1661.820000008447],"total_keys":1,"block":0,"practice":4,"trial_type":"pit-trial","trial_index":39,"time_elapsed":240422,"internal_node_id":"0.0-6.0-10.9-0.9","task_version":"battery-v0.2-trt"},{"rune":"4","rune_set":"elianto","hex":"#f73b6a7A","correct":32,"choice":-1,"rt":-1,"accuracy":0,"outcome":"-10","keys":[1405.2350000129081],"total_keys":1,"block":0,"practice":4,"trial_type":"pit-trial","trial_index":40,"time_elapsed":244423,"internal_node_id":"0.0-6.0-10.10-0.10","task_version":"battery-v0.2-trt"},{"rune":"4","rune_set":"elianto","hex":"#f73b6a7A","correct":32,"choice":32,"rt":569.9800000002142,"accuracy":1,"outcome":"-1","keys":[1457.9450000019278,2070.05000000936],"total_keys":2,"block":0,"practice":4,"trial_type":"pit-trial","trial_index":41,"time_elapsed":247695,"internal_node_id":"0.0-6.0-10.11-0.11","task_version":"battery-v0.2-trt"},{"rune":"4","rune_set":"elianto","hex":"#f73b6a7A","correct":32,"choice":32,"rt":348.33000000799075,"accuracy":1,"outcome":"-1","keys":[1438.3399999933317,1848.3849999902304],"total_keys":2,"block":0,"practice":4,"trial_type":"pit-trial","trial_index":42,"time_elapsed":250745,"internal_node_id":"0.0-6.0-10.12-0.12","task_version":"battery-v0.2-trt"},{"rune":"4","rune_set":"elianto","hex":"#f73b6a7A","correct":32,"choice":-1,"rt":-1,"accuracy":0,"outcome":"-10","keys":[3697.2749999840744],"total_keys":1,"block":0,"practice":4,"trial_type":"pit-trial","trial_index":43,"time_elapsed":254746,"internal_node_id":"0.0-6.0-10.13-0.13","task_version":"battery-v0.2-trt"},{"rune":"4","rune_set":"elianto","hex":"#f73b6a7A","correct":32,"choice":32,"rt":162.81499998876825,"accuracy":1,"outcome":"-1","keys":[1171.8950000067707,1662.8750000090804],"total_keys":2,"block":0,"practice":4,"trial_type":"pit-trial","trial_index":44,"time_elapsed":257611,"internal_node_id":"0.0-6.0-10.14-0.14","task_version":"battery-v0.2-trt"},{"rune":"4","rune_set":"elianto","hex":"#f73b6a7A","correct":32,"choice":32,"rt":1249.2849999980535,"accuracy":1,"outcome":"-1","keys":[165.29499998432584,2749.339999980293],"total_keys":2,"block":0,"practice":4,"trial_type":"pit-trial","trial_index":45,"time_elapsed":261562,"internal_node_id":"0.0-6.0-10.15-0.15","task_version":"battery-v0.2-trt"},{"rune":"4","rune_set":"elianto","hex":"#f73b6a7A","correct":32,"choice":32,"rt":653.2200000074226,"accuracy":1,"outcome":"-1","keys":[2153.2850000075996],"total_keys":1,"block":0,"practice":4,"trial_type":"pit-trial","trial_index":46,"time_elapsed":264917,"internal_node_id":"0.0-6.0-10.16-0.16","task_version":"battery-v0.2-trt"},{"trial_type":"call-function","trial_index":47,"time_elapsed":264918,"internal_node_id":"0.0-6.0-11.0","task_version":"battery-v0.2-trt"},{"view_history":"[{\"page_index\":0,\"viewing_time\":95870.04000000888},{\"page_index\":1,\"viewing_time\":2329.935000016121},{\"page_index\":2,\"viewing_time\":3896.8999999924563},{\"page_index\":3,\"viewing_time\":23156.099999992875},{\"page_index\":4,\"viewing_time\":1402.8399999951944},{\"page_index\":5,\"viewing_time\":499.93499999982305}]","rt":127156.28000002471,"trial_type":"pit-instructions","trial_index":48,"time_elapsed":392074,"internal_node_id":"0.0-6.0-12.0","task_version":"battery-v0.2-trt"},{"responses":["Press SPACE","+10","+10","True","True"],"num_errors":1,"rt":17439.445000025444,"trial_type":"pit-comprehension","trial_index":49,"time_elapsed":409517,"internal_node_id":"0.0-6.0-13.0","task_version":"battery-v0.2-trt"},{"view_history":"[{\"page_index\":0,\"viewing_time\":1429.77499999688},{\"page_index\":1,\"viewing_time\":1983.7899999984074}]","rt":3413.9849999919534,"trial_type":"pit-instructions","trial_index":50,"time_elapsed":412936,"internal_node_id":"0.0-7.0","task_version":"battery-v0.2-trt"},{"rune":"F","rune_set":"bacs2","hex":"#f73b6a7A","correct":-1,"choice":32,"rt":652.1999999822583,"accuracy":0,"outcome":"-10","keys":[2152.28500001831],"total_keys":1,"block":1,"trial":1,"stimulus":1,"robot":4,"valence":"lose","action":"no-go","sham":0,"trial_type":"pit-trial","trial_index":51,"time_elapsed":416294,"internal_node_id":"0.0-8.0","task_version":"battery-v0.2-trt"},{"rune":"U","rune_set":"bacs2","hex":"#3366ff99","correct":-1,"choice":32,"rt":440.54000001051463,"accuracy":0,"outcome":"+1","keys":[1940.6099999905564],"total_keys":1,"block":1,"trial":2,"stimulus":3,"robot":2,"valence":"win","action":"no-go","sham":0,"trial_type":"pit-trial","trial_index":52,"time_elapsed":419436,"internal_node_id":"0.0-9.0","task_version":"battery-v0.2-trt"},{"rune":"A","rune_set":"bacs2","hex":"#3366ff99","correct":32,"choice":32,"rt":414.6949999849312,"accuracy":1,"outcome":"+10","keys":[1914.8450000211596],"total_keys":1,"block":1,"trial":3,"stimulus":2,"robot":1,"valence":"win","action":"go","sham":0,"trial_type":"pit-trial","trial_index":53,"time_elapsed":422552,"internal_node_id":"0.0-10.0","task_version":"battery-v0.2-trt"},{"rune":"N","rune_set":"bacs2","hex":"#f73b6a7A","correct":-1,"choice":32,"rt":615.3449999983422,"accuracy":0,"outcome":"-10","keys":[2115.365000005113],"total_keys":1,"block":1,"trial":4,"stimulus":0,"robot":4,"valence":"lose","action":"no-go","sham":0,"trial_type":"pit-trial","trial_index":54,"time_elapsed":425869,"internal_node_id":"0.0-11.0","task_version":"battery-v0.2-trt"},{"rune":"A","rune_set":"bacs2","hex":"#3366ff99","correct":32,"choice":32,"rt":565.8549999934621,"accuracy":1,"outcome":"+10","keys":[2065.9299999824725],"total_keys":1,"block":1,"trial":5,"stimulus":2,"robot":1,"valence":"win","action":"go","sham":0,"trial_type":"pit-trial","trial_index":55,"time_elapsed":429137,"internal_node_id":"0.0-12.0","task_version":"battery-v0.2-trt"},{"rune":"F","rune_set":"bacs2","hex":"#f73b6a7A","correct":-1,"choice":-1,"rt":-1,"accuracy":1,"outcome":"-1","keys":[],"total_keys":0,"block":1,"trial":6,"stimulus":1,"robot":4,"valence":"lose","action":"no-go","sham":0,"trial_type":"pit-trial","trial_index":56,"time_elapsed":433139,"internal_node_id":"0.0-13.0","task_version":"battery-v0.2-trt"},{"rune":"N","rune_set":"bacs2","hex":"#f73b6a7A","correct":-1,"choice":32,"rt":447.7400000032503,"accuracy":0,"outcome":"-10","keys":[1947.7849999966566],"total_keys":1,"block":1,"trial":7,"stimulus":0,"robot":4,"valence":"lose","action":"no-go","sham":0,"trial_type":"pit-trial","trial_index":57,"time_elapsed":436288,"internal_node_id":"0.0-14.0","task_version":"battery-v0.2-trt"},{"rune":"U","rune_set":"bacs2","hex":"#3366ff99","correct":-1,"choice":32,"rt":320.609999995213,"accuracy":0,"outcome":"+1","keys":[1820.6750000244938],"total_keys":1,"block":1,"trial":8,"stimulus":3,"robot":2,"valence":"win","action":"no-go","sham":0,"trial_type":"pit-trial","trial_index":58,"time_elapsed":439310,"internal_node_id":"0.0-15.0","task_version":"battery-v0.2-trt"},{"rune":"U","rune_set":"bacs2","hex":"#3366ff99","correct":-1,"choice":-1,"rt":-1,"accuracy":1,"outcome":"+10","keys":[],"total_keys":0,"block":1,"trial":9,"stimulus":3,"robot":2,"valence":"win","action":"no-go","sham":0,"trial_type":"pit-trial","trial_index":59,"time_elapsed":443312,"internal_node_id":"0.0-16.0","task_version":"battery-v0.2-trt"},{"rune":"F","rune_set":"bacs2","hex":"#f73b6a7A","correct":-1,"choice":32,"rt":797.1750000142492,"accuracy":0,"outcome":"-10","keys":[2297.229999996489],"total_keys":1,"block":1,"trial":10,"stimulus":1,"robot":4,"valence":"lose","action":"no-go","sham":0,"trial_type":"pit-trial","trial_index":60,"time_elapsed":446811,"internal_node_id":"0.0-17.0","task_version":"battery-v0.2-trt"},{"rune":"A","rune_set":"bacs2","hex":"#3366ff99","correct":32,"choice":-1,"rt":-1,"accuracy":0,"outcome":"+10","keys":[],"total_keys":0,"block":1,"trial":11,"stimulus":2,"robot":1,"valence":"win","action":"go","sham":1,"trial_type":"pit-trial","trial_index":61,"time_elapsed":450813,"internal_node_id":"0.0-18.0","task_version":"battery-v0.2-trt"},{"rune":"N","rune_set":"bacs2","hex":"#f73b6a7A","correct":-1,"choice":-1,"rt":-1,"accuracy":1,"outcome":"-1","keys":[],"total_keys":0,"block":1,"trial":12,"stimulus":0,"robot":4,"valence":"lose","action":"no-go","sham":0,"trial_type":"pit-trial","trial_index":62,"time_elapsed":454814,"internal_node_id":"0.0-19.0","task_version":"battery-v0.2-trt"},{"rune":"N","rune_set":"bacs2","hex":"#f73b6a7A","correct":-1,"choice":32,"rt":638.4050000051502,"accuracy":0,"outcome":"-1","keys":[2138.474999985192],"total_keys":1,"block":1,"trial":13,"stimulus":0,"robot":4,"valence":"lose","action":"no-go","sham":1,"trial_type":"pit-trial","trial_index":63,"time_elapsed":458154,"internal_node_id":"0.0-20.0","task_version":"battery-v0.2-trt"},{"rune":"F","rune_set":"bacs2","hex":"#f73b6a7A","correct":-1,"choice":-1,"rt":-1,"accuracy":1,"outcome":"-1","keys":[],"total_keys":0,"block":1,"trial":14,"stimulus":1,"robot":4,"valence":"lose","action":"no-go","sham":0,"trial_type":"pit-trial","trial_index":64,"time_elapsed":462155,"internal_node_id":"0.0-21.0","task_version":"battery-v0.2-trt"},{"rune":"U","rune_set":"bacs2","hex":"#3366ff99","correct":-1,"choice":32,"rt":679.0299999993294,"accuracy":0,"outcome":"+1","keys":[2179.1450000018813],"total_keys":1,"block":1,"trial":15,"stimulus":3,"robot":2,"valence":"win","action":"no-go","sham":0,"trial_type":"pit-trial","trial_index":65,"time_elapsed":465536,"internal_node_id":"0.0-22.0","task_version":"battery-v0.2-trt"},{"rune":"A","rune_set":"bacs2","hex":"#3366ff99","correct":32,"choice":32,"rt":595.4449999844655,"accuracy":1,"outcome":"+10","keys":[2095.470000000205],"total_keys":1,"block":1,"trial":16,"stimulus":2,"robot":1,"valence":"win","action":"go","sham":0,"trial_type":"pit-trial","trial_index":66,"time_elapsed":468833,"internal_node_id":"0.0-23.0","task_version":"battery-v0.2-trt"},{"rune":"N","rune_set":"bacs2","hex":"#f73b6a7A","correct":-1,"choice":32,"rt":582.5999999942724,"accuracy":0,"outcome":"-1","keys":[2082.689999981085],"total_keys":1,"block":1,"trial":17,"stimulus":0,"robot":4,"valence":"lose","action":"no-go","sham":1,"trial_type":"pit-trial","trial_index":67,"time_elapsed":472117,"internal_node_id":"0.0-24.0","task_version":"battery-v0.2-trt"},{"rune":"F","rune_set":"bacs2","hex":"#f73b6a7A","correct":-1,"choice":-1,"rt":-1,"accuracy":1,"outcome":"-1","keys":[],"total_keys":0,"block":1,"trial":18,"stimulus":1,"robot":4,"valence":"lose","action":"no-go","sham":0,"trial_type":"pit-trial","trial_index":68,"time_elapsed":476119,"internal_node_id":"0.0-25.0","task_version":"battery-v0.2-trt"},{"rune":"A","rune_set":"bacs2","hex":"#3366ff99","correct":32,"choice":32,"rt":458.0849999911152,"accuracy":1,"outcome":"+1","keys":[1958.1350000225939],"total_keys":1,"block":1,"trial":19,"stimulus":2,"robot":1,"valence":"win","action":"go","sham":1,"trial_type":"pit-trial","trial_index":69,"time_elapsed":479278,"internal_node_id":"0.0-26.0","task_version":"battery-v0.2-trt"},{"rune":"U","rune_set":"bacs2","hex":"#3366ff99","correct":-1,"choice":32,"rt":876.4800000062678,"accuracy":0,"outcome":"+1","keys":[2376.5499999863096],"total_keys":1,"block":1,"trial":20,"stimulus":3,"robot":2,"valence":"win","action":"no-go","sham":0,"trial_type":"pit-trial","trial_index":70,"time_elapsed":482856,"internal_node_id":"0.0-27.0","task_version":"battery-v0.2-trt"},{"rune":"N","rune_set":"bacs2","hex":"#f73b6a7A","correct":-1,"choice":-1,"rt":-1,"accuracy":1,"outcome":"-1","keys":[],"total_keys":0,"block":1,"trial":21,"stimulus":0,"robot":4,"valence":"lose","action":"no-go","sham":0,"trial_type":"pit-trial","trial_index":71,"time_elapsed":486857,"internal_node_id":"0.0-28.0","task_version":"battery-v0.2-trt"},{"rune":"U","rune_set":"bacs2","hex":"#3366ff99","correct":-1,"choice":32,"rt":549.975000001723,"accuracy":0,"outcome":"+10","keys":[2050.054999999702],"total_keys":1,"block":1,"trial":22,"stimulus":3,"robot":2,"valence":"win","action":"no-go","sham":1,"trial_type":"pit-trial","trial_index":72,"time_elapsed":490109,"internal_node_id":"0.0-29.0","task_version":"battery-v0.2-trt"},{"rune":"A","rune_set":"bacs2","hex":"#3366ff99","correct":32,"choice":-1,"rt":-1,"accuracy":0,"outcome":"+1","keys":[],"total_keys":0,"block":1,"trial":23,"stimulus":2,"robot":1,"valence":"win","action":"go","sham":0,"trial_type":"pit-trial","trial_index":73,"time_elapsed":494111,"internal_node_id":"0.0-30.0","task_version":"battery-v0.2-trt"},{"rune":"F","rune_set":"bacs2","hex":"#f73b6a7A","correct":-1,"choice":32,"rt":737.0850000006612,"accuracy":0,"outcome":"-10","keys":[2237.120000005234],"total_keys":1,"block":1,"trial":24,"stimulus":1,"robot":4,"valence":"lose","action":"no-go","sham":0,"trial_type":"pit-trial","trial_index":74,"time_elapsed":497550,"internal_node_id":"0.0-31.0","task_version":"battery-v0.2-trt"},{"rune":"F","rune_set":"bacs2","hex":"#f73b6a7A","correct":-1,"choice":-1,"rt":-1,"accuracy":1,"outcome":"-1","keys":[],"total_keys":0,"block":1,"trial":25,"stimulus":1,"robot":4,"valence":"lose","action":"no-go","sham":0,"trial_type":"pit-trial","trial_index":75,"time_elapsed":501551,"internal_node_id":"0.0-32.0","task_version":"battery-v0.2-trt"},{"rune":"N","rune_set":"bacs2","hex":"#f73b6a7A","correct":-1,"choice":-1,"rt":-1,"accuracy":1,"outcome":"-1","keys":[],"total_keys":0,"block":1,"trial":26,"stimulus":0,"robot":4,"valence":"lose","action":"no-go","sham":0,"trial_type":"pit-trial","trial_index":76,"time_elapsed":505553,"internal_node_id":"0.0-33.0","task_version":"battery-v0.2-trt"},{"rune":"U","rune_set":"bacs2","hex":"#3366ff99","correct":-1,"choice":32,"rt":1248.5599999781698,"accuracy":0,"outcome":"+1","keys":[2748.5750000050757],"total_keys":1,"block":1,"trial":27,"stimulus":3,"robot":2,"valence":"win","action":"no-go","sham":0,"trial_type":"pit-trial","trial_index":77,"time_elapsed":509503,"internal_node_id":"0.0-34.0","task_version":"battery-v0.2-trt"},{"rune":"A","rune_set":"bacs2","hex":"#3366ff99","correct":32,"choice":32,"rt":746.4949999994133,"accuracy":1,"outcome":"+10","keys":[2246.550000010757],"total_keys":1,"block":1,"trial":28,"stimulus":2,"robot":1,"valence":"win","action":"go","sham":0,"trial_type":"pit-trial","trial_index":78,"time_elapsed":512951,"internal_node_id":"0.0-35.0","task_version":"battery-v0.2-trt"},{"rune":"A","rune_set":"bacs2","hex":"#3366ff99","correct":32,"choice":32,"rt":513.5650000011083,"accuracy":1,"outcome":"+10","keys":[2013.6399999901187],"total_keys":1,"block":1,"trial":29,"stimulus":2,"robot":1,"valence":"win","action":"go","sham":0,"trial_type":"pit-trial","trial_index":79,"time_elapsed":516166,"internal_node_id":"0.0-36.0","task_version":"battery-v0.2-trt"},{"rune":"U","rune_set":"bacs2","hex":"#3366ff99","correct":-1,"choice":-1,"rt":-1,"accuracy":1,"outcome":"+10","keys":[],"total_keys":0,"block":1,"trial":30,"stimulus":3,"robot":2,"valence":"win","action":"no-go","sham":0,"trial_type":"pit-trial","trial_index":80,"time_elapsed":520168,"internal_node_id":"0.0-37.0","task_version":"battery-v0.2-trt"},{"rune":"N","rune_set":"bacs2","hex":"#f73b6a7A","correct":-1,"choice":32,"rt":677.7399999846239,"accuracy":0,"outcome":"-10","keys":[2177.785000007134],"total_keys":1,"block":1,"trial":31,"stimulus":0,"robot":4,"valence":"lose","action":"no-go","sham":0,"trial_type":"pit-trial","trial_index":81,"time_elapsed":523548,"internal_node_id":"0.0-38.0","task_version":"battery-v0.2-trt"},{"rune":"F","rune_set":"bacs2","hex":"#f73b6a7A","correct":-1,"choice":-1,"rt":-1,"accuracy":1,"outcome":"-1","keys":[],"total_keys":0,"block":1,"trial":32,"stimulus":1,"robot":4,"valence":"lose","action":"no-go","sham":0,"trial_type":"pit-trial","trial_index":82,"time_elapsed":527549,"internal_node_id":"0.0-39.0","task_version":"battery-v0.2-trt"},{"rune":"U","rune_set":"bacs2","hex":"#3366ff99","correct":-1,"choice":32,"rt":536.179999995511,"accuracy":0,"outcome":"+1","keys":[2036.2650000024587],"total_keys":1,"block":1,"trial":33,"stimulus":3,"robot":2,"valence":"win","action":"no-go","sham":0,"trial_type":"pit-trial","trial_index":83,"time_elapsed":530787,"internal_node_id":"0.0-40.0","task_version":"battery-v0.2-trt"},{"rune":"N","rune_set":"bacs2","hex":"#f73b6a7A","correct":-1,"choice":32,"rt":1042.8850000025705,"accuracy":0,"outcome":"-1","keys":[2542.955000011716],"total_keys":1,"block":1,"trial":34,"stimulus":0,"robot":4,"valence":"lose","action":"no-go","sham":1,"trial_type":"pit-trial","trial_index":84,"time_elapsed":534531,"internal_node_id":"0.0-41.0","task_version":"battery-v0.2-trt"},{"rune":"A","rune_set":"bacs2","hex":"#3366ff99","correct":32,"choice":-1,"rt":-1,"accuracy":0,"outcome":"+1","keys":[],"total_keys":0,"block":1,"trial":35,"stimulus":2,"robot":1,"valence":"win","action":"go","sham":0,"trial_type":"pit-trial","trial_index":85,"time_elapsed":538533,"internal_node_id":"0.0-42.0","task_version":"battery-v0.2-trt"},{"rune":"S","rune_set":"bacs2","hex":"#f73b6a7A","correct":32,"choice":32,"rt":1075.6400000245776,"accuracy":1,"outcome":"-1","keys":[2575.7100000046194],"total_keys":1,"block":1,"trial":36,"stimulus":4,"robot":3,"valence":"lose","action":"go","sham":0,"trial_type":"pit-trial","trial_index":86,"time_elapsed":542310,"internal_node_id":"0.0-43.0","task_version":"battery-v0.2-trt"},{"rune":"S","rune_set":"bacs2","hex":"#f73b6a7A","correct":32,"choice":32,"rt":797.9099999938626,"accuracy":1,"outcome":"-1","keys":[2297.980000003008],"total_keys":1,"block":1,"trial":37,"stimulus":4,"robot":3,"valence":"lose","action":"go","sham":0,"trial_type":"pit-trial","trial_index":87,"time_elapsed":545809,"internal_node_id":"0.0-44.0","task_version":"battery-v0.2-trt"},{"rune":"N","rune_set":"bacs2","hex":"#f73b6a7A","correct":-1,"choice":-1,"rt":-1,"accuracy":1,"outcome":"-1","keys":[],"total_keys":0,"block":1,"trial":38,"stimulus":0,"robot":4,"valence":"lose","action":"no-go","sham":0,"trial_type":"pit-trial","trial_index":88,"time_elapsed":549811,"internal_node_id":"0.0-45.0","task_version":"battery-v0.2-trt"},{"rune":"A","rune_set":"bacs2","hex":"#3366ff99","correct":32,"choice":32,"rt":614.2800000088755,"accuracy":1,"outcome":"+10","keys":[1386.1350000079256,2114.340000000084],"total_keys":2,"block":1,"trial":39,"stimulus":2,"robot":1,"valence":"win","action":"go","sham":0,"trial_type":"pit-trial","trial_index":89,"time_elapsed":553127,"internal_node_id":"0.0-46.0","task_version":"battery-v0.2-trt"},{"rune":"U","rune_set":"bacs2","hex":"#3366ff99","correct":-1,"choice":-1,"rt":-1,"accuracy":1,"outcome":"+10","keys":[3187.2649999859277],"total_keys":1,"block":1,"trial":40,"stimulus":3,"robot":2,"valence":"win","action":"no-go","sham":0,"trial_type":"pit-trial","trial_index":90,"time_elapsed":557129,"internal_node_id":"0.0-47.0","task_version":"battery-v0.2-trt"},{"rune":"L","rune_set":"bacs2","hex":"#3366ff99","correct":-1,"choice":32,"rt":667.2149999940302,"accuracy":0,"outcome":"+1","keys":[2167.285000003176],"total_keys":1,"block":1,"trial":41,"stimulus":5,"robot":2,"valence":"win","action":"no-go","sham":0,"trial_type":"pit-trial","trial_index":91,"time_elapsed":560498,"internal_node_id":"0.0-48.0","task_version":"battery-v0.2-trt"},{"rune":"N","rune_set":"bacs2","hex":"#f73b6a7A","correct":-1,"choice":-1,"rt":-1,"accuracy":1,"outcome":"-10","keys":[],"total_keys":0,"block":1,"trial":42,"stimulus":0,"robot":4,"valence":"lose","action":"no-go","sham":1,"trial_type":"pit-trial","trial_index":92,"time_elapsed":564500,"internal_node_id":"0.0-49.0","task_version":"battery-v0.2-trt"},{"rune":"S","rune_set":"bacs2","hex":"#f73b6a7A","correct":32,"choice":32,"rt":487.86500000278465,"accuracy":1,"outcome":"-1","keys":[1341.6650000144728,1987.909999996191],"total_keys":2,"block":1,"trial":43,"stimulus":4,"robot":3,"valence":"lose","action":"go","sham":0,"trial_type":"pit-trial","trial_index":93,"time_elapsed":567690,"internal_node_id":"0.0-50.0","task_version":"battery-v0.2-trt"},{"rune":"P","rune_set":"bacs2","hex":"#3366ff99","correct":32,"choice":32,"rt":397.89000002201647,"accuracy":1,"outcome":"+1","keys":[1897.9399999952875],"total_keys":1,"block":1,"trial":44,"stimulus":6,"robot":1,"valence":"win","action":"go","sham":1,"trial_type":"pit-trial","trial_index":94,"time_elapsed":570789,"internal_node_id":"0.0-51.0","task_version":"battery-v0.2-trt"},{"rune":"L","rune_set":"bacs2","hex":"#3366ff99","correct":-1,"choice":32,"rt":516.8700000212993,"accuracy":0,"outcome":"+10","keys":[2016.9299999834038],"total_keys":1,"block":1,"trial":45,"stimulus":5,"robot":2,"valence":"win","action":"no-go","sham":1,"trial_type":"pit-trial","trial_index":95,"time_elapsed":574007,"internal_node_id":"0.0-52.0","task_version":"battery-v0.2-trt"},{"rune":"N","rune_set":"bacs2","hex":"#f73b6a7A","correct":-1,"choice":32,"rt":680.8850000088569,"accuracy":0,"outcome":"-10","keys":[1355.020000017248,2181.0500000137836],"total_keys":2,"block":1,"trial":46,"stimulus":0,"robot":4,"valence":"lose","action":"no-go","sham":0,"trial_type":"pit-trial","trial_index":96,"time_elapsed":577390,"internal_node_id":"0.0-53.0","task_version":"battery-v0.2-trt"},{"rune":"S","rune_set":"bacs2","hex":"#f73b6a7A","correct":32,"choice":32,"rt":1022.6699999766424,"accuracy":1,"outcome":"-1","keys":[2522.7299999969546],"total_keys":1,"block":1,"trial":47,"stimulus":4,"robot":3,"valence":"lose","action":"go","sham":0,"trial_type":"pit-trial","trial_index":97,"time_elapsed":581114,"internal_node_id":"0.0-54.0","task_version":"battery-v0.2-trt"},{"rune":"P","rune_set":"bacs2","hex":"#3366ff99","correct":32,"choice":32,"rt":723.679999995511,"accuracy":1,"outcome":"+10","keys":[2223.7500000046566],"total_keys":1,"block":1,"trial":48,"stimulus":6,"robot":1,"valence":"win","action":"go","sham":0,"trial_type":"pit-trial","trial_index":98,"time_elapsed":584539,"internal_node_id":"0.0-55.0","task_version":"battery-v0.2-trt"},{"rune":"P","rune_set":"bacs2","hex":"#3366ff99","correct":32,"choice":32,"rt":438.6250000097789,"accuracy":1,"outcome":"+10","keys":[1938.7149999965914],"total_keys":1,"block":1,"trial":49,"stimulus":6,"robot":1,"valence":"win","action":"go","sham":0,"trial_type":"pit-trial","trial_index":99,"time_elapsed":587679,"internal_node_id":"0.0-56.0","task_version":"battery-v0.2-trt"},{"rune":"L","rune_set":"bacs2","hex":"#3366ff99","correct":-1,"choice":32,"rt":58.185000001685694,"accuracy":0,"outcome":"+1","keys":[1558.2350000040606],"total_keys":1,"block":1,"trial":50,"stimulus":5,"robot":2,"valence":"win","action":"no-go","sham":0,"trial_type":"pit-trial","trial_index":100,"time_elapsed":590439,"internal_node_id":"0.0-57.0","task_version":"battery-v0.2-trt"},{"rune":"R","rune_set":"bacs2","hex":"#f73b6a7A","correct":-1,"choice":32,"rt":694.9150000000373,"accuracy":0,"outcome":"-10","keys":[2194.980000000214],"total_keys":1,"block":1,"trial":51,"stimulus":7,"robot":4,"valence":"lose","action":"no-go","sham":0,"trial_type":"pit-trial","trial_index":101,"time_elapsed":593835,"internal_node_id":"0.0-58.0","task_version":"battery-v0.2-trt"},{"rune":"S","rune_set":"bacs2","hex":"#f73b6a7A","correct":32,"choice":32,"rt":405.48499999567866,"accuracy":1,"outcome":"-1","keys":[1905.5550000048243],"total_keys":1,"block":1,"trial":52,"stimulus":4,"robot":3,"valence":"lose","action":"go","sham":0,"trial_type":"pit-trial","trial_index":102,"time_elapsed":596942,"internal_node_id":"0.0-59.0","task_version":"battery-v0.2-trt"},{"rune":"P","rune_set":"bacs2","hex":"#3366ff99","correct":32,"choice":32,"rt":908.2199999829754,"accuracy":1,"outcome":"+10","keys":[2408.259999996517],"total_keys":1,"block":1,"trial":53,"stimulus":6,"robot":1,"valence":"win","action":"go","sham":0,"trial_type":"pit-trial","trial_index":103,"time_elapsed":600552,"internal_node_id":"0.0-60.0","task_version":"battery-v0.2-trt"},{"rune":"L","rune_set":"bacs2","hex":"#3366ff99","correct":-1,"choice":32,"rt":1126.300000003539,"accuracy":0,"outcome":"+1","keys":[2626.350000005914],"total_keys":1,"block":1,"trial":54,"stimulus":5,"robot":2,"valence":"win","action":"no-go","sham":0,"trial_type":"pit-trial","trial_index":104,"time_elapsed":604380,"internal_node_id":"0.0-61.0","task_version":"battery-v0.2-trt"},{"rune":"R","rune_set":"bacs2","hex":"#f73b6a7A","correct":-1,"choice":32,"rt":527.5350000010803,"accuracy":0,"outcome":"-10","keys":[2027.6249999878928],"total_keys":1,"block":1,"trial":55,"stimulus":7,"robot":4,"valence":"lose","action":"no-go","sham":0,"trial_type":"pit-trial","trial_index":105,"time_elapsed":607609,"internal_node_id":"0.0-62.0","task_version":"battery-v0.2-trt"},{"rune":"S","rune_set":"bacs2","hex":"#f73b6a7A","correct":32,"choice":32,"rt":994.4649999961257,"accuracy":1,"outcome":"-1","keys":[2494.5500000030734],"total_keys":1,"block":1,"trial":56,"stimulus":4,"robot":3,"valence":"lose","action":"go","sham":0,"trial_type":"pit-trial","trial_index":106,"time_elapsed":611305,"internal_node_id":"0.0-63.0","task_version":"battery-v0.2-trt"},{"rune":"R","rune_set":"bacs2","hex":"#f73b6a7A","correct":-1,"choice":-1,"rt":-1,"accuracy":1,"outcome":"-1","keys":[3917.235000000801],"total_keys":1,"block":1,"trial":57,"stimulus":7,"robot":4,"valence":"lose","action":"no-go","sham":0,"trial_type":"pit-trial","trial_index":107,"time_elapsed":615307,"internal_node_id":"0.0-64.0","task_version":"battery-v0.2-trt"},{"rune":"L","rune_set":"bacs2","hex":"#3366ff99","correct":-1,"choice":32,"rt":477.88000002037734,"accuracy":0,"outcome":"+1","keys":[1323.9500000199769,1977.950000000419],"total_keys":2,"block":1,"trial":58,"stimulus":5,"robot":2,"valence":"win","action":"no-go","sham":0,"trial_type":"pit-trial","trial_index":108,"time_elapsed":618486,"internal_node_id":"0.0-65.0","task_version":"battery-v0.2-trt"},{"rune":"P","rune_set":"bacs2","hex":"#3366ff99","correct":32,"choice":-1,"rt":-1,"accuracy":0,"outcome":"+1","keys":[3368.225000012899,3906.184999999823],"total_keys":2,"block":1,"trial":59,"stimulus":6,"robot":1,"valence":"win","action":"go","sham":0,"trial_type":"pit-trial","trial_index":109,"time_elapsed":622488,"internal_node_id":"0.0-66.0","task_version":"battery-v0.2-trt"},{"rune":"S","rune_set":"bacs2","hex":"#f73b6a7A","correct":32,"choice":32,"rt":546.3549999985844,"accuracy":1,"outcome":"-10","keys":[488.2849999994505,1012.1649999928195,2046.4300000166986],"total_keys":3,"block":1,"trial":60,"stimulus":4,"robot":3,"valence":"lose","action":"go","sham":1,"trial_type":"pit-trial","trial_index":110,"time_elapsed":625736,"internal_node_id":"0.0-67.0","task_version":"battery-v0.2-trt"},{"rune":"P","rune_set":"bacs2","hex":"#3366ff99","correct":32,"choice":32,"rt":899.1099999984726,"accuracy":1,"outcome":"+10","keys":[2399.169999989681],"total_keys":1,"block":1,"trial":61,"stimulus":6,"robot":1,"valence":"win","action":"go","sham":0,"trial_type":"pit-trial","trial_index":111,"time_elapsed":629337,"internal_node_id":"0.0-68.0","task_version":"battery-v0.2-trt"},{"rune":"S","rune_set":"bacs2","hex":"#f73b6a7A","correct":32,"choice":32,"rt":884.2299999960233,"accuracy":1,"outcome":"-1","keys":[2384.2949999962],"total_keys":1,"block":1,"trial":62,"stimulus":4,"robot":3,"valence":"lose","action":"go","sham":0,"trial_type":"pit-trial","trial_index":112,"time_elapsed":632923,"internal_node_id":"0.0-69.0","task_version":"battery-v0.2-trt"},{"rune":"L","rune_set":"bacs2","hex":"#3366ff99","correct":-1,"choice":32,"rt":258.78000000375323,"accuracy":0,"outcome":"+10","keys":[1758.8450000039302],"total_keys":1,"block":1,"trial":63,"stimulus":5,"robot":2,"valence":"win","action":"no-go","sham":1,"trial_type":"pit-trial","trial_index":113,"time_elapsed":635883,"internal_node_id":"0.0-70.0","task_version":"battery-v0.2-trt"},{"rune":"R","rune_set":"bacs2","hex":"#f73b6a7A","correct":-1,"choice":-1,"rt":-1,"accuracy":1,"outcome":"-1","keys":[3163.954999996349],"total_keys":1,"block":1,"trial":64,"stimulus":7,"robot":4,"valence":"lose","action":"no-go","sham":0,"trial_type":"pit-trial","trial_index":114,"time_elapsed":639885,"internal_node_id":"0.0-71.0","task_version":"battery-v0.2-trt"},{"rune":"S","rune_set":"bacs2","hex":"#f73b6a7A","correct":32,"choice":32,"rt":722.1999999892432,"accuracy":1,"outcome":"-1","keys":[918.1899999966845,1386.0899999854155,2222.284999996191],"total_keys":3,"block":1,"trial":65,"stimulus":4,"robot":3,"valence":"lose","action":"go","sham":0,"trial_type":"pit-trial","trial_index":115,"time_elapsed":643308,"internal_node_id":"0.0-72.0","task_version":"battery-v0.2-trt"},{"rune":"R","rune_set":"bacs2","hex":"#f73b6a7A","correct":-1,"choice":32,"rt":109.49000000255182,"accuracy":0,"outcome":"-10","keys":[1234.6700000052806,1609.565000020666],"total_keys":2,"block":1,"trial":66,"stimulus":7,"robot":4,"valence":"lose","action":"no-go","sham":0,"trial_type":"pit-trial","trial_index":116,"time_elapsed":646119,"internal_node_id":"0.0-73.0","task_version":"battery-v0.2-trt"},{"rune":"L","rune_set":"bacs2","hex":"#3366ff99","correct":-1,"choice":32,"rt":334.1749999963213,"accuracy":0,"outcome":"+1","keys":[1834.2500000144355],"total_keys":1,"block":1,"trial":67,"stimulus":5,"robot":2,"valence":"win","action":"no-go","sham":0,"trial_type":"pit-trial","trial_index":117,"time_elapsed":649155,"internal_node_id":"0.0-74.0","task_version":"battery-v0.2-trt"},{"rune":"P","rune_set":"bacs2","hex":"#3366ff99","correct":32,"choice":32,"rt":265.0549999962095,"accuracy":1,"outcome":"+10","keys":[1765.1300000143237],"total_keys":1,"block":1,"trial":68,"stimulus":6,"robot":1,"valence":"win","action":"go","sham":0,"trial_type":"pit-trial","trial_index":118,"time_elapsed":652122,"internal_node_id":"0.0-75.0","task_version":"battery-v0.2-trt"},{"rune":"S","rune_set":"bacs2","hex":"#f73b6a7A","correct":32,"choice":-1,"rt":-1,"accuracy":0,"outcome":"-1","keys":[],"total_keys":0,"block":1,"trial":69,"stimulus":4,"robot":3,"valence":"lose","action":"go","sham":1,"trial_type":"pit-trial","trial_index":119,"time_elapsed":656123,"internal_node_id":"0.0-76.0","task_version":"battery-v0.2-trt"},{"rune":"P","rune_set":"bacs2","hex":"#3366ff99","correct":32,"choice":32,"rt":363.43999998643994,"accuracy":1,"outcome":"+10","keys":[1863.5200000135228],"total_keys":1,"block":1,"trial":70,"stimulus":6,"robot":1,"valence":"win","action":"go","sham":0,"trial_type":"pit-trial","trial_index":120,"time_elapsed":659188,"internal_node_id":"0.0-77.0","task_version":"battery-v0.2-trt"},{"rune":"R","rune_set":"bacs2","hex":"#f73b6a7A","correct":-1,"choice":-1,"rt":-1,"accuracy":1,"outcome":"-1","keys":[],"total_keys":0,"block":1,"trial":71,"stimulus":7,"robot":4,"valence":"lose","action":"no-go","sham":0,"trial_type":"pit-trial","trial_index":121,"time_elapsed":663190,"internal_node_id":"0.0-78.0","task_version":"battery-v0.2-trt"},{"rune":"L","rune_set":"bacs2","hex":"#3366ff99","correct":-1,"choice":32,"rt":518.1049999955576,"accuracy":0,"outcome":"+1","keys":[2018.1599999777973],"total_keys":1,"block":1,"trial":72,"stimulus":5,"robot":2,"valence":"win","action":"no-go","sham":0,"trial_type":"pit-trial","trial_index":122,"time_elapsed":666409,"internal_node_id":"0.0-79.0","task_version":"battery-v0.2-trt"},{"rune":"V","rune_set":"bacs2","hex":"#3366ff99","correct":32,"choice":32,"rt":772.1850000089034,"accuracy":1,"outcome":"+10","keys":[2272.239999991143],"total_keys":1,"block":1,"trial":73,"stimulus":8,"robot":1,"valence":"win","action":"go","sham":0,"trial_type":"pit-trial","trial_index":123,"time_elapsed":669883,"internal_node_id":"0.0-80.0","task_version":"battery-v0.2-trt"},{"rune":"K","rune_set":"bacs2","hex":"#f73b6a7A","correct":32,"choice":32,"rt":486.56499999924563,"accuracy":1,"outcome":"-1","keys":[1986.6449999972247],"total_keys":1,"block":1,"trial":74,"stimulus":9,"robot":3,"valence":"lose","action":"go","sham":0,"trial_type":"pit-trial","trial_index":124,"time_elapsed":673071,"internal_node_id":"0.0-81.0","task_version":"battery-v0.2-trt"},{"rune":"R","rune_set":"bacs2","hex":"#f73b6a7A","correct":-1,"choice":-1,"rt":-1,"accuracy":1,"outcome":"-1","keys":[],"total_keys":0,"block":1,"trial":75,"stimulus":7,"robot":4,"valence":"lose","action":"no-go","sham":0,"trial_type":"pit-trial","trial_index":125,"time_elapsed":677073,"internal_node_id":"0.0-82.0","task_version":"battery-v0.2-trt"},{"rune":"L","rune_set":"bacs2","hex":"#3366ff99","correct":-1,"choice":32,"rt":304.0749999927357,"accuracy":0,"outcome":"+1","keys":[1194.149999995716,1804.149999981746],"total_keys":2,"block":1,"trial":76,"stimulus":5,"robot":2,"valence":"win","action":"no-go","sham":0,"trial_type":"pit-trial","trial_index":126,"time_elapsed":680078,"internal_node_id":"0.0-83.0","task_version":"battery-v0.2-trt"},{"rune":"R","rune_set":"bacs2","hex":"#f73b6a7A","correct":-1,"choice":-1,"rt":-1,"accuracy":1,"outcome":"-1","keys":[3628.88999999268],"total_keys":1,"block":1,"trial":77,"stimulus":7,"robot":4,"valence":"lose","action":"no-go","sham":0,"trial_type":"pit-trial","trial_index":127,"time_elapsed":684079,"internal_node_id":"0.0-84.0","task_version":"battery-v0.2-trt"},{"rune":"K","rune_set":"bacs2","hex":"#f73b6a7A","correct":32,"choice":32,"rt":422.4499999836553,"accuracy":1,"outcome":"-1","keys":[333.4400000167079,1293.3349999948405,1922.515000012936],"total_keys":3,"block":1,"trial":78,"stimulus":9,"robot":3,"valence":"lose","action":"go","sham":0,"trial_type":"pit-trial","trial_index":128,"time_elapsed":687203,"internal_node_id":"0.0-85.0","task_version":"battery-v0.2-trt"},{"rune":"V","rune_set":"bacs2","hex":"#3366ff99","correct":32,"choice":-1,"rt":-1,"accuracy":0,"outcome":"+1","keys":[],"total_keys":0,"block":1,"trial":79,"stimulus":8,"robot":1,"valence":"win","action":"go","sham":0,"trial_type":"pit-trial","trial_index":129,"time_elapsed":691205,"internal_node_id":"0.0-86.0","task_version":"battery-v0.2-trt"},{"rune":"L","rune_set":"bacs2","hex":"#3366ff99","correct":-1,"choice":32,"rt":45.34000001149252,"accuracy":0,"outcome":"+10","keys":[1545.415000000503],"total_keys":1,"block":1,"trial":80,"stimulus":5,"robot":2,"valence":"win","action":"no-go","sham":1,"trial_type":"pit-trial","trial_index":130,"time_elapsed":693951,"internal_node_id":"0.0-87.0","task_version":"battery-v0.2-trt"},{"rune":"V","rune_set":"bacs2","hex":"#3366ff99","correct":32,"choice":-1,"rt":-1,"accuracy":0,"outcome":"+1","keys":[3053.1599999812897],"total_keys":1,"block":1,"trial":81,"stimulus":8,"robot":1,"valence":"win","action":"go","sham":0,"trial_type":"pit-trial","trial_index":131,"time_elapsed":697953,"internal_node_id":"0.0-88.0","task_version":"battery-v0.2-trt"},{"rune":"K","rune_set":"bacs2","hex":"#f73b6a7A","correct":32,"choice":32,"rt":955.4000000061933,"accuracy":1,"outcome":"-10","keys":[2455.4799999750685],"total_keys":1,"block":1,"trial":82,"stimulus":9,"robot":3,"valence":"lose","action":"go","sham":1,"trial_type":"pit-trial","trial_index":132,"time_elapsed":701610,"internal_node_id":"0.0-89.0","task_version":"battery-v0.2-trt"},{"rune":"R","rune_set":"bacs2","hex":"#f73b6a7A","correct":-1,"choice":32,"rt":574.5999999926426,"accuracy":0,"outcome":"-10","keys":[2074.659999983851],"total_keys":1,"block":1,"trial":83,"stimulus":7,"robot":4,"valence":"lose","action":"no-go","sham":0,"trial_type":"pit-trial","trial_index":133,"time_elapsed":704886,"internal_node_id":"0.0-90.0","task_version":"battery-v0.2-trt"},{"rune":"L","rune_set":"bacs2","hex":"#3366ff99","correct":-1,"choice":-1,"rt":-1,"accuracy":1,"outcome":"+10","keys":[],"total_keys":0,"block":1,"trial":84,"stimulus":5,"robot":2,"valence":"win","action":"no-go","sham":0,"trial_type":"pit-trial","trial_index":134,"time_elapsed":708888,"internal_node_id":"0.0-91.0","task_version":"battery-v0.2-trt"},{"rune":"V","rune_set":"bacs2","hex":"#3366ff99","correct":32,"choice":-1,"rt":-1,"accuracy":0,"outcome":"+10","keys":[707.155000010971,1105.2400000044145,1445.1150000095367],"total_keys":3,"block":1,"trial":85,"stimulus":8,"robot":1,"valence":"win","action":"go","sham":1,"trial_type":"pit-trial","trial_index":135,"time_elapsed":712890,"internal_node_id":"0.0-92.0","task_version":"battery-v0.2-trt"},{"rune":"K","rune_set":"bacs2","hex":"#f73b6a7A","correct":32,"choice":-1,"rt":-1,"accuracy":0,"outcome":"-10","keys":[],"total_keys":0,"block":1,"trial":86,"stimulus":9,"robot":3,"valence":"lose","action":"go","sham":0,"trial_type":"pit-trial","trial_index":136,"time_elapsed":716892,"internal_node_id":"0.0-93.0","task_version":"battery-v0.2-trt"},{"rune":"R","rune_set":"bacs2","hex":"#f73b6a7A","correct":-1,"choice":32,"rt":382.58499998482876,"accuracy":0,"outcome":"-10","keys":[1268.7600000062957,1882.6500000141095],"total_keys":2,"block":1,"trial":87,"stimulus":7,"robot":4,"valence":"lose","action":"no-go","sham":0,"trial_type":"pit-trial","trial_index":137,"time_elapsed":719977,"internal_node_id":"0.0-94.0","task_version":"battery-v0.2-trt"},{"rune":"L","rune_set":"bacs2","hex":"#3366ff99","correct":-1,"choice":32,"rt":795.8050000015646,"accuracy":0,"outcome":"+1","keys":[2295.87500001071],"total_keys":1,"block":1,"trial":88,"stimulus":5,"robot":2,"valence":"win","action":"no-go","sham":0,"trial_type":"pit-trial","trial_index":138,"time_elapsed":723474,"internal_node_id":"0.0-95.0","task_version":"battery-v0.2-trt"},{"rune":"M","rune_set":"bacs2","hex":"#3366ff99","correct":-1,"choice":-1,"rt":-1,"accuracy":1,"outcome":"+10","keys":[],"total_keys":0,"block":1,"trial":89,"stimulus":11,"robot":2,"valence":"win","action":"no-go","sham":0,"trial_type":"pit-trial","trial_index":139,"time_elapsed":727475,"internal_node_id":"0.0-96.0","task_version":"battery-v0.2-trt"},{"rune":"K","rune_set":"bacs2","hex":"#f73b6a7A","correct":32,"choice":32,"rt":488.5000000067521,"accuracy":1,"outcome":"-1","keys":[1450.7400000002235,1988.5649999778252],"total_keys":2,"block":1,"trial":90,"stimulus":9,"robot":3,"valence":"lose","action":"go","sham":0,"trial_type":"pit-trial","trial_index":140,"time_elapsed":730665,"internal_node_id":"0.0-97.0","task_version":"battery-v0.2-trt"},{"rune":"B","rune_set":"bacs2","hex":"#f73b6a7A","correct":32,"choice":-1,"rt":-1,"accuracy":0,"outcome":"-10","keys":[3267.8350000060163],"total_keys":1,"block":1,"trial":91,"stimulus":10,"robot":3,"valence":"lose","action":"go","sham":0,"trial_type":"pit-trial","trial_index":141,"time_elapsed":734666,"internal_node_id":"0.0-98.0","task_version":"battery-v0.2-trt"},{"rune":"V","rune_set":"bacs2","hex":"#3366ff99","correct":32,"choice":32,"rt":118.31499999971129,"accuracy":1,"outcome":"+1","keys":[301.56500000157394,896.4500000001863,1618.3850000088569],"total_keys":3,"block":1,"trial":92,"stimulus":8,"robot":1,"valence":"win","action":"go","sham":1,"trial_type":"pit-trial","trial_index":142,"time_elapsed":737486,"internal_node_id":"0.0-99.0","task_version":"battery-v0.2-trt"},{"rune":"M","rune_set":"bacs2","hex":"#3366ff99","correct":-1,"choice":-1,"rt":-1,"accuracy":1,"outcome":"+10","keys":[2930.450000014389],"total_keys":1,"block":1,"trial":93,"stimulus":11,"robot":2,"valence":"win","action":"no-go","sham":0,"trial_type":"pit-trial","trial_index":143,"time_elapsed":741488,"internal_node_id":"0.0-100.0","task_version":"battery-v0.2-trt"},{"rune":"B","rune_set":"bacs2","hex":"#f73b6a7A","correct":32,"choice":-1,"rt":-1,"accuracy":0,"outcome":"-10","keys":[3718.4049999923445],"total_keys":1,"block":1,"trial":94,"stimulus":10,"robot":3,"valence":"lose","action":"go","sham":0,"trial_type":"pit-trial","trial_index":144,"time_elapsed":745490,"internal_node_id":"0.0-101.0","task_version":"battery-v0.2-trt"},{"rune":"V","rune_set":"bacs2","hex":"#3366ff99","correct":32,"choice":32,"rt":41.48499999428168,"accuracy":1,"outcome":"+10","keys":[203.43999998294748,859.4299999822397,1541.5499999944586],"total_keys":3,"block":1,"trial":95,"stimulus":8,"robot":1,"valence":"win","action":"go","sham":0,"trial_type":"pit-trial","trial_index":145,"time_elapsed":748233,"internal_node_id":"0.0-102.0","task_version":"battery-v0.2-trt"},{"rune":"K","rune_set":"bacs2","hex":"#f73b6a7A","correct":32,"choice":32,"rt":120.60999998357147,"accuracy":1,"outcome":"-10","keys":[1620.6749999837484],"total_keys":1,"block":1,"trial":96,"stimulus":9,"robot":3,"valence":"lose","action":"go","sham":1,"trial_type":"pit-trial","trial_index":146,"time_elapsed":751055,"internal_node_id":"0.0-103.0","task_version":"battery-v0.2-trt"},{"rune":"V","rune_set":"bacs2","hex":"#3366ff99","correct":32,"choice":-1,"rt":-1,"accuracy":0,"outcome":"+1","keys":[3258.144999999786],"total_keys":1,"block":1,"trial":97,"stimulus":8,"robot":1,"valence":"win","action":"go","sham":0,"trial_type":"pit-trial","trial_index":147,"time_elapsed":755056,"internal_node_id":"0.0-104.0","task_version":"battery-v0.2-trt"},{"rune":"B","rune_set":"bacs2","hex":"#f73b6a7A","correct":32,"choice":32,"rt":478.2649999833666,"accuracy":1,"outcome":"-1","keys":[1978.335000021616],"total_keys":1,"block":1,"trial":98,"stimulus":10,"robot":3,"valence":"lose","action":"go","sham":0,"trial_type":"pit-trial","trial_index":148,"time_elapsed":758236,"internal_node_id":"0.0-105.0","task_version":"battery-v0.2-trt"},{"rune":"M","rune_set":"bacs2","hex":"#3366ff99","correct":-1,"choice":-1,"rt":-1,"accuracy":1,"outcome":"+10","keys":[3704.3049999920186],"total_keys":1,"block":1,"trial":99,"stimulus":11,"robot":2,"valence":"win","action":"no-go","sham":0,"trial_type":"pit-trial","trial_index":149,"time_elapsed":762238,"internal_node_id":"0.0-106.0","task_version":"battery-v0.2-trt"},{"rune":"K","rune_set":"bacs2","hex":"#f73b6a7A","correct":32,"choice":32,"rt":399.1249999962747,"accuracy":1,"outcome":"-1","keys":[1899.199999985285],"total_keys":1,"block":1,"trial":100,"stimulus":9,"robot":3,"valence":"lose","action":"go","sham":0,"trial_type":"pit-trial","trial_index":150,"time_elapsed":765339,"internal_node_id":"0.0-107.0","task_version":"battery-v0.2-trt"},{"rune":"K","rune_set":"bacs2","hex":"#f73b6a7A","correct":32,"choice":-1,"rt":-1,"accuracy":0,"outcome":"-1","keys":[],"total_keys":0,"block":1,"trial":101,"stimulus":9,"robot":3,"valence":"lose","action":"go","sham":1,"trial_type":"pit-trial","trial_index":151,"time_elapsed":769341,"internal_node_id":"0.0-108.0","task_version":"battery-v0.2-trt"},{"rune":"B","rune_set":"bacs2","hex":"#f73b6a7A","correct":32,"choice":32,"rt":514.9049999890849,"accuracy":1,"outcome":"-1","keys":[2014.9600000004284],"total_keys":1,"block":1,"trial":102,"stimulus":10,"robot":3,"valence":"lose","action":"go","sham":0,"trial_type":"pit-trial","trial_index":152,"time_elapsed":772558,"internal_node_id":"0.0-109.0","task_version":"battery-v0.2-trt"},{"rune":"M","rune_set":"bacs2","hex":"#3366ff99","correct":-1,"choice":32,"rt":514.7949999955017,"accuracy":0,"outcome":"+1","keys":[2014.8599999956787],"total_keys":1,"block":1,"trial":103,"stimulus":11,"robot":2,"valence":"win","action":"no-go","sham":0,"trial_type":"pit-trial","trial_index":153,"time_elapsed":775774,"internal_node_id":"0.0-110.0","task_version":"battery-v0.2-trt"},{"rune":"V","rune_set":"bacs2","hex":"#3366ff99","correct":32,"choice":-1,"rt":-1,"accuracy":0,"outcome":"+1","keys":[],"total_keys":0,"block":1,"trial":104,"stimulus":8,"robot":1,"valence":"win","action":"go","sham":0,"trial_type":"pit-trial","trial_index":154,"time_elapsed":779776,"internal_node_id":"0.0-111.0","task_version":"battery-v0.2-trt"},{"rune":"B","rune_set":"bacs2","hex":"#f73b6a7A","correct":32,"choice":-1,"rt":-1,"accuracy":0,"outcome":"-1","keys":[1376.205000007758],"total_keys":1,"block":1,"trial":105,"stimulus":10,"robot":3,"valence":"lose","action":"go","sham":1,"trial_type":"pit-trial","trial_index":155,"time_elapsed":783778,"internal_node_id":"0.0-112.0","task_version":"battery-v0.2-trt"},{"rune":"K","rune_set":"bacs2","hex":"#f73b6a7A","correct":32,"choice":-1,"rt":-1,"accuracy":0,"outcome":"-10","keys":[1445.2049999963492],"total_keys":1,"block":1,"trial":106,"stimulus":9,"robot":3,"valence":"lose","action":"go","sham":0,"trial_type":"pit-trial","trial_index":156,"time_elapsed":787780,"internal_node_id":"0.0-113.0","task_version":"battery-v0.2-trt"},{"rune":"V","rune_set":"bacs2","hex":"#3366ff99","correct":32,"choice":32,"rt":116.07499999809079,"accuracy":1,"outcome":"+1","keys":[718.044999986887,1212.1249999909196,1616.1300000094343],"total_keys":3,"block":1,"trial":107,"stimulus":8,"robot":1,"valence":"win","action":"go","sham":1,"trial_type":"pit-trial","trial_index":157,"time_elapsed":790597,"internal_node_id":"0.0-114.0","task_version":"battery-v0.2-trt"},{"rune":"M","rune_set":"bacs2","hex":"#3366ff99","correct":-1,"choice":32,"rt":660.2549999952316,"accuracy":0,"outcome":"+10","keys":[2160.3199999954086],"total_keys":1,"block":1,"trial":108,"stimulus":11,"robot":2,"valence":"win","action":"no-go","sham":1,"trial_type":"pit-trial","trial_index":158,"time_elapsed":793959,"internal_node_id":"0.0-115.0","task_version":"battery-v0.2-trt"},{"rune":"V","rune_set":"bacs2","hex":"#3366ff99","correct":32,"choice":-1,"rt":-1,"accuracy":0,"outcome":"+1","keys":[3419.8449999967124],"total_keys":1,"block":1,"trial":109,"stimulus":8,"robot":1,"valence":"win","action":"go","sham":0,"trial_type":"pit-trial","trial_index":159,"time_elapsed":797961,"internal_node_id":"0.0-116.0","task_version":"battery-v0.2-trt"},{"rune":"M","rune_set":"bacs2","hex":"#3366ff99","correct":-1,"choice":32,"rt":568.4799999871757,"accuracy":0,"outcome":"+1","keys":[2068.5449999873526,2920.3050000069197],"total_keys":2,"block":1,"trial":110,"stimulus":11,"robot":2,"valence":"win","action":"no-go","sham":0,"trial_type":"pit-trial","trial_index":160,"time_elapsed":801231,"internal_node_id":"0.0-117.0","task_version":"battery-v0.2-trt"},{"rune":"B","rune_set":"bacs2","hex":"#f73b6a7A","correct":32,"choice":32,"rt":136.10000000335276,"accuracy":1,"outcome":"-1","keys":[888.1950000068173,1636.1700000124983],"total_keys":2,"block":1,"trial":111,"stimulus":10,"robot":3,"valence":"lose","action":"go","sham":0,"trial_type":"pit-trial","trial_index":161,"time_elapsed":804068,"internal_node_id":"0.0-118.0","task_version":"battery-v0.2-trt"},{"rune":"K","rune_set":"bacs2","hex":"#f73b6a7A","correct":32,"choice":32,"rt":4.649999988032505,"accuracy":1,"outcome":"-1","keys":[1504.719999997178],"total_keys":1,"block":1,"trial":112,"stimulus":9,"robot":3,"valence":"lose","action":"go","sham":0,"trial_type":"pit-trial","trial_index":162,"time_elapsed":806774,"internal_node_id":"0.0-119.0","task_version":"battery-v0.2-trt"},{"rune":"V","rune_set":"bacs2","hex":"#3366ff99","correct":32,"choice":32,"rt":1.7550000047776848,"accuracy":1,"outcome":"+10","keys":[297.9100000229664,1501.8250000139233],"total_keys":2,"block":1,"trial":113,"stimulus":8,"robot":1,"valence":"win","action":"go","sham":0,"trial_type":"pit-trial","trial_index":163,"time_elapsed":809477,"internal_node_id":"0.0-120.0","task_version":"battery-v0.2-trt"},{"rune":"B","rune_set":"bacs2","hex":"#f73b6a7A","correct":32,"choice":-1,"rt":-1,"accuracy":0,"outcome":"-10","keys":[],"total_keys":0,"block":1,"trial":114,"stimulus":10,"robot":3,"valence":"lose","action":"go","sham":0,"trial_type":"pit-trial","trial_index":164,"time_elapsed":813478,"internal_node_id":"0.0-121.0","task_version":"battery-v0.2-trt"},{"rune":"K","rune_set":"bacs2","hex":"#f73b6a7A","correct":32,"choice":32,"rt":1032.4949999921955,"accuracy":1,"outcome":"-1","keys":[2532.5449999945704],"total_keys":1,"block":1,"trial":115,"stimulus":9,"robot":3,"valence":"lose","action":"go","sham":0,"trial_type":"pit-trial","trial_index":165,"time_elapsed":817212,"internal_node_id":"0.0-122.0","task_version":"battery-v0.2-trt"},{"rune":"M","rune_set":"bacs2","hex":"#3366ff99","correct":-1,"choice":32,"rt":478.5550000087824,"accuracy":0,"outcome":"+1","keys":[1978.6149999999907],"total_keys":1,"block":1,"trial":116,"stimulus":11,"robot":2,"valence":"win","action":"no-go","sham":0,"trial_type":"pit-trial","trial_index":166,"time_elapsed":820392,"internal_node_id":"0.0-123.0","task_version":"battery-v0.2-trt"},{"rune":"K","rune_set":"bacs2","hex":"#f73b6a7A","correct":32,"choice":32,"rt":588.4549999900628,"accuracy":1,"outcome":"-1","keys":[2088.5200000193436],"total_keys":1,"block":1,"trial":117,"stimulus":9,"robot":3,"valence":"lose","action":"go","sham":0,"trial_type":"pit-trial","trial_index":167,"time_elapsed":823682,"internal_node_id":"0.0-124.0","task_version":"battery-v0.2-trt"},{"rune":"M","rune_set":"bacs2","hex":"#3366ff99","correct":-1,"choice":-1,"rt":-1,"accuracy":1,"outcome":"+10","keys":[],"total_keys":0,"block":1,"trial":118,"stimulus":11,"robot":2,"valence":"win","action":"no-go","sham":0,"trial_type":"pit-trial","trial_index":168,"time_elapsed":827684,"internal_node_id":"0.0-125.0","task_version":"battery-v0.2-trt"},{"rune":"V","rune_set":"bacs2","hex":"#3366ff99","correct":32,"choice":32,"rt":690.0049999821931,"accuracy":1,"outcome":"+10","keys":[2190.070000011474],"total_keys":1,"block":1,"trial":119,"stimulus":8,"robot":1,"valence":"win","action":"go","sham":0,"trial_type":"pit-trial","trial_index":169,"time_elapsed":831076,"internal_node_id":"0.0-126.0","task_version":"battery-v0.2-trt"},{"rune":"B","rune_set":"bacs2","hex":"#f73b6a7A","correct":32,"choice":-1,"rt":-1,"accuracy":0,"outcome":"-10","keys":[3921.809999999823],"total_keys":1,"block":1,"trial":120,"stimulus":10,"robot":3,"valence":"lose","action":"go","sham":0,"trial_type":"pit-trial","trial_index":170,"time_elapsed":835078,"internal_node_id":"0.0-127.0","task_version":"battery-v0.2-trt"},{"view_history":"[{\"page_index\":0,\"viewing_time\":2494.0199999837205},{\"page_index\":1,\"viewing_time\":989.8850000172388}]","rt":3484.194999997271,"trial_type":"pit-instructions","trial_index":171,"time_elapsed":838564,"internal_node_id":"0.0-128.0","task_version":"battery-v0.2-trt"},{"rune":"X","rune_set":"bacs2","hex":"#f73b6a7A","correct":-1,"choice":32,"rt":33.01500002271496,"accuracy":0,"outcome":"-10","keys":[1533.079999993788],"total_keys":1,"block":2,"trial":121,"stimulus":2,"robot":4,"valence":"lose","action":"no-go","sham":0,"trial_type":"pit-trial","trial_index":172,"time_elapsed":841299,"internal_node_id":"0.0-129.0","task_version":"battery-v0.2-trt"},{"rune":"J","rune_set":"bacs2","hex":"#3366ff99","correct":-1,"choice":-1,"rt":-1,"accuracy":1,"outcome":"+1","keys":[1480.5800000031013],"total_keys":1,"block":2,"trial":122,"stimulus":0,"robot":2,"valence":"win","action":"no-go","sham":1,"trial_type":"pit-trial","trial_index":173,"time_elapsed":845300,"internal_node_id":"0.0-130.0","task_version":"battery-v0.2-trt"},{"rune":"W","rune_set":"bacs2","hex":"#3366ff99","correct":32,"choice":32,"rt":242.32499999925494,"accuracy":1,"outcome":"+1","keys":[651.2450000154786,1742.3699999926612],"total_keys":2,"block":2,"trial":123,"stimulus":1,"robot":1,"valence":"win","action":"go","sham":1,"trial_type":"pit-trial","trial_index":174,"time_elapsed":848243,"internal_node_id":"0.0-131.0","task_version":"battery-v0.2-trt"},{"rune":"Z","rune_set":"bacs2","hex":"#3366ff99","correct":32,"choice":32,"rt":464.42500001285225,"accuracy":1,"outcome":"+10","keys":[1254.7349999949802,1964.8100000049453],"total_keys":2,"block":2,"trial":124,"stimulus":3,"robot":1,"valence":"win","action":"go","sham":0,"trial_type":"pit-trial","trial_index":175,"time_elapsed":851409,"internal_node_id":"0.0-132.0","task_version":"battery-v0.2-trt"},{"rune":"W","rune_set":"bacs2","hex":"#3366ff99","correct":32,"choice":-1,"rt":-1,"accuracy":0,"outcome":"+10","keys":[3638.234999991255],"total_keys":1,"block":2,"trial":125,"stimulus":1,"robot":1,"valence":"win","action":"go","sham":1,"trial_type":"pit-trial","trial_index":176,"time_elapsed":855411,"internal_node_id":"0.0-133.0","task_version":"battery-v0.2-trt"},{"rune":"Z","rune_set":"bacs2","hex":"#3366ff99","correct":32,"choice":32,"rt":71.61000001360662,"accuracy":1,"outcome":"+1","keys":[114.75999999674968,963.6849999951664,1571.6799999936484,2127.7100000006612],"total_keys":4,"block":2,"trial":126,"stimulus":3,"robot":1,"valence":"win","action":"go","sham":1,"trial_type":"pit-trial","trial_index":177,"time_elapsed":858184,"internal_node_id":"0.0-134.0","task_version":"battery-v0.2-trt"},{"rune":"J","rune_set":"bacs2","hex":"#3366ff99","correct":-1,"choice":32,"rt":0.3449999785516411,"accuracy":0,"outcome":"+10","keys":[466.31499999784864,1500.4049999988638,2462.569999974221],"total_keys":3,"block":2,"trial":127,"stimulus":0,"robot":2,"valence":"win","action":"no-go","sham":1,"trial_type":"pit-trial","trial_index":178,"time_elapsed":860887,"internal_node_id":"0.0-135.0","task_version":"battery-v0.2-trt"},{"rune":"X","rune_set":"bacs2","hex":"#f73b6a7A","correct":-1,"choice":-1,"rt":-1,"accuracy":1,"outcome":"-1","keys":[2976.234999980079],"total_keys":1,"block":2,"trial":128,"stimulus":2,"robot":4,"valence":"lose","action":"no-go","sham":0,"trial_type":"pit-trial","trial_index":179,"time_elapsed":864888,"internal_node_id":"0.0-136.0","task_version":"battery-v0.2-trt"},{"rune":"Z","rune_set":"bacs2","hex":"#3366ff99","correct":32,"choice":32,"rt":141.2549999949988,"accuracy":1,"outcome":"+10","keys":[1064.3350000027567,1641.330000013113],"total_keys":2,"block":2,"trial":129,"stimulus":3,"robot":1,"valence":"win","action":"go","sham":0,"trial_type":"pit-trial","trial_index":180,"time_elapsed":867731,"internal_node_id":"0.0-137.0","task_version":"battery-v0.2-trt"},{"rune":"X","rune_set":"bacs2","hex":"#f73b6a7A","correct":-1,"choice":32,"rt":226.13499997532926,"accuracy":0,"outcome":"-10","keys":[1726.20000000461,2852.09999998915],"total_keys":2,"block":2,"trial":130,"stimulus":2,"robot":4,"valence":"lose","action":"no-go","sham":0,"trial_type":"pit-trial","trial_index":181,"time_elapsed":870659,"internal_node_id":"0.0-138.0","task_version":"battery-v0.2-trt"},{"rune":"W","rune_set":"bacs2","hex":"#3366ff99","correct":32,"choice":-1,"rt":-1,"accuracy":0,"outcome":"+1","keys":[752.7000000118278,1172.6400000043213,1456.514999998035,3562.3950000153854],"total_keys":4,"block":2,"trial":131,"stimulus":1,"robot":1,"valence":"win","action":"go","sham":0,"trial_type":"pit-trial","trial_index":182,"time_elapsed":874661,"internal_node_id":"0.0-139.0","task_version":"battery-v0.2-trt"},{"rune":"J","rune_set":"bacs2","hex":"#3366ff99","correct":-1,"choice":-1,"rt":-1,"accuracy":1,"outcome":"+10","keys":[2888.2049999956507],"total_keys":1,"block":2,"trial":132,"stimulus":0,"robot":2,"valence":"win","action":"no-go","sham":0,"trial_type":"pit-trial","trial_index":183,"time_elapsed":878662,"internal_node_id":"0.0-140.0","task_version":"battery-v0.2-trt"},{"rune":"W","rune_set":"bacs2","hex":"#3366ff99","correct":32,"choice":32,"rt":282.89000000222586,"accuracy":1,"outcome":"+10","keys":[1782.9550000024028],"total_keys":1,"block":2,"trial":133,"stimulus":1,"robot":1,"valence":"win","action":"go","sham":0,"trial_type":"pit-trial","trial_index":184,"time_elapsed":881646,"internal_node_id":"0.0-141.0","task_version":"battery-v0.2-trt"},{"rune":"J","rune_set":"bacs2","hex":"#3366ff99","correct":-1,"choice":-1,"rt":-1,"accuracy":1,"outcome":"+10","keys":[],"total_keys":0,"block":2,"trial":134,"stimulus":0,"robot":2,"valence":"win","action":"no-go","sham":0,"trial_type":"pit-trial","trial_index":185,"time_elapsed":885648,"internal_node_id":"0.0-142.0","task_version":"battery-v0.2-trt"},{"rune":"X","rune_set":"bacs2","hex":"#f73b6a7A","correct":-1,"choice":32,"rt":139.46499998564832,"accuracy":0,"outcome":"-1","keys":[641.6449999960605,1639.5400000037625],"total_keys":2,"block":2,"trial":135,"stimulus":2,"robot":4,"valence":"lose","action":"no-go","sham":1,"trial_type":"pit-trial","trial_index":186,"time_elapsed":888489,"internal_node_id":"0.0-143.0","task_version":"battery-v0.2-trt"},{"rune":"Z","rune_set":"bacs2","hex":"#3366ff99","correct":32,"choice":32,"rt":405.4900000046473,"accuracy":1,"outcome":"+10","keys":[1905.5649999936577],"total_keys":1,"block":2,"trial":136,"stimulus":3,"robot":1,"valence":"win","action":"go","sham":0,"trial_type":"pit-trial","trial_index":187,"time_elapsed":891597,"internal_node_id":"0.0-144.0","task_version":"battery-v0.2-trt"},{"rune":"X","rune_set":"bacs2","hex":"#f73b6a7A","correct":-1,"choice":-1,"rt":-1,"accuracy":1,"outcome":"-1","keys":[3998.424999997951],"total_keys":1,"block":2,"trial":137,"stimulus":2,"robot":4,"valence":"lose","action":"no-go","sham":0,"trial_type":"pit-trial","trial_index":188,"time_elapsed":895599,"internal_node_id":"0.0-145.0","task_version":"battery-v0.2-trt"},{"rune":"Z","rune_set":"bacs2","hex":"#3366ff99","correct":32,"choice":32,"rt":165.3750000114087,"accuracy":1,"outcome":"+1","keys":[791.5349999966566,1197.6500000164378,1665.4449999914505],"total_keys":3,"block":2,"trial":138,"stimulus":3,"robot":1,"valence":"win","action":"go","sham":1,"trial_type":"pit-trial","trial_index":189,"time_elapsed":898466,"internal_node_id":"0.0-146.0","task_version":"battery-v0.2-trt"},{"rune":"W","rune_set":"bacs2","hex":"#3366ff99","correct":32,"choice":32,"rt":322.279999993043,"accuracy":1,"outcome":"+10","keys":[840.3549999929965,1400.3299999749288,1822.34499999322],"total_keys":3,"block":2,"trial":139,"stimulus":1,"robot":1,"valence":"win","action":"go","sham":0,"trial_type":"pit-trial","trial_index":190,"time_elapsed":901490,"internal_node_id":"0.0-147.0","task_version":"battery-v0.2-trt"},{"rune":"J","rune_set":"bacs2","hex":"#3366ff99","correct":-1,"choice":32,"rt":100.95500000170432,"accuracy":0,"outcome":"+1","keys":[1601.0349999996834,2574.9849999847356],"total_keys":2,"block":2,"trial":140,"stimulus":0,"robot":2,"valence":"win","action":"no-go","sham":0,"trial_type":"pit-trial","trial_index":191,"time_elapsed":904293,"internal_node_id":"0.0-148.0","task_version":"battery-v0.2-trt"},{"rune":"W","rune_set":"bacs2","hex":"#3366ff99","correct":32,"choice":32,"rt":128.67500001448207,"accuracy":1,"outcome":"+10","keys":[168.60499998438172,1628.7549999833573],"total_keys":2,"block":2,"trial":141,"stimulus":1,"robot":1,"valence":"win","action":"go","sham":0,"trial_type":"pit-trial","trial_index":192,"time_elapsed":907123,"internal_node_id":"0.0-149.0","task_version":"battery-v0.2-trt"},{"rune":"J","rune_set":"bacs2","hex":"#3366ff99","correct":-1,"choice":32,"rt":383.2700000202749,"accuracy":0,"outcome":"+1","keys":[1883.3250000025146],"total_keys":1,"block":2,"trial":142,"stimulus":0,"robot":2,"valence":"win","action":"no-go","sham":0,"trial_type":"pit-trial","trial_index":193,"time_elapsed":910208,"internal_node_id":"0.0-150.0","task_version":"battery-v0.2-trt"},{"rune":"X","rune_set":"bacs2","hex":"#f73b6a7A","correct":-1,"choice":-1,"rt":-1,"accuracy":1,"outcome":"-1","keys":[],"total_keys":0,"block":2,"trial":143,"stimulus":2,"robot":4,"valence":"lose","action":"no-go","sham":0,"trial_type":"pit-trial","trial_index":194,"time_elapsed":914209,"internal_node_id":"0.0-151.0","task_version":"battery-v0.2-trt"},{"rune":"Z","rune_set":"bacs2","hex":"#3366ff99","correct":32,"choice":32,"rt":276.85500000370666,"accuracy":1,"outcome":"+1","keys":[1776.929999992717],"total_keys":1,"block":2,"trial":144,"stimulus":3,"robot":1,"valence":"win","action":"go","sham":1,"trial_type":"pit-trial","trial_index":195,"time_elapsed":917187,"internal_node_id":"0.0-152.0","task_version":"battery-v0.2-trt"},{"rune":"W","rune_set":"bacs2","hex":"#3366ff99","correct":32,"choice":32,"rt":301.7099999997299,"accuracy":1,"outcome":"+10","keys":[1801.7950000066776],"total_keys":1,"block":2,"trial":145,"stimulus":1,"robot":1,"valence":"win","action":"go","sham":0,"trial_type":"pit-trial","trial_index":196,"time_elapsed":920190,"internal_node_id":"0.0-153.0","task_version":"battery-v0.2-trt"},{"rune":"Z","rune_set":"bacs2","hex":"#3366ff99","correct":32,"choice":32,"rt":502.28499999502674,"accuracy":1,"outcome":"+10","keys":[2002.7349999872968],"total_keys":1,"block":2,"trial":146,"stimulus":3,"robot":1,"valence":"win","action":"go","sham":0,"trial_type":"pit-trial","trial_index":197,"time_elapsed":923395,"internal_node_id":"0.0-154.0","task_version":"battery-v0.2-trt"},{"rune":"X","rune_set":"bacs2","hex":"#f73b6a7A","correct":-1,"choice":-1,"rt":-1,"accuracy":1,"outcome":"-10","keys":[],"total_keys":0,"block":2,"trial":147,"stimulus":2,"robot":4,"valence":"lose","action":"no-go","sham":1,"trial_type":"pit-trial","trial_index":198,"time_elapsed":927396,"internal_node_id":"0.0-155.0","task_version":"battery-v0.2-trt"},{"rune":"J","rune_set":"bacs2","hex":"#3366ff99","correct":-1,"choice":32,"rt":210.09999999660067,"accuracy":0,"outcome":"+1","keys":[1710.174999985611],"total_keys":1,"block":2,"trial":148,"stimulus":0,"robot":2,"valence":"win","action":"no-go","sham":0,"trial_type":"pit-trial","trial_index":199,"time_elapsed":930308,"internal_node_id":"0.0-156.0","task_version":"battery-v0.2-trt"},{"rune":"J","rune_set":"bacs2","hex":"#3366ff99","correct":-1,"choice":32,"rt":534.9149999965448,"accuracy":0,"outcome":"+1","keys":[2034.9899999855552],"total_keys":1,"block":2,"trial":149,"stimulus":0,"robot":2,"valence":"win","action":"no-go","sham":0,"trial_type":"pit-trial","trial_index":200,"time_elapsed":933544,"internal_node_id":"0.0-157.0","task_version":"battery-v0.2-trt"},{"rune":"X","rune_set":"bacs2","hex":"#f73b6a7A","correct":-1,"choice":32,"rt":513.8849999930244,"accuracy":0,"outcome":"-10","keys":[2013.95500000217],"total_keys":1,"block":2,"trial":150,"stimulus":2,"robot":4,"valence":"lose","action":"no-go","sham":0,"trial_type":"pit-trial","trial_index":201,"time_elapsed":936759,"internal_node_id":"0.0-158.0","task_version":"battery-v0.2-trt"},{"rune":"Z","rune_set":"bacs2","hex":"#3366ff99","correct":32,"choice":32,"rt":407.4150000233203,"accuracy":1,"outcome":"+10","keys":[1907.4900000123307],"total_keys":1,"block":2,"trial":151,"stimulus":3,"robot":1,"valence":"win","action":"go","sham":0,"trial_type":"pit-trial","trial_index":202,"time_elapsed":939869,"internal_node_id":"0.0-159.0","task_version":"battery-v0.2-trt"},{"rune":"W","rune_set":"bacs2","hex":"#3366ff99","correct":32,"choice":-1,"rt":-1,"accuracy":0,"outcome":"+10","keys":[],"total_keys":0,"block":2,"trial":152,"stimulus":1,"robot":1,"valence":"win","action":"go","sham":1,"trial_type":"pit-trial","trial_index":203,"time_elapsed":943871,"internal_node_id":"0.0-160.0","task_version":"battery-v0.2-trt"},{"rune":"G","rune_set":"bacs2","hex":"#3366ff99","correct":32,"choice":-1,"rt":-1,"accuracy":0,"outcome":"+1","keys":[704.1350000072271],"total_keys":1,"block":2,"trial":153,"stimulus":4,"robot":1,"valence":"win","action":"go","sham":0,"trial_type":"pit-trial","trial_index":204,"time_elapsed":947872,"internal_node_id":"0.0-161.0","task_version":"battery-v0.2-trt"},{"rune":"X","rune_set":"bacs2","hex":"#f73b6a7A","correct":-1,"choice":32,"rt":581.4700000046287,"accuracy":0,"outcome":"-10","keys":[1447.4350000091363,2081.56500000041],"total_keys":2,"block":2,"trial":154,"stimulus":2,"robot":4,"valence":"lose","action":"no-go","sham":0,"trial_type":"pit-trial","trial_index":205,"time_elapsed":951156,"internal_node_id":"0.0-162.0","task_version":"battery-v0.2-trt"},{"rune":"Z","rune_set":"bacs2","hex":"#3366ff99","correct":32,"choice":-1,"rt":-1,"accuracy":0,"outcome":"+1","keys":[],"total_keys":0,"block":2,"trial":155,"stimulus":3,"robot":1,"valence":"win","action":"go","sham":0,"trial_type":"pit-trial","trial_index":206,"time_elapsed":955158,"internal_node_id":"0.0-163.0","task_version":"battery-v0.2-trt"},{"rune":"J","rune_set":"bacs2","hex":"#3366ff99","correct":-1,"choice":32,"rt":683.1400000082795,"accuracy":0,"outcome":"+1","keys":[1295.4099999915343,2183.229999995092],"total_keys":2,"block":2,"trial":156,"stimulus":0,"robot":2,"valence":"win","action":"no-go","sham":0,"trial_type":"pit-trial","trial_index":207,"time_elapsed":958542,"internal_node_id":"0.0-164.0","task_version":"battery-v0.2-trt"},{"rune":"J","rune_set":"bacs2","hex":"#3366ff99","correct":-1,"choice":32,"rt":398.63000001059845,"accuracy":0,"outcome":"+10","keys":[712.6599999901373,1898.6849999928381],"total_keys":2,"block":2,"trial":157,"stimulus":0,"robot":2,"valence":"win","action":"no-go","sham":1,"trial_type":"pit-trial","trial_index":208,"time_elapsed":961643,"internal_node_id":"0.0-165.0","task_version":"battery-v0.2-trt"},{"rune":"Z","rune_set":"bacs2","hex":"#3366ff99","correct":32,"choice":-1,"rt":-1,"accuracy":0,"outcome":"+1","keys":[3190.2849999896716],"total_keys":1,"block":2,"trial":158,"stimulus":3,"robot":1,"valence":"win","action":"go","sham":0,"trial_type":"pit-trial","trial_index":209,"time_elapsed":965644,"internal_node_id":"0.0-166.0","task_version":"battery-v0.2-trt"},{"rune":"G","rune_set":"bacs2","hex":"#3366ff99","correct":32,"choice":-1,"rt":-1,"accuracy":0,"outcome":"+1","keys":[1479.7249999828637],"total_keys":1,"block":2,"trial":159,"stimulus":4,"robot":1,"valence":"win","action":"go","sham":0,"trial_type":"pit-trial","trial_index":210,"time_elapsed":969646,"internal_node_id":"0.0-167.0","task_version":"battery-v0.2-trt"},{"rune":"X","rune_set":"bacs2","hex":"#f73b6a7A","correct":-1,"choice":32,"rt":605.1250000018626,"accuracy":0,"outcome":"-10","keys":[281.66999999666587,2105.634999985341],"total_keys":2,"block":2,"trial":160,"stimulus":2,"robot":4,"valence":"lose","action":"no-go","sham":0,"trial_type":"pit-trial","trial_index":211,"time_elapsed":972954,"internal_node_id":"0.0-168.0","task_version":"battery-v0.2-trt"},{"rune":"O","rune_set":"bacs2","hex":"#f73b6a7A","correct":32,"choice":-1,"rt":-1,"accuracy":0,"outcome":"-10","keys":[3288.5950000199955],"total_keys":1,"block":2,"trial":161,"stimulus":5,"robot":3,"valence":"lose","action":"go","sham":0,"trial_type":"pit-trial","trial_index":212,"time_elapsed":976956,"internal_node_id":"0.0-169.0","task_version":"battery-v0.2-trt"},{"rune":"J","rune_set":"bacs2","hex":"#3366ff99","correct":-1,"choice":32,"rt":145.25000000139698,"accuracy":0,"outcome":"+10","keys":[1040.9250000084285,1645.3350000083447],"total_keys":2,"block":2,"trial":162,"stimulus":0,"robot":2,"valence":"win","action":"no-go","sham":1,"trial_type":"pit-trial","trial_index":213,"time_elapsed":979803,"internal_node_id":"0.0-170.0","task_version":"battery-v0.2-trt"},{"rune":"C","rune_set":"bacs2","hex":"#f73b6a7A","correct":-1,"choice":-1,"rt":-1,"accuracy":1,"outcome":"-10","keys":[],"total_keys":0,"block":2,"trial":163,"stimulus":6,"robot":4,"valence":"lose","action":"no-go","sham":1,"trial_type":"pit-trial","trial_index":214,"time_elapsed":983805,"internal_node_id":"0.0-171.0","task_version":"battery-v0.2-trt"},{"rune":"G","rune_set":"bacs2","hex":"#3366ff99","correct":32,"choice":32,"rt":231.98499999125488,"accuracy":1,"outcome":"+10","keys":[415.8649999881163,981.93499998888,1369.9849999975413,1732.0550000004005],"total_keys":4,"block":2,"trial":164,"stimulus":4,"robot":1,"valence":"win","action":"go","sham":0,"trial_type":"pit-trial","trial_index":215,"time_elapsed":986739,"internal_node_id":"0.0-172.0","task_version":"battery-v0.2-trt"},{"rune":"O","rune_set":"bacs2","hex":"#f73b6a7A","correct":32,"choice":-1,"rt":-1,"accuracy":0,"outcome":"-10","keys":[],"total_keys":0,"block":2,"trial":165,"stimulus":5,"robot":3,"valence":"lose","action":"go","sham":0,"trial_type":"pit-trial","trial_index":216,"time_elapsed":990741,"internal_node_id":"0.0-173.0","task_version":"battery-v0.2-trt"},{"rune":"G","rune_set":"bacs2","hex":"#3366ff99","correct":32,"choice":32,"rt":155.18000000156462,"accuracy":1,"outcome":"+1","keys":[1655.2349999838043],"total_keys":1,"block":2,"trial":166,"stimulus":4,"robot":1,"valence":"win","action":"go","sham":1,"trial_type":"pit-trial","trial_index":217,"time_elapsed":993598,"internal_node_id":"0.0-174.0","task_version":"battery-v0.2-trt"},{"rune":"J","rune_set":"bacs2","hex":"#3366ff99","correct":-1,"choice":-1,"rt":-1,"accuracy":1,"outcome":"+10","keys":[2840.170000010403],"total_keys":1,"block":2,"trial":167,"stimulus":0,"robot":2,"valence":"win","action":"no-go","sham":0,"trial_type":"pit-trial","trial_index":218,"time_elapsed":997599,"internal_node_id":"0.0-175.0","task_version":"battery-v0.2-trt"},{"rune":"C","rune_set":"bacs2","hex":"#f73b6a7A","correct":-1,"choice":32,"rt":213.81500002462417,"accuracy":0,"outcome":"-10","keys":[1713.91500000027],"total_keys":1,"block":2,"trial":168,"stimulus":6,"robot":4,"valence":"lose","action":"no-go","sham":0,"trial_type":"pit-trial","trial_index":219,"time_elapsed":1000514,"internal_node_id":"0.0-176.0","task_version":"battery-v0.2-trt"},{"rune":"G","rune_set":"bacs2","hex":"#3366ff99","correct":32,"choice":32,"rt":194.74499998614192,"accuracy":1,"outcome":"+10","keys":[1694.8200000042561],"total_keys":1,"block":2,"trial":169,"stimulus":4,"robot":1,"valence":"win","action":"go","sham":0,"trial_type":"pit-trial","trial_index":220,"time_elapsed":1003411,"internal_node_id":"0.0-177.0","task_version":"battery-v0.2-trt"},{"rune":"O","rune_set":"bacs2","hex":"#f73b6a7A","correct":32,"choice":-1,"rt":-1,"accuracy":0,"outcome":"-10","keys":[3865.4350000142585],"total_keys":1,"block":2,"trial":170,"stimulus":5,"robot":3,"valence":"lose","action":"go","sham":0,"trial_type":"pit-trial","trial_index":221,"time_elapsed":1007412,"internal_node_id":"0.0-178.0","task_version":"battery-v0.2-trt"},{"rune":"E","rune_set":"bacs2","hex":"#3366ff99","correct":-1,"choice":-1,"rt":-1,"accuracy":1,"outcome":"+10","keys":[],"total_keys":0,"block":2,"trial":171,"stimulus":7,"robot":2,"valence":"win","action":"no-go","sham":0,"trial_type":"pit-trial","trial_index":222,"time_elapsed":1011414,"internal_node_id":"0.0-179.0","task_version":"battery-v0.2-trt"},{"rune":"C","rune_set":"bacs2","hex":"#f73b6a7A","correct":-1,"choice":-1,"rt":-1,"accuracy":1,"outcome":"-10","keys":[1272.224999993341],"total_keys":1,"block":2,"trial":172,"stimulus":6,"robot":4,"valence":"lose","action":"no-go","sham":1,"trial_type":"pit-trial","trial_index":223,"time_elapsed":1015415,"internal_node_id":"0.0-180.0","task_version":"battery-v0.2-trt"},{"rune":"C","rune_set":"bacs2","hex":"#f73b6a7A","correct":-1,"choice":-1,"rt":-1,"accuracy":1,"outcome":"-1","keys":[3276.0550000239164],"total_keys":1,"block":2,"trial":173,"stimulus":6,"robot":4,"valence":"lose","action":"no-go","sham":0,"trial_type":"pit-trial","trial_index":224,"time_elapsed":1019417,"internal_node_id":"0.0-181.0","task_version":"battery-v0.2-trt"},{"rune":"E","rune_set":"bacs2","hex":"#3366ff99","correct":-1,"choice":32,"rt":516.6849999804981,"accuracy":0,"outcome":"+1","keys":[1444.5399999967776,2016.7649999784771],"total_keys":2,"block":2,"trial":174,"stimulus":7,"robot":2,"valence":"win","action":"no-go","sham":0,"trial_type":"pit-trial","trial_index":225,"time_elapsed":1022635,"internal_node_id":"0.0-182.0","task_version":"battery-v0.2-trt"},{"rune":"G","rune_set":"bacs2","hex":"#3366ff99","correct":32,"choice":32,"rt":262.30499998200685,"accuracy":1,"outcome":"+10","keys":[1098.35500002373,1762.380000000121],"total_keys":2,"block":2,"trial":175,"stimulus":4,"robot":1,"valence":"win","action":"go","sham":0,"trial_type":"pit-trial","trial_index":226,"time_elapsed":1025599,"internal_node_id":"0.0-183.0","task_version":"battery-v0.2-trt"},{"rune":"O","rune_set":"bacs2","hex":"#f73b6a7A","correct":32,"choice":32,"rt":77.30999999330379,"accuracy":1,"outcome":"-1","keys":[1577.385000011418],"total_keys":1,"block":2,"trial":176,"stimulus":5,"robot":3,"valence":"lose","action":"go","sham":0,"trial_type":"pit-trial","trial_index":227,"time_elapsed":1028378,"internal_node_id":"0.0-184.0","task_version":"battery-v0.2-trt"},{"rune":"G","rune_set":"bacs2","hex":"#3366ff99","correct":32,"choice":32,"rt":15.775000007124618,"accuracy":1,"outcome":"+10","keys":[1516.2899999995716],"total_keys":1,"block":2,"trial":177,"stimulus":4,"robot":1,"valence":"win","action":"go","sham":0,"trial_type":"pit-trial","trial_index":228,"time_elapsed":1031096,"internal_node_id":"0.0-185.0","task_version":"battery-v0.2-trt"},{"rune":"O","rune_set":"bacs2","hex":"#f73b6a7A","correct":32,"choice":32,"rt":102.2800000209827,"accuracy":1,"outcome":"-1","keys":[1602.3350000032224],"total_keys":1,"block":2,"trial":178,"stimulus":5,"robot":3,"valence":"lose","action":"go","sham":0,"trial_type":"pit-trial","trial_index":229,"time_elapsed":1033900,"internal_node_id":"0.0-186.0","task_version":"battery-v0.2-trt"},{"rune":"E","rune_set":"bacs2","hex":"#3366ff99","correct":-1,"choice":32,"rt":552.5400000042282,"accuracy":0,"outcome":"+1","keys":[1473.6749999865424,2052.6149999932386],"total_keys":2,"block":2,"trial":179,"stimulus":7,"robot":2,"valence":"win","action":"no-go","sham":0,"trial_type":"pit-trial","trial_index":230,"time_elapsed":1037154,"internal_node_id":"0.0-187.0","task_version":"battery-v0.2-trt"},{"rune":"C","rune_set":"bacs2","hex":"#f73b6a7A","correct":-1,"choice":32,"rt":683.1799999927171,"accuracy":0,"outcome":"-10","keys":[2183.2649999996647],"total_keys":1,"block":2,"trial":180,"stimulus":6,"robot":4,"valence":"lose","action":"no-go","sham":0,"trial_type":"pit-trial","trial_index":231,"time_elapsed":1040539,"internal_node_id":"0.0-188.0","task_version":"battery-v0.2-trt"},{"rune":"E","rune_set":"bacs2","hex":"#3366ff99","correct":-1,"choice":-1,"rt":-1,"accuracy":1,"outcome":"+10","keys":[2896.3149999908637],"total_keys":1,"block":2,"trial":181,"stimulus":7,"robot":2,"valence":"win","action":"no-go","sham":0,"trial_type":"pit-trial","trial_index":232,"time_elapsed":1044541,"internal_node_id":"0.0-189.0","task_version":"battery-v0.2-trt"},{"rune":"C","rune_set":"bacs2","hex":"#f73b6a7A","correct":-1,"choice":32,"rt":380.28999997186475,"accuracy":0,"outcome":"-1","keys":[1880.3500000212807],"total_keys":1,"block":2,"trial":182,"stimulus":6,"robot":4,"valence":"lose","action":"no-go","sham":1,"trial_type":"pit-trial","trial_index":233,"time_elapsed":1047623,"internal_node_id":"0.0-190.0","task_version":"battery-v0.2-trt"},{"rune":"O","rune_set":"bacs2","hex":"#f73b6a7A","correct":32,"choice":32,"rt":837.2099999978673,"accuracy":1,"outcome":"-1","keys":[2337.280000007013],"total_keys":1,"block":2,"trial":183,"stimulus":5,"robot":3,"valence":"lose","action":"go","sham":0,"trial_type":"pit-trial","trial_index":234,"time_elapsed":1051162,"internal_node_id":"0.0-191.0","task_version":"battery-v0.2-trt"},{"rune":"G","rune_set":"bacs2","hex":"#3366ff99","correct":32,"choice":32,"rt":141.62000000942498,"accuracy":1,"outcome":"+10","keys":[1641.6900000185706],"total_keys":1,"block":2,"trial":184,"stimulus":4,"robot":1,"valence":"win","action":"go","sham":0,"trial_type":"pit-trial","trial_index":235,"time_elapsed":1054006,"internal_node_id":"0.0-192.0","task_version":"battery-v0.2-trt"},{"rune":"O","rune_set":"bacs2","hex":"#f73b6a7A","correct":32,"choice":32,"rt":432.0449999941047,"accuracy":1,"outcome":"-1","keys":[1932.120000012219],"total_keys":1,"block":2,"trial":185,"stimulus":5,"robot":3,"valence":"lose","action":"go","sham":0,"trial_type":"pit-trial","trial_index":236,"time_elapsed":1057140,"internal_node_id":"0.0-193.0","task_version":"battery-v0.2-trt"},{"rune":"E","rune_set":"bacs2","hex":"#3366ff99","correct":-1,"choice":-1,"rt":-1,"accuracy":1,"outcome":"+10","keys":[3389.1350000048988],"total_keys":1,"block":2,"trial":186,"stimulus":7,"robot":2,"valence":"win","action":"no-go","sham":0,"trial_type":"pit-trial","trial_index":237,"time_elapsed":1061142,"internal_node_id":"0.0-194.0","task_version":"battery-v0.2-trt"},{"rune":"C","rune_set":"bacs2","hex":"#f73b6a7A","correct":-1,"choice":32,"rt":615.269999980228,"accuracy":0,"outcome":"-10","keys":[71.26999998581596,2115.3599999961443],"total_keys":2,"block":2,"trial":187,"stimulus":6,"robot":4,"valence":"lose","action":"no-go","sham":0,"trial_type":"pit-trial","trial_index":238,"time_elapsed":1064458,"internal_node_id":"0.0-195.0","task_version":"battery-v0.2-trt"},{"rune":"G","rune_set":"bacs2","hex":"#3366ff99","correct":32,"choice":-1,"rt":-1,"accuracy":0,"outcome":"+1","keys":[3262.014999985695],"total_keys":1,"block":2,"trial":188,"stimulus":4,"robot":1,"valence":"win","action":"go","sham":0,"trial_type":"pit-trial","trial_index":239,"time_elapsed":1068460,"internal_node_id":"0.0-196.0","task_version":"battery-v0.2-trt"},{"rune":"O","rune_set":"bacs2","hex":"#f73b6a7A","correct":32,"choice":-1,"rt":-1,"accuracy":0,"outcome":"-10","keys":[3000.1249999913853],"total_keys":1,"block":2,"trial":189,"stimulus":5,"robot":3,"valence":"lose","action":"go","sham":0,"trial_type":"pit-trial","trial_index":240,"time_elapsed":1072462,"internal_node_id":"0.0-197.0","task_version":"battery-v0.2-trt"},{"rune":"E","rune_set":"bacs2","hex":"#3366ff99","correct":-1,"choice":-1,"rt":-1,"accuracy":1,"outcome":"+10","keys":[],"total_keys":0,"block":2,"trial":190,"stimulus":7,"robot":2,"valence":"win","action":"no-go","sham":0,"trial_type":"pit-trial","trial_index":241,"time_elapsed":1076463,"internal_node_id":"0.0-198.0","task_version":"battery-v0.2-trt"},{"rune":"G","rune_set":"bacs2","hex":"#3366ff99","correct":32,"choice":32,"rt":88.2700000074692,"accuracy":1,"outcome":"+1","keys":[1017.5450000097044,1588.3449999964796,2131.6900000092573],"total_keys":3,"block":2,"trial":191,"stimulus":4,"robot":1,"valence":"win","action":"go","sham":1,"trial_type":"pit-trial","trial_index":242,"time_elapsed":1079254,"internal_node_id":"0.0-199.0","task_version":"battery-v0.2-trt"},{"rune":"C","rune_set":"bacs2","hex":"#f73b6a7A","correct":-1,"choice":32,"rt":1177.4849999928847,"accuracy":0,"outcome":"-10","keys":[2677.559999981895],"total_keys":1,"block":2,"trial":192,"stimulus":6,"robot":4,"valence":"lose","action":"no-go","sham":0,"trial_type":"pit-trial","trial_index":243,"time_elapsed":1083133,"internal_node_id":"0.0-200.0","task_version":"battery-v0.2-trt"},{"rune":"H","rune_set":"bacs2","hex":"#f73b6a7A","correct":32,"choice":32,"rt":1024.9450000119396,"accuracy":1,"outcome":"-1","keys":[2525.034999998752],"total_keys":1,"block":2,"trial":193,"stimulus":8,"robot":3,"valence":"lose","action":"go","sham":0,"trial_type":"pit-trial","trial_index":244,"time_elapsed":1086860,"internal_node_id":"0.0-201.0","task_version":"battery-v0.2-trt"},{"rune":"G","rune_set":"bacs2","hex":"#3366ff99","correct":32,"choice":-1,"rt":-1,"accuracy":0,"outcome":"+1","keys":[],"total_keys":0,"block":2,"trial":194,"stimulus":4,"robot":1,"valence":"win","action":"go","sham":0,"trial_type":"pit-trial","trial_index":245,"time_elapsed":1090862,"internal_node_id":"0.0-202.0","task_version":"battery-v0.2-trt"},{"rune":"E","rune_set":"bacs2","hex":"#3366ff99","correct":-1,"choice":32,"rt":452.09500001510605,"accuracy":0,"outcome":"+1","keys":[332.20500001334585,1952.175000013085],"total_keys":2,"block":2,"trial":195,"stimulus":7,"robot":2,"valence":"win","action":"no-go","sham":0,"trial_type":"pit-trial","trial_index":246,"time_elapsed":1094016,"internal_node_id":"0.0-203.0","task_version":"battery-v0.2-trt"},{"rune":"C","rune_set":"bacs2","hex":"#f73b6a7A","correct":-1,"choice":32,"rt":390.1999999943655,"accuracy":0,"outcome":"-10","keys":[1890.2900000102818],"total_keys":1,"block":2,"trial":196,"stimulus":6,"robot":4,"valence":"lose","action":"no-go","sham":0,"trial_type":"pit-trial","trial_index":247,"time_elapsed":1097108,"internal_node_id":"0.0-204.0","task_version":"battery-v0.2-trt"},{"rune":"E","rune_set":"bacs2","hex":"#3366ff99","correct":-1,"choice":32,"rt":159.45999999530613,"accuracy":0,"outcome":"+1","keys":[995.3199999872595,1659.5150000066496],"total_keys":2,"block":2,"trial":197,"stimulus":7,"robot":2,"valence":"win","action":"no-go","sham":0,"trial_type":"pit-trial","trial_index":248,"time_elapsed":1099969,"internal_node_id":"0.0-205.0","task_version":"battery-v0.2-trt"},{"rune":"C","rune_set":"bacs2","hex":"#f73b6a7A","correct":-1,"choice":32,"rt":706.160000001546,"accuracy":0,"outcome":"-10","keys":[2206.225000001723],"total_keys":1,"block":2,"trial":198,"stimulus":6,"robot":4,"valence":"lose","action":"no-go","sham":0,"trial_type":"pit-trial","trial_index":249,"time_elapsed":1103377,"internal_node_id":"0.0-206.0","task_version":"battery-v0.2-trt"},{"rune":"G","rune_set":"bacs2","hex":"#3366ff99","correct":32,"choice":-1,"rt":-1,"accuracy":0,"outcome":"+1","keys":[3296.539999981178],"total_keys":1,"block":2,"trial":199,"stimulus":4,"robot":1,"valence":"win","action":"go","sham":0,"trial_type":"pit-trial","trial_index":250,"time_elapsed":1107378,"internal_node_id":"0.0-207.0","task_version":"battery-v0.2-trt"},{"rune":"H","rune_set":"bacs2","hex":"#f73b6a7A","correct":32,"choice":32,"rt":274.1950000054203,"accuracy":1,"outcome":"-1","keys":[250.17999997362494,1224.2149999947287,1774.2599999764934],"total_keys":3,"block":2,"trial":200,"stimulus":8,"robot":3,"valence":"lose","action":"go","sham":0,"trial_type":"pit-trial","trial_index":251,"time_elapsed":1110354,"internal_node_id":"0.0-208.0","task_version":"battery-v0.2-trt"},{"rune":"C","rune_set":"bacs2","hex":"#f73b6a7A","correct":-1,"choice":-1,"rt":-1,"accuracy":1,"outcome":"-1","keys":[3352.679999981774],"total_keys":1,"block":2,"trial":201,"stimulus":6,"robot":4,"valence":"lose","action":"no-go","sham":0,"trial_type":"pit-trial","trial_index":252,"time_elapsed":1114355,"internal_node_id":"0.0-209.0","task_version":"battery-v0.2-trt"},{"rune":"H","rune_set":"bacs2","hex":"#f73b6a7A","correct":32,"choice":-1,"rt":-1,"accuracy":0,"outcome":"-10","keys":[3007.6499999850057],"total_keys":1,"block":2,"trial":202,"stimulus":8,"robot":3,"valence":"lose","action":"go","sham":0,"trial_type":"pit-trial","trial_index":253,"time_elapsed":1118357,"internal_node_id":"0.0-210.0","task_version":"battery-v0.2-trt"},{"rune":"E","rune_set":"bacs2","hex":"#3366ff99","correct":-1,"choice":32,"rt":691.4300000062212,"accuracy":0,"outcome":"+1","keys":[655.365000013262,1235.6199999921955,2191.6049999999814],"total_keys":3,"block":2,"trial":203,"stimulus":7,"robot":2,"valence":"win","action":"no-go","sham":0,"trial_type":"pit-trial","trial_index":254,"time_elapsed":1121751,"internal_node_id":"0.0-211.0","task_version":"battery-v0.2-trt"},{"rune":"Q","rune_set":"bacs2","hex":"#f73b6a7A","correct":32,"choice":-1,"rt":-1,"accuracy":0,"outcome":"-10","keys":[3094.329999992624,3900.179999996908],"total_keys":2,"block":2,"trial":204,"stimulus":9,"robot":3,"valence":"lose","action":"go","sham":0,"trial_type":"pit-trial","trial_index":255,"time_elapsed":1125753,"internal_node_id":"0.0-212.0","task_version":"battery-v0.2-trt"},{"rune":"C","rune_set":"bacs2","hex":"#f73b6a7A","correct":-1,"choice":32,"rt":135.3149999922607,"accuracy":0,"outcome":"-10","keys":[1635.3750000125729],"total_keys":1,"block":2,"trial":205,"stimulus":6,"robot":4,"valence":"lose","action":"no-go","sham":0,"trial_type":"pit-trial","trial_index":256,"time_elapsed":1128590,"internal_node_id":"0.0-213.0","task_version":"battery-v0.2-trt"},{"rune":"Q","rune_set":"bacs2","hex":"#f73b6a7A","correct":32,"choice":-1,"rt":-1,"accuracy":0,"outcome":"-10","keys":[],"total_keys":0,"block":2,"trial":206,"stimulus":9,"robot":3,"valence":"lose","action":"go","sham":0,"trial_type":"pit-trial","trial_index":257,"time_elapsed":1132591,"internal_node_id":"0.0-214.0","task_version":"battery-v0.2-trt"},{"rune":"H","rune_set":"bacs2","hex":"#f73b6a7A","correct":32,"choice":-1,"rt":-1,"accuracy":0,"outcome":"-10","keys":[],"total_keys":0,"block":2,"trial":207,"stimulus":8,"robot":3,"valence":"lose","action":"go","sham":0,"trial_type":"pit-trial","trial_index":258,"time_elapsed":1136593,"internal_node_id":"0.0-215.0","task_version":"battery-v0.2-trt"},{"rune":"E","rune_set":"bacs2","hex":"#3366ff99","correct":-1,"choice":32,"rt":414.1949999902863,"accuracy":0,"outcome":"+1","keys":[1914.2750000173692],"total_keys":1,"block":2,"trial":208,"stimulus":7,"robot":2,"valence":"win","action":"no-go","sham":0,"trial_type":"pit-trial","trial_index":259,"time_elapsed":1139709,"internal_node_id":"0.0-216.0","task_version":"battery-v0.2-trt"},{"rune":"T","rune_set":"bacs2","hex":"#f73b6a7A","correct":-1,"choice":32,"rt":480.295000015758,"accuracy":0,"outcome":"-1","keys":[1980.3550000069663],"total_keys":1,"block":2,"trial":209,"stimulus":10,"robot":4,"valence":"lose","action":"no-go","sham":1,"trial_type":"pit-trial","trial_index":260,"time_elapsed":1142891,"internal_node_id":"0.0-217.0","task_version":"battery-v0.2-trt"},{"rune":"Y","rune_set":"bacs2","hex":"#3366ff99","correct":-1,"choice":32,"rt":318.50000002305023,"accuracy":0,"outcome":"+1","keys":[1818.5899999807589],"total_keys":1,"block":2,"trial":210,"stimulus":11,"robot":2,"valence":"win","action":"no-go","sham":0,"trial_type":"pit-trial","trial_index":261,"time_elapsed":1145911,"internal_node_id":"0.0-218.0","task_version":"battery-v0.2-trt"},{"rune":"H","rune_set":"bacs2","hex":"#f73b6a7A","correct":32,"choice":32,"rt":411.29000001819804,"accuracy":1,"outcome":"-10","keys":[1911.3499999803025],"total_keys":1,"block":2,"trial":211,"stimulus":8,"robot":3,"valence":"lose","action":"go","sham":1,"trial_type":"pit-trial","trial_index":262,"time_elapsed":1149024,"internal_node_id":"0.0-219.0","task_version":"battery-v0.2-trt"},{"rune":"Q","rune_set":"bacs2","hex":"#f73b6a7A","correct":32,"choice":-1,"rt":-1,"accuracy":0,"outcome":"-10","keys":[2834.774999995716],"total_keys":1,"block":2,"trial":212,"stimulus":9,"robot":3,"valence":"lose","action":"go","sham":0,"trial_type":"pit-trial","trial_index":263,"time_elapsed":1153025,"internal_node_id":"0.0-220.0","task_version":"battery-v0.2-trt"},{"rune":"Y","rune_set":"bacs2","hex":"#3366ff99","correct":-1,"choice":-1,"rt":-1,"accuracy":1,"outcome":"+1","keys":[],"total_keys":0,"block":2,"trial":213,"stimulus":11,"robot":2,"valence":"win","action":"no-go","sham":1,"trial_type":"pit-trial","trial_index":264,"time_elapsed":1157027,"internal_node_id":"0.0-221.0","task_version":"battery-v0.2-trt"},{"rune":"H","rune_set":"bacs2","hex":"#f73b6a7A","correct":32,"choice":32,"rt":379.9699999799486,"accuracy":1,"outcome":"-1","keys":[1880.0500000070315],"total_keys":1,"block":2,"trial":214,"stimulus":8,"robot":3,"valence":"lose","action":"go","sham":0,"trial_type":"pit-trial","trial_index":265,"time_elapsed":1160109,"internal_node_id":"0.0-222.0","task_version":"battery-v0.2-trt"},{"rune":"Q","rune_set":"bacs2","hex":"#f73b6a7A","correct":32,"choice":-1,"rt":-1,"accuracy":0,"outcome":"-10","keys":[3222.3250000097323],"total_keys":1,"block":2,"trial":215,"stimulus":9,"robot":3,"valence":"lose","action":"go","sham":0,"trial_type":"pit-trial","trial_index":266,"time_elapsed":1164111,"internal_node_id":"0.0-223.0","task_version":"battery-v0.2-trt"},{"rune":"T","rune_set":"bacs2","hex":"#f73b6a7A","correct":-1,"choice":32,"rt":956.8699999945238,"accuracy":0,"outcome":"-10","