[{"view_history":"[{\"page_index\":0,\"viewing_time\":4292.954999953508}]","rt":4293.399999965914,"trial_type":"instructions","trial_index":0,"time_elapsed":4304,"internal_node_id":"0.0-0.0","task_version":"battery-v0.2-trt"},{"slider_type":"valence","raw_loc":516.5,"loc":0.533,"trial_type":"affective-slider","trial_index":1,"time_elapsed":23771,"internal_node_id":"0.0-1.0","task_version":"battery-v0.2-trt"},{"responses":{"Q01":"0","Q05":"3","Q03":"0","Q10":"2","Q06":"3","Q08":"3","Q09":"3","Q11":"3","Q07":"3","Q12":"3","Q02":"1","Q13":"0","Q04":"2"},"rt":39571.28999999259,"item_order":[0,4,2,9,5,7,8,10,6,11,1,12,3],"radio_events":[2546.8350000446662,6335.964999976568,11027.80999999959,12719.829999958165,13715.919999987818,13912.26499993354,14858.660000027157,15171.020000008866,15887.244999990799,16366.919999942183,16583.194999955595,16799.589999951422,17683.070000028238,17943.179999943823,18195.049999980256,18795.08499999065,20110.830000019632,20494.689999963157,21054.64500002563,21346.634999965318,23198.854999965988,23498.69000003673,23795.410000020638,24131.00499997381,27003.03999998141,28514.94000002276,28711.050000041723,28879.160000011325,29171.104999957606,29763.120000017807,30355.179999955,33527.15999993961,33726.93500004243,34854.85000000335,37003.23000003118,37198.97999998648,37459.210000000894],"key_events":[6335.964999976568,11027.80999999959,12719.829999958165,13715.919999987818,13912.26499993354,14858.660000027157,15171.020000008866,15887.244999990799,16366.919999942183,16583.194999955595,16799.589999951422,17683.070000028238,17943.179999943823,18195.049999980256,18795.08499999065,20110.830000019632,20494.689999963157,21054.64500002563,21346.634999965318,23198.854999965988,23498.69000003673,23795.410000020638,24131.00499997381,27003.03999998141,28514.94000002276,28711.050000041723,28879.160000011325,29171.104999957606,29763.120000017807,30355.179999955,33527.15999993961,33726.93500004243,34854.85000000335,37003.23000003118,37198.97999998648,37459.210000000894,39569.6450000396],"mouse_events":[2546.8350000446662],"straightlining":0.5384615384615384,"zigzagging":0.3333333333333333,"survey":"bisbas","trial_type":"survey-template","trial_index":2,"time_elapsed":63345,"internal_node_id":"0.0-2.0","task_version":"battery-v0.2-trt","infrequency":0},{"responses":{"Q01":"1","Q07":"0","Q03":"1","Q04":"0","Q08":"0","Q02":"0","Q06":"3","Q05":"1"},"rt":19089.00999999605,"item_order":[0,6,2,3,7,1,5,4],"radio_events":[800.3299999982119,1632.2900000959635,2521.0250000236556,3572.305000037886,3987.8800000296906,4865.055000060238,5700.410000048578,6352.6200000196695,6808.430000091903,7500.304999994114,8296.31500004325,8553.010000032373,11772.255000076257,13208.55500001926,15400.820000097156,16260.390000068583,16576.73000008799,17436.60000001546],"key_events":[800.3299999982119,1632.2900000959635,2521.0250000236556,3572.305000037886,3987.8800000296906,4865.055000060238,5700.410000048578,6352.6200000196695,6808.430000091903,7500.304999994114,8296.31500004325,8553.010000032373,11772.255000076257,13208.55500001926,15400.820000097156,16260.390000068583,16576.73000008799,17436.60000001546,19088.214999996126],"mouse_events":[],"straightlining":0.5,"zigzagging":0.5714285714285714,"survey":"gad7","trial_type":"survey-template","trial_index":3,"time_elapsed":82436,"internal_node_id":"0.0-3.0","task_version":"battery-v0.2-trt","infrequency":0},{"responses":{"Q06":"0","Q02":"0","Q01":"0","Q08":"3","Q07":"0","Q05":"0","Q03":"0","Q04":"0"},"rt":15229.295000084676,"item_order":[5,1,0,7,6,4,2,3],"radio_events":[2729.3050000444055,4111.99000000488,6624.004999990575,7184.074999997392,8875.980000011623,10180.790000013076,11068.335000076331,12084.215000038967,12595.964999985881],"key_events":[2729.3050000444055,4111.99000000488,6624.004999990575,7184.074999997392,8875.980000011623,10180.790000013076,11068.335000076331,12084.215000038967,12595.964999985881,15228.52000000421],"mouse_events":[],"straightlining":0.875,"zigzagging":0.2857142857142857,"survey":"dass_d","trial_type":"survey-template","trial_index":4,"time_elapsed":97668,"internal_node_id":"0.0-4.0","task_version":"battery-v0.2-trt","infrequency":0.5},{"value":[0.5,1.9134615384615383,1.1904761904761902],"trial_type":"call-function","trial_index":5,"time_elapsed":97669,"internal_node_id":"0.0-5.0","task_version":"battery-v0.2-trt"},{"view_history":"[{\"page_index\":0,\"viewing_time\":3541.025000042282},{\"page_index\":1,\"viewing_time\":5958.549999981187},{\"page_index\":2,\"viewing_time\":5157.059999997728},{\"page_index\":3,\"viewing_time\":3803.109999978915},{\"page_index\":4,\"viewing_time\":6386.159999994561},{\"page_index\":5,\"viewing_time\":5224.875000072643},{\"page_index\":6,\"viewing_time\":4493.780000018887},{\"page_index\":7,\"viewing_time\":8853.31999999471},{\"page_index\":6,\"viewing_time\":3550.779999932274},{\"page_index\":7,\"viewing_time\":5246.264999965206},{\"page_index\":8,\"viewing_time\":5877.745000063442},{\"page_index\":9,\"viewing_time\":3168.2299999520183}]","rt":61261.605000006966,"trial_type":"pit-instructions","trial_index":6,"time_elapsed":158934,"internal_node_id":"0.0-6.0-0.0","task_version":"battery-v0.2-trt"},{"rune":"1","rune_set":"elianto","hex":"#3366ff99","correct":32,"choice":-1,"rt":-1,"accuracy":0,"outcome":"+1","keys":[2828.1300000380725],"total_keys":1,"block":0,"practice":1,"trial_type":"pit-trial","trial_index":7,"time_elapsed":162939,"internal_node_id":"0.0-6.0-1.0-0.0","task_version":"battery-v0.2-trt"},{"rune":"1","rune_set":"elianto","hex":"#3366ff99","correct":32,"choice":-1,"rt":-1,"accuracy":0,"outcome":"+1","keys":[],"total_keys":0,"block":0,"practice":1,"trial_type":"pit-trial","trial_index":8,"time_elapsed":166941,"internal_node_id":"0.0-6.0-1.1-0.1","task_version":"battery-v0.2-trt"},{"rune":"1","rune_set":"elianto","hex":"#3366ff99","correct":32,"choice":-1,"rt":-1,"accuracy":0,"outcome":"+1","keys":[],"total_keys":0,"block":0,"practice":1,"trial_type":"pit-trial","trial_index":9,"time_elapsed":170944,"internal_node_id":"0.0-6.0-1.2-0.2","task_version":"battery-v0.2-trt"},{"rune":"1","rune_set":"elianto","hex":"#3366ff99","correct":32,"choice":-1,"rt":-1,"accuracy":0,"outcome":"+1","keys":[],"total_keys":0,"block":0,"practice":1,"trial_type":"pit-trial","trial_index":10,"time_elapsed":174975,"internal_node_id":"0.0-6.0-1.3-0.3","task_version":"battery-v0.2-trt"},{"rune":"1","rune_set":"elianto","hex":"#3366ff99","correct":32,"choice":-1,"rt":-1,"accuracy":0,"outcome":"+1","keys":[],"total_keys":0,"block":0,"practice":1,"trial_type":"pit-trial","trial_index":11,"time_elapsed":178978,"internal_node_id":"0.0-6.0-1.4-0.4","task_version":"battery-v0.2-trt"},{"rune":"1","rune_set":"elianto","hex":"#3366ff99","correct":32,"choice":-1,"rt":-1,"accuracy":0,"outcome":"+1","keys":[],"total_keys":0,"block":0,"practice":1,"trial_type":"pit-trial","trial_index":12,"time_elapsed":182981,"internal_node_id":"0.0-6.0-1.5-0.5","task_version":"battery-v0.2-trt"},{"rune":"1","rune_set":"elianto","hex":"#3366ff99","correct":32,"choice":-1,"rt":-1,"accuracy":0,"outcome":"+1","keys":[],"total_keys":0,"block":0,"practice":1,"trial_type":"pit-trial","trial_index":13,"time_elapsed":186984,"internal_node_id":"0.0-6.0-1.6-0.6","task_version":"battery-v0.2-trt"},{"rune":"1","rune_set":"elianto","hex":"#3366ff99","correct":32,"choice":32,"rt":1068.2849999284372,"accuracy":1,"outcome":"+10","keys":[2569.0850000828505],"total_keys":1,"block":0,"practice":1,"trial_type":"pit-trial","trial_index":14,"time_elapsed":190755,"internal_node_id":"0.0-6.0-1.7-0.7","task_version":"battery-v0.2-trt"},{"rune":"1","rune_set":"elianto","hex":"#3366ff99","correct":32,"choice":32,"rt":849.5700000785291,"accuracy":1,"outcome":"+10","keys":[2350.054999929853],"total_keys":1,"block":0,"practice":1,"trial_type":"pit-trial","trial_index":15,"time_elapsed":194307,"internal_node_id":"0.0-6.0-1.8-0.8","task_version":"battery-v0.2-trt"},{"rune":"1","rune_set":"elianto","hex":"#3366ff99","correct":32,"choice":32,"rt":937.58499994874,"accuracy":1,"outcome":"+10","keys":[2437.7650000387803],"total_keys":1,"block":0,"practice":1,"trial_type":"pit-trial","trial_index":16,"time_elapsed":197947,"internal_node_id":"0.0-6.0-1.9-0.9","task_version":"battery-v0.2-trt"},{"trial_type":"call-function","trial_index":17,"time_elapsed":197948,"internal_node_id":"0.0-6.0-2.0","task_version":"battery-v0.2-trt"},{"view_history":"[{\"page_index\":0,\"viewing_time\":7237.7550000092015},{\"page_index\":1,\"viewing_time\":2952.004999970086}]","rt":10190.010000020266,"trial_type":"pit-instructions","trial_index":18,"time_elapsed":208138,"internal_node_id":"0.0-6.0-3.0","task_version":"battery-v0.2-trt"},{"rune":"2","rune_set":"elianto","hex":"#3366ff99","correct":-1,"choice":-1,"rt":-1,"accuracy":1,"outcome":"+10","keys":[],"total_keys":0,"block":0,"practice":2,"trial_type":"pit-trial","trial_index":19,"time_elapsed":212140,"internal_node_id":"0.0-6.0-4.0-0.0","task_version":"battery-v0.2-trt"},{"rune":"2","rune_set":"elianto","hex":"#3366ff99","correct":-1,"choice":-1,"rt":-1,"accuracy":1,"outcome":"+10","keys":[],"total_keys":0,"block":0,"practice":2,"trial_type":"pit-trial","trial_index":20,"time_elapsed":216145,"internal_node_id":"0.0-6.0-4.1-0.1","task_version":"battery-v0.2-trt"},{"rune":"2","rune_set":"elianto","hex":"#3366ff99","correct":-1,"choice":-1,"rt":-1,"accuracy":1,"outcome":"+10","keys":[],"total_keys":0,"block":0,"practice":2,"trial_type":"pit-trial","trial_index":21,"time_elapsed":220149,"internal_node_id":"0.0-6.0-4.2-0.2","task_version":"battery-v0.2-trt"},{"rune":"2","rune_set":"elianto","hex":"#3366ff99","correct":-1,"choice":-1,"rt":-1,"accuracy":1,"outcome":"+10","keys":[],"total_keys":0,"block":0,"practice":2,"trial_type":"pit-trial","trial_index":22,"time_elapsed":224152,"internal_node_id":"0.0-6.0-4.3-0.3","task_version":"battery-v0.2-trt"},{"trial_type":"call-function","trial_index":23,"time_elapsed":224153,"internal_node_id":"0.0-6.0-5.0","task_version":"battery-v0.2-trt"},{"view_history":"[{\"page_index\":0,\"viewing_time\":9898.449999978766},{\"page_index\":1,\"viewing_time\":3067.144999979064}]","rt":12965.874999994412,"trial_type":"pit-instructions","trial_index":24,"time_elapsed":237119,"internal_node_id":"0.0-6.0-6.0","task_version":"battery-v0.2-trt"},{"rune":"3","rune_set":"elianto","hex":"#f73b6a7A","correct":-1,"choice":32,"rt":1037.7599999774247,"accuracy":0,"outcome":"-10","keys":[2539.8800000548363],"total_keys":1,"block":0,"practice":3,"trial_type":"pit-trial","trial_index":25,"time_elapsed":240862,"internal_node_id":"0.0-6.0-7.0-0.0","task_version":"battery-v0.2-trt"},{"rune":"3","rune_set":"elianto","hex":"#f73b6a7A","correct":-1,"choice":-1,"rt":-1,"accuracy":1,"outcome":"-1","keys":[],"total_keys":0,"block":0,"practice":3,"trial_type":"pit-trial","trial_index":26,"time_elapsed":244865,"internal_node_id":"0.0-6.0-7.1-0.1","task_version":"battery-v0.2-trt"},{"rune":"3","rune_set":"elianto","hex":"#f73b6a7A","correct":-1,"choice":-1,"rt":-1,"accuracy":1,"outcome":"-1","keys":[3546.444999985397],"total_keys":1,"block":0,"practice":3,"trial_type":"pit-trial","trial_index":27,"time_elapsed":248869,"internal_node_id":"0.0-6.0-7.2-0.2","task_version":"battery-v0.2-trt"},{"rune":"3","rune_set":"elianto","hex":"#f73b6a7A","correct":-1,"choice":32,"rt":297.3950000014156,"accuracy":0,"outcome":"-10","keys":[1798.1099999742582],"total_keys":1,"block":0,"practice":3,"trial_type":"pit-trial","trial_index":28,"time_elapsed":251869,"internal_node_id":"0.0-6.0-7.3-0.3","task_version":"battery-v0.2-trt"},{"rune":"3","rune_set":"elianto","hex":"#f73b6a7A","correct":-1,"choice":-1,"rt":-1,"accuracy":1,"outcome":"-1","keys":[],"total_keys":0,"block":0,"practice":3,"trial_type":"pit-trial","trial_index":29,"time_elapsed":255873,"internal_node_id":"0.0-6.0-7.4-0.4","task_version":"battery-v0.2-trt"},{"rune":"3","rune_set":"elianto","hex":"#f73b6a7A","correct":-1,"choice":-1,"rt":-1,"accuracy":1,"outcome":"-1","keys":[],"total_keys":0,"block":0,"practice":3,"trial_type":"pit-trial","trial_index":30,"time_elapsed":259876,"internal_node_id":"0.0-6.0-7.5-0.5","task_version":"battery-v0.2-trt"},{"rune":"3","rune_set":"elianto","hex":"#f73b6a7A","correct":-1,"choice":-1,"rt":-1,"accuracy":1,"outcome":"-1","keys":[],"total_keys":0,"block":0,"practice":3,"trial_type":"pit-trial","trial_index":31,"time_elapsed":263879,"internal_node_id":"0.0-6.0-7.6-0.6","task_version":"battery-v0.2-trt"},{"trial_type":"call-function","trial_index":32,"time_elapsed":263880,"internal_node_id":"0.0-6.0-8.0","task_version":"battery-v0.2-trt"},{"view_history":"[{\"page_index\":0,\"viewing_time\":2252.749999985099},{\"page_index\":1,\"viewing_time\":60945.809999946505}]","rt":63198.955000028946,"trial_type":"pit-instructions","trial_index":33,"time_elapsed":327079,"internal_node_id":"0.0-6.0-9.0","task_version":"battery-v0.2-trt"},{"rune":"4","rune_set":"elianto","hex":"#f73b6a7A","correct":32,"choice":-1,"rt":-1,"accuracy":0,"outcome":"-10","keys":[],"total_keys":0,"block":0,"practice":4,"trial_type":"pit-trial","trial_index":34,"time_elapsed":331084,"internal_node_id":"0.0-6.0-10.0-0.0","task_version":"battery-v0.2-trt"},{"rune":"4","rune_set":"elianto","hex":"#f73b6a7A","correct":32,"choice":32,"rt":531.4599999692291,"accuracy":1,"outcome":"-1","keys":[2031.5849999897182],"total_keys":1,"block":0,"practice":4,"trial_type":"pit-trial","trial_index":35,"time_elapsed":334317,"internal_node_id":"0.0-6.0-10.1-0.1","task_version":"battery-v0.2-trt"},{"rune":"4","rune_set":"elianto","hex":"#f73b6a7A","correct":32,"choice":32,"rt":597.2949999850243,"accuracy":1,"outcome":"-1","keys":[2098.965000011958],"total_keys":1,"block":0,"practice":4,"trial_type":"pit-trial","trial_index":36,"time_elapsed":337619,"internal_node_id":"0.0-6.0-10.2-0.2","task_version":"battery-v0.2-trt"},{"rune":"4","rune_set":"elianto","hex":"#f73b6a7A","correct":32,"choice":32,"rt":136.02499989792705,"accuracy":1,"outcome":"-1","keys":[1636.1099999630824],"total_keys":1,"block":0,"practice":4,"trial_type":"pit-trial","trial_index":37,"time_elapsed":340456,"internal_node_id":"0.0-6.0-10.3-0.3","task_version":"battery-v0.2-trt"},{"trial_type":"call-function","trial_index":38,"time_elapsed":340457,"internal_node_id":"0.0-6.0-11.0","task_version":"battery-v0.2-trt"},{"view_history":"[{\"page_index\":0,\"viewing_time\":2360.5400000233203},{\"page_index\":1,\"viewing_time\":2610.120000084862},{\"page_index\":2,\"viewing_time\":4779.96999991592},{\"page_index\":3,\"viewing_time\":3694.2800000542775},{\"page_index\":4,\"viewing_time\":4414.770000032149},{\"page_index\":5,\"viewing_time\":2139.9849998997524}]","rt":19999.950000084937,"trial_type":"pit-instructions","trial_index":39,"time_elapsed":360457,"internal_node_id":"0.0-6.0-12.0","task_version":"battery-v0.2-trt"},{"responses":["Press SPACE","+10","-10","True","True"],"num_errors":1,"rt":15109.404999995604,"trial_type":"pit-comprehension","trial_index":40,"time_elapsed":375568,"internal_node_id":"0.0-6.0-13.0","task_version":"battery-v0.2-trt"},{"view_history":"[{\"page_index\":0,\"viewing_time\":1335.3549999883398},{\"page_index\":1,\"viewing_time\":2097.940000006929}]","rt":3433.530000038445,"trial_type":"pit-instructions","trial_index":41,"time_elapsed":379005,"internal_node_id":"0.0-7.0","task_version":"battery-v0.2-trt"},{"rune":"A","rune_set":"bacs2","hex":"#3366ff99","correct":32,"choice":32,"rt":1005.4849999723956,"accuracy":1,"outcome":"+1","keys":[2506.000000052154],"total_keys":1,"block":1,"trial":1,"stimulus":2,"robot":1,"valence":"win","action":"go","sham":1,"trial_type":"pit-trial","trial_index":42,"time_elapsed":382715,"internal_node_id":"0.0-8.0","task_version":"battery-v0.2-trt"},{"rune":"U","rune_set":"bacs2","hex":"#3366ff99","correct":-1,"choice":-1,"rt":-1,"accuracy":1,"outcome":"+10","keys":[],"total_keys":0,"block":1,"trial":2,"stimulus":3,"robot":2,"valence":"win","action":"no-go","sham":0,"trial_type":"pit-trial","trial_index":43,"time_elapsed":386718,"internal_node_id":"0.0-9.0","task_version":"battery-v0.2-trt"},{"rune":"N","rune_set":"bacs2","hex":"#f73b6a7A","correct":-1,"choice":-1,"rt":-1,"accuracy":1,"outcome":"-1","keys":[],"total_keys":0,"block":1,"trial":3,"stimulus":0,"robot":4,"valence":"lose","action":"no-go","sham":0,"trial_type":"pit-trial","trial_index":44,"time_elapsed":390722,"internal_node_id":"0.0-10.0","task_version":"battery-v0.2-trt"},{"rune":"F","rune_set":"bacs2","hex":"#f73b6a7A","correct":-1,"choice":32,"rt":790.3499999083579,"accuracy":0,"outcome":"-1","keys":[2290.485000004992],"total_keys":1,"block":1,"trial":4,"stimulus":1,"robot":4,"valence":"lose","action":"no-go","sham":1,"trial_type":"pit-trial","trial_index":45,"time_elapsed":394214,"internal_node_id":"0.0-11.0","task_version":"battery-v0.2-trt"},{"rune":"U","rune_set":"bacs2","hex":"#3366ff99","correct":-1,"choice":-1,"rt":-1,"accuracy":1,"outcome":"+10","keys":[],"total_keys":0,"block":1,"trial":5,"stimulus":3,"robot":2,"valence":"win","action":"no-go","sham":0,"trial_type":"pit-trial","trial_index":46,"time_elapsed":398217,"internal_node_id":"0.0-12.0","task_version":"battery-v0.2-trt"},{"rune":"A","rune_set":"bacs2","hex":"#3366ff99","correct":32,"choice":32,"rt":693.5299999313429,"accuracy":1,"outcome":"+10","keys":[2194.679999956861],"total_keys":1,"block":1,"trial":6,"stimulus":2,"robot":1,"valence":"win","action":"go","sham":0,"trial_type":"pit-trial","trial_index":47,"time_elapsed":401613,"internal_node_id":"0.0-13.0","task_version":"battery-v0.2-trt"},{"rune":"N","rune_set":"bacs2","hex":"#f73b6a7A","correct":-1,"choice":32,"rt":760.9099999535829,"accuracy":0,"outcome":"-10","keys":[2262.374999932945],"total_keys":1,"block":1,"trial":7,"stimulus":0,"robot":4,"valence":"lose","action":"no-go","sham":0,"trial_type":"pit-trial","trial_index":48,"time_elapsed":405077,"internal_node_id":"0.0-14.0","task_version":"battery-v0.2-trt"},{"rune":"F","rune_set":"bacs2","hex":"#f73b6a7A","correct":-1,"choice":32,"rt":799.2350000422448,"accuracy":0,"outcome":"-1","keys":[2299.40500005614],"total_keys":1,"block":1,"trial":8,"stimulus":1,"robot":4,"valence":"lose","action":"no-go","sham":1,"trial_type":"pit-trial","trial_index":49,"time_elapsed":408578,"internal_node_id":"0.0-15.0","task_version":"battery-v0.2-trt"},{"rune":"F","rune_set":"bacs2","hex":"#f73b6a7A","correct":-1,"choice":-1,"rt":-1,"accuracy":1,"outcome":"-1","keys":[],"total_keys":0,"block":1,"trial":9,"stimulus":1,"robot":4,"valence":"lose","action":"no-go","sham":0,"trial_type":"pit-trial","trial_index":50,"time_elapsed":412581,"internal_node_id":"0.0-16.0","task_version":"battery-v0.2-trt"},{"rune":"N","rune_set":"bacs2","hex":"#f73b6a7A","correct":-1,"choice":-1,"rt":-1,"accuracy":1,"outcome":"-1","keys":[3115.375000052154],"total_keys":1,"block":1,"trial":10,"stimulus":0,"robot":4,"valence":"lose","action":"no-go","sham":0,"trial_type":"pit-trial","trial_index":51,"time_elapsed":416583,"internal_node_id":"0.0-17.0","task_version":"battery-v0.2-trt"},{"rune":"A","rune_set":"bacs2","hex":"#3366ff99","correct":32,"choice":-1,"rt":-1,"accuracy":0,"outcome":"+10","keys":[],"total_keys":0,"block":1,"trial":11,"stimulus":2,"robot":1,"valence":"win","action":"go","sham":1,"trial_type":"pit-trial","trial_index":52,"time_elapsed":420585,"internal_node_id":"0.0-18.0","task_version":"battery-v0.2-trt"},{"rune":"U","rune_set":"bacs2","hex":"#3366ff99","correct":-1,"choice":32,"rt":776.7349999630824,"accuracy":0,"outcome":"+10","keys":[2277.6450000237674],"total_keys":1,"block":1,"trial":12,"stimulus":3,"robot":2,"valence":"win","action":"no-go","sham":1,"trial_type":"pit-trial","trial_index":53,"time_elapsed":424065,"internal_node_id":"0.0-19.0","task_version":"battery-v0.2-trt"},{"rune":"F","rune_set":"bacs2","hex":"#f73b6a7A","correct":-1,"choice":-1,"rt":-1,"accuracy":1,"outcome":"-1","keys":[],"total_keys":0,"block":1,"trial":13,"stimulus":1,"robot":4,"valence":"lose","action":"no-go","sham":0,"trial_type":"pit-trial","trial_index":54,"time_elapsed":428067,"internal_node_id":"0.0-20.0","task_version":"battery-v0.2-trt"},{"rune":"N","rune_set":"bacs2","hex":"#f73b6a7A","correct":-1,"choice":32,"rt":821.3999998988584,"accuracy":0,"outcome":"-10","keys":[2322.634999989532],"total_keys":1,"block":1,"trial":14,"stimulus":0,"robot":4,"valence":"lose","action":"no-go","sham":0,"trial_type":"pit-trial","trial_index":55,"time_elapsed":431592,"internal_node_id":"0.0-21.0","task_version":"battery-v0.2-trt"},{"rune":"U","rune_set":"bacs2","hex":"#3366ff99","correct":-1,"choice":-1,"rt":-1,"accuracy":1,"outcome":"+1","keys":[],"total_keys":0,"block":1,"trial":15,"stimulus":3,"robot":2,"valence":"win","action":"no-go","sham":1,"trial_type":"pit-trial","trial_index":56,"time_elapsed":435594,"internal_node_id":"0.0-22.0","task_version":"battery-v0.2-trt"},{"rune":"A","rune_set":"bacs2","hex":"#3366ff99","correct":32,"choice":-1,"rt":-1,"accuracy":0,"outcome":"+1","keys":[],"total_keys":0,"block":1,"trial":16,"stimulus":2,"robot":1,"valence":"win","action":"go","sham":0,"trial_type":"pit-trial","trial_index":57,"time_elapsed":439597,"internal_node_id":"0.0-23.0","task_version":"battery-v0.2-trt"},{"rune":"N","rune_set":"bacs2","hex":"#f73b6a7A","correct":-1,"choice":-1,"rt":-1,"accuracy":1,"outcome":"-1","keys":[],"total_keys":0,"block":1,"trial":17,"stimulus":0,"robot":4,"valence":"lose","action":"no-go","sham":0,"trial_type":"pit-trial","trial_index":58,"time_elapsed":443599,"internal_node_id":"0.0-24.0","task_version":"battery-v0.2-trt"},{"rune":"F","rune_set":"bacs2","hex":"#f73b6a7A","correct":-1,"choice":-1,"rt":-1,"accuracy":1,"outcome":"-1","keys":[3002.0549999317154],"total_keys":1,"block":1,"trial":18,"stimulus":1,"robot":4,"valence":"lose","action":"no-go","sham":0,"trial_type":"pit-trial","trial_index":59,"time_elapsed":447602,"internal_node_id":"0.0-25.0","task_version":"battery-v0.2-trt"},{"rune":"A","rune_set":"bacs2","hex":"#3366ff99","correct":32,"choice":-1,"rt":-1,"accuracy":0,"outcome":"+1","keys":[],"total_keys":0,"block":1,"trial":19,"stimulus":2,"robot":1,"valence":"win","action":"go","sham":0,"trial_type":"pit-trial","trial_index":60,"time_elapsed":451606,"internal_node_id":"0.0-26.0","task_version":"battery-v0.2-trt"},{"rune":"U","rune_set":"bacs2","hex":"#3366ff99","correct":-1,"choice":32,"rt":410.93499993439764,"accuracy":0,"outcome":"+1","keys":[1911.710000014864],"total_keys":1,"block":1,"trial":20,"stimulus":3,"robot":2,"valence":"win","action":"no-go","sham":0,"trial_type":"pit-trial","trial_index":61,"time_elapsed":454720,"internal_node_id":"0.0-27.0","task_version":"battery-v0.2-trt"},{"rune":"F","rune_set":"bacs2","hex":"#f73b6a7A","correct":-1,"choice":32,"rt":738.0949999205768,"accuracy":0,"outcome":"-10","keys":[2239.7649999475107],"total_keys":1,"block":1,"trial":21,"stimulus":1,"robot":4,"valence":"lose","action":"no-go","sham":0,"trial_type":"pit-trial","trial_index":62,"time_elapsed":458161,"internal_node_id":"0.0-28.0","task_version":"battery-v0.2-trt"},{"rune":"A","rune_set":"bacs2","hex":"#3366ff99","correct":32,"choice":32,"rt":771.2750000646338,"accuracy":1,"outcome":"+10","keys":[2272.599999909289],"total_keys":1,"block":1,"trial":22,"stimulus":2,"robot":1,"valence":"win","action":"go","sham":0,"trial_type":"pit-trial","trial_index":63,"time_elapsed":461637,"internal_node_id":"0.0-29.0","task_version":"battery-v0.2-trt"},{"rune":"U","rune_set":"bacs2","hex":"#3366ff99","correct":-1,"choice":32,"rt":632.8400000929832,"accuracy":0,"outcome":"+10","keys":[2134.1150000225753],"total_keys":1,"block":1,"trial":23,"stimulus":3,"robot":2,"valence":"win","action":"no-go","sham":1,"trial_type":"pit-trial","trial_index":64,"time_elapsed":464972,"internal_node_id":"0.0-30.0","task_version":"battery-v0.2-trt"},{"rune":"N","rune_set":"bacs2","hex":"#f73b6a7A","correct":-1,"choice":32,"rt":881.0300000477582,"accuracy":0,"outcome":"-1","keys":[2381.814999971539],"total_keys":1,"block":1,"trial":24,"stimulus":0,"robot":4,"valence":"lose","action":"no-go","sham":1,"trial_type":"pit-trial","trial_index":65,"time_elapsed":468556,"internal_node_id":"0.0-31.0","task_version":"battery-v0.2-trt"},{"rune":"N","rune_set":"bacs2","hex":"#f73b6a7A","correct":-1,"choice":32,"rt":680.8149999706075,"accuracy":0,"outcome":"-1","keys":[2180.9500000672415],"total_keys":1,"block":1,"trial":25,"stimulus":0,"robot":4,"valence":"lose","action":"no-go","sham":1,"trial_type":"pit-trial","trial_index":66,"time_elapsed":471940,"internal_node_id":"0.0-32.0","task_version":"battery-v0.2-trt"},{"rune":"U","rune_set":"bacs2","hex":"#3366ff99","correct":-1,"choice":32,"rt":968.0699999444187,"accuracy":0,"outcome":"+1","keys":[2469.0999999875203],"total_keys":1,"block":1,"trial":26,"stimulus":3,"robot":2,"valence":"win","action":"no-go","sham":0,"trial_type":"pit-trial","trial_index":67,"time_elapsed":475611,"internal_node_id":"0.0-33.0","task_version":"battery-v0.2-trt"},{"rune":"F","rune_set":"bacs2","hex":"#f73b6a7A","correct":-1,"choice":32,"rt":850.4850000608712,"accuracy":0,"outcome":"-10","keys":[2350.689999992028],"total_keys":1,"block":1,"trial":27,"stimulus":1,"robot":4,"valence":"lose","action":"no-go","sham":0,"trial_type":"pit-trial","trial_index":68,"time_elapsed":479164,"internal_node_id":"0.0-34.0","task_version":"battery-v0.2-trt"},{"rune":"A","rune_set":"bacs2","hex":"#3366ff99","correct":32,"choice":32,"rt":917.3350000055507,"accuracy":1,"outcome":"+10","keys":[2417.5299999769777],"total_keys":1,"block":1,"trial":28,"stimulus":2,"robot":1,"valence":"win","action":"go","sham":0,"trial_type":"pit-trial","trial_index":69,"time_elapsed":482784,"internal_node_id":"0.0-35.0","task_version":"battery-v0.2-trt"},{"rune":"F","rune_set":"bacs2","hex":"#f73b6a7A","correct":-1,"choice":32,"rt":913.1150000030175,"accuracy":0,"outcome":"-10","keys":[2413.685000035912],"total_keys":1,"block":1,"trial":29,"stimulus":1,"robot":4,"valence":"lose","action":"no-go","sham":0,"trial_type":"pit-trial","trial_index":70,"time_elapsed":486399,"internal_node_id":"0.0-36.0","task_version":"battery-v0.2-trt"},{"rune":"U","rune_set":"bacs2","hex":"#3366ff99","correct":-1,"choice":32,"rt":1033.0850000027567,"accuracy":0,"outcome":"+10","keys":[2534.0900000883266],"total_keys":1,"block":1,"trial":30,"stimulus":3,"robot":2,"valence":"win","action":"no-go","sham":1,"trial_type":"pit-trial","trial_index":71,"time_elapsed":490136,"internal_node_id":"0.0-37.0","task_version":"battery-v0.2-trt"},{"rune":"N","rune_set":"bacs2","hex":"#f73b6a7A","correct":-1,"choice":32,"rt":1175.2100000157952,"accuracy":0,"outcome":"-10","keys":[2676.8250000895932],"total_keys":1,"block":1,"trial":31,"stimulus":0,"robot":4,"valence":"lose","action":"no-go","sham":0,"trial_type":"pit-trial","trial_index":72,"time_elapsed":494016,"internal_node_id":"0.0-38.0","task_version":"battery-v0.2-trt"},{"rune":"A","rune_set":"bacs2","hex":"#3366ff99","correct":32,"choice":32,"rt":787.8549998858944,"accuracy":1,"outcome":"+10","keys":[2288.6949999956414],"total_keys":1,"block":1,"trial":32,"stimulus":2,"robot":1,"valence":"win","action":"go","sham":0,"trial_type":"pit-trial","trial_index":73,"time_elapsed":497507,"internal_node_id":"0.0-39.0","task_version":"battery-v0.2-trt"},{"rune":"S","rune_set":"bacs2","hex":"#f73b6a7A","correct":32,"choice":-1,"rt":-1,"accuracy":0,"outcome":"-10","keys":[],"total_keys":0,"block":1,"trial":33,"stimulus":4,"robot":3,"valence":"lose","action":"go","sham":0,"trial_type":"pit-trial","trial_index":74,"time_elapsed":501510,"internal_node_id":"0.0-40.0","task_version":"battery-v0.2-trt"},{"rune":"U","rune_set":"bacs2","hex":"#3366ff99","correct":-1,"choice":32,"rt":904.5049999840558,"accuracy":0,"outcome":"+1","keys":[2405.2450000308454],"total_keys":1,"block":1,"trial":34,"stimulus":3,"robot":2,"valence":"win","action":"no-go","sham":0,"trial_type":"pit-trial","trial_index":75,"time_elapsed":505117,"internal_node_id":"0.0-41.0","task_version":"battery-v0.2-trt"},{"rune":"N","rune_set":"bacs2","hex":"#f73b6a7A","correct":-1,"choice":-1,"rt":-1,"accuracy":1,"outcome":"-1","keys":[],"total_keys":0,"block":1,"trial":35,"stimulus":0,"robot":4,"valence":"lose","action":"no-go","sham":0,"trial_type":"pit-trial","trial_index":76,"time_elapsed":509121,"internal_node_id":"0.0-42.0","task_version":"battery-v0.2-trt"},{"rune":"A","rune_set":"bacs2","hex":"#3366ff99","correct":32,"choice":32,"rt":1129.769999999553,"accuracy":1,"outcome":"+10","keys":[2630.915000103414],"total_keys":1,"block":1,"trial":36,"stimulus":2,"robot":1,"valence":"win","action":"go","sham":0,"trial_type":"pit-trial","trial_index":77,"time_elapsed":512953,"internal_node_id":"0.0-43.0","task_version":"battery-v0.2-trt"},{"rune":"N","rune_set":"bacs2","hex":"#f73b6a7A","correct":-1,"choice":-1,"rt":-1,"accuracy":1,"outcome":"-1","keys":[],"total_keys":0,"block":1,"trial":37,"stimulus":0,"robot":4,"valence":"lose","action":"no-go","sham":0,"trial_type":"pit-trial","trial_index":78,"time_elapsed":516957,"internal_node_id":"0.0-44.0","task_version":"battery-v0.2-trt"},{"rune":"U","rune_set":"bacs2","hex":"#3366ff99","correct":-1,"choice":32,"rt":487.0299999602139,"accuracy":0,"outcome":"+1","keys":[1988.4249999886379],"total_keys":1,"block":1,"trial":38,"stimulus":3,"robot":2,"valence":"win","action":"no-go","sham":0,"trial_type":"pit-trial","trial_index":79,"time_elapsed":520147,"internal_node_id":"0.0-45.0","task_version":"battery-v0.2-trt"},{"rune":"A","rune_set":"bacs2","hex":"#3366ff99","correct":32,"choice":32,"rt":719.8199999984354,"accuracy":1,"outcome":"+10","keys":[2221.1050000041723],"total_keys":1,"block":1,"trial":39,"stimulus":2,"robot":1,"valence":"win","action":"go","sham":0,"trial_type":"pit-trial","trial_index":80,"time_elapsed":523570,"internal_node_id":"0.0-46.0","task_version":"battery-v0.2-trt"},{"rune":"S","rune_set":"bacs2","hex":"#f73b6a7A","correct":32,"choice":-1,"rt":-1,"accuracy":0,"outcome":"-10","keys":[],"total_keys":0,"block":1,"trial":40,"stimulus":4,"robot":3,"valence":"lose","action":"go","sham":0,"trial_type":"pit-trial","trial_index":81,"time_elapsed":527573,"internal_node_id":"0.0-47.0","task_version":"battery-v0.2-trt"},{"rune":"P","rune_set":"bacs2","hex":"#3366ff99","correct":32,"choice":-1,"rt":-1,"accuracy":0,"outcome":"+1","keys":[3337.870000046678],"total_keys":1,"block":1,"trial":41,"stimulus":6,"robot":1,"valence":"win","action":"go","sham":0,"trial_type":"pit-trial","trial_index":82,"time_elapsed":531577,"internal_node_id":"0.0-48.0","task_version":"battery-v0.2-trt"},{"rune":"N","rune_set":"bacs2","hex":"#f73b6a7A","correct":-1,"choice":-1,"rt":-1,"accuracy":1,"outcome":"-1","keys":[2918.3849999681115],"total_keys":1,"block":1,"trial":42,"stimulus":0,"robot":4,"valence":"lose","action":"no-go","sham":0,"trial_type":"pit-trial","trial_index":83,"time_elapsed":535580,"internal_node_id":"0.0-49.0","task_version":"battery-v0.2-trt"},{"rune":"S","rune_set":"bacs2","hex":"#f73b6a7A","correct":32,"choice":-1,"rt":-1,"accuracy":0,"outcome":"-10","keys":[],"total_keys":0,"block":1,"trial":43,"stimulus":4,"robot":3,"valence":"lose","action":"go","sham":0,"trial_type":"pit-trial","trial_index":84,"time_elapsed":539583,"internal_node_id":"0.0-50.0","task_version":"battery-v0.2-trt"},{"rune":"L","rune_set":"bacs2","hex":"#3366ff99","correct":-1,"choice":32,"rt":826.7250000499189,"accuracy":0,"outcome":"+1","keys":[2327.0100000081584],"total_keys":1,"block":1,"trial":44,"stimulus":5,"robot":2,"valence":"win","action":"no-go","sham":0,"trial_type":"pit-trial","trial_index":85,"time_elapsed":543112,"internal_node_id":"0.0-51.0","task_version":"battery-v0.2-trt"},{"rune":"L","rune_set":"bacs2","hex":"#3366ff99","correct":-1,"choice":32,"rt":973.2050000457093,"accuracy":0,"outcome":"+1","keys":[2473.8000000361353],"total_keys":1,"block":1,"trial":45,"stimulus":5,"robot":2,"valence":"win","action":"no-go","sham":0,"trial_type":"pit-trial","trial_index":86,"time_elapsed":546788,"internal_node_id":"0.0-52.0","task_version":"battery-v0.2-trt"},{"rune":"N","rune_set":"bacs2","hex":"#f73b6a7A","correct":-1,"choice":-1,"rt":-1,"accuracy":1,"outcome":"-1","keys":[],"total_keys":0,"block":1,"trial":46,"stimulus":0,"robot":4,"valence":"lose","action":"no-go","sham":0,"trial_type":"pit-trial","trial_index":87,"time_elapsed":550792,"internal_node_id":"0.0-53.0","task_version":"battery-v0.2-trt"},{"rune":"P","rune_set":"bacs2","hex":"#3366ff99","correct":32,"choice":32,"rt":626.410000026226,"accuracy":1,"outcome":"+1","keys":[2126.44999998156],"total_keys":1,"block":1,"trial":47,"stimulus":6,"robot":1,"valence":"win","action":"go","sham":1,"trial_type":"pit-trial","trial_index":88,"time_elapsed":554120,"internal_node_id":"0.0-54.0","task_version":"battery-v0.2-trt"},{"rune":"S","rune_set":"bacs2","hex":"#f73b6a7A","correct":32,"choice":-1,"rt":-1,"accuracy":0,"outcome":"-10","keys":[],"total_keys":0,"block":1,"trial":48,"stimulus":4,"robot":3,"valence":"lose","action":"go","sham":0,"trial_type":"pit-trial","trial_index":89,"time_elapsed":558122,"internal_node_id":"0.0-55.0","task_version":"battery-v0.2-trt"},{"rune":"S","rune_set":"bacs2","hex":"#f73b6a7A","correct":32,"choice":32,"rt":976.3950000051409,"accuracy":1,"outcome":"-10","keys":[2476.6550000058487],"total_keys":1,"block":1,"trial":49,"stimulus":4,"robot":3,"valence":"lose","action":"go","sham":1,"trial_type":"pit-trial","trial_index":90,"time_elapsed":561800,"internal_node_id":"0.0-56.0","task_version":"battery-v0.2-trt"},{"rune":"P","rune_set":"bacs2","hex":"#3366ff99","correct":32,"choice":32,"rt":1240.919999894686,"accuracy":1,"outcome":"+1","keys":[2742.0449999626726],"total_keys":1,"block":1,"trial":50,"stimulus":6,"robot":1,"valence":"win","action":"go","sham":1,"trial_type":"pit-trial","trial_index":91,"time_elapsed":565744,"internal_node_id":"0.0-57.0","task_version":"battery-v0.2-trt"},{"rune":"R","rune_set":"bacs2","hex":"#f73b6a7A","correct":-1,"choice":-1,"rt":-1,"accuracy":1,"outcome":"-1","keys":[],"total_keys":0,"block":1,"trial":51,"stimulus":7,"robot":4,"valence":"lose","action":"no-go","sham":0,"trial_type":"pit-trial","trial_index":92,"time_elapsed":569746,"internal_node_id":"0.0-58.0","task_version":"battery-v0.2-trt"},{"rune":"L","rune_set":"bacs2","hex":"#3366ff99","correct":-1,"choice":32,"rt":650.1200000056997,"accuracy":0,"outcome":"+10","keys":[2151.1150000151247],"total_keys":1,"block":1,"trial":52,"stimulus":5,"robot":2,"valence":"win","action":"no-go","sham":1,"trial_type":"pit-trial","trial_index":93,"time_elapsed":573099,"internal_node_id":"0.0-59.0","task_version":"battery-v0.2-trt"},{"rune":"L","rune_set":"bacs2","hex":"#3366ff99","correct":-1,"choice":32,"rt":572.5649999221787,"accuracy":0,"outcome":"+1","keys":[2073.469999944791],"total_keys":1,"block":1,"trial":53,"stimulus":5,"robot":2,"valence":"win","action":"no-go","sham":0,"trial_type":"pit-trial","trial_index":94,"time_elapsed":576374,"internal_node_id":"0.0-60.0","task_version":"battery-v0.2-trt"},{"rune":"R","rune_set":"bacs2","hex":"#f73b6a7A","correct":-1,"choice":-1,"rt":-1,"accuracy":1,"outcome":"-1","keys":[],"total_keys":0,"block":1,"trial":54,"stimulus":7,"robot":4,"valence":"lose","action":"no-go","sham":0,"trial_type":"pit-trial","trial_index":95,"time_elapsed":580377,"internal_node_id":"0.0-61.0","task_version":"battery-v0.2-trt"},{"rune":"P","rune_set":"bacs2","hex":"#3366ff99","correct":32,"choice":-1,"rt":-1,"accuracy":0,"outcome":"+1","keys":[],"total_keys":0,"block":1,"trial":55,"stimulus":6,"robot":1,"valence":"win","action":"go","sham":0,"trial_type":"pit-trial","trial_index":96,"time_elapsed":584380,"internal_node_id":"0.0-62.0","task_version":"battery-v0.2-trt"},{"rune":"S","rune_set":"bacs2","hex":"#f73b6a7A","correct":32,"choice":-1,"rt":-1,"accuracy":0,"outcome":"-10","keys":[],"total_keys":0,"block":1,"trial":56,"stimulus":4,"robot":3,"valence":"lose","action":"go","sham":0,"trial_type":"pit-trial","trial_index":97,"time_elapsed":588384,"internal_node_id":"0.0-63.0","task_version":"battery-v0.2-trt"},{"rune":"S","rune_set":"bacs2","hex":"#f73b6a7A","correct":32,"choice":32,"rt":800.359999993816,"accuracy":1,"outcome":"-10","keys":[2301.035000011325],"total_keys":1,"block":1,"trial":57,"stimulus":4,"robot":3,"valence":"lose","action":"go","sham":1,"trial_type":"pit-trial","trial_index":98,"time_elapsed":591887,"internal_node_id":"0.0-64.0","task_version":"battery-v0.2-trt"},{"rune":"R","rune_set":"bacs2","hex":"#f73b6a7A","correct":-1,"choice":-1,"rt":-1,"accuracy":1,"outcome":"-1","keys":[],"total_keys":0,"block":1,"trial":58,"stimulus":7,"robot":4,"valence":"lose","action":"no-go","sham":0,"trial_type":"pit-trial","trial_index":99,"time_elapsed":595889,"internal_node_id":"0.0-65.0","task_version":"battery-v0.2-trt"},{"rune":"P","rune_set":"bacs2","hex":"#3366ff99","correct":32,"choice":32,"rt":893.7549999682233,"accuracy":1,"outcome":"+1","keys":[2394.7400000179186],"total_keys":1,"block":1,"trial":59,"stimulus":6,"robot":1,"valence":"win","action":"go","sham":1,"trial_type":"pit-trial","trial_index":100,"time_elapsed":599486,"internal_node_id":"0.0-66.0","task_version":"battery-v0.2-trt"},{"rune":"L","rune_set":"bacs2","hex":"#3366ff99","correct":-1,"choice":32,"rt":617.560000042431,"accuracy":0,"outcome":"+1","keys":[2117.6099999574944],"total_keys":1,"block":1,"trial":60,"stimulus":5,"robot":2,"valence":"win","action":"no-go","sham":0,"trial_type":"pit-trial","trial_index":101,"time_elapsed":602805,"internal_node_id":"0.0-67.0","task_version":"battery-v0.2-trt"},{"rune":"L","rune_set":"bacs2","hex":"#3366ff99","correct":-1,"choice":32,"rt":906.760000041686,"accuracy":0,"outcome":"+1","keys":[2407.0749999955297],"total_keys":1,"block":1,"trial":61,"stimulus":5,"robot":2,"valence":"win","action":"no-go","sham":0,"trial_type":"pit-trial","trial_index":102,"time_elapsed":606413,"internal_node_id":"0.0-68.0","task_version":"battery-v0.2-trt"},{"rune":"P","rune_set":"bacs2","hex":"#3366ff99","correct":32,"choice":-1,"rt":-1,"accuracy":0,"outcome":"+10","keys":[],"total_keys":0,"block":1,"trial":62,"stimulus":6,"robot":1,"valence":"win","action":"go","sham":1,"trial_type":"pit-trial","trial_index":103,"time_elapsed":610416,"internal_node_id":"0.0-69.0","task_version":"battery-v0.2-trt"},{"rune":"R","rune_set":"bacs2","hex":"#f73b6a7A","correct":-1,"choice":-1,"rt":-1,"accuracy":1,"outcome":"-1","keys":[],"total_keys":0,"block":1,"trial":63,"stimulus":7,"robot":4,"valence":"lose","action":"no-go","sham":0,"trial_type":"pit-trial","trial_index":104,"time_elapsed":614418,"internal_node_id":"0.0-70.0","task_version":"battery-v0.2-trt"},{"rune":"S","rune_set":"bacs2","hex":"#f73b6a7A","correct":32,"choice":32,"rt":808.4500000113621,"accuracy":1,"outcome":"-1","keys":[2309.4799999380484],"total_keys":1,"block":1,"trial":64,"stimulus":4,"robot":3,"valence":"lose","action":"go","sham":0,"trial_type":"pit-trial","trial_index":105,"time_elapsed":617930,"internal_node_id":"0.0-71.0","task_version":"battery-v0.2-trt"},{"rune":"R","rune_set":"bacs2","hex":"#f73b6a7A","correct":-1,"choice":-1,"rt":-1,"accuracy":1,"outcome":"-10","keys":[],"total_keys":0,"block":1,"trial":65,"stimulus":7,"robot":4,"valence":"lose","action":"no-go","sham":1,"trial_type":"pit-trial","trial_index":106,"time_elapsed":621932,"internal_node_id":"0.0-72.0","task_version":"battery-v0.2-trt"},{"rune":"P","rune_set":"bacs2","hex":"#3366ff99","correct":32,"choice":-1,"rt":-1,"accuracy":0,"outcome":"+1","keys":[],"total_keys":0,"block":1,"trial":66,"stimulus":6,"robot":1,"valence":"win","action":"go","sham":0,"trial_type":"pit-trial","trial_index":107,"time_elapsed":625936,"internal_node_id":"0.0-73.0","task_version":"battery-v0.2-trt"},{"rune":"S","rune_set":"bacs2","hex":"#f73b6a7A","correct":32,"choice":-1,"rt":-1,"accuracy":0,"outcome":"-10","keys":[],"total_keys":0,"block":1,"trial":67,"stimulus":4,"robot":3,"valence":"lose","action":"go","sham":0,"trial_type":"pit-trial","trial_index":108,"time_elapsed":629939,"internal_node_id":"0.0-74.0","task_version":"battery-v0.2-trt"},{"rune":"L","rune_set":"bacs2","hex":"#3366ff99","correct":-1,"choice":-1,"rt":-1,"accuracy":1,"outcome":"+10","keys":[],"total_keys":0,"block":1,"trial":68,"stimulus":5,"robot":2,"valence":"win","action":"no-go","sham":0,"trial_type":"pit-trial","trial_index":109,"time_elapsed":633941,"internal_node_id":"0.0-75.0","task_version":"battery-v0.2-trt"},{"rune":"P","rune_set":"bacs2","hex":"#3366ff99","correct":32,"choice":-1,"rt":-1,"accuracy":0,"outcome":"+1","keys":[],"total_keys":0,"block":1,"trial":69,"stimulus":6,"robot":1,"valence":"win","action":"go","sham":0,"trial_type":"pit-trial","trial_index":110,"time_elapsed":637944,"internal_node_id":"0.0-76.0","task_version":"battery-v0.2-trt"},{"rune":"L","rune_set":"bacs2","hex":"#3366ff99","correct":-1,"choice":-1,"rt":-1,"accuracy":1,"outcome":"+10","keys":[],"total_keys":0,"block":1,"trial":70,"stimulus":5,"robot":2,"valence":"win","action":"no-go","sham":0,"trial_type":"pit-trial","trial_index":111,"time_elapsed":641947,"internal_node_id":"0.0-77.0","task_version":"battery-v0.2-trt"},{"rune":"R","rune_set":"bacs2","hex":"#f73b6a7A","correct":-1,"choice":-1,"rt":-1,"accuracy":1,"outcome":"-1","keys":[],"total_keys":0,"block":1,"trial":71,"stimulus":7,"robot":4,"valence":"lose","action":"no-go","sham":0,"trial_type":"pit-trial","trial_index":112,"time_elapsed":645950,"internal_node_id":"0.0-78.0","task_version":"battery-v0.2-trt"},{"rune":"S","rune_set":"bacs2","hex":"#f73b6a7A","correct":32,"choice":32,"rt":1182.465000078082,"accuracy":1,"outcome":"-10","keys":[2683.644999982789],"total_keys":1,"block":1,"trial":72,"stimulus":4,"robot":3,"valence":"lose","action":"go","sham":1,"trial_type":"pit-trial","trial_index":113,"time_elapsed":649835,"internal_node_id":"0.0-79.0","task_version":"battery-v0.2-trt"},{"rune":"R","rune_set":"bacs2","hex":"#f73b6a7A","correct":-1,"choice":-1,"rt":-1,"accuracy":1,"outcome":"-1","keys":[],"total_keys":0,"block":1,"trial":73,"stimulus":7,"robot":4,"valence":"lose","action":"no-go","sham":0,"trial_type":"pit-trial","trial_index":114,"time_elapsed":653839,"internal_node_id":"0.0-80.0","task_version":"battery-v0.2-trt"},{"rune":"L","rune_set":"bacs2","hex":"#3366ff99","correct":-1,"choice":32,"rt":657.9400000628084,"accuracy":0,"outcome":"+1","keys":[2158.419999992475],"total_keys":1,"block":1,"trial":74,"stimulus":5,"robot":2,"valence":"win","action":"no-go","sham":0,"trial_type":"pit-trial","trial_index":115,"time_elapsed":657200,"internal_node_id":"0.0-81.0","task_version":"battery-v0.2-trt"},{"rune":"V","rune_set":"bacs2","hex":"#3366ff99","correct":32,"choice":-1,"rt":-1,"accuracy":0,"outcome":"+1","keys":[],"total_keys":0,"block":1,"trial":75,"stimulus":8,"robot":1,"valence":"win","action":"go","sham":0,"trial_type":"pit-trial","trial_index":116,"time_elapsed":661202,"internal_node_id":"0.0-82.0","task_version":"battery-v0.2-trt"},{"rune":"K","rune_set":"bacs2","hex":"#f73b6a7A","correct":32,"choice":-1,"rt":-1,"accuracy":0,"outcome":"-10","keys":[2850.1699999906123],"total_keys":1,"block":1,"trial":76,"stimulus":9,"robot":3,"valence":"lose","action":"go","sham":0,"trial_type":"pit-trial","trial_index":117,"time_elapsed":665204,"internal_node_id":"0.0-83.0","task_version":"battery-v0.2-trt"},{"rune":"L","rune_set":"bacs2","hex":"#3366ff99","correct":-1,"choice":32,"rt":551.2550000566989,"accuracy":0,"outcome":"+1","keys":[2052.9249999672174],"total_keys":1,"block":1,"trial":77,"stimulus":5,"robot":2,"valence":"win","action":"no-go","sham":0,"trial_type":"pit-trial","trial_index":118,"time_elapsed":668459,"internal_node_id":"0.0-84.0","task_version":"battery-v0.2-trt"},{"rune":"R","rune_set":"bacs2","hex":"#f73b6a7A","correct":-1,"choice":32,"rt":965.6799999065697,"accuracy":0,"outcome":"-1","keys":[2465.9849999006838],"total_keys":1,"block":1,"trial":78,"stimulus":7,"robot":4,"valence":"lose","action":"no-go","sham":1,"trial_type":"pit-trial","trial_index":119,"time_elapsed":672127,"internal_node_id":"0.0-85.0","task_version":"battery-v0.2-trt"},{"rune":"K","rune_set":"bacs2","hex":"#f73b6a7A","correct":32,"choice":32,"rt":833.4699999541044,"accuracy":1,"outcome":"-1","keys":[2333.754999912344],"total_keys":1,"block":1,"trial":79,"stimulus":9,"robot":3,"valence":"lose","action":"go","sham":0,"trial_type":"pit-trial","trial_index":120,"time_elapsed":675663,"internal_node_id":"0.0-86.0","task_version":"battery-v0.2-trt"},{"rune":"V","rune_set":"bacs2","hex":"#3366ff99","correct":32,"choice":32,"rt":513.3649999042973,"accuracy":1,"outcome":"+1","keys":[2013.840000028722],"total_keys":1,"block":1,"trial":80,"stimulus":8,"robot":1,"valence":"win","action":"go","sham":1,"trial_type":"pit-trial","trial_index":121,"time_elapsed":678879,"internal_node_id":"0.0-87.0","task_version":"battery-v0.2-trt"},{"rune":"K","rune_set":"bacs2","hex":"#f73b6a7A","correct":32,"choice":32,"rt":491.8600000673905,"accuracy":1,"outcome":"-1","keys":[1993.6450000386685],"total_keys":1,"block":1,"trial":81,"stimulus":9,"robot":3,"valence":"lose","action":"go","sham":0,"trial_type":"pit-trial","trial_index":122,"time_elapsed":682075,"internal_node_id":"0.0-88.0","task_version":"battery-v0.2-trt"},{"rune":"L","rune_set":"bacs2","hex":"#3366ff99","correct":-1,"choice":-1,"rt":-1,"accuracy":1,"outcome":"+10","keys":[],"total_keys":0,"block":1,"trial":82,"stimulus":5,"robot":2,"valence":"win","action":"no-go","sham":0,"trial_type":"pit-trial","trial_index":123,"time_elapsed":686078,"internal_node_id":"0.0-89.0","task_version":"battery-v0.2-trt"},{"rune":"V","rune_set":"bacs2","hex":"#3366ff99","correct":32,"choice":32,"rt":684.0000000083819,"accuracy":1,"outcome":"+10","keys":[2185.23499998264],"total_keys":1,"block":1,"trial":83,"stimulus":8,"robot":1,"valence":"win","action":"go","sham":0,"trial_type":"pit-trial","trial_index":124,"time_elapsed":689465,"internal_node_id":"0.0-90.0","task_version":"battery-v0.2-trt"},{"rune":"R","rune_set":"bacs2","hex":"#f73b6a7A","correct":-1,"choice":-1,"rt":-1,"accuracy":1,"outcome":"-1","keys":[],"total_keys":0,"block":1,"trial":84,"stimulus":7,"robot":4,"valence":"lose","action":"no-go","sham":0,"trial_type":"pit-trial","trial_index":125,"time_elapsed":693467,"internal_node_id":"0.0-91.0","task_version":"battery-v0.2-trt"},{"rune":"V","rune_set":"bacs2","hex":"#3366ff99","correct":32,"choice":32,"rt":483.9549999451265,"accuracy":1,"outcome":"+10","keys":[1984.9949999479577],"total_keys":1,"block":1,"trial":85,"stimulus":8,"robot":1,"valence":"win","action":"go","sham":0,"trial_type":"pit-trial","trial_index":126,"time_elapsed":696654,"internal_node_id":"0.0-92.0","task_version":"battery-v0.2-trt"},{"rune":"R","rune_set":"bacs2","hex":"#f73b6a7A","correct":-1,"choice":-1,"rt":-1,"accuracy":1,"outcome":"-1","keys":[],"total_keys":0,"block":1,"trial":86,"stimulus":7,"robot":4,"valence":"lose","action":"no-go","sham":0,"trial_type":"pit-trial","trial_index":127,"time_elapsed":700657,"internal_node_id":"0.0-93.0","task_version":"battery-v0.2-trt"},{"rune":"L","rune_set":"bacs2","hex":"#3366ff99","correct":-1,"choice":32,"rt":901.6950000077486,"accuracy":0,"outcome":"+1","keys":[2402.750000008382],"total_keys":1,"block":1,"trial":87,"stimulus":5,"robot":2,"valence":"win","action":"no-go","sham":0,"trial_type":"pit-trial","trial_index":128,"time_elapsed":704263,"internal_node_id":"0.0-94.0","task_version":"battery-v0.2-trt"},{"rune":"K","rune_set":"bacs2","hex":"#f73b6a7A","correct":32,"choice":-1,"rt":-1,"accuracy":0,"outcome":"-10","keys":[2857.4749999679625],"total_keys":1,"block":1,"trial":88,"stimulus":9,"robot":3,"valence":"lose","action":"go","sham":0,"trial_type":"pit-trial","trial_index":129,"time_elapsed":708266,"internal_node_id":"0.0-95.0","task_version":"battery-v0.2-trt"},{"rune":"K","rune_set":"bacs2","hex":"#f73b6a7A","correct":32,"choice":-1,"rt":-1,"accuracy":0,"outcome":"-10","keys":[],"total_keys":0,"block":1,"trial":89,"stimulus":9,"robot":3,"valence":"lose","action":"go","sham":0,"trial_type":"pit-trial","trial_index":130,"time_elapsed":712270,"internal_node_id":"0.0-96.0","task_version":"battery-v0.2-trt"},{"rune":"V","rune_set":"bacs2","hex":"#3366ff99","correct":32,"choice":32,"rt":468.95499993115664,"accuracy":1,"outcome":"+10","keys":[1969.619999988936],"total_keys":1,"block":1,"trial":90,"stimulus":8,"robot":1,"valence":"win","action":"go","sham":0,"trial_type":"pit-trial","trial_index":131,"time_elapsed":715442,"internal_node_id":"0.0-97.0","task_version":"battery-v0.2-trt"},{"rune":"M","rune_set":"bacs2","hex":"#3366ff99","correct":-1,"choice":-1,"rt":-1,"accuracy":1,"outcome":"+10","keys":[],"total_keys":0,"block":1,"trial":91,"stimulus":11,"robot":2,"valence":"win","action":"no-go","sham":0,"trial_type":"pit-trial","trial_index":132,"time_elapsed":719444,"internal_node_id":"0.0-98.0","task_version":"battery-v0.2-trt"},{"rune":"B","rune_set":"bacs2","hex":"#f73b6a7A","correct":32,"choice":-1,"rt":-1,"accuracy":0,"outcome":"-10","keys":[],"total_keys":0,"block":1,"trial":92,"stimulus":10,"robot":3,"valence":"lose","action":"go","sham":0,"trial_type":"pit-trial","trial_index":133,"time_elapsed":723447,"internal_node_id":"0.0-99.0","task_version":"battery-v0.2-trt"},{"rune":"K","rune_set":"bacs2","hex":"#f73b6a7A","correct":32,"choice":32,"rt":727.1600000094622,"accuracy":1,"outcome":"-1","keys":[2227.8550000628456],"total_keys":1,"block":1,"trial":93,"stimulus":9,"robot":3,"valence":"lose","action":"go","sham":0,"trial_type":"pit-trial","trial_index":134,"time_elapsed":726876,"internal_node_id":"0.0-100.0","task_version":"battery-v0.2-trt"},{"rune":"M","rune_set":"bacs2","hex":"#3366ff99","correct":-1,"choice":-1,"rt":-1,"accuracy":1,"outcome":"+10","keys":[2907.3150000767782],"total_keys":1,"block":1,"trial":94,"stimulus":11,"robot":2,"valence":"win","action":"no-go","sham":0,"trial_type":"pit-trial","trial_index":135,"time_elapsed":730879,"internal_node_id":"0.0-101.0","task_version":"battery-v0.2-trt"},{"rune":"B","rune_set":"bacs2","hex":"#f73b6a7A","correct":32,"choice":32,"rt":974.5949999196455,"accuracy":1,"outcome":"-1","keys":[2475.5850000074133],"total_keys":1,"block":1,"trial":95,"stimulus":10,"robot":3,"valence":"lose","action":"go","sham":0,"trial_type":"pit-trial","trial_index":136,"time_elapsed":734557,"internal_node_id":"0.0-102.0","task_version":"battery-v0.2-trt"},{"rune":"V","rune_set":"bacs2","hex":"#3366ff99","correct":32,"choice":32,"rt":603.9749999763444,"accuracy":1,"outcome":"+10","keys":[2105.3450000472367],"total_keys":1,"block":1,"trial":96,"stimulus":8,"robot":1,"valence":"win","action":"go","sham":0,"trial_type":"pit-trial","trial_index":137,"time_elapsed":737864,"internal_node_id":"0.0-103.0","task_version":"battery-v0.2-trt"},{"rune":"K","rune_set":"bacs2","hex":"#f73b6a7A","correct":32,"choice":32,"rt":1197.2999999998137,"accuracy":1,"outcome":"-1","keys":[2697.9600000195205],"total_keys":1,"block":1,"trial":97,"stimulus":9,"robot":3,"valence":"lose","action":"go","sham":0,"trial_type":"pit-trial","trial_index":138,"time_elapsed":741765,"internal_node_id":"0.0-104.0","task_version":"battery-v0.2-trt"},{"rune":"M","rune_set":"bacs2","hex":"#3366ff99","correct":-1,"choice":32,"rt":909.8649999359623,"accuracy":0,"outcome":"+10","keys":[2409.9350000033155],"total_keys":1,"block":1,"trial":98,"stimulus":11,"robot":2,"valence":"win","action":"no-go","sham":1,"trial_type":"pit-trial","trial_index":139,"time_elapsed":745377,"internal_node_id":"0.0-105.0","task_version":"battery-v0.2-trt"},{"rune":"B","rune_set":"bacs2","hex":"#f73b6a7A","correct":32,"choice":32,"rt":736.2300000386313,"accuracy":1,"outcome":"-1","keys":[2237.3249999945983],"total_keys":1,"block":1,"trial":99,"stimulus":10,"robot":3,"valence":"lose","action":"go","sham":0,"trial_type":"pit-trial","trial_index":140,"time_elapsed":748816,"internal_node_id":"0.0-106.0","task_version":"battery-v0.2-trt"},{"rune":"V","rune_set":"bacs2","hex":"#3366ff99","correct":32,"choice":32,"rt":337.3100000899285,"accuracy":1,"outcome":"+10","keys":[1837.8849999280646],"total_keys":1,"block":1,"trial":100,"stimulus":8,"robot":1,"valence":"win","action":"go","sham":0,"trial_type":"pit-trial","trial_index":141,"time_elapsed":751856,"internal_node_id":"0.0-107.0","task_version":"battery-v0.2-trt"},{"rune":"B","rune_set":"bacs2","hex":"#f73b6a7A","correct":32,"choice":32,"rt":876.9450000254437,"accuracy":1,"outcome":"-1","keys":[2377.364999963902],"total_keys":1,"block":1,"trial":101,"stimulus":10,"robot":3,"valence":"lose","action":"go","sham":0,"trial_type":"pit-trial","trial_index":142,"time_elapsed":755436,"internal_node_id":"0.0-108.0","task_version":"battery-v0.2-trt"},{"rune":"K","rune_set":"bacs2","hex":"#f73b6a7A","correct":32,"choice":32,"rt":524.2299999808893,"accuracy":1,"outcome":"-1","keys":[2025.7799999089912],"total_keys":1,"block":1,"trial":102,"stimulus":9,"robot":3,"valence":"lose","action":"go","sham":0,"trial_type":"pit-trial","trial_index":143,"time_elapsed":758664,"internal_node_id":"0.0-109.0","task_version":"battery-v0.2-trt"},{"rune":"V","rune_set":"bacs2","hex":"#3366ff99","correct":32,"choice":32,"rt":779.9450000748038,"accuracy":1,"outcome":"+1","keys":[2280.4350000806153],"total_keys":1,"block":1,"trial":103,"stimulus":8,"robot":1,"valence":"win","action":"go","sham":1,"trial_type":"pit-trial","trial_index":144,"time_elapsed":762146,"internal_node_id":"0.0-110.0","task_version":"battery-v0.2-trt"},{"rune":"M","rune_set":"bacs2","hex":"#3366ff99","correct":-1,"choice":32,"rt":669.0500000258908,"accuracy":0,"outcome":"+1","keys":[2170.585000072606],"total_keys":1,"block":1,"trial":104,"stimulus":11,"robot":2,"valence":"win","action":"no-go","sham":0,"trial_type":"pit-trial","trial_index":145,"time_elapsed":765519,"internal_node_id":"0.0-111.0","task_version":"battery-v0.2-trt"},{"rune":"K","rune_set":"bacs2","hex":"#f73b6a7A","correct":32,"choice":32,"rt":1045.70000001695,"accuracy":1,"outcome":"-1","keys":[2546.4800000190735],"total_keys":1,"block":1,"trial":105,"stimulus":9,"robot":3,"valence":"lose","action":"go","sham":0,"trial_type":"pit-trial","trial_index":146,"time_elapsed":769267,"internal_node_id":"0.0-112.0","task_version":"battery-v0.2-trt"},{"rune":"B","rune_set":"bacs2","hex":"#f73b6a7A","correct":32,"choice":32,"rt":989.2150000669062,"accuracy":1,"outcome":"-1","keys":[2489.4949999870732],"total_keys":1,"block":1,"trial":106,"stimulus":10,"robot":3,"valence":"lose","action":"go","sham":0,"trial_type":"pit-trial","trial_index":147,"time_elapsed":772959,"internal_node_id":"0.0-113.0","task_version":"battery-v0.2-trt"},{"rune":"M","rune_set":"bacs2","hex":"#3366ff99","correct":-1,"choice":32,"rt":729.2349999770522,"accuracy":0,"outcome":"+1","keys":[2229.5950000407174],"total_keys":1,"block":1,"trial":107,"stimulus":11,"robot":2,"valence":"win","action":"no-go","sham":0,"trial_type":"pit-trial","trial_index":148,"time_elapsed":776390,"internal_node_id":"0.0-114.0","task_version":"battery-v0.2-trt"},{"rune":"V","rune_set":"bacs2","hex":"#3366ff99","correct":32,"choice":-1,"rt":-1,"accuracy":0,"outcome":"+1","keys":[],"total_keys":0,"block":1,"trial":108,"stimulus":8,"robot":1,"valence":"win","action":"go","sham":0,"trial_type":"pit-trial","trial_index":149,"time_elapsed":780394,"internal_node_id":"0.0-115.0","task_version":"battery-v0.2-trt"},{"rune":"K","rune_set":"bacs2","hex":"#f73b6a7A","correct":32,"choice":32,"rt":760.9800000209361,"accuracy":1,"outcome":"-1","keys":[2262.9650000017136],"total_keys":1,"block":1,"trial":109,"stimulus":9,"robot":3,"valence":"lose","action":"go","sham":0,"trial_type":"pit-trial","trial_index":150,"time_elapsed":783858,"internal_node_id":"0.0-116.0","task_version":"battery-v0.2-trt"},{"rune":"M","rune_set":"bacs2","hex":"#3366ff99","correct":-1,"choice":-1,"rt":-1,"accuracy":1,"outcome":"+1","keys":[2873.47500002943],"total_keys":1,"block":1,"trial":110,"stimulus":11,"robot":2,"valence":"win","action":"no-go","sham":1,"trial_type":"pit-trial","trial_index":151,"time_elapsed":787860,"internal_node_id":"0.0-117.0","task_version":"battery-v0.2-trt"},{"rune":"B","rune_set":"bacs2","hex":"#f73b6a7A","correct":32,"choice":-1,"rt":-1,"accuracy":0,"outcome":"-10","keys":[],"total_keys":0,"block":1,"trial":111,"stimulus":10,"robot":3,"valence":"lose","action":"go","sham":0,"trial_type":"pit-trial","trial_index":152,"time_elapsed":791863,"internal_node_id":"0.0-118.0","task_version":"battery-v0.2-trt"},{"rune":"V","rune_set":"bacs2","hex":"#3366ff99","correct":32,"choice":32,"rt":662.2400000924245,"accuracy":1,"outcome":"+10","keys":[2163.520000060089],"total_keys":1,"block":1,"trial":112,"stimulus":8,"robot":1,"valence":"win","action":"go","sham":0,"trial_type":"pit-trial","trial_index":153,"time_elapsed":795228,"internal_node_id":"0.0-119.0","task_version":"battery-v0.2-trt"},{"rune":"V","rune_set":"bacs2","hex":"#3366ff99","correct":32,"choice":32,"rt":610.9550000401214,"accuracy":1,"outcome":"+10","keys":[2111.6750000510365],"total_keys":1,"block":1,"trial":113,"stimulus":8,"robot":1,"valence":"win","action":"go","sham":0,"trial_type":"pit-trial","trial_index":154,"time_elapsed":798542,"internal_node_id":"0.0-120.0","task_version":"battery-v0.2-trt"},{"rune":"M","rune_set":"bacs2","hex":"#3366ff99","correct":-1,"choice":-1,"rt":-1,"accuracy":1,"outcome":"+10","keys":[],"total_keys":0,"block":1,"trial":114,"stimulus":11,"robot":2,"valence":"win","action":"no-go","sham":0,"trial_type":"pit-trial","trial_index":155,"time_elapsed":802545,"internal_node_id":"0.0-121.0","task_version":"battery-v0.2-trt"},{"rune":"B","rune_set":"bacs2","hex":"#f73b6a7A","correct":32,"choice":-1,"rt":-1,"accuracy":0,"outcome":"-10","keys":[2809.374999953434],"total_keys":1,"block":1,"trial":115,"stimulus":10,"robot":3,"valence":"lose","action":"go","sham":0,"trial_type":"pit-trial","trial_index":156,"time_elapsed":806548,"internal_node_id":"0.0-122.0","task_version":"battery-v0.2-trt"},{"rune":"K","rune_set":"bacs2","hex":"#f73b6a7A","correct":32,"choice":-1,"rt":-1,"accuracy":0,"outcome":"-10","keys":[],"total_keys":0,"block":1,"trial":116,"stimulus":9,"robot":3,"valence":"lose","action":"go","sham":0,"trial_type":"pit-trial","trial_index":157,"time_elapsed":810551,"internal_node_id":"0.0-123.0","task_version":"battery-v0.2-trt"},{"rune":"K","rune_set":"bacs2","hex":"#f73b6a7A","correct":32,"choice":32,"rt":483.7550000520423,"accuracy":1,"outcome":"-1","keys":[1984.0299999341369],"total_keys":1,"block":1,"trial":117,"stimulus":9,"robot":3,"valence":"lose","action":"go","sham":0,"trial_type":"pit-trial","trial_index":158,"time_elapsed":813738,"internal_node_id":"0.0-124.0","task_version":"battery-v0.2-trt"},{"rune":"V","rune_set":"bacs2","hex":"#3366ff99","correct":32,"choice":-1,"rt":-1,"accuracy":0,"outcome":"+1","keys":[],"total_keys":0,"block":1,"trial":118,"stimulus":8,"robot":1,"valence":"win","action":"go","sham":0,"trial_type":"pit-trial","trial_index":159,"time_elapsed":817741,"internal_node_id":"0.0-125.0","task_version":"battery-v0.2-trt"},{"rune":"M","rune_set":"bacs2","hex":"#3366ff99","correct":-1,"choice":-1,"rt":-1,"accuracy":1,"outcome":"+10","keys":[],"total_keys":0,"block":1,"trial":119,"stimulus":11,"robot":2,"valence":"win","action":"no-go","sham":0,"trial_type":"pit-trial","trial_index":160,"time_elapsed":821744,"internal_node_id":"0.0-126.0","task_version":"battery-v0.2-trt"},{"rune":"B","rune_set":"bacs2","hex":"#f73b6a7A","correct":32,"choice":32,"rt":760.4249999858439,"accuracy":1,"outcome":"-1","keys":[2261.805000016466],"total_keys":1,"block":1,"trial":120,"stimulus":10,"robot":3,"valence":"lose","action":"go","sham":0,"trial_type":"pit-trial","trial_index":161,"time_elapsed":825209,"internal_node_id":"0.0-127.0","task_version":"battery-v0.2-trt"},{"view_history":"[{\"page_index\":0,\"viewing_time\":19128.060000017285},{\"page_index\":1,\"viewing_time\":1991.2699999986216}]","rt":21119.754999992438,"trial_type":"pit-instructions","trial_index":162,"time_elapsed":846329,"internal_node_id":"0.0-128.0","task_version":"battery-v0.2-trt"},{"rune":"H","rune_set":"bacs2","hex":"#3366ff99","correct":32,"choice":32,"rt":972.8350000223145,"accuracy":1,"outcome":"+10","keys":[2474.584999959916],"total_keys":1,"block":2,"trial":121,"stimulus":3,"robot":1,"valence":"win","action":"go","sham":0,"trial_type":"pit-trial","trial_index":163,"time_elapsed":850008,"internal_node_id":"0.0-129.0","task_version":"battery-v0.2-trt"},{"rune":"T","rune_set":"bacs2","hex":"#3366ff99","correct":32,"choice":-1,"rt":-1,"accuracy":0,"outcome":"+10","keys":[2945.615000091493],"total_keys":1,"block":2,"trial":122,"stimulus":1,"robot":1,"valence":"win","action":"go","sham":1,"trial_type":"pit-trial","trial_index":164,"time_elapsed":854011,"internal_node_id":"0.0-130.0","task_version":"battery-v0.2-trt"},{"rune":"Q","rune_set":"bacs2","hex":"#f73b6a7A","correct":-1,"choice":32,"rt":881.8999999202788,"accuracy":0,"outcome":"-10","keys":[2382.3799999663606],"total_keys":1,"block":2,"trial":123,"stimulus":2,"robot":4,"valence":"lose","action":"no-go","sham":0,"trial_type":"pit-trial","trial_index":165,"time_elapsed":857596,"internal_node_id":"0.0-131.0","task_version":"battery-v0.2-trt"},{"rune":"Y","rune_set":"bacs2","hex":"#3366ff99","correct":-1,"choice":32,"rt":868.2799999369308,"accuracy":0,"outcome":"+1","keys":[2369.565000059083],"total_keys":1,"block":2,"trial":124,"stimulus":0,"robot":2,"valence":"win","action":"no-go","sham":0,"trial_type":"pit-trial","trial_index":166,"time_elapsed":861166,"internal_node_id":"0.0-132.0","task_version":"battery-v0.2-trt"},{"rune":"T","rune_set":"bacs2","hex":"#3366ff99","correct":32,"choice":-1,"rt":-1,"accuracy":0,"outcome":"+1","keys":[],"total_keys":0,"block":2,"trial":125,"stimulus":1,"robot":1,"valence":"win","action":"go","sham":0,"trial_type":"pit-trial","trial_index":167,"time_elapsed":865168,"internal_node_id":"0.0-133.0","task_version":"battery-v0.2-trt"},{"rune":"H","rune_set":"bacs2","hex":"#3366ff99","correct":32,"choice":32,"rt":1196.875000023283,"accuracy":1,"outcome":"+1","keys":[2697.1000001067296],"total_keys":1,"block":2,"trial":126,"stimulus":3,"robot":1,"valence":"win","action":"go","sham":1,"trial_type":"pit-trial","trial_index":168,"time_elapsed":869068,"internal_node_id":"0.0-134.0","task_version":"battery-v0.2-trt"},{"rune":"Q","rune_set":"bacs2","hex":"#f73b6a7A","correct":-1,"choice":32,"rt":608.4000000264496,"accuracy":0,"outcome":"-10","keys":[2110.1699999999255],"total_keys":1,"block":2,"trial":127,"stimulus":2,"robot":4,"valence":"lose","action":"no-go","sham":0,"trial_type":"pit-trial","trial_index":169,"time_elapsed":872379,"internal_node_id":"0.0-135.0","task_version":"battery-v0.2-trt"},{"rune":"Y","rune_set":"bacs2","hex":"#3366ff99","correct":-1,"choice":32,"rt":625.2099999692291,"accuracy":0,"outcome":"+10","keys":[2126.315000001341],"total_keys":1,"block":2,"trial":128,"stimulus":0,"robot":2,"valence":"win","action":"no-go","sham":1,"trial_type":"pit-trial","trial_index":170,"time_elapsed":875707,"internal_node_id":"0.0-136.0","task_version":"battery-v0.2-trt"},{"rune":"Q","rune_set":"bacs2","hex":"#f73b6a7A","correct":-1,"choice":-1,"rt":-1,"accuracy":1,"outcome":"-1","keys":[],"total_keys":0,"block":2,"trial":129,"stimulus":2,"robot":4,"valence":"lose","action":"no-go","sham":0,"trial_type":"pit-trial","trial_index":171,"time_elapsed":879709,"internal_node_id":"0.0-137.0","task_version":"battery-v0.2-trt"},{"rune":"Y","rune_set":"bacs2","hex":"#3366ff99","correct":-1,"choice":32,"rt":658.3400000818074,"accuracy":0,"outcome":"+1","keys":[2158.5549999726936],"total_keys":1,"block":2,"trial":130,"stimulus":0,"robot":2,"valence":"win","action":"no-go","sham":0,"trial_type":"pit-trial","trial_index":172,"time_elapsed":883070,"internal_node_id":"0.0-138.0","task_version":"battery-v0.2-trt"},{"rune":"H","rune_set":"bacs2","hex":"#3366ff99","correct":32,"choice":-1,"rt":-1,"accuracy":0,"outcome":"+1","keys":[],"total_keys":0,"block":2,"trial":131,"stimulus":3,"robot":1,"valence":"win","action":"go","sham":0,"trial_type":"pit-trial","trial_index":173,"time_elapsed":887073,"internal_node_id":"0.0-139.0","task_version":"battery-v0.2-trt"},{"rune":"T","rune_set":"bacs2","hex":"#3366ff99","correct":32,"choice":-1,"rt":-1,"accuracy":0,"outcome":"+10","keys":[],"total_keys":0,"block":2,"trial":132,"stimulus":1,"robot":1,"valence":"win","action":"go","sham":1,"trial_type":"pit-trial","trial_index":174,"time_elapsed":891075,"internal_node_id":"0.0-140.0","task_version":"battery-v0.2-trt"},{"rune":"Y","rune_set":"bacs2","hex":"#3366ff99","correct":-1,"choice":-1,"rt":-1,"accuracy":1,"outcome":"+1","keys":[3796.8849999597296],"total_keys":1,"block":2,"trial":133,"stimulus":0,"robot":2,"valence":"win","action":"no-go","sham":1,"trial_type":"pit-trial","trial_index":175,"time_elapsed":895078,"internal_node_id":"0.0-141.0","task_version":"battery-v0.2-trt"},{"rune":"H","rune_set":"bacs2","hex":"#3366ff99","correct":32,"choice":32,"rt":758.1099999370053,"accuracy":1,"outcome":"+10","keys":[2258.3749999757856],"total_keys":1,"block":2,"trial":134,"stimulus":3,"robot":1,"valence":"win","action":"go","sham":0,"trial_type":"pit-trial","trial_index":176,"time_elapsed":898539,"internal_node_id":"0.0-142.0","task_version":"battery-v0.2-trt"},{"rune":"T","rune_set":"bacs2","hex":"#3366ff99","correct":32,"choice":-1,"rt":-1,"accuracy":0,"outcome":"+1","keys":[],"total_keys":0,"block":2,"trial":135,"stimulus":1,"robot":1,"valence":"win","action":"go","sham":0,"trial_type":"pit-trial","trial_index":177,"time_elapsed":902541,"internal_node_id":"0.0-143.0","task_version":"battery-v0.2-trt"},{"rune":"Q","rune_set":"bacs2","hex":"#f73b6a7A","correct":-1,"choice":-1,"rt":-1,"accuracy":1,"outcome":"-1","keys":[],"total_keys":0,"block":2,"trial":136,"stimulus":2,"robot":4,"valence":"lose","action":"no-go","sham":0,"trial_type":"pit-trial","trial_index":178,"time_elapsed":906545,"internal_node_id":"0.0-144.0","task_version":"battery-v0.2-trt"},{"rune":"Y","rune_set":"bacs2","hex":"#3366ff99","correct":-1,"choice":32,"rt":684.4949999358505,"accuracy":0,"outcome":"+1","keys":[2185.78499997966],"total_keys":1,"block":2,"trial":137,"stimulus":0,"robot":2,"valence":"win","action":"no-go","sham":0,"trial_type":"pit-trial","trial_index":179,"time_elapsed":909933,"internal_node_id":"0.0-145.0","task_version":"battery-v0.2-trt"},{"rune":"H","rune_set":"bacs2","hex":"#3366ff99","correct":32,"choice":32,"rt":708.5250000236556,"accuracy":1,"outcome":"+10","keys":[2209.900000016205],"total_keys":1,"block":2,"trial":138,"stimulus":3,"robot":1,"valence":"win","action":"go","sham":0,"trial_type":"pit-trial","trial_index":180,"time_elapsed":913345,"internal_node_id":"0.0-146.0","task_version":"battery-v0.2-trt"},{"rune":"T","rune_set":"bacs2","hex":"#3366ff99","correct":32,"choice":-1,"rt":-1,"accuracy":0,"outcome":"+10","keys":[],"total_keys":0,"block":2,"trial":139,"stimulus":1,"robot":1,"valence":"win","action":"go","sham":1,"trial_type":"pit-trial","trial_index":181,"time_elapsed":917348,"internal_node_id":"0.0-147.0","task_version":"battery-v0.2-trt"},{"rune":"Q","rune_set":"bacs2","hex":"#f73b6a7A","correct":-1,"choice":-1,"rt":-1,"accuracy":1,"outcome":"-1","keys":[],"total_keys":0,"block":2,"trial":140,"stimulus":2,"robot":4,"valence":"lose","action":"no-go","sham":0,"trial_type":"pit-trial","trial_index":182,"time_elapsed":921351,"internal_node_id":"0.0-148.0","task_version":"battery-v0.2-trt"},{"rune":"Y","rune_set":"bacs2","hex":"#3366ff99","correct":-1,"choice":32,"rt":688.0850000306964,"accuracy":0,"outcome":"+10","keys":[2188.7500000884756],"total_keys":1,"block":2,"trial":141,"stimulus":0,"robot":2,"valence":"win","action":"no-go","sham":1,"trial_type":"pit-trial","trial_index":183,"time_elapsed":924742,"internal_node_id":"0.0-149.0","task_version":"battery-v0.2-trt"},{"rune":"Q","rune_set":"bacs2","hex":"#f73b6a7A","correct":-1,"choice":-1,"rt":-1,"accuracy":1,"outcome":"-1","keys":[],"total_keys":0,"block":2,"trial":142,"stimulus":2,"robot":4,"valence":"lose","action":"no-go","sham":0,"trial_type":"pit-trial","trial_index":184,"time_elapsed":928746,"internal_node_id":"0.0-150.0","task_version":"battery-v0.2-trt"},{"rune":"H","rune_set":"bacs2","hex":"#3366ff99","correct":32,"choice":32,"rt":368.40499995741993,"accuracy":1,"outcome":"+1","keys":[1868.86000004597],"total_keys":1,"block":2,"trial":143,"stimulus":3,"robot":1,"valence":"win","action":"go","sham":1,"trial_type":"pit-trial","trial_index":185,"time_elapsed":931817,"internal_node_id":"0.0-151.0","task_version":"battery-v0.2-trt"},{"rune":"T","rune_set":"bacs2","hex":"#3366ff99","correct":32,"choice":32,"rt":606.7800000309944,"accuracy":1,"outcome":"+10","keys":[2108.239999972284],"total_keys":1,"block":2,"trial":144,"stimulus":1,"robot":1,"valence":"win","action":"go","sham":0,"trial_type":"pit-trial","trial_index":186,"time_elapsed":935127,"internal_node_id":"0.0-152.0","task_version":"battery-v0.2-trt"},{"rune":"Y","rune_set":"bacs2","hex":"#3366ff99","correct":-1,"choice":32,"rt":967.6350000081584,"accuracy":0,"outcome":"+1","keys":[2467.9650000762194],"total_keys":1,"block":2,"trial":145,"stimulus":0,"robot":2,"valence":"win","action":"no-go","sham":0,"trial_type":"pit-trial","trial_index":187,"time_elapsed":938796,"internal_node_id":"0.0-153.0","task_version":"battery-v0.2-trt"},{"rune":"T","rune_set":"bacs2","hex":"#3366ff99","correct":32,"choice":-1,"rt":-1,"accuracy":0,"outcome":"+10","keys":[],"total_keys":0,"block":2,"trial":146,"stimulus":1,"robot":1,"valence":"win","action":"go","sham":1,"trial_type":"pit-trial","trial_index":188,"time_elapsed":942799,"internal_node_id":"0.0-154.0","task_version":"battery-v0.2-trt"},{"rune":"H","rune_set":"bacs2","hex":"#3366ff99","correct":32,"choice":-1,"rt":-1,"accuracy":0,"outcome":"+1","keys":[3750.510000041686],"total_keys":1,"block":2,"trial":147,"stimulus":3,"robot":1,"valence":"win","action":"go","sham":0,"trial_type":"pit-trial","trial_index":189,"time_elapsed":946801,"internal_node_id":"0.0-155.0","task_version":"battery-v0.2-trt"},{"rune":"Q","rune_set":"bacs2","hex":"#f73b6a7A","correct":-1,"choice":-1,"rt":-1,"accuracy":1,"outcome":"-10","keys":[],"total_keys":0,"block":2,"trial":148,"stimulus":2,"robot":4,"valence":"lose","action":"no-go","sham":1,"trial_type":"pit-trial","trial_index":190,"time_elapsed":950804,"internal_node_id":"0.0-156.0","task_version":"battery-v0.2-trt"},{"rune":"T","rune_set":"bacs2","hex":"#3366ff99","correct":32,"choice":32,"rt":117.19000001903623,"accuracy":1,"outcome":"+10","keys":[1617.3699999926612],"total_keys":1,"block":2,"trial":149,"stimulus":1,"robot":1,"valence":"win","action":"go","sham":0,"trial_type":"pit-trial","trial_index":191,"time_elapsed":953624,"internal_node_id":"0.0-157.0","task_version":"battery-v0.2-trt"},{"rune":"Q","rune_set":"bacs2","hex":"#f73b6a7A","correct":-1,"choice":-1,"rt":-1,"accuracy":1,"outcome":"-1","keys":[],"total_keys":0,"block":2,"trial":150,"stimulus":2,"robot":4,"valence":"lose","action":"no-go","sham":0,"trial_type":"pit-trial","trial_index":192,"time_elapsed":957628,"internal_node_id":"0.0-158.0","task_version":"battery-v0.2-trt"},{"rune":"H","rune_set":"bacs2","hex":"#3366ff99","correct":32,"choice":-1,"rt":-1,"accuracy":0,"outcome":"+1","keys":[],"total_keys":0,"block":2,"trial":151,"stimulus":3,"robot":1,"valence":"win","action":"go","sham":0,"trial_type":"pit-trial","trial_index":193,"time_elapsed":961631,"internal_node_id":"0.0-159.0","task_version":"battery-v0.2-trt"},{"rune":"Y","rune_set":"bacs2","hex":"#3366ff99","correct":-1,"choice":32,"rt":993.1850000284612,"accuracy":0,"outcome":"+10","keys":[2493.910000077449],"total_keys":1,"block":2,"trial":152,"stimulus":0,"robot":2,"valence":"win","action":"no-go","sham":1,"trial_type":"pit-trial","trial_index":194,"time_elapsed":965328,"internal_node_id":"0.0-160.0","task_version":"battery-v0.2-trt"},{"rune":"Q","rune_set":"bacs2","hex":"#f73b6a7A","correct":-1,"choice":-1,"rt":-1,"accuracy":1,"outcome":"-1","keys":[],"total_keys":0,"block":2,"trial":153,"stimulus":2,"robot":4,"valence":"lose","action":"no-go","sham":0,"trial_type":"pit-trial","trial_index":195,"time_elapsed":969329,"internal_node_id":"0.0-161.0","task_version":"battery-v0.2-trt"},{"rune":"Y","rune_set":"bacs2","hex":"#3366ff99","correct":-1,"choice":-1,"rt":-1,"accuracy":1,"outcome":"+1","keys":[],"total_keys":0,"block":2,"trial":154,"stimulus":0,"robot":2,"valence":"win","action":"no-go","sham":1,"trial_type":"pit-trial","trial_index":196,"time_elapsed":973333,"internal_node_id":"0.0-162.0","task_version":"battery-v0.2-trt"},{"rune":"H","rune_set":"bacs2","hex":"#3366ff99","correct":32,"choice":32,"rt":989.7600000258535,"accuracy":1,"outcome":"+10","keys":[2491.455000010319],"total_keys":1,"block":2,"trial":155,"stimulus":3,"robot":1,"valence":"win","action":"go","sham":0,"trial_type":"pit-trial","trial_index":197,"time_elapsed":977026,"internal_node_id":"0.0-163.0","task_version":"battery-v0.2-trt"},{"rune":"E","rune_set":"bacs2","hex":"#3366ff99","correct":32,"choice":32,"rt":954.6850000042468,"accuracy":1,"outcome":"+1","keys":[2455.170000088401],"total_keys":1,"block":2,"trial":156,"stimulus":4,"robot":1,"valence":"win","action":"go","sham":1,"trial_type":"pit-trial","trial_index":198,"time_elapsed":980683,"internal_node_id":"0.0-164.0","task_version":"battery-v0.2-trt"},{"rune":"E","rune_set":"bacs2","hex":"#3366ff99","correct":32,"choice":32,"rt":923.8149999873713,"accuracy":1,"outcome":"+10","keys":[2425.1550000626594],"total_keys":1,"block":2,"trial":157,"stimulus":4,"robot":1,"valence":"win","action":"go","sham":0,"trial_type":"pit-trial","trial_index":199,"time_elapsed":984310,"internal_node_id":"0.0-165.0","task_version":"battery-v0.2-trt"},{"rune":"Q","rune_set":"bacs2","hex":"#f73b6a7A","correct":-1,"choice":-1,"rt":-1,"accuracy":1,"outcome":"-1","keys":[],"total_keys":0,"block":2,"trial":158,"stimulus":2,"robot":4,"valence":"lose","action":"no-go","sham":0,"trial_type":"pit-trial","trial_index":200,"time_elapsed":988313,"internal_node_id":"0.0-166.0","task_version":"battery-v0.2-trt"},{"rune":"H","rune_set":"bacs2","hex":"#3366ff99","correct":32,"choice":32,"rt":665.9300000173971,"accuracy":1,"outcome":"+10","keys":[2166.399999987334],"total_keys":1,"block":2,"trial":159,"stimulus":3,"robot":1,"valence":"win","action":"go","sham":0,"trial_type":"pit-trial","trial_index":201,"time_elapsed":991681,"internal_node_id":"0.0-167.0","task_version":"battery-v0.2-trt"},{"rune":"Y","rune_set":"bacs2","hex":"#3366ff99","correct":-1,"choice":-1,"rt":-1,"accuracy":1,"outcome":"+1","keys":[3338.194999960251],"total_keys":1,"block":2,"trial":160,"stimulus":0,"robot":2,"valence":"win","action":"no-go","sham":1,"trial_type":"pit-trial","trial_index":202,"time_elapsed":995684,"internal_node_id":"0.0-168.0","task_version":"battery-v0.2-trt"},{"rune":"O","rune_set":"bacs2","hex":"#f73b6a7A","correct":-1,"choice":-1,"rt":-1,"accuracy":1,"outcome":"-1","keys":[2975.674999994226],"total_keys":1,"block":2,"trial":161,"stimulus":6,"robot":4,"valence":"lose","action":"no-go","sham":0,"trial_type":"pit-trial","trial_index":203,"time_elapsed":999686,"internal_node_id":"0.0-169.0","task_version":"battery-v0.2-trt"},{"rune":"E","rune_set":"bacs2","hex":"#3366ff99","correct":32,"choice":-1,"rt":-1,"accuracy":0,"outcome":"+1","keys":[2968.915000092238],"total_keys":1,"block":2,"trial":162,"stimulus":4,"robot":1,"valence":"win","action":"go","sham":0,"trial_type":"pit-trial","trial_index":204,"time_elapsed":1003688,"internal_node_id":"0.0-170.0","task_version":"battery-v0.2-trt"},{"rune":"Y","rune_set":"bacs2","hex":"#3366ff99","correct":-1,"choice":32,"rt":1262.4749999959022,"accuracy":0,"outcome":"+1","keys":[2762.9050000105053],"total_keys":1,"block":2,"trial":163,"stimulus":0,"robot":2,"valence":"win","action":"no-go","sham":0,"trial_type":"pit-trial","trial_index":205,"time_elapsed":1007653,"internal_node_id":"0.0-171.0","task_version":"battery-v0.2-trt"},{"rune":"C","rune_set":"bacs2","hex":"#f73b6a7A","correct":32,"choice":-1,"rt":-1,"accuracy":0,"outcome":"-10","keys":[],"total_keys":0,"block":2,"trial":164,"stimulus":5,"robot":3,"valence":"lose","action":"go","sham":0,"trial_type":"pit-trial","trial_index":206,"time_elapsed":1011656,"internal_node_id":"0.0-172.0","task_version":"battery-v0.2-trt"},{"rune":"E","rune_set":"bacs2","hex":"#3366ff99","correct":32,"choice":32,"rt":281.11999994143844,"accuracy":1,"outcome":"+10","keys":[1781.870000064373],"total_keys":1,"block":2,"trial":165,"stimulus":4,"robot":1,"valence":"win","action":"go","sham":0,"trial_type":"pit-trial","trial_index":207,"time_elapsed":1014640,"internal_node_id":"0.0-173.0","task_version":"battery-v0.2-trt"},{"rune":"Y","rune_set":"bacs2","hex":"#3366ff99","correct":-1,"choice":32,"rt":570.8449999801815,"accuracy":0,"outcome":"+10","keys":[2071.209999965504],"total_keys":1,"block":2,"trial":166,"stimulus":0,"robot":2,"valence":"win","action":"no-go","sham":1,"trial_type":"pit-trial","trial_index":208,"time_elapsed":1017914,"internal_node_id":"0.0-174.0","task_version":"battery-v0.2-trt"},{"rune":"C","rune_set":"bacs2","hex":"#f73b6a7A","correct":32,"choice":-1,"rt":-1,"accuracy":0,"outcome":"-10","keys":[3020.7050000317395],"total_keys":1,"block":2,"trial":167,"stimulus":5,"robot":3,"valence":"lose","action":"go","sham":0,"trial_type":"pit-trial","trial_index":209,"time_elapsed":1021917,"internal_node_id":"0.0-175.0","task_version":"battery-v0.2-trt"},{"rune":"O","rune_set":"bacs2","hex":"#f73b6a7A","correct":-1,"choice":32,"rt":651.9600000465289,"accuracy":0,"outcome":"-10","keys":[2152.6900000171736],"total_keys":1,"block":2,"trial":168,"stimulus":6,"robot":4,"valence":"lose","action":"no-go","sham":0,"trial_type":"pit-trial","trial_index":210,"time_elapsed":1025272,"internal_node_id":"0.0-176.0","task_version":"battery-v0.2-trt"},{"rune":"C","rune_set":"bacs2","hex":"#f73b6a7A","correct":32,"choice":-1,"rt":-1,"accuracy":0,"outcome":"-10","keys":[2930.240000016056],"total_keys":1,"block":2,"trial":169,"stimulus":5,"robot":3,"valence":"lose","action":"go","sham":0,"trial_type":"pit-trial","trial_index":211,"time_elapsed":1029275,"internal_node_id":"0.0-177.0","task_version":"battery-v0.2-trt"},{"rune":"O","rune_set":"bacs2","hex":"#f73b6a7A","correct":-1,"choice":-1,"rt":-1,"accuracy":1,"outcome":"-1","keys":[],"total_keys":0,"block":2,"trial":170,"stimulus":6,"robot":4,"valence":"lose","action":"no-go","sham":0,"trial_type":"pit-trial","trial_index":212,"time_elapsed":1033278,"internal_node_id":"0.0-178.0","task_version":"battery-v0.2-trt"},{"rune":"E","rune_set":"bacs2","hex":"#3366ff99","correct":32,"choice":32,"rt":579.0999999735504,"accuracy":1,"outcome":"+10","keys":[2079.5349999098107],"total_keys":1,"block":2,"trial":171,"stimulus":4,"robot":1,"valence":"win","action":"go","sham":0,"trial_type":"pit-trial","trial_index":213,"time_elapsed":1036559,"internal_node_id":"0.0-179.0","task_version":"battery-v0.2-trt"},{"rune":"G","rune_set":"bacs2","hex":"#3366ff99","correct":-1,"choice":32,"rt":622.5750000448897,"accuracy":0,"outcome":"+1","keys":[2123.2249999884516],"total_keys":1,"block":2,"trial":172,"stimulus":7,"robot":2,"valence":"win","action":"no-go","sham":0,"trial_type":"pit-trial","trial_index":214,"time_elapsed":1039885,"internal_node_id":"0.0-180.0","task_version":"battery-v0.2-trt"},{"rune":"O","rune_set":"bacs2","hex":"#f73b6a7A","correct":-1,"choice":-1,"rt":-1,"accuracy":1,"outcome":"-1","keys":[],"total_keys":0,"block":2,"trial":173,"stimulus":6,"robot":4,"valence":"lose","action":"no-go","sham":0,"trial_type":"pit-trial","trial_index":215,"time_elapsed":1043888,"internal_node_id":"0.0-181.0","task_version":"battery-v0.2-trt"},{"rune":"C","rune_set":"bacs2","hex":"#f73b6a7A","correct":32,"choice":-1,"rt":-1,"accuracy":0,"outcome":"-10","keys":[],"total_keys":0,"block":2,"trial":174,"stimulus":5,"robot":3,"valence":"lose","action":"go","sham":0,"trial_type":"pit-trial","trial_index":216,"time_elapsed":1047891,"internal_node_id":"0.0-182.0","task_version":"battery-v0.2-trt"},{"rune":"G","rune_set":"bacs2","hex":"#3366ff99","correct":-1,"choice":32,"rt":921.3400000007823,"accuracy":0,"outcome":"+1","keys":[2421.669999952428],"total_keys":1,"block":2,"trial":175,"stimulus":7,"robot":2,"valence":"win","action":"no-go","sham":0,"trial_type":"pit-trial","trial_index":217,"time_elapsed":1051514,"internal_node_id":"0.0-183.0","task_version":"battery-v0.2-trt"},{"rune":"E","rune_set":"bacs2","hex":"#3366ff99","correct":32,"choice":-1,"rt":-1,"accuracy":0,"outcome":"+1","keys":[],"total_keys":0,"block":2,"trial":176,"stimulus":4,"robot":1,"valence":"win","action":"go","sham":0,"trial_type":"pit-trial","trial_index":218,"time_elapsed":1055517,"internal_node_id":"0.0-184.0","task_version":"battery-v0.2-trt"},{"rune":"E","rune_set":"bacs2","hex":"#3366ff99","correct":32,"choice":32,"rt":1198.770000017248,"accuracy":1,"outcome":"+10","keys":[2699.8400000156835],"total_keys":1,"block":2,"trial":177,"stimulus":4,"robot":1,"valence":"win","action":"go","sham":0,"trial_type":"pit-trial","trial_index":219,"time_elapsed":1059419,"internal_node_id":"0.0-185.0","task_version":"battery-v0.2-trt"},{"rune":"C","rune_set":"bacs2","hex":"#f73b6a7A","correct":32,"choice":-1,"rt":-1,"accuracy":0,"outcome":"-10","keys":[],"total_keys":0,"block":2,"trial":178,"stimulus":5,"robot":3,"valence":"lose","action":"go","sham":0,"trial_type":"pit-trial","trial_index":220,"time_elapsed":1063421,"internal_node_id":"0.0-186.0","task_version":"battery-v0.2-trt"},{"rune":"O","rune_set":"bacs2","hex":"#f73b6a7A","correct":-1,"choice":32,"rt":1116.965000052005,"accuracy":0,"outcome":"-1","keys":[2617.964999983087],"total_keys":1,"block":2,"trial":179,"stimulus":6,"robot":4,"valence":"lose","action":"no-go","sham":1,"trial_type":"pit-trial","trial_index":221,"time_elapsed":1067242,"internal_node_id":"0.0-187.0","task_version":"battery-v0.2-trt"},{"rune":"G","rune_set":"bacs2","hex":"#3366ff99","correct":-1,"choice":32,"rt":1092.8449999773875,"accuracy":0,"outcome":"+1","keys":[2593.9750000834465],"total_keys":1,"block":2,"trial":180,"stimulus":7,"robot":2,"valence":"win","action":"no-go","sham":0,"trial_type":"pit-trial","trial_index":222,"time_elapsed":1071037,"internal_node_id":"0.0-188.0","task_version":"battery-v0.2-trt"},{"rune":"E","rune_set":"bacs2","hex":"#3366ff99","correct":32,"choice":32,"rt":1013.9100000960752,"accuracy":1,"outcome":"+10","keys":[2514.930000063032],"total_keys":1,"block":2,"trial":181,"stimulus":4,"robot":1,"valence":"win","action":"go","sham":0,"trial_type":"pit-trial","trial_index":223,"time_elapsed":1074754,"internal_node_id":"0.0-189.0","task_version":"battery-v0.2-trt"},{"rune":"O","rune_set":"bacs2","hex":"#f73b6a7A","correct":-1,"choice":-1,"rt":-1,"accuracy":1,"outcome":"-1","keys":[2969.4749999325722],"total_keys":1,"block":2,"trial":182,"stimulus":6,"robot":4,"valence":"lose","action":"no-go","sham":0,"trial_type":"pit-trial","trial_index":224,"time_elapsed":1078757,"internal_node_id":"0.0-190.0","task_version":"battery-v0.2-trt"},{"rune":"C","rune_set":"bacs2","hex":"#f73b6a7A","correct":32,"choice":-1,"rt":-1,"accuracy":0,"outcome":"-1","keys":[],"total_keys":0,"block":2,"trial":183,"stimulus":5,"robot":3,"valence":"lose","action":"go","sham":1,"trial_type":"pit-trial","trial_index":225,"time_elapsed":1082760,"internal_node_id":"0.0-191.0","task_version":"battery-v0.2-trt"},{"rune":"G","rune_set":"bacs2","hex":"#3366ff99","correct":-1,"choice":32,"rt":470.3800000716001,"accuracy":0,"outcome":"+1","keys":[1971.4799999492243],"total_keys":1,"block":2,"trial":184,"stimulus":7,"robot":2,"valence":"win","action":"no-go","sham":0,"trial_type":"pit-trial","trial_index":226,"time_elapsed":1085933,"internal_node_id":"0.0-192.0","task_version":"battery-v0.2-trt"},{"rune":"O","rune_set":"bacs2","hex":"#f73b6a7A","correct":-1,"choice":32,"rt":672.8149999398738,"accuracy":0,"outcome":"-1","keys":[2173.990000039339],"total_keys":1,"block":2,"trial":185,"stimulus":6,"robot":4,"valence":"lose","action":"no-go","sham":1,"trial_type":"pit-trial","trial_index":227,"time_elapsed":1089309,"internal_node_id":"0.0-193.0","task_version":"battery-v0.2-trt"},{"rune":"G","rune_set":"bacs2","hex":"#3366ff99","correct":-1,"choice":32,"rt":669.3099999101833,"accuracy":0,"outcome":"+1","keys":[2170.0150000397116],"total_keys":1,"block":2,"trial":186,"stimulus":7,"robot":2,"valence":"win","action":"no-go","sham":0,"trial_type":"pit-trial","trial_index":228,"time_elapsed":1092681,"internal_node_id":"0.0-194.0","task_version":"battery-v0.2-trt"},{"rune":"E","rune_set":"bacs2","hex":"#3366ff99","correct":32,"choice":32,"rt":453.6950000328943,"accuracy":1,"outcome":"+10","keys":[1954.1849999222904],"total_keys":1,"block":2,"trial":187,"stimulus":4,"robot":1,"valence":"win","action":"go","sham":0,"trial_type":"pit-trial","trial_index":229,"time_elapsed":1095837,"internal_node_id":"0.0-195.0","task_version":"battery-v0.2-trt"},{"rune":"C","rune_set":"bacs2","hex":"#f73b6a7A","correct":32,"choice":32,"rt":728.8100000005215,"accuracy":1,"outcome":"-1","keys":[2230.6649999227375],"total_keys":1,"block":2,"trial":188,"stimulus":5,"robot":3,"valence":"lose","action":"go","sham":0,"trial_type":"pit-trial","trial_index":230,"time_elapsed":1099269,"internal_node_id":"0.0-196.0","task_version":"battery-v0.2-trt"},{"rune":"G","rune_set":"bacs2","hex":"#3366ff99","correct":-1,"choice":32,"rt":721.2950000539422,"accuracy":0,"outcome":"+1","keys":[2221.8949999660254],"total_keys":1,"block":2,"trial":189,"stimulus":7,"robot":2,"valence":"win","action":"no-go","sham":0,"trial_type":"pit-trial","trial_index":231,"time_elapsed":1102693,"internal_node_id":"0.0-197.0","task_version":"battery-v0.2-trt"},{"rune":"C","rune_set":"bacs2","hex":"#f73b6a7A","correct":32,"choice":32,"rt":518.6900000553578,"accuracy":1,"outcome":"-1","keys":[2018.8949999865144],"total_keys":1,"block":2,"trial":190,"stimulus":5,"robot":3,"valence":"lose","action":"go","sham":0,"trial_type":"pit-trial","trial_index":232,"time_elapsed":1105913,"internal_node_id":"0.0-198.0","task_version":"battery-v0.2-trt"},{"rune":"O","rune_set":"bacs2","hex":"#f73b6a7A","correct":-1,"choice":32,"rt":725.4650000249967,"accuracy":0,"outcome":"-10","keys":[2226.52000002563],"total_keys":1,"block":2,"trial":191,"stimulus":6,"robot":4,"valence":"lose","action":"no-go","sham":0,"trial_type":"pit-trial","trial_index":233,"time_elapsed":1109341,"internal_node_id":"0.0-199.0","task_version":"battery-v0.2-trt"},{"rune":"E","rune_set":"bacs2","hex":"#3366ff99","correct":32,"choice":32,"rt":720.850000041537,"accuracy":1,"outcome":"+10","keys":[2221.64000000339],"total_keys":1,"block":2,"trial":192,"stimulus":4,"robot":1,"valence":"win","action":"go","sham":0,"trial_type":"pit-trial","trial_index":234,"time_elapsed":1112764,"internal_node_id":"0.0-200.0","task_version":"battery-v0.2-trt"},{"rune":"E","rune_set":"bacs2","hex":"#3366ff99","correct":32,"choice":32,"rt":685.3499999269843,"accuracy":1,"outcome":"+1","keys":[2186.0699999378994],"total_keys":1,"block":2,"trial":193,"stimulus":4,"robot":1,"valence":"win","action":"go","sham":1,"trial_type":"pit-trial","trial_index":235,"time_elapsed":1116152,"internal_node_id":"0.0-201.0","task_version":"battery-v0.2-trt"},{"rune":"O","rune_set":"bacs2","hex":"#f73b6a7A","correct":-1,"choice":-1,"rt":-1,"accuracy":1,"outcome":"-1","keys":[],"total_keys":0,"block":2,"trial":194,"stimulus":6,"robot":4,"valence":"lose","action":"no-go","sham":0,"trial_type":"pit-trial","trial_index":236,"time_elapsed":1120154,"internal_node_id":"0.0-202.0","task_version":"battery-v0.2-trt"},{"rune":"Z","rune_set":"bacs2","hex":"#f73b6a7A","correct":32,"choice":32,"rt":762.7199999988079,"accuracy":1,"outcome":"-1","keys":[2263.054999988526],"total_keys":1,"block":2,"trial":195,"stimulus":8,"robot":3,"valence":"lose","action":"go","sham":0,"trial_type":"pit-trial","trial_index":237,"time_elapsed":1123619,"internal_node_id":"0.0-203.0","task_version":"battery-v0.2-trt"},{"rune":"G","rune_set":"bacs2","hex":"#3366ff99","correct":-1,"choice":32,"rt":687.1350000146776,"accuracy":0,"outcome":"+1","keys":[2187.640000018291],"total_keys":1,"block":2,"trial":196,"stimulus":7,"robot":2,"valence":"win","action":"no-go","sham":0,"trial_type":"pit-trial","trial_index":238,"time_elapsed":1127008,"internal_node_id":"0.0-204.0","task_version":"battery-v0.2-trt"},{"rune":"Z","rune_set":"bacs2","hex":"#f73b6a7A","correct":32,"choice":32,"rt":980.7149999542162,"accuracy":1,"outcome":"-10","keys":[2481.8349999841303],"total_keys":1,"block":2,"trial":197,"stimulus":8,"robot":3,"valence":"lose","action":"go","sham":1,"trial_type":"pit-trial","trial_index":239,"time_elapsed":1130693,"internal_node_id":"0.0-205.0","task_version":"battery-v0.2-trt"},{"rune":"G","rune_set":"bacs2","hex":"#3366ff99","correct":-1,"choice":32,"rt":807.3699999367818,"accuracy":0,"outcome":"+1","keys":[2309.1700000222772],"total_keys":1,"block":2,"trial":198,"stimulus":7,"robot":2,"valence":"win","action":"no-go","sham":0,"trial_type":"pit-trial","trial_index":240,"time_elapsed":1134204,"internal_node_id":"0.0-206.0","task_version":"battery-v0.2-trt"},{"rune":"E","rune_set":"bacs2","hex":"#3366ff99","correct":32,"choice":32,"rt":841.1949999863282,"accuracy":1,"outcome":"+10","keys":[2342.354999971576],"total_keys":1,"block":2,"trial":199,"stimulus":4,"robot":1,"valence":"win","action":"go","sham":0,"trial_type":"pit-trial","trial_index":241,"time_elapsed":1137749,"internal_node_id":"0.0-207.0","task_version":"battery-v0.2-trt"},{"rune":"O","rune_set":"bacs2","hex":"#f73b6a7A","correct":-1,"choice":-1,"rt":-1,"accuracy":1,"outcome":"-1","keys":[],"total_keys":0,"block":2,"trial":200,"stimulus":6,"robot":4,"valence":"lose","action":"no-go","sham":0,"trial_type":"pit-trial","trial_index":242,"time_elapsed":1141752,"internal_node_id":"0.0-208.0","task_version":"battery-v0.2-trt"},{"rune":"X","rune_set":"bacs2","hex":"#f73b6a7A","correct":32,"choice":-1,"rt":-1,"accuracy":0,"outcome":"-10","keys":[],"total_keys":0,"block":2,"trial":201,"stimulus":9,"robot":3,"valence":"lose","action":"go","sham":0,"trial_type":"pit-trial","trial_index":243,"time_elapsed":1145754,"internal_node_id":"0.0-209.0","task_version":"battery-v0.2-trt"},{"rune":"G","rune_set":"bacs2","hex":"#3366ff99","correct":-1,"choice":32,"rt":97.98000007867813,"accuracy":0,"outcome":"+1","keys":[1598.7300000851974],"total_keys":1,"block":2,"trial":202,"stimulus":7,"robot":2,"valence":"win","action":"no-go","sham":0,"trial_type":"pit-trial","trial_index":244,"time_elapsed":1148554,"internal_node_id":"0.0-210.0","task_version":"battery-v0.2-trt"},{"rune":"O","rune_set":"bacs2","hex":"#f73b6a7A","correct":-1,"choice":-1,"rt":-1,"accuracy":1,"outcome":"-1","keys":[2899.2850000504404],"total_keys":1,"block":2,"trial":203,"stimulus":6,"robot":4,"valence":"lose","action":"no-go","sham":0,"trial_type":"pit-trial","trial_index":245,"time_elapsed":1152557,"internal_node_id":"0.0-211.0","task_version":"battery-v0.2-trt"},{"rune":"Z","rune_set":"bacs2","hex":"#f73b6a7A","correct":32,"choice":32,"rt":987.6149999909103,"accuracy":1,"outcome":"-1","keys":[2487.9100000252947],"total_keys":1,"block":2,"trial":204,"stimulus":8,"robot":3,"valence":"lose","action":"go","sham":0,"trial_type":"pit-trial","trial_index":246,"time_elapsed":1156246,"internal_node_id":"0.0-212.0","task_version":"battery-v0.2-trt"},{"rune":"X","rune_set":"bacs2","hex":"#f73b6a7A","correct":32,"choice":-1,"rt":-1,"accuracy":0,"outcome":"-10","keys":[],"total_keys":0,"block":2,"trial":205,"stimulus":9,"robot":3,"valence":"lose","action":"go","sham":0,"trial_type":"pit-trial","trial_index":247,"time_elapsed":1160249,"internal_node_id":"0.0-213.0","task_version":"battery-v0.2-trt"},{"rune":"G","rune_set":"bacs2","hex":"#3366ff99","correct":-1,"choice":32,"rt":280.9150000102818,"accuracy":0,"outcome":"+1","keys":[1782.1999998996034],"total_keys":1,"block":2,"trial":206,"stimulus":7,"robot":2,"valence":"win","action":"no-go","sham":0,"trial_type":"pit-trial","trial_index":248,"time_elapsed":1163234,"internal_node_id":"0.0-214.0","task_version":"battery-v0.2-trt"},{"rune":"Z","rune_set":"bacs2","hex":"#f73b6a7A","correct":32,"choice":32,"rt":861.0299999127164,"accuracy":1,"outcome":"-1","keys":[2362.26500000339],"total_keys":1,"block":2,"trial":207,"stimulus":8,"robot":3,"valence":"lose","action":"go","sham":0,"trial_type":"pit-trial","trial_index":249,"time_elapsed":1166798,"internal_node_id":"0.0-215.0","task_version":"battery-v0.2-trt"},{"rune":"O","rune_set":"bacs2","hex":"#f73b6a7A","correct":-1,"choice":32,"rt":73.050000006333,"accuracy":0,"outcome":"-10","keys":[1574.1699999198318],"total_keys":1,"block":2,"trial":208,"stimulus":6,"robot":4,"valence":"lose","action":"no-go","sham":0,"trial_type":"pit-trial","trial_index":250,"time_elapsed":1169575,"internal_node_id":"0.0-216.0","task_version":"battery-v0.2-trt"},{"rune":"X","rune_set":"bacs2","hex":"#f73b6a7A","correct":32,"choice":32,"rt":992.3249999992549,"accuracy":1,"outcome":"-1","keys":[2493.0099999764934],"total_keys":1,"block":2,"trial":209,"stimulus":9,"robot":3,"valence":"lose","action":"go","sham":0,"trial_type":"pit-trial","trial_index":251,"time_elapsed":1173270,"internal_node_id":"0.0-217.0","task_version":"battery-v0.2-trt"},{"rune":"Z","rune_set":"bacs2","hex":"#f73b6a7A","correct":32,"choice":32,"rt":706.3400000333786,"accuracy":1,"outcome":"-1","keys":[2206.540000042878],"total_keys":1,"block":2,"trial":210,"stimulus":8,"robot":3,"valence":"lose","action":"go","sham":0,"trial_type":"pit-trial","trial_index":252,"time_elapsed":1176679,"internal_node_id":"0.0-218.0","task_version":"battery-v0.2-trt"},{"rune":"W","rune_set":"bacs2","hex":"#f73b6a7A","correct":-1,"choice":32,"rt":805.3699999582022,"accuracy":0,"outcome":"-10","keys":[2306.044999975711],"total_keys":1,"block":2,"trial":211,"stimulus":10,"robot":4,"valence":"lose","action":"no-go","sham":0,"trial_type":"pit-trial","trial_index":253,"time_elapsed":1180187,"internal_node_id":"0.0-219.0","task_version":"battery-v0.2-trt"},{"rune":"J","rune_set":"bacs2","hex":"#3366ff99","correct":-1,"choice":32,"rt":488.62499999813735,"accuracy":0,"outcome":"+1","keys":[1988.9950000215322],"total_keys":1,"block":2,"trial":212,"stimulus":11,"robot":2,"valence":"win","action":"no-go","sham":0,"trial_type":"pit-trial","trial_index":254,"time_elapsed":1183377,"internal_node_id":"0.0-220.0","task_version":"battery-v0.2-trt"},{"rune":"X","rune_set":"bacs2","hex":"#f73b6a7A","correct":32,"choice":-1,"rt":-1,"accuracy":0,"outcome":"-10","keys":[],"total_keys":0,"block":2,"trial":213,"stimulus":9,"robot":3,"valence":"lose","action":"go","sham":0,"trial_type":"pit-trial","trial_index":255,"time_elapsed":1187380,"internal_node_id":"0.0-221.0","task_version":"battery-v0.2-trt"},{"rune":"J","rune_set":"bacs2","hex":"#3366ff99","correct":-1,"choice":-1,"rt":-1,"accuracy":1,"outcome":"+1","keys":[],"total_keys":0,"block":2,"trial":214,"stimulus":11,"robot":2,"valence":"win","action":"no-go","sham":1,"trial_type":"pit-trial","trial_index":256,"time_elapsed":1191384,"internal_node_id":"0.0-222.0","task_version":"battery-v0.2-trt"},{"rune":"Z","rune_set":"bacs2","hex":"#f73b6a7A","correct":32,"choice":32,"rt":1270.1599999563769,"accuracy":1,"outcome":"-1","keys":[2770.5800000112504],"total_keys":1,"block":2,"trial":215,"stimulus":8,"robot":3,"valence":"lose","action":"go","sham":0,"trial_type":"pit-trial","trial_index":257,"time_elapsed":1195356,"internal_node_id":"0.0-223.0","task_version":"battery-v0.2-trt"},{"rune":"W","rune_set":"bacs2","hex":"#f73b6a7A","correct":-1,"choice":-1,"rt":-1,"accuracy":1,"outcome":"-1","keys":[],"total_keys":0,"block":2,"trial":216,"stimulus":10,"robot":4,"valence":"lose","action":"no-go","sham":0,"trial_type":"pit-trial","trial_index":258,"time_elapsed":1199360,"internal_node_id":"0.0-224.0","task_version":"battery-v0.2-trt"},{"rune":"X","rune_set":"bacs2","hex":"#f73b6a7A","correct":32,"choice":32,"rt":868.7299999874085,"accuracy":1,"outcome":"-10","keys":[2370.534999994561],"total_keys":1,"block":2,"trial":217,"stimulus":9,"robot":3,"valence":"lose","action":"go","sham":1,"trial_type":"pit-trial","trial_index":259,"time_elapsed":1202932,"internal_node_id":"0.0-225.0","task_version":"battery-v0.2-trt"},{"rune":"W","rune_set":"bacs2","hex":"#f73b6a7A","correct":-1,"choice":32,"rt":1042.7350000245497,"accuracy":0,"outcome":"-10","keys":[2542.755000060424],"total_keys":1,"block":2,"trial":218,"stimulus":10,"robot":4,"valence":"lose","action":"no-go","sham":0,"trial_type":"pit-trial","trial_index":260,"time_elapsed":1206677,"internal_node_id":"0.0-226.0","task_version":"battery-v0.2-trt"},{"rune":"Z","rune_set":"bacs2","hex":"#f73b6a7A","correct":32,"choice":-1,"rt":-1,"accuracy":0,"outcome":"-1","keys":[],"total_keys":0,"block":2,"trial":219,"stimulus":8,"robot":3,"valence":"lose","action":"go","sham":1,"trial_type":"pit-trial","trial_index":261,"time_elapsed":1210682,"internal_node_id":"0.0-227.0","task_version":"battery-v0.2-trt"},{"rune":"J","rune_set":"bacs2","hex":"#3366ff99","correct":-1,"choice":-1,"rt":-1,"accuracy":1,"outcome":"+10","keys":[],"total_keys":0,"block":2,"trial":220,"stimulus":11,"robot":2,"valence":"win","action":"no-go","sham":0,"trial_type":"pit-trial","trial_index":262,"time_elapsed":1214684,"internal_node_id":"0.0-228.0","task_version":"battery-v0.2-trt"},{"rune":"Z","rune_set":"bacs2","hex":"#f73b6a7A","correct":32,"choice":32,"rt":1051.5550000127405,"accuracy":1,"outcome":"-1","keys":[2553.1150000169873],"total_keys":1,"block":2,"trial":221,"stimulus":8,"robot":3,"valence":"lose","action":"go","sham":0,"trial_type":"pit-trial","trial_index":263,"time_elapsed":1218439,"internal_node_id":"0.0-229.0","task_version":"battery-v0.2-trt"},{"rune":"X","rune_set":"bacs2","hex":"#f73b6a7A","correct":32,"choice":-1,"rt":-1,"accuracy":0,"outcome":"-10","keys":[],"total_keys":0,"block":2,"trial":222,"stimulus":9,"robot":3,"valence":"lose","action":"go","sham":0,"trial_type":"pit-trial","trial_index":264,"time_elapsed":1222441,"internal_node_id":"0.0-230.0","task_version":"battery-v0.2-trt"},{"rune":"W","rune_set":"bacs2","hex":"#f73b6a7A","correct":-1,"choice":32,"rt":723.9149999804795,"accuracy":0,"outcome":"-10","keys":[2224.404999986291],"total_keys":1,"block":2,"trial":223,"stimulus":10,"robot":4,"valence":"lose","action":"no-go","sham":0,"trial_type":"pit-trial","trial_index":265,"time_elapsed":1225867,"internal_node_id":"0.0-231.0","task_version":"battery-v0.2-trt"},{"rune":"J","rune_set":"bacs2","hex":"#3366ff99","correct":-1,"choice":32,"rt":1000.1649999758229,"accuracy":0,"outcome":"+1","keys":[2501.964999944903],"total_keys":1,"block":2,"trial":224,"stimulus":11,"robot":2,"valence":"win","action":"no-go","sham":0,"trial_type":"pit-trial","trial_index":266,"time_elapsed":1229571,"internal_node_id":"0.0-232.0","task_version":"battery-v0.2-trt"},{"rune":"W","rune_set":"bacs2","hex":"#f73b6a7A","correct":-1,"choice":-1,"rt":-1,"accuracy":1,"outcome":"-1","keys":[],"total_keys":0,"block":2,"trial":225,"stimulus":10,"robot":4,"valence":"lose","action":"no-go","sham":0,"trial_type":"pit-trial","trial_index":267,"time_elapsed":1233574,"internal_node_id":"0.0-233.0","task_version":"battery-v0.2-trt"},{"rune":"J","rune_set":"bacs2","hex":"#3366ff99","correct":-1,"choice":-1,"rt":-1,"accuracy":1,"outcome":"+10","keys":[],"total_keys":0,"block":2,"trial":226,"stimulus":11,"robot":2,"valence":"win","action":"no-go","sham":0,"trial_type":"pit-trial","trial_index":268,"time_elapsed":1237577,"internal_node_id":"0.0-234.0","task_version":"battery-v0.2-trt"},{"rune":"Z","rune_set":"bacs2","hex":"#f73b6a7A","correct":32,"choice":-1,"rt":-1,"accuracy":0,"outcome":"-10","keys":[],"total_keys":0,"block":2,"trial":227,"stimulus":8,"robot":3,"valence":"lose","action":"go","sham":0,"trial_type":"pit-trial","trial_index":269,"time_elapsed":1241581,"internal_node_id":"0.0-235.0","task_version":"battery-v0.2-trt"},{"rune":"X","rune_set":"bacs2","hex":"#f73b6a7A","correct":32,"cho