[{"view_history":"[{\"page_index\":0,\"viewing_time\":22808.195000048727}]","rt":22808.39499994181,"trial_type":"instructions","trial_index":0,"time_elapsed":22812,"internal_node_id":"0.0-0.0","task_version":"battery-v0.2-trt"},{"slider_type":"valence","raw_loc":710,"loc":0.92,"trial_type":"affective-slider","trial_index":1,"time_elapsed":25813,"internal_node_id":"0.0-1.0","task_version":"battery-v0.2-trt"},{"responses":{"Q01":"0","Q07":"0","Q06":"0","Q02":"0","Q05":"0","Q08":"0","Q04":"0","Q03":"0"},"rt":13986.759999999776,"item_order":[0,6,5,1,4,7,3,2],"radio_events":[4501.180000137538,5807.395000010729,6494.824999943376,7231.320000020787,9050.375000108033,10365.675000008196,12038.360000122339,13391.72499999404],"key_events":[],"mouse_events":[817.005000077188,1445.8200000226498,3485.795000102371,4501.180000137538,5807.395000010729,6494.824999943376,7231.320000020787,8217.124999966472,9050.375000108033,10365.675000008196,11370.610000099987,12038.360000122339,12847.670000046492,13391.72499999404,13985.719999996945],"straightlining":1,"zigzagging":0,"survey":"dass_d","trial_type":"survey-template","trial_index":2,"time_elapsed":39806,"internal_node_id":"0.0-2.0","task_version":"battery-v0.2-trt","infrequency":1},{"responses":{"Q05":"3","Q07":"3","Q10":"3","Q13":"0","Q06":"3","Q01":"2","Q08":"3","Q02":"1","Q03":"1","Q04":"2","Q12":"2","Q11":"3","Q09":"2"},"rt":47466.685000108555,"item_order":[4,6,9,12,5,0,7,1,2,3,11,10,8],"radio_events":[5202.305000042543,5713.065000018105,6505.770000163466,7932.295000180602,8676.390000153333,12149.130000034347,12881.359999999404,17562.215000158176,20273.020000196993,22608.050000155345,28931.755000026897,30854.5700001996,33184.100000187755,36092.4150000792,40056.330000050366,45718.09000009671,47149.68500006944],"key_events":[],"mouse_events":[5202.305000042543,5713.065000018105,6505.770000163466,7932.295000180602,8676.390000153333,11705.340000102296,12149.130000034347,12595.450000138953,12881.359999999404,17383.875000057742,17562.215000158176,19765.34500019625,20273.020000196993,22608.050000155345,27926.210000179708,28931.755000026897,30037.1799999848,30854.5700001996,33184.100000187755,35739.79000002146,36092.4150000792,40056.330000050366,45718.09000009671,46858.325000153854,47149.68500006944,47465.435000136495],"straightlining":0.46153846153846156,"zigzagging":0.5833333333333334,"survey":"bisbas","trial_type":"survey-template","trial_index":3,"time_elapsed":87275,"internal_node_id":"0.0-3.0","task_version":"battery-v0.2-trt","infrequency":0},{"responses":{"Q05":"0","Q01":"1","Q07":"0","Q03":"1","Q02":"1","Q06":"0","Q08":"0","Q04":"1"},"rt":44734.88999996334,"item_order":[4,0,6,2,1,5,7,3],"radio_events":[3574.41999996081,4802.170000039041,6108.789999969304,7353.714999975637,8385.715000098571,9802.679999964312,10146.78500010632,11492.450000019744,42229.9649999477,43850.469999946654],"key_events":[],"mouse_events":[2564.710000064224,3574.41999996081,4802.170000039041,6108.789999969304,7353.714999975637,8385.715000098571,9465.25500016287,9802.679999964312,10146.78500010632,11492.450000019744,21143.875000067055,21646.64000016637,42229.9649999477,43850.469999946654,44328.77500005998,44734.090000158176],"straightlining":0.5,"zigzagging":0.7142857142857143,"survey":"gad7","trial_type":"survey-template","trial_index":4,"time_elapsed":132012,"internal_node_id":"0.0-4.0","task_version":"battery-v0.2-trt","infrequency":0},{"value":[1,1.9615384615384617,1.2976190476190477],"trial_type":"call-function","trial_index":5,"time_elapsed":132013,"internal_node_id":"0.0-5.0","task_version":"battery-v0.2-trt"},{"view_history":"[{\"page_index\":0,\"viewing_time\":2054.424999980256},{\"page_index\":1,\"viewing_time\":2534.9150002002716},{\"page_index\":2,\"viewing_time\":3445.029999827966},{\"page_index\":3,\"viewing_time\":2002.295000012964},{\"page_index\":4,\"viewing_time\":3073.5400000121444},{\"page_index\":5,\"viewing_time\":2083.409999962896},{\"page_index\":6,\"viewing_time\":2854.645000072196},{\"page_index\":7,\"viewing_time\":4327.909999992698},{\"page_index\":8,\"viewing_time\":5538.059999933466},{\"page_index\":9,\"viewing_time\":2542.375000193715}]","rt":30457.010000012815,"trial_type":"pit-instructions","trial_index":6,"time_elapsed":162472,"internal_node_id":"0.0-6.0-0.0","task_version":"battery-v0.2-trt"},{"rune":"1","rune_set":"elianto","hex":"#3366ff99","correct":32,"choice":-1,"rt":-1,"accuracy":0,"outcome":"+1","keys":[1373.684999998659],"total_keys":1,"block":0,"practice":1,"trial_type":"pit-trial","trial_index":7,"time_elapsed":166477,"internal_node_id":"0.0-6.0-1.0-0.0","task_version":"battery-v0.2-trt"},{"rune":"1","rune_set":"elianto","hex":"#3366ff99","correct":32,"choice":32,"rt":25.42999992147088,"accuracy":1,"outcome":"+10","keys":[1525.9450001176447],"total_keys":1,"block":0,"practice":1,"trial_type":"pit-trial","trial_index":8,"time_elapsed":169206,"internal_node_id":"0.0-6.0-1.1-0.1","task_version":"battery-v0.2-trt"},{"rune":"1","rune_set":"elianto","hex":"#3366ff99","correct":32,"choice":32,"rt":1041.3100000005215,"accuracy":1,"outcome":"+10","keys":[2542.2650000546128],"total_keys":1,"block":0,"practice":1,"trial_type":"pit-trial","trial_index":9,"time_elapsed":172951,"internal_node_id":"0.0-6.0-1.2-0.2","task_version":"battery-v0.2-trt"},{"rune":"1","rune_set":"elianto","hex":"#3366ff99","correct":32,"choice":32,"rt":256.5999999642372,"accuracy":1,"outcome":"+10","keys":[1756.885000038892],"total_keys":1,"block":0,"practice":1,"trial_type":"pit-trial","trial_index":10,"time_elapsed":175910,"internal_node_id":"0.0-6.0-1.3-0.3","task_version":"battery-v0.2-trt"},{"trial_type":"call-function","trial_index":11,"time_elapsed":175911,"internal_node_id":"0.0-6.0-2.0","task_version":"battery-v0.2-trt"},{"view_history":"[{\"page_index\":0,\"viewing_time\":2214.970000088215},{\"page_index\":1,\"viewing_time\":3875.0499999150634}]","rt":6090.309999883175,"trial_type":"pit-instructions","trial_index":12,"time_elapsed":182002,"internal_node_id":"0.0-6.0-3.0","task_version":"battery-v0.2-trt"},{"rune":"2","rune_set":"elianto","hex":"#3366ff99","correct":-1,"choice":-1,"rt":-1,"accuracy":1,"outcome":"+10","keys":[],"total_keys":0,"block":0,"practice":2,"trial_type":"pit-trial","trial_index":13,"time_elapsed":186005,"internal_node_id":"0.0-6.0-4.0-0.0","task_version":"battery-v0.2-trt"},{"rune":"2","rune_set":"elianto","hex":"#3366ff99","correct":-1,"choice":-1,"rt":-1,"accuracy":1,"outcome":"+10","keys":[],"total_keys":0,"block":0,"practice":2,"trial_type":"pit-trial","trial_index":14,"time_elapsed":190008,"internal_node_id":"0.0-6.0-4.1-0.1","task_version":"battery-v0.2-trt"},{"rune":"2","rune_set":"elianto","hex":"#3366ff99","correct":-1,"choice":32,"rt":232.92000009678304,"accuracy":0,"outcome":"+1","keys":[1733.1199999898672],"total_keys":1,"block":0,"practice":2,"trial_type":"pit-trial","trial_index":15,"time_elapsed":192944,"internal_node_id":"0.0-6.0-4.2-0.2","task_version":"battery-v0.2-trt"},{"rune":"2","rune_set":"elianto","hex":"#3366ff99","correct":-1,"choice":32,"rt":16.284999903291464,"accuracy":0,"outcome":"+1","keys":[1516.330000013113],"total_keys":1,"block":0,"practice":2,"trial_type":"pit-trial","trial_index":16,"time_elapsed":195662,"internal_node_id":"0.0-6.0-4.3-0.3","task_version":"battery-v0.2-trt"},{"rune":"2","rune_set":"elianto","hex":"#3366ff99","correct":-1,"choice":-1,"rt":-1,"accuracy":1,"outcome":"+10","keys":[],"total_keys":0,"block":0,"practice":2,"trial_type":"pit-trial","trial_index":17,"time_elapsed":199668,"internal_node_id":"0.0-6.0-4.4-0.4","task_version":"battery-v0.2-trt"},{"rune":"2","rune_set":"elianto","hex":"#3366ff99","correct":-1,"choice":-1,"rt":-1,"accuracy":1,"outcome":"+10","keys":[],"total_keys":0,"block":0,"practice":2,"trial_type":"pit-trial","trial_index":18,"time_elapsed":203672,"internal_node_id":"0.0-6.0-4.5-0.5","task_version":"battery-v0.2-trt"},{"rune":"2","rune_set":"elianto","hex":"#3366ff99","correct":-1,"choice":-1,"rt":-1,"accuracy":1,"outcome":"+10","keys":[],"total_keys":0,"block":0,"practice":2,"trial_type":"pit-trial","trial_index":19,"time_elapsed":207676,"internal_node_id":"0.0-6.0-4.6-0.6","task_version":"battery-v0.2-trt"},{"trial_type":"call-function","trial_index":20,"time_elapsed":207677,"internal_node_id":"0.0-6.0-5.0","task_version":"battery-v0.2-trt"},{"view_history":"[{\"page_index\":0,\"viewing_time\":3964.8550001438707},{\"page_index\":1,\"viewing_time\":1806.9399998057634}]","rt":5772.055000066757,"trial_type":"pit-instructions","trial_index":21,"time_elapsed":213449,"internal_node_id":"0.0-6.0-6.0","task_version":"battery-v0.2-trt"},{"rune":"3","rune_set":"elianto","hex":"#f73b6a7A","correct":-1,"choice":-1,"rt":-1,"accuracy":1,"outcome":"-1","keys":[],"total_keys":0,"block":0,"practice":3,"trial_type":"pit-trial","trial_index":22,"time_elapsed":217452,"internal_node_id":"0.0-6.0-7.0-0.0","task_version":"battery-v0.2-trt"},{"rune":"3","rune_set":"elianto","hex":"#f73b6a7A","correct":-1,"choice":32,"rt":504.0450000669807,"accuracy":0,"outcome":"-10","keys":[2005.9149998705834],"total_keys":1,"block":0,"practice":3,"trial_type":"pit-trial","trial_index":23,"time_elapsed":220662,"internal_node_id":"0.0-6.0-7.1-0.1","task_version":"battery-v0.2-trt"},{"rune":"3","rune_set":"elianto","hex":"#f73b6a7A","correct":-1,"choice":-1,"rt":-1,"accuracy":1,"outcome":"-1","keys":[],"total_keys":0,"block":0,"practice":3,"trial_type":"pit-trial","trial_index":24,"time_elapsed":224665,"internal_node_id":"0.0-6.0-7.2-0.2","task_version":"battery-v0.2-trt"},{"rune":"3","rune_set":"elianto","hex":"#f73b6a7A","correct":-1,"choice":-1,"rt":-1,"accuracy":1,"outcome":"-1","keys":[],"total_keys":0,"block":0,"practice":3,"trial_type":"pit-trial","trial_index":25,"time_elapsed":228674,"internal_node_id":"0.0-6.0-7.3-0.3","task_version":"battery-v0.2-trt"},{"rune":"3","rune_set":"elianto","hex":"#f73b6a7A","correct":-1,"choice":-1,"rt":-1,"accuracy":1,"outcome":"-1","keys":[],"total_keys":0,"block":0,"practice":3,"trial_type":"pit-trial","trial_index":26,"time_elapsed":232678,"internal_node_id":"0.0-6.0-7.4-0.4","task_version":"battery-v0.2-trt"},{"trial_type":"call-function","trial_index":27,"time_elapsed":232678,"internal_node_id":"0.0-6.0-8.0","task_version":"battery-v0.2-trt"},{"view_history":"[{\"page_index\":0,\"viewing_time\":6900.544999865815},{\"page_index\":1,\"viewing_time\":1656.1950000468642}]","rt":8556.999999796972,"trial_type":"pit-instructions","trial_index":28,"time_elapsed":241236,"internal_node_id":"0.0-6.0-9.0","task_version":"battery-v0.2-trt"},{"rune":"4","rune_set":"elianto","hex":"#f73b6a7A","correct":32,"choice":-1,"rt":-1,"accuracy":0,"outcome":"-10","keys":[],"total_keys":0,"block":0,"practice":4,"trial_type":"pit-trial","trial_index":29,"time_elapsed":245238,"internal_node_id":"0.0-6.0-10.0-0.0","task_version":"battery-v0.2-trt"},{"rune":"4","rune_set":"elianto","hex":"#f73b6a7A","correct":32,"choice":32,"rt":624.0799999795854,"accuracy":1,"outcome":"-1","keys":[2125.315000070259],"total_keys":1,"block":0,"practice":4,"trial_type":"pit-trial","trial_index":30,"time_elapsed":248566,"internal_node_id":"0.0-6.0-10.1-0.1","task_version":"battery-v0.2-trt"},{"rune":"4","rune_set":"elianto","hex":"#f73b6a7A","correct":32,"choice":32,"rt":105.51999998278916,"accuracy":1,"outcome":"-1","keys":[1606.1249999329448],"total_keys":1,"block":0,"practice":4,"trial_type":"pit-trial","trial_index":31,"time_elapsed":251374,"internal_node_id":"0.0-6.0-10.2-0.2","task_version":"battery-v0.2-trt"},{"rune":"4","rune_set":"elianto","hex":"#f73b6a7A","correct":32,"choice":32,"rt":176.06500000692904,"accuracy":1,"outcome":"-1","keys":[1676.6599998809397],"total_keys":1,"block":0,"practice":4,"trial_type":"pit-trial","trial_index":32,"time_elapsed":254253,"internal_node_id":"0.0-6.0-10.3-0.3","task_version":"battery-v0.2-trt"},{"trial_type":"call-function","trial_index":33,"time_elapsed":254254,"internal_node_id":"0.0-6.0-11.0","task_version":"battery-v0.2-trt"},{"view_history":"[{\"page_index\":0,\"viewing_time\":2125.4150001332164},{\"page_index\":1,\"viewing_time\":3790.724999969825},{\"page_index\":2,\"viewing_time\":3446.1099999025464},{\"page_index\":3,\"viewing_time\":2873.0250000953674},{\"page_index\":4,\"viewing_time\":5441.9499998912215},{\"page_index\":5,\"viewing_time\":1099.9450001399964}]","rt":18777.405000058934,"trial_type":"pit-instructions","trial_index":34,"time_elapsed":273032,"internal_node_id":"0.0-6.0-12.0","task_version":"battery-v0.2-trt"},{"responses":["Press SPACE","+10","+1","True","True"],"num_errors":1,"rt":18768.16999982111,"trial_type":"pit-comprehension","trial_index":35,"time_elapsed":291803,"internal_node_id":"0.0-6.0-13.0","task_version":"battery-v0.2-trt"},{"view_history":"[{\"page_index\":0,\"viewing_time\":1733.5600000806153},{\"page_index\":1,\"viewing_time\":2360.9500001184642}]","rt":4094.800000078976,"trial_type":"pit-instructions","trial_index":36,"time_elapsed":295901,"internal_node_id":"0.0-7.0","task_version":"battery-v0.2-trt"},{"rune":"H","rune_set":"bacs1","hex":"#3366ff99","correct":32,"choice":32,"rt":26.920000091195107,"accuracy":1,"outcome":"+1","keys":[1528.5849999636412],"total_keys":1,"block":1,"trial":1,"stimulus":1,"robot":1,"valence":"win","action":"go","sham":1,"trial_type":"pit-trial","trial_index":37,"time_elapsed":298634,"internal_node_id":"0.0-8.0","task_version":"battery-v0.2-trt"},{"rune":"M","rune_set":"bacs1","hex":"#3366ff99","correct":32,"choice":32,"rt":500.3549999091774,"accuracy":1,"outcome":"+10","keys":[2000.725000165403],"total_keys":1,"block":1,"trial":2,"stimulus":3,"robot":1,"valence":"win","action":"go","sham":0,"trial_type":"pit-trial","trial_index":38,"time_elapsed":301838,"internal_node_id":"0.0-9.0","task_version":"battery-v0.2-trt"},{"rune":"P","rune_set":"bacs1","hex":"#f73b6a7A","correct":-1,"choice":32,"rt":1200.5499999504536,"accuracy":0,"outcome":"-10","keys":[2702.050000196323],"total_keys":1,"block":1,"trial":3,"stimulus":2,"robot":4,"valence":"lose","action":"no-go","sham":0,"trial_type":"pit-trial","trial_index":39,"time_elapsed":305743,"internal_node_id":"0.0-10.0","task_version":"battery-v0.2-trt"},{"rune":"Y","rune_set":"bacs1","hex":"#3366ff99","correct":-1,"choice":32,"rt":865.4049998149276,"accuracy":0,"outcome":"+1","keys":[2366.2250000052154],"total_keys":1,"block":1,"trial":4,"stimulus":0,"robot":2,"valence":"win","action":"no-go","sham":0,"trial_type":"pit-trial","trial_index":40,"time_elapsed":309327,"internal_node_id":"0.0-11.0","task_version":"battery-v0.2-trt"},{"rune":"H","rune_set":"bacs1","hex":"#3366ff99","correct":32,"choice":-1,"rt":-1,"accuracy":0,"outcome":"+1","keys":[],"total_keys":0,"block":1,"trial":5,"stimulus":1,"robot":1,"valence":"win","action":"go","sham":0,"trial_type":"pit-trial","trial_index":41,"time_elapsed":313332,"internal_node_id":"0.0-12.0","task_version":"battery-v0.2-trt"},{"rune":"Y","rune_set":"bacs1","hex":"#3366ff99","correct":-1,"choice":32,"rt":394.79000004939735,"accuracy":0,"outcome":"+1","keys":[1895.8099998999387],"total_keys":1,"block":1,"trial":6,"stimulus":0,"robot":2,"valence":"win","action":"no-go","sham":0,"trial_type":"pit-trial","trial_index":42,"time_elapsed":316431,"internal_node_id":"0.0-13.0","task_version":"battery-v0.2-trt"},{"rune":"P","rune_set":"bacs1","hex":"#f73b6a7A","correct":-1,"choice":-1,"rt":-1,"accuracy":1,"outcome":"-1","keys":[],"total_keys":0,"block":1,"trial":7,"stimulus":2,"robot":4,"valence":"lose","action":"no-go","sham":0,"trial_type":"pit-trial","trial_index":43,"time_elapsed":320436,"internal_node_id":"0.0-14.0","task_version":"battery-v0.2-trt"},{"rune":"M","rune_set":"bacs1","hex":"#3366ff99","correct":32,"choice":32,"rt":508.0399999860674,"accuracy":1,"outcome":"+10","keys":[2008.4250001236796],"total_keys":1,"block":1,"trial":8,"stimulus":3,"robot":1,"valence":"win","action":"go","sham":0,"trial_type":"pit-trial","trial_index":44,"time_elapsed":323647,"internal_node_id":"0.0-15.0","task_version":"battery-v0.2-trt"},{"rune":"P","rune_set":"bacs1","hex":"#f73b6a7A","correct":-1,"choice":-1,"rt":-1,"accuracy":1,"outcome":"-10","keys":[],"total_keys":0,"block":1,"trial":9,"stimulus":2,"robot":4,"valence":"lose","action":"no-go","sham":1,"trial_type":"pit-trial","trial_index":45,"time_elapsed":327654,"internal_node_id":"0.0-16.0","task_version":"battery-v0.2-trt"},{"rune":"Y","rune_set":"bacs1","hex":"#3366ff99","correct":-1,"choice":32,"rt":960.9850000124425,"accuracy":0,"outcome":"+10","keys":[2461.725000059232],"total_keys":1,"block":1,"trial":10,"stimulus":0,"robot":2,"valence":"win","action":"no-go","sham":1,"trial_type":"pit-trial","trial_index":46,"time_elapsed":331318,"internal_node_id":"0.0-17.0","task_version":"battery-v0.2-trt"},{"rune":"M","rune_set":"bacs1","hex":"#3366ff99","correct":32,"choice":32,"rt":552.5150001049042,"accuracy":1,"outcome":"+10","keys":[2053.45999985002],"total_keys":1,"block":1,"trial":11,"stimulus":3,"robot":1,"valence":"win","action":"go","sham":0,"trial_type":"pit-trial","trial_index":47,"time_elapsed":334574,"internal_node_id":"0.0-18.0","task_version":"battery-v0.2-trt"},{"rune":"H","rune_set":"bacs1","hex":"#3366ff99","correct":32,"choice":32,"rt":441.82500010356307,"accuracy":1,"outcome":"+10","keys":[1942.130000097677],"total_keys":1,"block":1,"trial":12,"stimulus":1,"robot":1,"valence":"win","action":"go","sham":0,"trial_type":"pit-trial","trial_index":48,"time_elapsed":337718,"internal_node_id":"0.0-19.0","task_version":"battery-v0.2-trt"},{"rune":"P","rune_set":"bacs1","hex":"#f73b6a7A","correct":-1,"choice":32,"rt":481.1849999241531,"accuracy":0,"outcome":"-10","keys":[1981.9149998947978],"total_keys":1,"block":1,"trial":13,"stimulus":2,"robot":4,"valence":"lose","action":"no-go","sham":0,"trial_type":"pit-trial","trial_index":49,"time_elapsed":340903,"internal_node_id":"0.0-20.0","task_version":"battery-v0.2-trt"},{"rune":"H","rune_set":"bacs1","hex":"#3366ff99","correct":32,"choice":-1,"rt":-1,"accuracy":0,"outcome":"+1","keys":[],"total_keys":0,"block":1,"trial":14,"stimulus":1,"robot":1,"valence":"win","action":"go","sham":0,"trial_type":"pit-trial","trial_index":50,"time_elapsed":344907,"internal_node_id":"0.0-21.0","task_version":"battery-v0.2-trt"},{"rune":"Y","rune_set":"bacs1","hex":"#3366ff99","correct":-1,"choice":32,"rt":459.7400000784546,"accuracy":0,"outcome":"+1","keys":[1960.1749998982996],"total_keys":1,"block":1,"trial":15,"stimulus":0,"robot":2,"valence":"win","action":"no-go","sham":0,"trial_type":"pit-trial","trial_index":51,"time_elapsed":348070,"internal_node_id":"0.0-22.0","task_version":"battery-v0.2-trt"},{"rune":"M","rune_set":"bacs1","hex":"#3366ff99","correct":32,"choice":32,"rt":313.54499980807304,"accuracy":1,"outcome":"+10","keys":[1813.724999781698],"total_keys":1,"block":1,"trial":16,"stimulus":3,"robot":1,"valence":"win","action":"go","sham":0,"trial_type":"pit-trial","trial_index":52,"time_elapsed":351088,"internal_node_id":"0.0-23.0","task_version":"battery-v0.2-trt"},{"rune":"H","rune_set":"bacs1","hex":"#3366ff99","correct":32,"choice":32,"rt":936.9550000410527,"accuracy":1,"outcome":"+10","keys":[2437.22500000149],"total_keys":1,"block":1,"trial":17,"stimulus":1,"robot":1,"valence":"win","action":"go","sham":0,"trial_type":"pit-trial","trial_index":53,"time_elapsed":354728,"internal_node_id":"0.0-24.0","task_version":"battery-v0.2-trt"},{"rune":"P","rune_set":"bacs1","hex":"#f73b6a7A","correct":-1,"choice":32,"rt":672.1099999267608,"accuracy":0,"outcome":"-10","keys":[2172.349999891594],"total_keys":1,"block":1,"trial":18,"stimulus":2,"robot":4,"valence":"lose","action":"no-go","sham":0,"trial_type":"pit-trial","trial_index":54,"time_elapsed":358103,"internal_node_id":"0.0-25.0","task_version":"battery-v0.2-trt"},{"rune":"Y","rune_set":"bacs1","hex":"#3366ff99","correct":-1,"choice":32,"rt":292.81999985687435,"accuracy":0,"outcome":"+1","keys":[1793.515000026673],"total_keys":1,"block":1,"trial":19,"stimulus":0,"robot":2,"valence":"win","action":"no-go","sham":0,"trial_type":"pit-trial","trial_index":55,"time_elapsed":361104,"internal_node_id":"0.0-26.0","task_version":"battery-v0.2-trt"},{"rune":"M","rune_set":"bacs1","hex":"#3366ff99","correct":32,"choice":32,"rt":238.54000004939735,"accuracy":1,"outcome":"+10","keys":[1738.8450000435114],"total_keys":1,"block":1,"trial":20,"stimulus":3,"robot":1,"valence":"win","action":"go","sham":0,"trial_type":"pit-trial","trial_index":56,"time_elapsed":364046,"internal_node_id":"0.0-27.0","task_version":"battery-v0.2-trt"},{"rune":"Y","rune_set":"bacs1","hex":"#3366ff99","correct":-1,"choice":-1,"rt":-1,"accuracy":1,"outcome":"+10","keys":[],"total_keys":0,"block":1,"trial":21,"stimulus":0,"robot":2,"valence":"win","action":"no-go","sham":0,"trial_type":"pit-trial","trial_index":57,"time_elapsed":368049,"internal_node_id":"0.0-28.0","task_version":"battery-v0.2-trt"},{"rune":"H","rune_set":"bacs1","hex":"#3366ff99","correct":32,"choice":-1,"rt":-1,"accuracy":0,"outcome":"+10","keys":[],"total_keys":0,"block":1,"trial":22,"stimulus":1,"robot":1,"valence":"win","action":"go","sham":1,"trial_type":"pit-trial","trial_index":58,"time_elapsed":372053,"internal_node_id":"0.0-29.0","task_version":"battery-v0.2-trt"},{"rune":"P","rune_set":"bacs1","hex":"#f73b6a7A","correct":-1,"choice":32,"rt":1016.6299999691546,"accuracy":0,"outcome":"-1","keys":[2517.0800001360476],"total_keys":1,"block":1,"trial":23,"stimulus":2,"robot":4,"valence":"lose","action":"no-go","sham":1,"trial_type":"pit-trial","trial_index":59,"time_elapsed":375774,"internal_node_id":"0.0-30.0","task_version":"battery-v0.2-trt"},{"rune":"M","rune_set":"bacs1","hex":"#3366ff99","correct":32,"choice":32,"rt":441.334999864921,"accuracy":1,"outcome":"+10","keys":[1941.5299999527633],"total_keys":1,"block":1,"trial":24,"stimulus":3,"robot":1,"valence":"win","action":"go","sham":0,"trial_type":"pit-trial","trial_index":60,"time_elapsed":378918,"internal_node_id":"0.0-31.0","task_version":"battery-v0.2-trt"},{"rune":"P","rune_set":"bacs1","hex":"#f73b6a7A","correct":-1,"choice":32,"rt":527.765000006184,"accuracy":0,"outcome":"-10","keys":[2029.209999833256],"total_keys":1,"block":1,"trial":25,"stimulus":2,"robot":4,"valence":"lose","action":"no-go","sham":0,"trial_type":"pit-trial","trial_index":61,"time_elapsed":382150,"internal_node_id":"0.0-32.0","task_version":"battery-v0.2-trt"},{"rune":"M","rune_set":"bacs1","hex":"#3366ff99","correct":32,"choice":32,"rt":289.13499996997416,"accuracy":1,"outcome":"+10","keys":[1789.5300001837313],"total_keys":1,"block":1,"trial":26,"stimulus":3,"robot":1,"valence":"win","action":"go","sham":0,"trial_type":"pit-trial","trial_index":62,"time_elapsed":385154,"internal_node_id":"0.0-33.0","task_version":"battery-v0.2-trt"},{"rune":"Y","rune_set":"bacs1","hex":"#3366ff99","correct":-1,"choice":-1,"rt":-1,"accuracy":1,"outcome":"+10","keys":[],"total_keys":0,"block":1,"trial":27,"stimulus":0,"robot":2,"valence":"win","action":"no-go","sham":0,"trial_type":"pit-trial","trial_index":63,"time_elapsed":389162,"internal_node_id":"0.0-34.0","task_version":"battery-v0.2-trt"},{"rune":"H","rune_set":"bacs1","hex":"#3366ff99","correct":32,"choice":-1,"rt":-1,"accuracy":0,"outcome":"+1","keys":[],"total_keys":0,"block":1,"trial":28,"stimulus":1,"robot":1,"valence":"win","action":"go","sham":0,"trial_type":"pit-trial","trial_index":64,"time_elapsed":393166,"internal_node_id":"0.0-35.0","task_version":"battery-v0.2-trt"},{"rune":"M","rune_set":"bacs1","hex":"#3366ff99","correct":32,"choice":32,"rt":386.0949999652803,"accuracy":1,"outcome":"+10","keys":[1886.9950000662357],"total_keys":1,"block":1,"trial":29,"stimulus":3,"robot":1,"valence":"win","action":"go","sham":0,"trial_type":"pit-trial","trial_index":65,"time_elapsed":396254,"internal_node_id":"0.0-36.0","task_version":"battery-v0.2-trt"},{"rune":"H","rune_set":"bacs1","hex":"#3366ff99","correct":32,"choice":-1,"rt":-1,"accuracy":0,"outcome":"+1","keys":[],"total_keys":0,"block":1,"trial":30,"stimulus":1,"robot":1,"valence":"win","action":"go","sham":0,"trial_type":"pit-trial","trial_index":66,"time_elapsed":400258,"internal_node_id":"0.0-37.0","task_version":"battery-v0.2-trt"},{"rune":"P","rune_set":"bacs1","hex":"#f73b6a7A","correct":-1,"choice":32,"rt":636.7300001438707,"accuracy":0,"outcome":"-10","keys":[2137.6600000075996],"total_keys":1,"block":1,"trial":31,"stimulus":2,"robot":4,"valence":"lose","action":"no-go","sham":0,"trial_type":"pit-trial","trial_index":67,"time_elapsed":403599,"internal_node_id":"0.0-38.0","task_version":"battery-v0.2-trt"},{"rune":"Y","rune_set":"bacs1","hex":"#3366ff99","correct":-1,"choice":32,"rt":400.774999987334,"accuracy":0,"outcome":"+1","keys":[1901.0999999009073],"total_keys":1,"block":1,"trial":32,"stimulus":0,"robot":2,"valence":"win","action":"no-go","sham":0,"trial_type":"pit-trial","trial_index":68,"time_elapsed":406702,"internal_node_id":"0.0-39.0","task_version":"battery-v0.2-trt"},{"rune":"Y","rune_set":"bacs1","hex":"#3366ff99","correct":-1,"choice":32,"rt":513.5699999518692,"accuracy":0,"outcome":"+1","keys":[2013.7799999210984],"total_keys":1,"block":1,"trial":33,"stimulus":0,"robot":2,"valence":"win","action":"no-go","sham":0,"trial_type":"pit-trial","trial_index":69,"time_elapsed":409917,"internal_node_id":"0.0-40.0","task_version":"battery-v0.2-trt"},{"rune":"M","rune_set":"bacs1","hex":"#3366ff99","correct":32,"choice":32,"rt":313.95000009797513,"accuracy":1,"outcome":"+10","keys":[1814.3749998416752],"total_keys":1,"block":1,"trial":34,"stimulus":3,"robot":1,"valence":"win","action":"go","sham":0,"trial_type":"pit-trial","trial_index":70,"time_elapsed":412934,"internal_node_id":"0.0-41.0","task_version":"battery-v0.2-trt"},{"rune":"U","rune_set":"bacs1","hex":"#3366ff99","correct":32,"choice":-1,"rt":-1,"accuracy":0,"outcome":"+1","keys":[],"total_keys":0,"block":1,"trial":35,"stimulus":4,"robot":1,"valence":"win","action":"go","sham":0,"trial_type":"pit-trial","trial_index":71,"time_elapsed":416937,"internal_node_id":"0.0-42.0","task_version":"battery-v0.2-trt"},{"rune":"P","rune_set":"bacs1","hex":"#f73b6a7A","correct":-1,"choice":-1,"rt":-1,"accuracy":1,"outcome":"-1","keys":[],"total_keys":0,"block":1,"trial":36,"stimulus":2,"robot":4,"valence":"lose","action":"no-go","sham":0,"trial_type":"pit-trial","trial_index":72,"time_elapsed":420940,"internal_node_id":"0.0-43.0","task_version":"battery-v0.2-trt"},{"rune":"U","rune_set":"bacs1","hex":"#3366ff99","correct":32,"choice":-1,"rt":-1,"accuracy":0,"outcome":"+10","keys":[],"total_keys":0,"block":1,"trial":37,"stimulus":4,"robot":1,"valence":"win","action":"go","sham":1,"trial_type":"pit-trial","trial_index":73,"time_elapsed":424943,"internal_node_id":"0.0-44.0","task_version":"battery-v0.2-trt"},{"rune":"M","rune_set":"bacs1","hex":"#3366ff99","correct":32,"choice":32,"rt":720.3049999661744,"accuracy":1,"outcome":"+10","keys":[2220.475000096485],"total_keys":1,"block":1,"trial":38,"stimulus":3,"robot":1,"valence":"win","action":"go","sham":0,"trial_type":"pit-trial","trial_index":74,"time_elapsed":428366,"internal_node_id":"0.0-45.0","task_version":"battery-v0.2-trt"},{"rune":"P","rune_set":"bacs1","hex":"#f73b6a7A","correct":-1,"choice":-1,"rt":-1,"accuracy":1,"outcome":"-10","keys":[],"total_keys":0,"block":1,"trial":39,"stimulus":2,"robot":4,"valence":"lose","action":"no-go","sham":1,"trial_type":"pit-trial","trial_index":75,"time_elapsed":432368,"internal_node_id":"0.0-46.0","task_version":"battery-v0.2-trt"},{"rune":"Y","rune_set":"bacs1","hex":"#3366ff99","correct":-1,"choice":-1,"rt":-1,"accuracy":1,"outcome":"+10","keys":[],"total_keys":0,"block":1,"trial":40,"stimulus":0,"robot":2,"valence":"win","action":"no-go","sham":0,"trial_type":"pit-trial","trial_index":76,"time_elapsed":436372,"internal_node_id":"0.0-47.0","task_version":"battery-v0.2-trt"},{"rune":"U","rune_set":"bacs1","hex":"#3366ff99","correct":32,"choice":-1,"rt":-1,"accuracy":0,"outcome":"+1","keys":[],"total_keys":0,"block":1,"trial":41,"stimulus":4,"robot":1,"valence":"win","action":"go","sham":0,"trial_type":"pit-trial","trial_index":77,"time_elapsed":440376,"internal_node_id":"0.0-48.0","task_version":"battery-v0.2-trt"},{"rune":"S","rune_set":"bacs1","hex":"#f73b6a7A","correct":32,"choice":-1,"rt":-1,"accuracy":0,"outcome":"-10","keys":[],"total_keys":0,"block":1,"trial":42,"stimulus":5,"robot":3,"valence":"lose","action":"go","sham":0,"trial_type":"pit-trial","trial_index":78,"time_elapsed":444383,"internal_node_id":"0.0-49.0","task_version":"battery-v0.2-trt"},{"rune":"K","rune_set":"bacs1","hex":"#f73b6a7A","correct":-1,"choice":-1,"rt":-1,"accuracy":1,"outcome":"-1","keys":[],"total_keys":0,"block":1,"trial":43,"stimulus":6,"robot":4,"valence":"lose","action":"no-go","sham":0,"trial_type":"pit-trial","trial_index":79,"time_elapsed":448392,"internal_node_id":"0.0-50.0","task_version":"battery-v0.2-trt"},{"rune":"Y","rune_set":"bacs1","hex":"#3366ff99","correct":-1,"choice":-1,"rt":-1,"accuracy":1,"outcome":"+10","keys":[],"total_keys":0,"block":1,"trial":44,"stimulus":0,"robot":2,"valence":"win","action":"no-go","sham":0,"trial_type":"pit-trial","trial_index":80,"time_elapsed":452395,"internal_node_id":"0.0-51.0","task_version":"battery-v0.2-trt"},{"rune":"Y","rune_set":"bacs1","hex":"#3366ff99","correct":-1,"choice":-1,"rt":-1,"accuracy":1,"outcome":"+10","keys":[],"total_keys":0,"block":1,"trial":45,"stimulus":0,"robot":2,"valence":"win","action":"no-go","sham":0,"trial_type":"pit-trial","trial_index":81,"time_elapsed":456409,"internal_node_id":"0.0-52.0","task_version":"battery-v0.2-trt"},{"rune":"K","rune_set":"bacs1","hex":"#f73b6a7A","correct":-1,"choice":-1,"rt":-1,"accuracy":1,"outcome":"-1","keys":[],"total_keys":0,"block":1,"trial":46,"stimulus":6,"robot":4,"valence":"lose","action":"no-go","sham":0,"trial_type":"pit-trial","trial_index":82,"time_elapsed":460413,"internal_node_id":"0.0-53.0","task_version":"battery-v0.2-trt"},{"rune":"S","rune_set":"bacs1","hex":"#f73b6a7A","correct":32,"choice":32,"rt":504.8699998296797,"accuracy":1,"outcome":"-1","keys":[2006.3000000081956],"total_keys":1,"block":1,"trial":47,"stimulus":5,"robot":3,"valence":"lose","action":"go","sham":0,"trial_type":"pit-trial","trial_index":83,"time_elapsed":463636,"internal_node_id":"0.0-54.0","task_version":"battery-v0.2-trt"},{"rune":"U","rune_set":"bacs1","hex":"#3366ff99","correct":32,"choice":32,"rt":793.8799997791648,"accuracy":1,"outcome":"+10","keys":[2295.1299999840558],"total_keys":1,"block":1,"trial":48,"stimulus":4,"robot":1,"valence":"win","action":"go","sham":0,"trial_type":"pit-trial","trial_index":84,"time_elapsed":467133,"internal_node_id":"0.0-55.0","task_version":"battery-v0.2-trt"},{"rune":"U","rune_set":"bacs1","hex":"#3366ff99","correct":32,"choice":32,"rt":393.18000013008714,"accuracy":1,"outcome":"+10","keys":[1894.6100000757724],"total_keys":1,"block":1,"trial":49,"stimulus":4,"robot":1,"valence":"win","action":"go","sham":0,"trial_type":"pit-trial","trial_index":85,"time_elapsed":470242,"internal_node_id":"0.0-56.0","task_version":"battery-v0.2-trt"},{"rune":"S","rune_set":"bacs1","hex":"#f73b6a7A","correct":32,"choice":32,"rt":878.6950001958758,"accuracy":1,"outcome":"-10","keys":[2378.7299999967217],"total_keys":1,"block":1,"trial":50,"stimulus":5,"robot":3,"valence":"lose","action":"go","sham":1,"trial_type":"pit-trial","trial_index":86,"time_elapsed":473823,"internal_node_id":"0.0-57.0","task_version":"battery-v0.2-trt"},{"rune":"D","rune_set":"bacs1","hex":"#3366ff99","correct":-1,"choice":-1,"rt":-1,"accuracy":1,"outcome":"+10","keys":[],"total_keys":0,"block":1,"trial":51,"stimulus":7,"robot":2,"valence":"win","action":"no-go","sham":0,"trial_type":"pit-trial","trial_index":87,"time_elapsed":477828,"internal_node_id":"0.0-58.0","task_version":"battery-v0.2-trt"},{"rune":"K","rune_set":"bacs1","hex":"#f73b6a7A","correct":-1,"choice":-1,"rt":-1,"accuracy":1,"outcome":"-1","keys":[],"total_keys":0,"block":1,"trial":52,"stimulus":6,"robot":4,"valence":"lose","action":"no-go","sham":0,"trial_type":"pit-trial","trial_index":88,"time_elapsed":481833,"internal_node_id":"0.0-59.0","task_version":"battery-v0.2-trt"},{"rune":"U","rune_set":"bacs1","hex":"#3366ff99","correct":32,"choice":32,"rt":413.30499993637204,"accuracy":1,"outcome":"+10","keys":[1913.529999786988],"total_keys":1,"block":1,"trial":53,"stimulus":4,"robot":1,"valence":"win","action":"go","sham":0,"trial_type":"pit-trial","trial_index":89,"time_elapsed":484949,"internal_node_id":"0.0-60.0","task_version":"battery-v0.2-trt"},{"rune":"D","rune_set":"bacs1","hex":"#3366ff99","correct":-1,"choice":32,"rt":593.2350000366569,"accuracy":0,"outcome":"+10","keys":[2094.204999972135],"total_keys":1,"block":1,"trial":54,"stimulus":7,"robot":2,"valence":"win","action":"no-go","sham":1,"trial_type":"pit-trial","trial_index":90,"time_elapsed":488246,"internal_node_id":"0.0-61.0","task_version":"battery-v0.2-trt"},{"rune":"S","rune_set":"bacs1","hex":"#f73b6a7A","correct":32,"choice":32,"rt":664.6350000519305,"accuracy":1,"outcome":"-1","keys":[2165.5300001148134],"total_keys":1,"block":1,"trial":55,"stimulus":5,"robot":3,"valence":"lose","action":"go","sham":0,"trial_type":"pit-trial","trial_index":91,"time_elapsed":491615,"internal_node_id":"0.0-62.0","task_version":"battery-v0.2-trt"},{"rune":"K","rune_set":"bacs1","hex":"#f73b6a7A","correct":-1,"choice":-1,"rt":-1,"accuracy":1,"outcome":"-1","keys":[],"total_keys":0,"block":1,"trial":56,"stimulus":6,"robot":4,"valence":"lose","action":"no-go","sham":0,"trial_type":"pit-trial","trial_index":92,"time_elapsed":495617,"internal_node_id":"0.0-63.0","task_version":"battery-v0.2-trt"},{"rune":"U","rune_set":"bacs1","hex":"#3366ff99","correct":32,"choice":32,"rt":470.99999990314245,"accuracy":1,"outcome":"+10","keys":[1971.3900000788271],"total_keys":1,"block":1,"trial":57,"stimulus":4,"robot":1,"valence":"win","action":"go","sham":0,"trial_type":"pit-trial","trial_index":93,"time_elapsed":498791,"internal_node_id":"0.0-64.0","task_version":"battery-v0.2-trt"},{"rune":"D","rune_set":"bacs1","hex":"#3366ff99","correct":-1,"choice":32,"rt":672.2849998623133,"accuracy":0,"outcome":"+10","keys":[2172.915000002831],"total_keys":1,"block":1,"trial":58,"stimulus":7,"robot":2,"valence":"win","action":"no-go","sham":1,"trial_type":"pit-trial","trial_index":94,"time_elapsed":502166,"internal_node_id":"0.0-65.0","task_version":"battery-v0.2-trt"},{"rune":"K","rune_set":"bacs1","hex":"#f73b6a7A","correct":-1,"choice":-1,"rt":-1,"accuracy":1,"outcome":"-1","keys":[],"total_keys":0,"block":1,"trial":59,"stimulus":6,"robot":4,"valence":"lose","action":"no-go","sham":0,"trial_type":"pit-trial","trial_index":95,"time_elapsed":506173,"internal_node_id":"0.0-66.0","task_version":"battery-v0.2-trt"},{"rune":"S","rune_set":"bacs1","hex":"#f73b6a7A","correct":32,"choice":32,"rt":354.04499992728233,"accuracy":1,"outcome":"-1","keys":[1855.1750001497567],"total_keys":1,"block":1,"trial":60,"stimulus":5,"robot":3,"valence":"lose","action":"go","sham":0,"trial_type":"pit-trial","trial_index":96,"time_elapsed":509231,"internal_node_id":"0.0-67.0","task_version":"battery-v0.2-trt"},{"rune":"U","rune_set":"bacs1","hex":"#3366ff99","correct":32,"choice":32,"rt":445.12499985285103,"accuracy":1,"outcome":"+10","keys":[1946.585000026971],"total_keys":1,"block":1,"trial":61,"stimulus":4,"robot":1,"valence":"win","action":"go","sham":0,"trial_type":"pit-trial","trial_index":97,"time_elapsed":512382,"internal_node_id":"0.0-68.0","task_version":"battery-v0.2-trt"},{"rune":"S","rune_set":"bacs1","hex":"#f73b6a7A","correct":32,"choice":32,"rt":464.5549999549985,"accuracy":1,"outcome":"-1","keys":[1965.5200000852346],"total_keys":1,"block":1,"trial":62,"stimulus":5,"robot":3,"valence":"lose","action":"go","sham":0,"trial_type":"pit-trial","trial_index":98,"time_elapsed":515550,"internal_node_id":"0.0-69.0","task_version":"battery-v0.2-trt"},{"rune":"D","rune_set":"bacs1","hex":"#3366ff99","correct":-1,"choice":32,"rt":715.3549999929965,"accuracy":0,"outcome":"+10","keys":[2215.5200000852346],"total_keys":1,"block":1,"trial":63,"stimulus":7,"robot":2,"valence":"win","action":"no-go","sham":1,"trial_type":"pit-trial","trial_index":99,"time_elapsed":518967,"internal_node_id":"0.0-70.0","task_version":"battery-v0.2-trt"},{"rune":"K","rune_set":"bacs1","hex":"#f73b6a7A","correct":-1,"choice":-1,"rt":-1,"accuracy":1,"outcome":"-1","keys":[],"total_keys":0,"block":1,"trial":64,"stimulus":6,"robot":4,"valence":"lose","action":"no-go","sham":0,"trial_type":"pit-trial","trial_index":100,"time_elapsed":522969,"internal_node_id":"0.0-71.0","task_version":"battery-v0.2-trt"},{"rune":"D","rune_set":"bacs1","hex":"#3366ff99","correct":-1,"choice":32,"rt":447.2799999639392,"accuracy":0,"outcome":"+1","keys":[1947.775000007823],"total_keys":1,"block":1,"trial":65,"stimulus":7,"robot":2,"valence":"win","action":"no-go","sham":0,"trial_type":"pit-trial","trial_index":101,"time_elapsed":526119,"internal_node_id":"0.0-72.0","task_version":"battery-v0.2-trt"},{"rune":"U","rune_set":"bacs1","hex":"#3366ff99","correct":32,"choice":32,"rt":417.7600000984967,"accuracy":1,"outcome":"+1","keys":[1917.9599999915808],"total_keys":1,"block":1,"trial":66,"stimulus":4,"robot":1,"valence":"win","action":"go","sham":1,"trial_type":"pit-trial","trial_index":102,"time_elapsed":529239,"internal_node_id":"0.0-73.0","task_version":"battery-v0.2-trt"},{"rune":"K","rune_set":"bacs1","hex":"#f73b6a7A","correct":-1,"choice":-1,"rt":-1,"accuracy":1,"outcome":"-1","keys":[],"total_keys":0,"block":1,"trial":67,"stimulus":6,"robot":4,"valence":"lose","action":"no-go","sham":0,"trial_type":"pit-trial","trial_index":103,"time_elapsed":533243,"internal_node_id":"0.0-74.0","task_version":"battery-v0.2-trt"},{"rune":"S","rune_set":"bacs1","hex":"#f73b6a7A","correct":32,"choice":32,"rt":492.94500006362796,"accuracy":1,"outcome":"-1","keys":[1993.544999975711],"total_keys":1,"block":1,"trial":68,"stimulus":5,"robot":3,"valence":"lose","action":"go","sham":0,"trial_type":"pit-trial","trial_index":104,"time_elapsed":536439,"internal_node_id":"0.0-75.0","task_version":"battery-v0.2-trt"},{"rune":"U","rune_set":"bacs1","hex":"#3366ff99","correct":32,"choice":32,"rt":568.2449999731034,"accuracy":1,"outcome":"+10","keys":[2068.5199999716133],"total_keys":1,"block":1,"trial":69,"stimulus":4,"robot":1,"valence":"win","action":"go","sham":0,"trial_type":"pit-trial","trial_index":105,"time_elapsed":539710,"internal_node_id":"0.0-76.0","task_version":"battery-v0.2-trt"},{"rune":"S","rune_set":"bacs1","hex":"#f73b6a7A","correct":32,"choice":32,"rt":585.2500000037253,"accuracy":1,"outcome":"-1","keys":[2086.6600000299513],"total_keys":1,"block":1,"trial":70,"stimulus":5,"robot":3,"valence":"lose","action":"go","sham":0,"trial_type":"pit-trial","trial_index":106,"time_elapsed":542998,"internal_node_id":"0.0-77.0","task_version":"battery-v0.2-trt"},{"rune":"K","rune_set":"bacs1","hex":"#f73b6a7A","correct":-1,"choice":-1,"rt":-1,"accuracy":1,"outcome":"-1","keys":[],"total_keys":0,"block":1,"trial":71,"stimulus":6,"robot":4,"valence":"lose","action":"no-go","sham":0,"trial_type":"pit-trial","trial_index":107,"time_elapsed":547008,"internal_node_id":"0.0-78.0","task_version":"battery-v0.2-trt"},{"rune":"D","rune_set":"bacs1","hex":"#3366ff99","correct":-1,"choice":-1,"rt":-1,"accuracy":1,"outcome":"+10","keys":[],"total_keys":0,"block":1,"trial":72,"stimulus":7,"robot":2,"valence":"win","action":"no-go","sham":0,"trial_type":"pit-trial","trial_index":108,"time_elapsed":551016,"internal_node_id":"0.0-79.0","task_version":"battery-v0.2-trt"},{"rune":"D","rune_set":"bacs1","hex":"#3366ff99","correct":-1,"choice":-1,"rt":-1,"accuracy":1,"outcome":"+10","keys":[],"total_keys":0,"block":1,"trial":73,"stimulus":7,"robot":2,"valence":"win","action":"no-go","sham":0,"trial_type":"pit-trial","trial_index":109,"time_elapsed":555018,"internal_node_id":"0.0-80.0","task_version":"battery-v0.2-trt"},{"rune":"O","rune_set":"bacs1","hex":"#f73b6a7A","correct":32,"choice":-1,"rt":-1,"accuracy":0,"outcome":"-10","keys":[],"total_keys":0,"block":1,"trial":74,"stimulus":8,"robot":3,"valence":"lose","action":"go","sham":0,"trial_type":"pit-trial","trial_index":110,"time_elapsed":559028,"internal_node_id":"0.0-81.0","task_version":"battery-v0.2-trt"},{"rune":"U","rune_set":"bacs1","hex":"#3366ff99","correct":32,"choice":32,"rt":769.9300001841038,"accuracy":1,"outcome":"+10","keys":[2271.0200001019984],"total_keys":1,"block":1,"trial":75,"stimulus":4,"robot":1,"valence":"win","action":"go","sham":0,"trial_type":"pit-trial","trial_index":111,"time_elapsed":562502,"internal_node_id":"0.0-82.0","task_version":"battery-v0.2-trt"},{"rune":"K","rune_set":"bacs1","hex":"#f73b6a7A","correct":-1,"choice":-1,"rt":-1,"accuracy":1,"outcome":"-1","keys":[],"total_keys":0,"block":1,"trial":76,"stimulus":6,"robot":4,"valence":"lose","action":"no-go","sham":0,"trial_type":"pit-trial","trial_index":112,"time_elapsed":566506,"internal_node_id":"0.0-83.0","task_version":"battery-v0.2-trt"},{"rune":"D","rune_set":"bacs1","hex":"#3366ff99","correct":-1,"choice":-1,"rt":-1,"accuracy":1,"outcome":"+1","keys":[],"total_keys":0,"block":1,"trial":77,"stimulus":7,"robot":2,"valence":"win","action":"no-go","sham":1,"trial_type":"pit-trial","trial_index":113,"time_elapsed":570510,"internal_node_id":"0.0-84.0","task_version":"battery-v0.2-trt"},{"rune":"U","rune_set":"bacs1","hex":"#3366ff99","correct":32,"choice":32,"rt":359.1800001449883,"accuracy":1,"outcome":"+10","keys":[1862.2099999338388],"total_keys":1,"block":1,"trial":78,"stimulus":4,"robot":1,"valence":"win","action":"go","sham":0,"trial_type":"pit-trial","trial_index":114,"time_elapsed":573574,"internal_node_id":"0.0-85.0","task_version":"battery-v0.2-trt"},{"rune":"O","rune_set":"bacs1","hex":"#f73b6a7A","correct":32,"choice":32,"rt":665.3650000225753,"accuracy":1,"outcome":"-1","keys":[2165.7349998131394],"total_keys":1,"block":1,"trial":79,"stimulus":8,"robot":3,"valence":"lose","action":"go","sham":0,"trial_type":"pit-trial","trial_index":115,"time_elapsed":576942,"internal_node_id":"0.0-86.0","task_version":"battery-v0.2-trt"},{"rune":"K","rune_set":"bacs1","hex":"#f73b6a7A","correct":-1,"choice":-1,"rt":-1,"accuracy":1,"outcome":"-1","keys":[],"total_keys":0,"block":1,"trial":80,"stimulus":6,"robot":4,"valence":"lose","action":"no-go","sham":0,"trial_type":"pit-trial","trial_index":116,"time_elapsed":580947,"internal_node_id":"0.0-87.0","task_version":"battery-v0.2-trt"},{"rune":"D","rune_set":"bacs1","hex":"#3366ff99","correct":-1,"choice":-1,"rt":-1,"accuracy":1,"outcome":"+10","keys":[],"total_keys":0,"block":1,"trial":81,"stimulus":7,"robot":2,"valence":"win","action":"no-go","sham":0,"trial_type":"pit-trial","trial_index":117,"time_elapsed":584952,"internal_node_id":"0.0-88.0","task_version":"battery-v0.2-trt"},{"rune":"K","rune_set":"bacs1","hex":"#f73b6a7A","correct":-1,"choice":-1,"rt":-1,"accuracy":1,"outcome":"-1","keys":[],"total_keys":0,"block":1,"trial":82,"stimulus":6,"robot":4,"valence":"lose","action":"no-go","sham":0,"trial_type":"pit-trial","trial_index":118,"time_elapsed":588956,"internal_node_id":"0.0-89.0","task_version":"battery-v0.2-trt"},{"rune":"O","rune_set":"bacs1","hex":"#f73b6a7A","correct":32,"choice":32,"rt":498.5950000118464,"accuracy":1,"outcome":"-1","keys":[1999.779999954626],"total_keys":1,"block":1,"trial":83,"stimulus":8,"robot":3,"valence":"lose","action":"go","sham":0,"trial_type":"pit-trial","trial_index":119,"time_elapsed":592158,"internal_node_id":"0.0-90.0","task_version":"battery-v0.2-trt"},{"rune":"I","rune_set":"bacs1","hex":"#f73b6a7A","correct":32,"choice":-1,"rt":-1,"accuracy":0,"outcome":"-10","keys":[],"total_keys":0,"block":1,"trial":84,"stimulus":9,"robot":3,"valence":"lose","action":"go","sham":0,"trial_type":"pit-trial","trial_index":120,"time_elapsed":596161,"internal_node_id":"0.0-91.0","task_version":"battery-v0.2-trt"},{"rune":"K","rune_set":"bacs1","hex":"#f73b6a7A","correct":-1,"choice":-1,"rt":-1,"accuracy":1,"outcome":"-1","keys":[],"total_keys":0,"block":1,"trial":85,"stimulus":6,"robot":4,"valence":"lose","action":"no-go","sham":0,"trial_type":"pit-trial","trial_index":121,"time_elapsed":600164,"internal_node_id":"0.0-92.0","task_version":"battery-v0.2-trt"},{"rune":"D","rune_set":"bacs1","hex":"#3366ff99","correct":-1,"choice":-1,"rt":-1,"accuracy":1,"outcome":"+1","keys":[],"total_keys":0,"block":1,"trial":86,"stimulus":7,"robot":2,"valence":"win","action":"no-go","sham":1,"trial_type":"pit-trial","trial_index":122,"time_elapsed":604170,"internal_node_id":"0.0-93.0","task_version":"battery-v0.2-trt"},{"rune":"I","rune_set":"bacs1","hex":"#f73b6a7A","correct":32,"choice":32,"rt":725.5049999803305,"accuracy":1,"outcome":"-1","keys":[2226.120000006631],"total_keys":1,"block":1,"trial":87,"stimulus":9,"robot":3,"valence":"lose","action":"go","sham":0,"trial_type":"pit-trial","trial_index":123,"time_elapsed":607597,"internal_node_id":"0.0-94.0","task_version":"battery-v0.2-trt"},{"rune":"O","rune_set":"bacs1","hex":"#f73b6a7A","correct":32,"choice":32,"rt":1041.9349998701364,"accuracy":1,"outcome":"-1","keys":[2542.4299999140203],"total_keys":1,"block":1,"trial":88,"stimulus":8,"robot":3,"valence":"lose","action":"go","sham":0,"trial_type":"pit-trial","trial_index":124,"time_elapsed":611341,"internal_node_id":"0.0-95.0","task_version":"battery-v0.2-trt"},{"rune":"N","rune_set":"bacs1","hex":"#3366ff99","correct":-1,"choice":32,"rt":753.664999967441,"accuracy":0,"outcome":"+1","keys":[2254.274999955669],"total_keys":1,"block":1,"trial":89,"stimulus":11,"robot":2,"valence":"win","action":"no-go","sham":0,"trial_type":"pit-trial","trial_index":125,"time_elapsed":614797,"internal_node_id":"0.0-96.0","task_version":"battery-v0.2-trt"},{"rune":"I","rune_set":"bacs1","hex":"#f73b6a7A","correct":32,"choice":32,"rt":754.2450001928955,"accuracy":1,"outcome":"-1","keys":[2254.5049998443574],"total_keys":1,"block":1,"trial":90,"stimulus":9,"robot":3,"valence":"lose","action":"go","sham":0,"trial_type":"pit-trial","trial_index":126,"time_elapsed":618255,"internal_node_id":"0.0-97.0","task_version":"battery-v0.2-trt"},{"rune":"G","rune_set":"bacs1","hex":"#f73b6a7A","correct":-1,"choice":-1,"rt":-1,"accuracy":1,"outcome":"-10","keys":[],"total_keys":0,"block":1,"trial":91,"stimulus":10,"robot":4,"valence":"lose","action":"no-go","sham":1,"trial_type":"pit-trial","trial_index":127,"time_elapsed":622262,"internal_node_id":"0.0-98.0","task_version":"battery-v0.2-trt"},{"rune":"O","rune_set":"bacs1","hex":"#f73b6a7A","correct":32,"choice":32,"rt":479.4750001747161,"accuracy":1,"outcome":"-1","keys":[1981.1799998860806],"total_keys":1,"block":1,"trial":92,"stimulus":8,"robot":3,"valence":"lose","action":"go","sham":0,"trial_type":"pit-trial","trial_index":128,"time_elapsed":625445,"internal_node_id":"0.0-99.0","task_version":"battery-v0.2-trt"},{"rune":"O","rune_set":"bacs1","hex":"#f73b6a7A","correct":32,"choice":32,"rt":434.3099999241531,"accuracy":1,"outcome":"-10","keys":[1934.7950001247227],"total_keys":1,"block":1,"trial":93,"stimulus":8,"robot":3,"valence":"lose","action":"go","sham":1,"trial_type":"pit-trial","trial_index":129,"time_elapsed":628582,"internal_node_id":"0.0-100.0","task_version":"battery-v0.2-trt"},{"rune":"I","rune_set":"bacs1","hex":"#f73b6a7A","correct":32,"choice":32,"rt":456.74500009045005,"accuracy":1,"outcome":"-1","keys":[1958.0900000873953],"total_keys":1,"block":1,"trial":94,"stimulus":9,"robot":3,"valence":"lose","action":"go","sham":0,"trial_type":"pit-trial","trial_index":130,"time_elapsed":631741,"internal_node_id":"0.0-101.0","task_version":"battery-v0.2-trt"},{"rune":"G","rune_set":"bacs1","hex":"#f73b6a7A","correct":-1,"choice":32,"rt":561.8100001011044,"accuracy":0,"outcome":"-10","keys":[2062.4449998140335],"total_keys":1,"block":1,"trial":95,"stimulus":10,"robot":4,"valence":"lose","action":"no-go","sham":0,"trial_type":"pit-trial","trial_index":131,"time_elapsed":635005,"internal_node_id":"0.0-102.0","task_version":"battery-v0.2-trt"},{"rune":"N","rune_set":"bacs1","hex":"#3366ff99","correct":-1,"choice":-1,"rt":-1,"accuracy":1,"outcome":"+10","keys":[],"total_keys":0,"block":1,"trial":96,"stimulus":11,"robot":2,"valence":"win","action":"no-go","sham":0,"trial_type":"pit-trial","trial_index":132,"time_elapsed":639009,"internal_node_id":"0.0-103.0","task_version":"battery-v0.2-trt"},{"rune":"G","rune_set":"bacs1","hex":"#f73b6a7A","correct":-1,"choice":32,"rt":603.5599999595433,"accuracy":0,"outcome":"-10","keys":[2104.689999949187],"total_keys":1,"block":1,"trial":97,"stimulus":10,"robot":4,"valence":"lose","action":"no-go","sham":0,"trial_type":"pit-trial","trial_index":133,"time_elapsed":642318,"internal_node_id":"0.0-104.0","task_version":"battery-v0.2-trt"},{"rune":"O","rune_set":"bacs1","hex":"#f73b6a7A","correct":32,"choice":32,"rt":703.7300001829863,"accuracy":1,"outcome":"-1","keys":[2205.725000007078],"total_keys":1,"block":1,"trial":98,"stimulus":8,"robot":3,"valence":"lose","action":"go","sham":0,"trial_type":"pit-trial","trial_index":134,"time_elapsed":645726,"internal_node_id":"0.0-105.0","task_version":"battery-v0.2-trt"},{"rune":"N","rune_set":"bacs1","hex":"#3366ff99","correct":-1,"choice":-1,"rt":-1,"accuracy":1,"outcome":"+10","keys":[],"total_keys":0,"block":1,"trial":99,"stimulus":11,"robot":2,"valence":"win","action":"no-go","sham":0,"trial_type":"pit-trial","trial_index":135,"time_elapsed":649735,"internal_node_id":"0.0-106.0","task_version":"battery-v0.2-trt"},{"rune":"I","rune_set":"bacs1","hex":"#f73b6a7A","correct":32,"choice":32,"rt":465.6599999871105,"accuracy":1,"outcome":"-1","keys":[1966.3750000763685],"total_keys":1,"block":1,"trial":100,"stimulus":9,"robot":3,"valence":"lose","action":"go","sham":0,"trial_type":"pit-trial","trial_index":136,"time_elapsed":652904,"internal_node_id":"0.0-107.0","task_version":"battery-v0.2-trt"},{"rune":"G","rune_set":"bacs1","hex":"#f73b6a7A","correct":-1,"choice":-1,"rt":-1,"accuracy":1,"outcome":"-1","keys":[],"total_keys":0,"block":1,"trial":101,"stimulus":10,"robot":4,"valence":"lose","action":"no-go","sham":0,"trial_type":"pit-trial","trial_index":137,"time_elapsed":656907,"internal_node_id":"0.0-108.0","task_version":"battery-v0.2-trt"},{"rune":"I","rune_set":"bacs1","hex":"#f73b6a7A","correct":32,"choice":32,"rt":482.73999989032745,"accuracy":1,"outcome":"-10","keys":[1984.5850002020597],"total_keys":1,"block":1,"trial":102,"stimulus":9,"robot":3,"valence":"lose","action":"go","sham":1,"trial_type":"pit-trial","trial_index":138,"time_elapsed":660093,"internal_node_id":"0.0-109.0","task_version":"battery-v0.2-trt"},{"rune":"N","rune_set":"bacs1","hex":"#3366ff99","correct":-1,"choice":-1,"rt":-1,"accuracy":1,"outcome":"+10","keys":[],"total_keys":0,"block":1,"trial":103,"stimulus":11,"robot":2,"valence":"win","action":"no-go","sham":0,"trial_type":"pit-trial","trial_index":139,"time_elapsed":664098,"internal_node_id":"0.0-110.0","task_version":"battery-v0.2-trt"},{"rune":"O","rune_set":"bacs1","hex":"#f73b6a7A","correct":32,"choice":32,"rt":463.31000002101064,"accuracy":1,"outcome":"-1","keys":[1963.3200000971556],"total_keys":1,"block":1,"trial":104,"stimulus":8,"robot":3,"valence":"lose","action":"go","sham":0,"trial_type":"pit-trial","trial_index":140,"time_elapsed":667264,"internal_node_id":"0.0-111.0","task_version":"battery-v0.2-trt"},{"rune":"O","rune_set":"bacs1","hex":"#f73b6a7A","correct":32,"choice":32,"rt":469.55000003799796,"accuracy":1,"outcome":"-1","keys":[1971.2600000202656],"total_keys":1,"block":1,"trial":105,"stimulus":8,"robot":3,"valence":"lose","action":"go","sham":0,"trial_type":"pit-trial","trial_index":141,"time_elapsed":670437,"internal_node_id":"0.0-112.0","task_version":"battery-v0.2-trt"},{"rune":"N","rune_set":"bacs1","hex":"#3366ff99","correct":-1,"choice":-1,"rt":-1,"accuracy":1,"outcome":"+10","keys":[],"total_keys":0,"block":1,"trial":106,"stimulus":11,"robot":2,"valence":"win","action":"no-go","sham":0,"trial_type":"pit-trial","trial_index":142,"time_elapsed":674440,"internal_node_id":"0.0-113.0","task_version":"battery-v0.2-trt"},{"rune":"G","rune_set":"bacs1","hex":"#f73b6a7A","correct":-1,"choice":-1,"rt":-1,"accuracy":1,"outcome":"-1","keys":[],"total_keys":0,"block":1,"trial":107,"stimulus":10,"robot":4,"valence":"lose","action":"no-go","sham":0,"trial_type":"pit-trial","trial_index":143,"time_elapsed":678443,"internal_node_id":"0.0-114.0","task_version":"battery-v0.2-trt"},{"rune":"I","rune_set":"bacs1","hex":"#f73b6a7A","correct":32,"choice":32,"rt":500.9149999823421,"accuracy":1,"outcome":"-1","keys":[2001.1350000277162],"total_keys":1,"block":1,"trial":108,"stimulus":9,"robot":3,"valence":"lose","action":"go","sham":0,"trial_type":"pit-trial","trial_index":144,"time_elapsed":681646,"internal_node_id":"0.0-115.0","task_version":"battery-v0.2-trt"},{"rune":"G","rune_set":"bacs1","hex":"#f73b6a7A","correct":-1,"choice":-1,"rt":-1,"accuracy":1,"outcome":"-1","keys":[],"total_keys":0,"block":1,"trial":109,"stimulus":10,"robot":4,"valence":"lose","action":"no-go","sham":0,"trial_type":"pit-trial","trial_index":145,"time_elapsed":685649,"internal_node_id":"0.0-116.0","task_version":"battery-v0.2-trt"},{"rune":"I","rune_set":"bacs1","hex":"#f73b6a7A","correct":32,"choice":32,"rt":486.1400001682341,"accuracy":1,"outcome":"-1","keys":[1986.7749998811632],"total_keys":1,"block":1,"trial":110,"stimulus":9,"robot":3,"valence":"lose","action":"go","sham":0,"trial_type":"pit-trial","trial_index":146,"time_elapsed":688838,"internal_node_id":"0.0-117.0","task_version":"battery-v0.2-trt"},{"rune":"N","rune_set":"bacs1","hex":"#3366ff99","correct":-1,"choice":-1,"rt":-1,"accuracy":1,"outcome":"+10","keys":[],"total_keys":0,"block":1,"trial":111,"stimulus":11,"robot":2,"valence":"win","action":"no-go","sham":0,"trial_type":"pit-trial","trial_index":147,"time_elapsed":692842,"internal_node_id":"0.0-118.0","task_version":"battery-v0.2-trt"},{"rune":"O","rune_set":"bacs1","hex":"#f73b6a7A","correct":32,"choice":32,"rt":468.8099999912083,"accuracy":1,"outcome":"-1","keys":[1969.6800000965595],"total_keys":1,"block":1,"trial":112,"stimulus":8,"robot":3,"valence":"lose","action":"go","sham":0,"trial_type":"pit-trial","trial_index":148,"time_elapsed":696014,"internal_node_id":"0.0-119.0","task_version":"battery-v0.2-trt"},{"rune":"O","rune_set":"bacs1","hex":"#f73b6a7A","correct":32,"choice":32,"rt":448.33000004291534,"accuracy":1,"outcome":"-1","keys":[1949.3099998217076],"total_keys":1,"block":1,"trial":113,"stimulus":8,"robot":3,"valence":"lose","action":"go","sham":0,"trial_type":"pit-trial","trial_index":149,"time_elapsed":699166,"internal_node_id":"0.0-120.0","task_version":"battery-v0.2-trt"},{"rune":"N","rune_set":"bacs1","hex":"#3366ff99","correct":-1,"choice":-1,"rt":-1,"accuracy":1,"outcome":"+10","keys":[],"total_keys":0,"block":1,"trial":114,"stimulus":11,"robot":2,"valence":"win","action":"no-go","sham":0,"trial_type":"pit-trial","trial_index":150,"time_elapsed":703169,"internal_node_id":"0.0-121.0","task_version":"battery-v0.2-trt"},{"rune":"G","rune_set":"bacs1","hex":"#f73b6a7A","correct":-1,"choice":-1,"rt":-1,"accuracy":1,"outcome":"-1","keys":[],"total_keys":0,"block":1,"trial":115,"stimulus":10,"robot":4,"valence":"lose","action":"no-go","sham":0,"trial_type":"pit-trial","trial_index":151,"time_elapsed":707172,"internal_node_id":"0.0-122.0","task_version":"battery-v0.2-trt"},{"rune":"I","rune_set":"bacs1","hex":"#f73b6a7A","correct":32,"choice":32,"rt":427.85999993793666,"accuracy":1,"outcome":"-1","keys":[1928.0250000301749],"total_keys":1,"block":1,"trial":116,"stimulus":9,"robot":3,"valence":"lose","action":"go","sham":0,"trial_type":"pit-trial","trial_index":152,"time_elapsed":710302,"internal_node_id":"0.0-123.0","task_version":"battery-v0.2-trt"},{"rune":"I","rune_set":"bacs1","hex":"#f73b6a7A","correct":32,"choice":32,"rt":457.95000018551946,"accuracy":1,"outcome":"-1","keys":[1959.260000148788],"total_keys":1,"block":1,"trial":117,"stimulus":9,"robot":3,"valence":"lose","action":"go","sham":0,"trial_type":"pit-trial","trial_index":153,"time_elapsed":713463,"internal_node_id":"0.0-124.0","task_version":"battery-v0.2-trt"},{"rune":"N","rune_set":"bacs1","hex":"#3366ff99","correct":-1,"choice":-1,"rt":-1,"accuracy":1,"outcome":"+10","keys":[],"total_keys":0,"block":1,"trial":118,"stimulus":11,"robot":2,"valence":"win","action":"no-go","sham":0,"trial_type":"pit-trial","trial_index":154,"time_elapsed":717467,"internal_node_id":"0.0-125.0","task_version":"battery-v0.2-trt"},{"rune":"G","rune_set":"bacs1","hex":"#f73b6a7A","correct":-1,"choice":-1,"rt":-1,"accuracy":1,"outcome":"-1","keys":[],"total_keys":0,"block":1,"trial":119,"stimulus":10,"robot":4,"valence":"lose","action":"no-go","sham":0,"trial_type":"pit-trial","trial_index":155,"time_elapsed":721471,"internal_node_id":"0.0-126.0","task_version":"battery-v0.2-trt"},{"rune":"O","rune_set":"bacs1","hex":"#f73b6a7A","correct":32,"choice":32,"rt":465.4600000940263,"accuracy":1,"outcome":"-1","keys":[1965.844999998808],"total_keys":1,"block":1,"trial":120,"stimulus":8,"robot":3,"valence":"lose","action":"go","sham":0,"trial_type":"pit-trial","trial_index":156,"time_elapsed":724638,"internal_node_id":"0.0-127.0","task_version":"battery-v0.2-trt"},{"view_history":"[{\"page_index\":0,\"viewing_time\":2696.2999999523163},{\"page_index\":1,\"viewing_time\":11631.210000021383}]","rt":14327.774999896064,"trial_type":"pit-instructions","trial_index":157,"time_elapsed":738967,"internal_node_id":"0.0-128.0","task_version":"battery-v0.2-trt"},{"rune":"C","rune_set":"bacs1","hex":"#3366ff99","correct":32,"choice":32,"rt":623.9100000821054,"accuracy":1,"outcome":"+10","keys":[2124.390000011772],"total_keys":1,"block":2,"trial":121,"stimulus":2,"robot":1,"valence":"win","action":"go","sham":0,"trial_type":"pit-trial","trial_index":158,"time_elapsed":742294,"internal_node_id":"0.0-129.0","task_version":"battery-v0.2-trt"},{"rune":"L","rune_set":"bacs1","hex":"#f73b6a7A","correct":-1,"choice":32,"rt":690.9650000743568,"accuracy":0,"outcome":"-10","keys":[2191.025000065565],"total_keys":1,"block":2,"trial":122,"stimulus":1,"robot":4,"valence":"lose","action":"no-go","sham":0,"trial_type":"pit-trial","trial_index":159,"time_elapsed":745687,"internal_node_id":"0.0-130.0","task_version":"battery-v0.2-trt"},{"rune":"Q","rune_set":"bacs1","hex":"#f73b6a7A","correct":-1,"choice":32,"rt":824.9049999285489,"accuracy":0,"outcome":"-10","keys":[2325.3900001291186],"total_keys":1,"block":2,"trial":123,"stimulus":0,"robot":4,"valence":"lose","action":"no-go","sham":0,"trial_type":"pit-trial","trial_index":160,"time_elapsed":749215,"internal_node_id":"0.0-131.0","task_version":"battery-v0.2-trt"},{"rune":"A","rune_set":"bacs1","hex":"#3366ff99","correct":-1,"choice":32,"rt":680.2600000519305,"accuracy":0,"outcome":"+1","keys":[2181.235000025481],"total_keys":1,"block":2,"trial":124,"stimulus":3,"robot":2,"valence":"win","action":"no-go","sham":0,"trial_type":"pit-trial","trial_index":161,"time_elapsed":752598,"internal_node_id":"0.0-132.0","task_version":"battery-v0.2-trt"},{"rune":"A","rune_set":"bacs1","hex":"#3366ff99","correct":-1,"choice":32,"rt":442.39500002004206,"accuracy":0,"outcome":"+10","keys":[1942.4700001254678],"total_keys":1,"block":2,"trial":125,"stimulus":3,"robot":2,"valence":"win","action":"no-go","sham":1,"trial_type":"pit-trial","trial_index":162,"time_elapsed":755743,"internal_node_id":"0.0-133.0","task_version":"battery-v0.2-trt"},{"rune":"C","rune_set":"bacs1","hex":"#3366ff99","correct":32,"choice":32,"rt":400.86500020697713,"accuracy":1,"outcome":"+10","keys":[1901.5200000721961],"total_keys":1,"block":2,"trial":126,"stimulus":2,"robot":1,"valence":"win","action":"go","sham":0,"trial_type":"pit-trial","trial_index":163,"time_elapsed":758847,"internal_node_id":"0.0-134.0","task_version":"battery-v0.2-trt"},{"rune":"L","rune_set":"bacs1","hex":"#f73b6a7A","correct":-1,"choice":-1,"rt":-1,"accuracy":1,"outcome":"-1","keys":[],"total_keys":0,"block":2,"trial":127,"stimulus":1,"robot":4,"valence":"lose","action":"no-go","sham":0,"trial_type":"pit-trial","trial_index":164,"time_elapsed":762850,"internal_node_id":"0.0-135.0","task_version":"battery-v0.2-trt"},{"rune":"Q","rune_set":"bacs1","hex":"#f73b6a7A","correct":-1,"choice":32,"rt":621.7300000134856,"accuracy":0,"outcome":"-10","keys":[2122.6950001437217],"total_keys":1,"block":2,"trial":128,"stimulus":0,"robot":4,"valence":"lose","action":"no-go","sham":0,"trial_type":"pit-trial","trial_index":165,"time_elapsed":766174,"internal_node_id":"0.0-136.0","task_version":"battery-v0.2-trt"},{"rune":"L","rune_set":"bacs1","hex":"#f73b6a7A","correct":-1,"choice":-1,"rt":-1,"accuracy":1,"outcome":"-1","keys":[],"total_keys":0,"block":2,"trial":129,"stimulus":1,"robot":4,"valence":"lose","action":"no-go","sham":0,"trial_type":"pit-trial","trial_index":166,"time_elapsed":770177,"internal_node_id":"0.0-137.0","task_version":"battery-v0.2-trt"},{"rune":"A","rune_set":"bacs1","hex":"#3366ff99","correct":-1,"choice":-1,"rt":-1,"accuracy":1,"outcome":"+10","keys":[],"total_keys":0,"block":2,"trial":130,"stimulus":3,"robot":2,"valence":"win","action":"no-go","sham":0,"trial_type":"pit-trial","trial_index":167,"time_elapsed":774180,"internal_node_id":"0.0-138.0","task_version":"battery-v0.2-trt"},{"rune":"Q","rune_set":"bacs1","hex":"#f73b6a7A","correct":-1,"choice":-1,"rt":-1,"accuracy":1,"outcome":"-1","keys":[],"total_keys":0,"block":2,"trial":131,"stimulus":0,"robot":4,"valence":"lose","action":"no-go","sham":0,"trial_type":"pit-trial","trial_index":168,"time_elapsed":778184,"internal_node_id":"0.0-139.0","task_version":"battery-v0.2-trt"},{"rune":"C","rune_set":"bacs1","hex":"#3366ff99","correct":32,"choice":32,"rt":430.4849999025464,"accuracy":1,"outcome":"+10","keys":[1930.7850000914186],"total_keys":1,"block":2,"trial":132,"stimulus":2,"robot":1,"valence":"win","action":"go","sham":0,"trial_type":"pit-trial","trial_index":169,"time_elapsed":781318,"internal_node_id":"0.0-140.0","task_version":"battery-v0.2-trt"},{"rune":"C","rune_set":"bacs1","hex":"#3366ff99","correct":32,"choice":32,"rt":552.7749999891967,"accuracy":1,"outcome":"+10","keys":[2053.810000186786],"total_keys":1,"block":2,"trial":133,"stimulus":2,"robot":1,"valence":"win","action":"go","sham":0,"trial_type":"pit-trial","trial_index":170,"time_elapsed":784573,"internal_node_id":"0.0-141.0","task_version":"battery-v0.2-trt"},{"rune":"L","rune_set":"bacs1","hex":"#f73b6a7A","correct":-1,"choice":-1,"rt":-1,"accuracy":1,"outcome":"-1","keys":[],"total_keys":0,"block":2,"trial":134,"stimulus":1,"robot":4,"valence":"lose","action":"no-go","sham":0,"trial_type":"pit-trial","trial_index":171,"time_elapsed":788576,"internal_node_id":"0.0-142.0","task_version":"battery-v0.2-trt"},{"rune":"Q","rune_set":"bacs1","hex":"#f73b6a7A","correct":-1,"choice":-1,"rt":-1,"accuracy":1,"outcome":"-1","keys":[],"total_keys":0,"block":2,"trial":135,"stimulus":0,"robot":4,"valence":"lose","action":"no-go","sham":0,"trial_type":"pit-trial","trial_index":172,"time_elapsed":792583,"internal_node_id":"0.0-143.0","task_version":"battery-v0.2-trt"},{"rune":"A","rune_set":"bacs1","hex":"#3366ff99","correct":-1,"choice":-1,"rt":-1,"accuracy":1,"outcome":"+10","keys":[],"total_keys":0,"block":2,"trial":136,"stimulus":3,"robot":2,"valence":"win","action":"no-go","sham":0,"trial_type":"pit-trial","trial_index":173,"time_elapsed":796586,"internal_node_id":"0.0-144.0","task_version":"battery-v0.2-trt"},{"rune":"L","rune_set":"bacs1","hex":"#f73b6a7A","correct":-1,"choice":-1,"rt":-1,"accuracy":1,"outcome":"-1","keys":[],"total_keys":0,"block":2,"trial":137,"stimulus":1,"robot":4,"valence":"lose","action":"no-go","sham":0,"trial_type":"pit-trial","trial_index":174,"time_elapsed":800589,"internal_node_id":"0.0-145.0","task_version":"battery-v0.2-trt"},{"rune":"Q","rune_set":"bacs1","hex":"#f73b6a7A","correct":-1,"choice":-1,"rt":-1,"accuracy":1,"outcome":"-1","keys":[],"total_keys":0,"block":2,"trial":138,"stimulus":0,"robot":4,"valence":"lose","action":"no-go","sham":0,"trial_type":"pit-trial","trial_index":175,"time_elapsed":804594,"internal_node_id":"0.0-146.0","task_version":"battery-v0.2-trt"},{"rune":"C","rune_set":"bacs1","hex":"#3366ff99","correct":32,"choice":32,"rt":501.6250000335276,"accuracy":1,"outcome":"+10","keys":[2002.0700001623482],"total_keys":1,"block":2,"trial":139,"stimulus":2,"robot":1,"valence":"win","action":"go","sham":0,"trial_type":"pit-trial","trial_index":176,"time_elapsed":807798,"internal_node_id":"0.0-147.0","task_version":"battery-v0.2-trt"},{"rune":"A","rune_set":"bacs1","hex":"#3366ff99","correct":-1,"choice":-1,"rt":-1,"accuracy":1,"outcome":"+1","keys":[],"total_keys":0,"block":2,"trial":140,"stimulus":3,"robot":2,"valence":"win","action":"no-go","sham":1,"trial_type":"pit-trial","trial_index":177,"time_elapsed":811803,"internal_node_id":"0.0-148.0","task_version":"battery-v0.2-trt"},{"rune":"A","rune_set":"bacs1","hex":"#3366ff99","correct":-1,"choice":-1,"rt":-1,"accuracy":1,"outcome":"+10","keys":[],"total_keys":0,"block":2,"trial":141,"stimulus":3,"robot":2,"valence":"win","action":"no-go","sham":0,"trial_type":"pit-trial","trial_index":178,"time_elapsed":815806,"internal_node_id":"0.0-149.0","task_version":"battery-v0.2-trt"},{"rune":"L","rune_set":"bacs1","hex":"#f73b6a7A","correct":-1,"choice":-1,"rt":-1,"accuracy":1,"outcome":"-1","keys":[],"total_keys":0,"block":2,"trial":142,"stimulus":1,"robot":4,"valence":"lose","action":"no-go","sham":0,"trial_type":"pit-trial","trial_index":179,"time_elapsed":819818,"internal_node_id":"0.0-150.0","task_version":"battery-v0.2-trt"},{"rune":"Q","rune_set":"bacs1","hex":"#f73b6a7A","correct":-1,"choice":-1,"rt":-1,"accuracy":1,"outcome":"-1","keys":[],"total_keys":0,"block":2,"trial":143,"stimulus":0,"robot":4,"valence":"lose","action":"no-go","sham":0,"trial_type":"pit-trial","trial_index":180,"time_elapsed":823820,"internal_node_id":"0.0-151.0","task_version":"battery-v0.2-trt"},{"rune":"C","rune_set":"bacs1","hex":"#3366ff99","correct":32,"choice":32,"rt":402.02499995939434,"accuracy":1,"outcome":"+10","keys":[1903.5150001291186],"total_keys":1,"block":2,"trial":144,"stimulus":2,"robot":1,"valence":"win","action":"go","sham":0,"trial_type":"pit-trial","trial_index":181,"time_elapsed":826926,"internal_node_id":"0.0-152.0","task_version":"battery-v0.2-trt"},{"rune":"L","rune_set":"bacs1","hex":"#f73b6a7A","correct":-1,"choice":-1,"rt":-1,"accuracy":1,"outcome":"-1","keys":[],"total_keys":0,"block":2,"trial":145,"stimulus":1,"robot":4,"valence":"lose","action":"no-go","sham":0,"trial_type":"pit-trial","trial_index":182,"time_elapsed":830932,"internal_node_id":"0.0-153.0","task_version":"battery-v0.2-trt"},{"rune":"A","rune_set":"bacs1","hex":"#3366ff99","correct":-1,"choice":-1,"rt":-1,"accuracy":1,"outcome":"+1","keys":[],"total_keys":0,"block":2,"trial":146,"stimulus":3,"robot":2,"valence":"win","action":"no-go","sham":1,"trial_type":"pit-trial","trial_index":183,"time_elapsed":834935,"internal_node_id":"0.0-154.0","task_version":"battery-v0.2-trt"},{"rune":"Q","rune_set":"bacs1","hex":"#f73b6a7A","correct":-1,"choice":-1,"rt":-1,"accuracy":1,"outcome":"-1","keys":[],"total_keys":0,"block":2,"trial":147,"stimulus":0,"robot":4,"valence":"lose","action":"no-go","sham":0,"trial_type":"pit-trial","trial_index":184,"time_elapsed":838939,"internal_node_id":"0.0-155.0","task_version":"battery-v0.2-trt"},{"rune":"C","rune_set":"bacs1","hex":"#3366ff99","correct":32,"choice":32,"rt":444.6199999656528,"accuracy":1,"outcome":"+10","keys":[1945.1500000432134],"total_keys":1,"block":2,"trial":148,"stimulus":2,"robot":1,"valence":"win","action":"go","sham":0,"trial_type":"pit-trial","trial_index":185,"time_elapsed":842086,"internal_node_id":"0.0-156.0","task_version":"battery-v0.2-trt"},{"rune":"A","rune_set":"bacs1","hex":"#3366ff99","correct":-1,"choice":-1,"rt":-1,"accuracy":1,"outcome":"+10","keys":[],"total_keys":0,"block":2,"trial":149,"stimulus":3,"robot":2,"valence":"win","action":"no-go","sham":0,"trial_type":"pit-trial","trial_index":186,"time_elapsed":846098,"internal_node_id":"0.0-157.0","task_version":"battery-v0.2-trt"},{"rune":"L","rune_set":"bacs1","hex":"#f73b6a7A","correct":-1,"choice":-1,"rt":-1,"accuracy":1,"outcome":"-10","keys":[],"total_keys":0,"block":2,"trial":150,"stimulus":1,"robot":4,"valence":"lose","action":"no-go","sham":1,"trial_type":"pit-trial","trial_index":187,"time_elapsed":850114,"internal_node_id":"0.0-158.0","task_version":"battery-v0.2-trt"},{"rune":"Q","rune_set":"bacs1","hex":"#f73b6a7A","correct":-1,"choice":-1,"rt":-1,"accuracy":1,"outcome":"-1","keys":[],"total_keys":0,"block":2,"trial":151,"stimulus":0,"robot":4,"valence":"lose","action":"no-go","sham":0,"trial_type":"pit-trial","trial_index":188,"time_elapsed":854117,"internal_node_id":"0.0-159.0","task_version":"battery-v0.2-trt"},{"rune":"C","rune_set":"bacs1","hex":"#3366ff99","correct":32,"choice":32,"rt":754.4950000010431,"accuracy":1,"outcome":"+10","keys":[2255.794999888167],"total_keys":1,"block":2,"trial":152,"stimulus":2,"robot":1,"valence":"win","action":"go","sham":0,"trial_type":"pit-trial","trial_index":189,"time_elapsed":857575,"internal_node_id":"0.0-160.0","task_version":"battery-v0.2-trt"},{"rune":"Q","rune_set":"bacs1","hex":"#f73b6a7A","correct":-1,"choice":-1,"rt":-1,"accuracy":1,"outcome":"-10","keys":[],"total_keys":0,"block":2,"trial":153,"stimulus":0,"robot":4,"valence":"lose","action":"no-go","sham":1,"trial_type":"pit-trial","trial_index":190,"time_elapsed":861582,"internal_node_id":"0.0-161.0","task_version":"battery-v0.2-trt"},{"rune":"C","rune_set":"bacs1","hex":"#3366ff99","correct":32,"choice":32,"rt":354.89000007510185,"accuracy":1,"outcome":"+10","keys":[1856.469999998808],"total_keys":1,"block":2,"trial":154,"stimulus":2,"robot":1,"valence":"win","action":"go","sham":0,"trial_type":"pit-trial","trial_index":191,"time_elapsed":864640,"internal_node_id":"0.0-162.0","task_version":"battery-v0.2-trt"},{"rune":"A","rune_set":"bacs1","hex":"#3366ff99","correct":-1,"choice":-1,"rt":-1,"accuracy":1,"outcome":"+10","keys":[],"total_keys":0,"block":2,"trial":155,"stimulus":3,"robot":2,"valence":"win","action":"no-go","sham":0,"trial_type":"pit-trial","trial_index":192,"time_elapsed":868645,"internal_node_id":"0.0-163.0","task_version":"battery-v0.2-trt"},{"rune":"F","rune_set":"bacs1","hex":"#f73b6a7A","correct":32,"choice":32,"rt":930.3349999245256,"accuracy":1,"outcome":"-1","keys":[2430.8700000401586],"total_keys":1,"block":2,"trial":156,"stimulus":4,"robot":3,"valence":"lose","action":"go","sham":0,"trial_type":"pit-trial","trial_index":193,"time_elapsed":872279,"internal_node_id":"0.0-164.0","task_version":"battery-v0.2-trt"},{"rune":"C","rune_set":"bacs1","hex":"#3366ff99","correct":32,"choice":32,"rt":462.9800000693649,"accuracy":1,"outcome":"+10","keys":[1963.8700000941753],"total_keys":1,"block":2,"trial":157,"stimulus":2,"robot":1,"valence":"win","action":"go","sham":0,"trial_type":"pit-trial","trial_index":194,"time_elapsed":875445,"internal_node_id":"0.0-165.0","task_version":"battery-v0.2-trt"},{"rune":"Q","rune_set":"bacs1","hex":"#f73b6a7A","correct":-1,"choice":-1,"rt":-1,"accuracy":1,"outcome":"-1","keys":[],"total_keys":0,"block":2,"trial":158,"stimulus":0,"robot":4,"valence":"lose","action":"no-go","sham":0,"trial_type":"pit-trial","trial_index":195,"time_elapsed":879448,"internal_node_id":"0.0-166.0","task_version":"battery-v0.2-trt"},{"rune":"F","rune_set":"bacs1","hex":"#f73b6a7A","correct":32,"choice":32,"rt":591.5200000163168,"accuracy":1,"outcome":"-1","keys":[2092.1199999284],"total_keys":1,"block":2,"trial":159,"stimulus":4,"robot":3,"valence":"lose","action":"go","sham":0,"trial_type":"pit-trial","trial_index":196,"time_elapsed":882742,"internal_node_id":"0.0-167.0","task_version":"battery-v0.2-trt"},{"rune":"A","rune_set":"bacs1","hex":"#3366ff99","correct":-1,"choice":-1,"rt":-1,"accuracy":1,"outcome":"+1","keys":[],"total_keys":0,"block":2,"trial":160,"stimulus":3,"robot":2,"valence":"win","action":"no-go","sham":1,"trial_type":"pit-trial","trial_index":197,"time_elapsed":886746,"internal_node_id":"0.0-168.0","task_version":"battery-v0.2-trt"},{"rune":"F","rune_set":"bacs1","hex":"#f73b6a7A","correct":32,"choice":32,"rt":651.6750000882894,"accuracy":1,"outcome":"-1","keys":[2152.73500001058],"total_keys":1,"block":2,"trial":161,"stimulus":4,"robot":3,"valence":"lose","action":"go","sham":0,"trial_type":"pit-trial","trial_index":198,"time_elapsed":890108,"internal_node_id":"0.0-169.0","task_version":"battery-v0.2-trt"},{"rune":"E","rune_set":"bacs1","hex":"#3366ff99","correct":32,"choice":32,"rt":753.1900000758469,"accuracy":1,"outcome":"+10","keys":[2253.7999998312443],"total_keys":1,"block":2,"trial":162,"stimulus":6,"robot":1,"valence":"win","action":"go","sham":0,"trial_type":"pit-trial","trial_index":199,"time_elapsed":893566,"internal_node_id":"0.0-170.0","task_version":"battery-v0.2-trt"},{"rune":"Q","rune_set":"bacs1","hex":"#f73b6a7A","correct":-1,"choice":-1,"rt":-1,"accuracy":1,"outcome":"-1","keys":[],"total_keys":0,"block":2,"trial":163,"stimulus":0,"robot":4,"valence":"lose","action":"no-go","sham":0,"trial_type":"pit-trial","trial_index":200,"time_elapsed":897579,"internal_node_id":"0.0-171.0","task_version":"battery-v0.2-trt"},{"rune":"T","rune_set":"bacs1","hex":"#3366ff99","correct":-1,"choice":32,"rt":627.9549999162555,"accuracy":0,"outcome":"+1","keys":[2128.539999946952],"total_keys":1,"block":2,"trial":164,"stimulus":5,"robot":2,"valence":"win","action":"no-go","sham":0,"trial_type":"pit-trial","trial_index":201,"time_elapsed":900909,"internal_node_id":"0.0-172.0","task_version":"battery-v0.2-trt"},{"rune":"T","rune_set":"bacs1","hex":"#3366ff99","correct":-1,"choice":-1,"rt":-1,"accuracy":1,"outcome":"+10","keys":[],"total_keys":0,"block":2,"trial":165,"stimulus":5,"robot":2,"valence":"win","action":"no-go","sham":0,"trial_type":"pit-trial","trial_index":202,"time_elapsed":904912,"internal_node_id":"0.0-173.0","task_version":"battery-v0.2-trt"},{"rune":"Q","rune_set":"bacs1","hex":"#f73b6a7A","correct":-1,"choice":-1,"rt":-1,"accuracy":1,"outcome":"-1","keys":[],"total_keys":0,"block":2,"trial":166,"stimulus":0,"robot":4,"valence":"lose","action":"no-go","sham":0,"trial_type":"pit-trial","trial_index":203,"time_elapsed":908916,"internal_node_id":"0.0-174.0","task_version":"battery-v0.2-trt"},{"rune":"E","rune_set":"bacs1","hex":"#3366ff99","correct":32,"choice":32,"rt":491.2149999290705,"accuracy":1,"outcome":"+1","keys":[1991.609999909997],"total_keys":1,"block":2,"trial":167,"stimulus":6,"robot":1,"valence":"win","action":"go","sham":1,"trial_type":"pit-trial","trial_index":204,"time_elapsed":912110,"internal_node_id":"0.0-175.0","task_version":"battery-v0.2-trt"},{"rune":"F","rune_set":"bacs1","hex":"#f73b6a7A","correct":32,"choice":32,"rt":863.3799999952316,"accuracy":1,"outcome":"-1","keys":[2364.765000063926],"total_keys":1,"block":2,"trial":168,"stimulus":4,"robot":3,"valence":"lose","action":"go","sham":0,"trial_type":"pit-trial","trial_index":205,"time_elapsed":915677,"internal_node_id":"0.0-176.0","task_version":"battery-v0.2-trt"},{"rune":"E","rune_set":"bacs1","hex":"#3366ff99","correct":32,"choice":-1,"rt":-1,"accuracy":0,"outcome":"+1","keys":[],"total_keys":0,"block":2,"trial":169,"stimulus":6,"robot":1,"valence":"win","action":"go","sham":0,"trial_type":"pit-trial","trial_index":206,"time_elapsed":919680,"internal_node_id":"0.0-177.0","task_version":"battery-v0.2-trt"},{"rune":"V","rune_set":"bacs1","hex":"#f73b6a7A","correct":-1,"choice":-1,"rt":-1,"accuracy":1,"outcome":"-1","keys":[],"total_keys":0,"block":2,"trial":170,"stimulus":7,"robot":4,"valence":"lose","action":"no-go","sham":0,"trial_type":"pit-trial","trial_index":207,"time_elapsed":923683,"internal_node_id":"0.0-178.0","task_version":"battery-v0.2-trt"},{"rune":"F","rune_set":"bacs1","hex":"#f73b6a7A","correct":32,"choice":32,"rt":347.80500014312565,"accuracy":1,"outcome":"-1","keys":[1847.865000134334],"total_keys":1,"block":2,"trial":171,"stimulus":4,"robot":3,"valence":"lose","action":"go","sham":0,"trial_type":"pit-trial","trial_index":208,"time_elapsed":926739,"internal_node_id":"0.0-179.0","task_version":"battery-v0.2-trt"},{"rune":"T","rune_set":"bacs1","hex":"#3366ff99","correct":-1,"choice":32,"rt":1003.7850001826882,"accuracy":0,"outcome":"+1","keys":[2504.190000006929],"total_keys":1,"block":2,"trial":172,"stimulus":5,"robot":2,"valence":"win","action":"no-go","sham":0,"trial_type":"pit-trial","trial_index":209,"time_elapsed":930446,"internal_node_id":"0.0-180.0","task_version":"battery-v0.2-trt"},{"rune":"E","rune_set":"bacs1","hex":"#3366ff99","correct":32,"choice":-1,"rt":-1,"accuracy":0,"outcome":"+1","keys":[3172.9550000745803],"total_keys":1,"block":2,"trial":173,"stimulus":6,"robot":1,"valence":"win","action":"go","sham":0,"trial_type":"pit-trial","trial_index":210,"time_elapsed":934449,"internal_node_id":"0.0-181.0","task_version":"battery-v0.2-trt"},{"rune":"F","rune_set":"bacs1","hex":"#f73b6a7A","correct":32,"choice":32,"rt":446.6949999332428,"accuracy":1,"outcome":"-1","keys":[1946.7599999625236],"total_keys":1,"block":2,"trial":174,"stimulus":4,"robot":3,"valence":"lose","action":"go","sham":0,"trial_type":"pit-trial","trial_index":211,"time_elapsed":937598,"internal_node_id":"0.0-182.0","task_version":"battery-v0.2-trt"},{"rune":"V","rune_set":"bacs1","hex":"#f73b6a7A","correct":-1,"choice":-1,"rt":-1,"accuracy":1,"outcome":"-1","keys":[],"total_keys":0,"block":2,"trial":175,"stimulus":7,"robot":4,"valence":"lose","action":"no-go","sham":0,"trial_type":"pit-trial","trial_index":212,"time_elapsed":941601,"internal_node_id":"0.0-183.0","task_version":"battery-v0.2-trt"},{"rune":"T","rune_set":"bacs1","hex":"#3366ff99","correct":-1,"choice":32,"rt":460.93499986454844,"accuracy":0,"outcome":"+1","keys":[1962.4799999874085],"total_keys":1,"block":2,"trial":176,"stimulus":5,"robot":2,"valence":"win","action":"no-go","sham":0,"trial_type":"pit-trial","trial_index":213,"time_elapsed":944765,"internal_node_id":"0.0-184.0","task_version":"battery-v0.2-trt"},{"rune":"T","rune_set":"bacs1","hex":"#3366ff99","correct":-1,"choice":-1,"rt":-1,"accuracy":1,"outcome":"+10","keys":[],"total_keys":0,"block":2,"trial":177,"stimulus":5,"robot":2,"valence":"win","action":"no-go","sham":0,"trial_type":"pit-trial","trial_index":214,"time_elapsed":948769,"internal_node_id":"0.0-185.0","task_version":"battery-v0.2-trt"},{"rune":"E","rune_set":"bacs1","hex":"#3366ff99","correct":32,"choice":-1,"rt":-1,"accuracy":0,"outcome":"+10","keys":[],"total_keys":0,"block":2,"trial":178,"stimulus":6,"robot":1,"valence":"win","action":"go","sham":1,"trial_type":"pit-trial","trial_index":215,"time_elapsed":952773,"internal_node_id":"0.0-186.0","task_version":"battery-v0.2-trt"},{"rune":"V","rune_set":"bacs1","hex":"#f73b6a7A","correct":-1,"choice":-1,"rt":-1,"accuracy":1,"outcome":"-1","keys":[],"total_keys":0,"block":2,"trial":179,"stimulus":7,"robot":4,"valence":"lose","action":"no-go","sham":0,"trial_type":"pit-trial","trial_index":216,"time_elapsed":956776,"internal_node_id":"0.0-187.0","task_version":"battery-v0.2-trt"},{"rune":"F","rune_set":"bacs1","hex":"#f73b6a7A","correct":32,"choice":32,"rt":511.6149999666959,"accuracy":1,"outcome":"-1","keys":[2012.309999903664],"total_keys":1,"block":2,"trial":180,"stimulus":4,"robot":3,"valence":"lose","action":"go","sham":0,"trial_type":"pit-trial","trial_index":217,"time_elapsed":960001,"internal_node_id":"0.0-188.0","task_version":"battery-v0.2-trt"},{"rune":"T","rune_set":"bacs1","hex":"#3366ff99","correct":-1,"choice":-1,"rt":-1,"accuracy":1,"outcome":"+10","keys":[],"total_keys":0,"block":2,"trial":181,"stimulus":5,"robot":2,"valence":"win","action":"no-go","sham":0,"trial_type":"pit-trial","trial_index":218,"time_elapsed":964005,"internal_node_id":"0.0-189.0","task_version":"battery-v0.2-trt"},{"rune":"E","rune_set":"bacs1","hex":"#3366ff99","correct":32,"choice":32,"rt":1161.854999838397,"accuracy":1,"outcome":"+10","keys":[2663.2650000974536],"total_keys":1,"block":2,"trial":182,"stimulus":6,"robot":1,"valence":"win","action":"go","sham":0,"trial_type":"pit-trial","trial_index":219,"time_elapsed":967882,"internal_node_id":"0.0-190.0","task_version":"battery-v0.2-trt"},{"rune":"F","rune_set":"bacs1","hex":"#f73b6a7A","correct":32,"choice":32,"rt":429.74499985575676,"accuracy":1,"outcome":"-1","keys":[1929.7950000036508],"total_keys":1,"block":2,"trial":183,"stimulus":4,"robot":3,"valence":"lose","action":"go","sham":0,"trial_type":"pit-trial","trial_index":220,"time_elapsed":971015,"internal_node_id":"0.0-191.0","task_version":"battery-v0.2-trt"},{"rune":"V","rune_set":"bacs1","hex":"#f73b6a7A","correct":-1,"choice":-1,"rt":-1,"accuracy":1,"outcome":"-1","keys":[],"total_keys":0,"block":2,"trial":184,"stimulus":7,"robot":4,"valence":"lose","action":"no-go","sham":0,"trial_type":"pit-trial","trial_index":221,"time_elapsed":975024,"internal_node_id":"0.0-192.0","task_version":"battery-v0.2-trt"},{"rune":"F","rune_set":"bacs1","hex":"#f73b6a7A","correct":32,"choice":32,"rt":446.95000001229346,"accuracy":1,"outcome":"-1","keys":[1947.795000160113],"total_keys":1,"block":2,"trial":185,"stimulus":4,"robot":3,"valence":"lose","action":"go","sham":0,"trial_type":"pit-trial","trial_index":222,"time_elapsed":978175,"internal_node_id":"0.0-193.0","task_version":"battery-v0.2-trt"},{"rune":"E","rune_set":"bacs1","hex":"#3366ff99","correct":32,"choice":32,"rt":694.8150000534952,"accuracy":1,"outcome":"+10","keys":[2195.0850000139326],"total_keys":1,"block":2,"trial":186,"stimulus":6,"robot":1,"valence":"win","action":"go","sham":0,"trial_type":"pit-trial","trial_index":223,"time_elapsed":981574,"internal_node_id":"0.0-194.0","task_version":"battery-v0.2-trt"},{"rune":"V","rune_set":"bacs1","hex":"#f73b6a7A","correct":-1,"choice":-1,"rt":-1,"accuracy":1,"outcome":"-1","keys":[],"total_keys":0,"block":2,"trial":187,"stimulus":7,"robot":4,"valence":"lose","action":"no-go","sham":0,"trial_type":"pit-trial","trial_index":224,"time_elapsed":985577,"internal_node_id":"0.0-195.0","task_version":"battery-v0.2-trt"},{"rune":"T","rune_set":"bacs1","hex":"#3366ff99","correct":-1,"choice":-1,"rt":-1,"accuracy":1,"outcome":"+10","keys":[],"total_keys":0,"block":2,"trial":188,"stimulus":5,"robot":2,"valence":"win","action":"no-go","sham":0,"trial_type":"pit-trial","trial_index":225,"time_elapsed":989581,"internal_node_id":"0.0-196.0","task_version":"battery-v0.2-trt"},{"rune":"T","rune_set":"bacs1","hex":"#3366ff99","correct":-1,"choice":-1,"rt":-1,"accuracy":1,"outcome":"+10","keys":[],"total_keys":0,"block":2,"trial":189,"stimulus":5,"robot":2,"valence":"win","action":"no-go","sham":0,"trial_type":"pit-trial","trial_index":226,"time_elapsed":993586,"internal_node_id":"0.0-197.0","task_version":"battery-v0.2-trt"},{"rune":"F","rune_set":"bacs1","hex":"#f73b6a7A","correct":32,"choice":32,"rt":443.934999871999,"accuracy":1,"outcome":"-1","keys":[1945.5699999816716],"total_keys":1,"block":2,"trial":190,"stimulus":4,"robot":3,"valence":"lose","action":"go","sham":0,"trial_type":"pit-trial","trial_index":227,"time_elapsed":996734,"internal_node_id":"0.0-198.0","task_version":"battery-v0.2-trt"},{"rune":"V","rune_set":"bacs1","hex":"#f73b6a7A","correct":-1,"choice":-1,"rt":-1,"accuracy":1,"outcome":"-1","keys":[],"total_keys":0,"block":2,"trial":191,"stimulus":7,"robot":4,"valence":"lose","action":"no-go","sham":0,"trial_type":"pit-trial","trial_index":228,"time_elapsed":1000739,"internal_node_id":"0.0-199.0","task_version":"battery-v0.2-trt"},{"rune":"E","rune_set":"bacs1","hex":"#3366ff99","correct":32,"choice":32,"rt":522.1700000111014,"accuracy":1,"outcome":"+10","keys":[2022.4399999715388],"total_keys":1,"block":2,"trial":192,"stimulus":6,"robot":1,"valence":"win","action":"go","sham":0,"trial_type":"pit-trial","trial_index":229,"time_elapsed":1003965,"internal_node_id":"0.0-200.0","task_version":"battery-v0.2-trt"},{"rune":"V","rune_set":"bacs1","hex":"#f73b6a7A","correct":-1,"choice":-1,"rt":-1,"accuracy":1,"outcome":"-1","keys":[],"total_keys":0,"block":2,"trial":193,"stimulus":7,"robot":4,"valence":"lose","action":"no-go","sham":0,"trial_type":"pit-trial","trial_index":230,"time_elapsed":1007967,"internal_node_id":"0.0-201.0","task_version":"battery-v0.2-trt"},{"rune":"T","rune_set":"bacs1","hex":"#3366ff99","correct":-1,"choice":-1,"rt":-1,"accuracy":1,"outcome":"+1","keys":[],"total_keys":0,"block":2,"trial":194,"stimulus":5,"robot":2,"valence":"win","action":"no-go","sham":1,"trial_type":"pit-trial","trial_index":231,"time_elapsed":1011982,"internal_node_id":"0.0-202.0","task_version":"battery-v0.2-trt"},{"rune":"J","rune_set":"bacs1","hex":"#f73b6a7A","correct":32,"choice":32,"rt":800.4300000611693,"accuracy":1,"outcome":"-1","keys":[2301.8900000024587],"total_keys":1,"block":2,"trial":195,"stimulus":9,"robot":3,"valence":"lose","action":"go","sham":0,"trial_type":"pit-trial","trial_index":232,"time_elapsed":1015486,"internal_node_id":"0.0-203.0","task_version":"battery-v0.2-trt"},{"rune":"R","rune_set":"bacs1","hex":"#3366ff99","correct":32,"choice":32,"rt":522.4550000857562,"accuracy":1,"outcome":"+10","keys":[2022.6249999832362],"total_keys":1,"block":2,"trial":196,"stimulus":8,"robot":1,"valence":"win","action":"go","sham":0,"trial_type":"pit-trial","trial_index":233,"time_elapsed":1018711,"internal_node_id":"0.0-204.0","task_version":"battery-v0.2-trt"},{"rune":"J","rune_set":"bacs1","hex":"#f73b6a7A","correct":32,"choice":32,"rt":719.6199998725206,"accuracy":1,"outcome":"-1","keys":[2221.485000103712],"total_keys":1,"block":2,"trial":197,"stimulus":9,"robot":3,"valence":"lose","action":"go","sham":0,"trial_type":"pit-trial","trial_index":234,"time_elapsed":1022136,"internal_node_id":"0.0-205.0","task_version":"battery-v0.2-trt"},{"rune":"R","rune_set":"bacs1","hex":"#3366ff99","correct":32,"choice":32,"rt":293.8000001013279,"accuracy":1,"outcome":"+10","keys":[1795.15999997966],"total_keys":1,"block":2,"trial":198,"stimulus":8,"robot":1,"valence":"win","action":"go","sham":0,"trial_type":"pit-trial","trial_index":235,"time_elapsed":1025134,"internal_node_id":"0.0-206.0","task_version":"battery-v0.2-trt"},{"rune":"T","rune_set":"bacs1","hex":"#3366ff99","correct":-1,"choice":-1,"rt":-1,"accuracy":1,"outcome":"+10","keys":[],"total_keys":0,"block":2,"trial":199,"stimulus":5,"robot":2,"valence":"win","action":"no-go","sham":0,"trial_type":"pit-trial","trial_index":236,"time_elapsed":1029137,"internal_node_id":"0.0-207.0","task_version":"battery-v0.2-trt"},{"rune":"V","rune_set":"bacs1","hex":"#f73b6a7A","correct":-1,"choice":-1,"rt":-1,"accuracy":1,"outcome":"-1","keys":[],"total_keys":0,"block":2,"trial":200,"stimulus":7,"robot":4,"valence":"lose","action":"no-go","sham":0,"trial_type":"pit-trial","trial_index":237,"time_elapsed":1033140,"internal_node_id":"0.0-208.0","task_version":"battery-v0.2-trt"},{"rune":"T","rune_set":"bacs1","hex":"#3366ff99","correct":-1,"choice":-1,"rt":-1,"accuracy":1,"outcome":"+10","keys":[],"total_keys":0,"block":2,"trial":201,"stimulus":5,"robot":2,"valence":"win","action":"no-go","sham":0,"trial_type":"pit-trial","trial_index":238,"time_elapsed":1037145,"internal_node_id":"0.0-209.0","task_version":"battery-v0.2-trt"},{"rune":"R","rune_set":"bacs1","hex":"#3366ff99","correct":32,"choice":32,"rt":367.0850000344217,"accuracy":1,"outcome":"+10","keys":[1867.3799999523908],"total_keys":1,"block":2,"trial":202,"stimulus":8,"robot":1,"valence":"win","action":"go","sham":0,"trial_type":"pit-trial","trial_index":239,"time_elapsed":1040214,"internal_node_id":"0.0-210.0","task_version":"battery-v0.2-trt"},{"rune":"V","rune_set":"bacs1","hex":"#f73b6a7A","correct":-1,"choice":-1,"rt":-1,"accuracy":1,"outcome":"-1","keys":[],"total_keys":0,"block":2,"trial":203,"stimulus":7,"robot":4,"valence":"lose","action":"no-go","sham":0,"trial_type":"pit-trial","trial_index":240,"time_elapsed":1044221,"internal_node_id":"0.0-211.0","task_version":"battery-v0.2-trt"},{"rune":"J","rune_set":"bacs1","hex":"#f73b6a7A","correct":32,"choice":32,"rt":395.1799999922514,"accuracy":1,"outcome":"-1","keys":[1895.255000097677],"total_keys":1,"block":2,"trial":204,"stimulus":9,"robot":3,"valence":"lose","action":"go","sham":0,"trial_type":"pit-trial","trial_index":241,"time_elapsed":1047319,"internal_node_id":"0.0-212.0","task_version":"battery-v0.2-trt"},{"rune":"T","rune_set":"bacs1","hex":"#3366ff99","correct":-1,"choice":-1,"rt":-1,"accuracy":1,"outcome":"+1","keys":[],"total_keys":0,"block":2,"trial":205,"stimulus":5,"robot":2,"valence":"win","action":"no-go","sham":1,"trial_type":"pit-trial","trial_index":242,"time_elapsed":1051322,"internal_node_id":"0.0-213.0","task_version":"battery-v0.2-trt"},{"rune":"V","rune_set":"bacs1","hex":"#f73b6a7A","correct":-1,"choice":-1,"rt":-1,"accuracy":1,"outcome":"-10","keys":[],"total_keys":0,"block":2,"trial":206,"stimulus":7,"robot":4,"valence":"lose","action":"no-go","sham":1,"trial_type":"pit-trial","trial_index":243,"time_elapsed":1055325,"internal_node_id":"0.0-214.0","task_version":"battery-v0.2-trt"},{"rune":"R","rune_set":"bacs1","hex":"#3366ff99","correct":32,"choice":32,"rt":369.8249999433756,"accuracy":1,"outcome":"+10","keys":[1870.9449998568743],"total_keys":1,"block":2,"trial":207,"stimulus":8,"robot":1,"valence":"win","action":"go","sham":0,"trial_type":"pit-trial","trial_index":244,"time_elapsed":1058398,"internal_node_id":"0.0-215.0","task_version":"battery-v0.2-trt"},{"rune":"J","rune_set":"bacs1","hex":"#f73b6a7A","correct":32,"choice":32,"rt":417.29000001214445,"accuracy":1,"outcome":"-1","keys":[1918.4999999124557],"total_keys":1,"block":2,"trial":208,"stimulus":9,"robot":3,"valence":"lose","action":"go","sham":0,"trial_type":"pit-trial","trial_index":245,"time_elapsed":1061519,"internal_node_id":"0.0-216.0","task_version":"battery-v0.2-trt"},{"rune":"R","rune_set":"bacs1","hex":"#3366ff99","correct":32,"choice":32,"rt":583.8750000111759,"accuracy":1,"outcome":"+10","keys":[2085.0099998060614],"total_keys":1,"block":2,"trial":209,"stimulus":8,"robot":1,"valence":"win","action":"go","sham":0,"trial_type":"pit-trial","trial_index":246,"time_elapsed":1064807,"internal_node_id":"0.0-217.0","task_version":"battery-v0.2-trt"},{"rune":"J","rune_set":"bacs1","hex":"#f73b6a7A","correct":32,"choice":32,"rt":487.2749999631196,"accuracy":1,"outcome":"-1","keys":[1987.565000075847],"total_keys":1,"block":2,"trial":210,"stimulus":9,"robot":3,"valence":"lose","action":"go","sham":0,"trial_type":"pit-trial","trial_index":247,"time_elapsed":1068008,"internal_node_id":"0.0-218.0","task_version":"battery-v0.2-trt"},{"rune":"B","rune_set":"bacs1","hex":"#3366ff99","correct":-1,"choice":32,"rt":1000.3349999897182,"accuracy":0,"outcome":"+1","keys":[2501.52499997057],"total_keys":1,"block":2,"trial":211,"stimulus":11,"robot":2,"valence":"win","action":"no-go","sham":0,"trial_type":"pit-trial","trial_index":248,"time_elapsed":1071713,"internal_node_id":"0.0-219.0","task_version":"battery-v0.2-trt"},{"rune":"Z","rune_set":"bacs1","hex":"#f73b6a7A","correct":32,"choice":32,"rt":859.5350000541657,"accuracy":1,"outcome":"-1","keys":[2359.7999999765307],"total_keys":1,"block":2,"trial":212,"stimulus":10,"robot":3,"valence":"lose","action":"go","sham":0,"trial_type":"pit-trial","trial_index":249,"time_elapsed":1075278,"internal_node_id":"0.0-220.0","task_version":"battery-v0.2-trt"},{"rune":"Z","rune_set":"bacs1","hex":"#f73b6a7A","correct":32,"choice":32,"rt":481.42499988898635,"accuracy":1,"outcome":"-10","keys":[1982.57500003092],"total_keys":1,"block":2,"trial":213,"stimulus":10,"robot":3,"valence":"lose","action":"go","sham":1,"trial_type":"pit-trial","trial_index":250,"time_elapsed":1078464,"internal_node_id":"0.0-221.0","task_version":"battery-v0.2-trt"},{"rune":"B","rune_set":"bacs1","hex":"#3366ff99","correct":-1,"choice":32,"rt":751.2799999676645,"accuracy":0,"outcome":"+1","keys":[2253.0600000172853],"total_keys":1,"block":2,"trial":214,"stimulus":11,"robot":2,"valence":"win","action":"no-go","sham":0,"trial_type":"pit-trial","trial_index":251,"time_elapsed":1081920,"internal_node_id":"0.0-222.0","task_version":"battery-v0.2-trt"},{"rune":"R","rune_set":"bacs1","hex":"#3366ff99","correct":32,"choice":32,"rt":646.8800001312047,"accuracy":1,"outcome":"+10","keys":[2147.8450000286102],"total_keys":1,"block":2,"trial":215,"stimulus":8,"robot":1,"valence":"win","action":"go","sham":0,"trial_type":"pit-trial","trial_index":252,"time_elapsed":1085270,"internal_node_id":"0.0-223.0","task_version":"battery-v0.2-trt"},{"rune":"J","rune_set":"bacs1","hex":"#f73b6a7A","correct":32,"choice":32,"rt":562.6749999355525,"accuracy":1,"outcome":"-1","keys":[2063.1699999794364],"total_keys":1,"block":2,"trial":216,"stimulus":9,"robot":3,"valence":"lose","action":"go","sham":0,"trial_type":"pit-trial","trial_index":253,"time_elapsed":1088535,"internal_node_id":"0.0-224.0","task_version":"battery-v0.2-trt"},{"rune":"B","rune_set":"bacs1","hex":"#3366ff99","correct":-1,"choice":-1,"rt":-1,"accuracy":1,"outcome":"+10","keys":[],"total_keys":0,"block":2,"trial":217,"stimulus":11,"robot":2,"valence":"win","action":"no-go","sham":0,"trial_type":"pit-trial","trial_index":254,"time_elapsed":1092543,"internal_node_id":"0.0-225.0","task_version":"battery-v0.2-trt"},{"rune":"J","rune_set":"bacs1","hex":"#f73b6a7A","correct":32,"choice":32,"rt":521.2799999862909,"accuracy":1,"outcome":"-1","keys":[2021.9149999320507],"total_keys":1,"block":2,"trial":218,"stimulus":9,"robot":3,"valence":"lose","action":"go","sham":0,"trial_type":"pit-trial","trial_index":255,"time_elapsed":1095768,"internal_node_id":"0.0-226.0","task_version":"battery-v0.2-trt"},{"rune":"Z","rune_set":"bacs1","hex":"#f73b6a7A","correct":32,"choice":-1,"rt":-1,"accuracy":0,"outcome":"-1","keys":[],"total_keys":0,"block":2,"trial":219,"stimulus":10,"robot":3,"valence":"lose","action":"go","sham":1,"trial_type":"pit-trial","trial_index":256,"time_elapsed":1099771,"internal_node_id":"0.0-227.0","task_version":"battery-v0.2-trt"},{"rune":"R","rune_set":"bacs1","hex":"#3366ff99","correct":32,"choice":32,"rt":361.9700002018362,"accuracy":1,"outcome":"+10","keys":[1863.8150000479072],"total_keys":1,"block":2,"trial":220,"stimulus":8,"robot":1,"valence":"win","action":"go","sham":0,"trial_type":"pit-trial","trial_index":257,"time_elapsed":1102838,"internal_node_id":"0.0-228.0","task_version":"battery-v0.2-trt"},{"rune":"R","rune_set":"bacs1","hex":"#3366ff99","correct":32,"choice":32,"rt":322.1549999434501,"accuracy":1,"outcome":"+10","keys":[1822.185000171885],"total_keys":1,"block":2,"trial":221,"stimulus":8,"robot":1,"valence":"win","action":"go","sham":0,"trial_type":"pit-trial","trial_index":258,"time_elapsed":1105862,"internal_node_id":"0.0-229.0","task_version":"battery-v0.2-trt"},{"rune":"B","rune_set":"bacs1","hex":"#3366ff99","correct":-1,"choice":-1,"rt":-1,"accuracy":1,"outcome":"+10","keys":[],"total_keys":0,"block":2,"trial":222,"stimulus":11,"robot":2,"valence":"win","action":"no-go","sham":0,"trial_type":"pit-trial","trial_index":259,"time_elapsed":1109867,"internal_node_id":"0.0-230.0","task_version":"battery-v0.2-trt"},{"rune":"Z","rune_set":"bacs1","hex":"#f73b6a7A","correct":32,"choice":32,"rt":627.1750000305474,"accuracy":1,"outcome":"-10","keys":[2127.5300001725554],"total_keys":1,"block":2,"trial":223,"stimulus":10,"robot":3,"valence":"lose","action":"go","sham":1,"trial_type":"pit-trial","trial_index":260,"time_elapsed":1113197,"internal_node_id":"0.0-231.0","task_version":"battery-v0.2-trt"},{"rune":"J","rune_set":"bacs1","hex":"#f73b6a7A","correct":32,"choice":32,"rt":506.3050000462681,"accuracy":1,"outcome":"-1","keys":[2006.3750001136214],"total_keys":1,"block":2,"trial":224,"stimulus":9,"robot":3,"valence":"lose","action":"go","sham":0,"trial_type":"pit-trial","trial_index":261,"time_elapsed":1116405,"internal_node_id":"0.0-232.0","task_version":"battery-v0.2-trt"},{"rune":"Z","rune_set":"bacs1","hex":"#f73b6a7A","correct":32,"choice":-1,"rt":-1,"accuracy":0,"outcome":"-10","keys":[],"total_keys":0,"block":2,"trial":225,"stimulus":10,"robot":3,"valence":"lose","action":"go","sham":0,"trial_type":"pit-trial","trial_index":262,"time_elapsed":1120408,"internal_node_id":"0.0-233.0","task_version":"battery-v0.2-trt"},{"rune":"J","rune_set":"bacs1","hex":"#f73b6a7A","correct":32,"choice":32,"rt":367.49000009149313,"accuracy":1,"outcome":"-1","keys":[1867.670000065118],"total_keys":1,"block":2,"trial":226,"stimulus":9,"robot":3,"valence":"lose","action":"go","sham":0,"trial_type":"pit-trial","trial_index":263,"time_elapsed":1123478,"internal_node_id":"0.0-234.0","task_version":"battery-v0.2-trt"},{"rune":"B","rune_set":"bacs1","hex":"#3366ff99","correct":-1,"choice":-1,"rt":-1,"accuracy":1,"outcome":"+1","keys":[],"total_keys":0,"block":2,"trial":227,"stimulus":11,"robot":2,"valence":"win","action":"no-go","sham":1,"trial_type":"pit-trial","trial_index":264,"time_elapsed":1127491,"internal_node_id":"0.0-235.0","task_version":"battery-v0.2-trt"},{"rune":"R","rune_set":"bacs1","hex":"#3366ff99","correct":32,"choice":32,"rt":588.8199999462813,"accuracy":1,"outcome":"+10","keys":[2089.915000135079],"total_keys":1,"block":2,"trial":228,"stimulus":8,"robot":1,"valence":"win","action":"go","sham":0,"trial_type":"pit-trial","trial_index":265,"time_elapsed":1130784,"internal_node_id":"0.0-236.0","task_version":"battery-v0.2-trt"},{"rune":"R","rune_set":"bacs1","hex":"#3366ff99","correct":32,"choice":32,"rt":374.52500010840595,"accuracy":1,"outcome":"+1","keys":[1875.9500000160187],"total_keys":1,"block":2,"trial":229,"stimulus":8,"robot":1,"valence":"win","action":"go","sham":1,"trial_type":"pit-trial","trial_index":266,"time_elapsed":1133863,"internal_node_id":"0.0-237.0","task_version":"battery-v0.2-trt"},{"rune":"J","rune_set":"bacs1","hex":"#f73b6a7A","correct":32,"choice":32,"rt":395.00000001862645,"accuracy":1,"outcome":"-1","keys":[1895.5299998633564],"total_keys":1,"block":2,"trial":230,"stimulus":9,"robot":3,"valence":"lose","action":"go","sham":0,"trial_type":"pit-trial","trial_index":267,"time_elapsed":1136961,"internal_node_id":"0.0-238.0","task_version":"battery-v0.2-trt"},{"rune":"Z","rune_set":"bacs1","hex":"#f73b6a7A","correct":32,"choice":-1,"rt":-1,"accuracy":0,"outcome":"-10","keys":[],"total_keys":0,"block":2,"trial":231,"stimulus":10,"robot":3,"valence":"lose","action":"go","sham":0,"trial_type":"pit-trial","trial_index":268,"time_elapsed":1140963,"internal_node_id":"0.0-239.0","task_version":"battery-v0.2-trt"},{"rune":"B","rune_set":"bacs1","hex":"#3366ff99","correct":-1,"choice":-1,"rt":-1,"accuracy":1,"outcome":"+10","keys":[],"total_keys":0,"block":2,"trial":232,"stimulus":11,"robot":2,"valence":"win","action":"no-go","sham":0,"trial_type":"pit-trial","trial_index":269,"time_elapsed":1144966,"internal_node_id":"0.0-240.0","task_version":"battery-v0.2-trt"},{"rune":"J","rune_set":"bacs1","hex":"#f73b6a7A","correct":32,"choice":32,"rt":370.41500001214445,"accuracy":1,"outcome":"-1","keys":[1870.6799999345094],"total_keys":1,"block":2,"trial":233,"stimulus":9,"robot":3,"valence":"lose","action":"go","sham":0,"trial_type":"pit-trial","trial_index":270,"time_elapsed":1148038,"internal_node_id":"0.0-241.0","task_version":"battery-v0.2-trt"},{"rune":"Z","rune_set":"bacs1","hex":"#f73b6a7A","correct":32,"choice":32,"rt":288.6049998924136,"accuracy":1,"outcome":"-1","keys":[1788.7699999846518],"total_keys":1,"block":2,"trial":234,"stimulus":10,"robot":3,"valence":"lose","action":"go","sham":0,"trial_type":"pit-trial","trial_index":271,"time_elapsed":1151030,"internal_node_id":"0.0-242.0","task_version":"battery-v0.2-trt"},{"rune":"R","rune_set":"bacs1","hex":"#3366ff99","correct":32,"choice":32,"rt":271.0500000976026,"accuracy":1,"outcome":"+10","keys":[1771.7649999540