[{"view_history":"[{\"page_index\":0,\"viewing_time\":351038.09000000183}]","rt":351038.53000000527,"trial_type":"instructions","trial_index":0,"time_elapsed":351053,"internal_node_id":"0.0-0.0","task_version":"battery-v0.2-trt"},{"slider_type":"valence","raw_loc":437,"loc":0.374,"trial_type":"affective-slider","trial_index":1,"time_elapsed":360729,"internal_node_id":"0.0-1.0","task_version":"battery-v0.2-trt"},{"responses":{"Q02":"1","Q04":"1","Q08":"0","Q07":"2","Q06":"3","Q05":"1","Q01":"2","Q03":"2"},"rt":35539.984999995795,"item_order":[1,3,7,6,5,4,0,2],"radio_events":[8039.0299999999115,8966.870000003837,11850.52999999607,16386.134999993374,20055.20499999693,24134.860000005574,29494.85000000277,33942.49000000127],"key_events":[],"mouse_events":[8039.0299999999115,8966.870000003837,10691.3099999947,11370.504999998957,11850.52999999607,16386.134999993374,20055.20499999693,22018.94500000344,23418.875000003027,24134.860000005574,29494.85000000277,33942.49000000127,35538.87499999837],"straightlining":0.375,"zigzagging":0.42857142857142855,"survey":"gad7","trial_type":"survey-template","trial_index":2,"time_elapsed":396278,"internal_node_id":"0.0-2.0","task_version":"battery-v0.2-trt","infrequency":0},{"responses":{"Q12":"0","Q10":"1","Q04":"3","Q08":"2","Q02":"3","Q13":"0","Q06":"3","Q05":"3","Q11":"2","Q07":"3","Q01":"3","Q09":"1","Q03":"3"},"rt":51842.17999999237,"item_order":[11,9,3,7,1,12,5,4,10,6,0,8,2],"radio_events":[5595.904999994673,13655.684999990626,18159.01999999187,21955.214999994496,24495.779999997467,28944.56999999238,31683.84499999229,37123.64499999967,43130.68000000203,45063.87499999255,46183.70999999752,48619.55999999191,51214.789999998175],"key_events":[],"mouse_events":[5595.904999994673,13655.684999990626,17631.339999992633,18159.01999999187,21955.214999994496,24495.779999997467,28944.56999999238,31683.84499999229,36276.33500000229,37123.64499999967,43130.68000000203,45063.87499999255,46183.70999999752,48619.55999999191,51214.789999998175,51839.97499999532],"straightlining":0.5384615384615384,"zigzagging":0.5833333333333334,"survey":"bisbas","trial_type":"survey-template","trial_index":3,"time_elapsed":448123,"internal_node_id":"0.0-3.0","task_version":"battery-v0.2-trt","infrequency":0},{"responses":{"Q01":"1","Q03":"2","Q04":"2","Q08":"3","Q02":"2","Q07":"0","Q05":"1","Q06":"0"},"rt":29062.260000006063,"item_order":[0,2,3,7,1,6,4,5],"radio_events":[6641.220000004978,9352.845000001253,10689.20999999682,14949.250000005122,19256.990000008955,21717.075000007753,24489.195000001928,28164.885000005597],"key_events":[],"mouse_events":[6641.220000004978,9352.845000001253,10689.20999999682,12573.029999999562,14949.250000005122,19256.990000008955,21717.075000007753,23364.68500000774,24489.195000001928,28164.885000005597,29060.65500000841],"straightlining":0.375,"zigzagging":0.7142857142857143,"survey":"dass_d","trial_type":"survey-template","trial_index":4,"time_elapsed":477190,"internal_node_id":"0.0-4.0","task_version":"battery-v0.2-trt","infrequency":0.5},{"value":[0.5,1.2884615384615383,1.7261904761904763],"trial_type":"call-function","trial_index":5,"time_elapsed":477195,"internal_node_id":"0.0-5.0","task_version":"battery-v0.2-trt"},{"view_history":"[{\"page_index\":0,\"viewing_time\":212006.3749999972},{\"page_index\":1,\"viewing_time\":3227.5250000093365},{\"page_index\":2,\"viewing_time\":3751.539999997476},{\"page_index\":3,\"viewing_time\":54868.35999999312},{\"page_index\":4,\"viewing_time\":5151.030000008177},{\"page_index\":5,\"viewing_time\":26952.389999991283},{\"page_index\":6,\"viewing_time\":4615.440000008675},{\"page_index\":7,\"viewing_time\":18984.889999992447},{\"page_index\":8,\"viewing_time\":12587.215000006836},{\"page_index\":9,\"viewing_time\":4252.72999999288}]","rt":346398.159999997,"trial_type":"pit-instructions","trial_index":6,"time_elapsed":823596,"internal_node_id":"0.0-6.0-0.0","task_version":"battery-v0.2-trt"},{"rune":"1","rune_set":"elianto","hex":"#3366ff99","correct":32,"choice":32,"rt":509.54500000807457,"accuracy":1,"outcome":"+10","keys":[2011.9700000068406],"total_keys":1,"block":0,"practice":1,"trial_type":"pit-trial","trial_index":7,"time_elapsed":826812,"internal_node_id":"0.0-6.0-1.0-0.0","task_version":"battery-v0.2-trt"},{"rune":"1","rune_set":"elianto","hex":"#3366ff99","correct":32,"choice":32,"rt":394.6200000063982,"accuracy":1,"outcome":"+10","keys":[1896.0299999889685],"total_keys":1,"block":0,"practice":1,"trial_type":"pit-trial","trial_index":8,"time_elapsed":829912,"internal_node_id":"0.0-6.0-1.1-0.1","task_version":"battery-v0.2-trt"},{"rune":"1","rune_set":"elianto","hex":"#3366ff99","correct":32,"choice":32,"rt":493.7950000021374,"accuracy":1,"outcome":"+10","keys":[1994.9599999963539],"total_keys":1,"block":0,"practice":1,"trial_type":"pit-trial","trial_index":9,"time_elapsed":833114,"internal_node_id":"0.0-6.0-1.2-0.2","task_version":"battery-v0.2-trt"},{"rune":"1","rune_set":"elianto","hex":"#3366ff99","correct":32,"choice":32,"rt":502.1500000002561,"accuracy":1,"outcome":"+10","keys":[2003.0399999959627],"total_keys":1,"block":0,"practice":1,"trial_type":"pit-trial","trial_index":10,"time_elapsed":836324,"internal_node_id":"0.0-6.0-1.3-0.3","task_version":"battery-v0.2-trt"},{"trial_type":"call-function","trial_index":11,"time_elapsed":836326,"internal_node_id":"0.0-6.0-2.0","task_version":"battery-v0.2-trt"},{"view_history":"[{\"page_index\":0,\"viewing_time\":6088.595000008354},{\"page_index\":1,\"viewing_time\":4624.259999996866}]","rt":10713.319999995292,"trial_type":"pit-instructions","trial_index":12,"time_elapsed":847040,"internal_node_id":"0.0-6.0-3.0","task_version":"battery-v0.2-trt"},{"rune":"2","rune_set":"elianto","hex":"#3366ff99","correct":-1,"choice":32,"rt":657.6400000049034,"accuracy":0,"outcome":"+1","keys":[2159.0050000086194],"total_keys":1,"block":0,"practice":2,"trial_type":"pit-trial","trial_index":13,"time_elapsed":850402,"internal_node_id":"0.0-6.0-4.0-0.0","task_version":"battery-v0.2-trt"},{"rune":"2","rune_set":"elianto","hex":"#3366ff99","correct":-1,"choice":32,"rt":780.5999999982305,"accuracy":0,"outcome":"+1","keys":[2281.124999994063],"total_keys":1,"block":0,"practice":2,"trial_type":"pit-trial","trial_index":14,"time_elapsed":853887,"internal_node_id":"0.0-6.0-4.1-0.1","task_version":"battery-v0.2-trt"},{"rune":"2","rune_set":"elianto","hex":"#3366ff99","correct":-1,"choice":-1,"rt":-1,"accuracy":1,"outcome":"+10","keys":[],"total_keys":0,"block":0,"practice":2,"trial_type":"pit-trial","trial_index":15,"time_elapsed":857896,"internal_node_id":"0.0-6.0-4.2-0.2","task_version":"battery-v0.2-trt"},{"rune":"2","rune_set":"elianto","hex":"#3366ff99","correct":-1,"choice":-1,"rt":-1,"accuracy":1,"outcome":"+10","keys":[],"total_keys":0,"block":0,"practice":2,"trial_type":"pit-trial","trial_index":16,"time_elapsed":861901,"internal_node_id":"0.0-6.0-4.3-0.3","task_version":"battery-v0.2-trt"},{"rune":"2","rune_set":"elianto","hex":"#3366ff99","correct":-1,"choice":-1,"rt":-1,"accuracy":1,"outcome":"+10","keys":[],"total_keys":0,"block":0,"practice":2,"trial_type":"pit-trial","trial_index":17,"time_elapsed":865908,"internal_node_id":"0.0-6.0-4.4-0.4","task_version":"battery-v0.2-trt"},{"trial_type":"call-function","trial_index":18,"time_elapsed":865910,"internal_node_id":"0.0-6.0-5.0","task_version":"battery-v0.2-trt"},{"view_history":"[{\"page_index\":0,\"viewing_time\":18915.815000000293},{\"page_index\":1,\"viewing_time\":3336.1299999960465}]","rt":22252.424999998766,"trial_type":"pit-instructions","trial_index":19,"time_elapsed":888164,"internal_node_id":"0.0-6.0-6.0","task_version":"battery-v0.2-trt"},{"rune":"3","rune_set":"elianto","hex":"#f73b6a7A","correct":-1,"choice":-1,"rt":-1,"accuracy":1,"outcome":"-1","keys":[],"total_keys":0,"block":0,"practice":3,"trial_type":"pit-trial","trial_index":20,"time_elapsed":892169,"internal_node_id":"0.0-6.0-7.0-0.0","task_version":"battery-v0.2-trt"},{"rune":"3","rune_set":"elianto","hex":"#f73b6a7A","correct":-1,"choice":32,"rt":387.0100000058301,"accuracy":0,"outcome":"-10","keys":[1887.799999996787],"total_keys":1,"block":0,"practice":3,"trial_type":"pit-trial","trial_index":21,"time_elapsed":895263,"internal_node_id":"0.0-6.0-7.1-0.1","task_version":"battery-v0.2-trt"},{"rune":"3","rune_set":"elianto","hex":"#f73b6a7A","correct":-1,"choice":-1,"rt":-1,"accuracy":1,"outcome":"-1","keys":[],"total_keys":0,"block":0,"practice":3,"trial_type":"pit-trial","trial_index":22,"time_elapsed":899271,"internal_node_id":"0.0-6.0-7.2-0.2","task_version":"battery-v0.2-trt"},{"rune":"3","rune_set":"elianto","hex":"#f73b6a7A","correct":-1,"choice":-1,"rt":-1,"accuracy":1,"outcome":"-1","keys":[],"total_keys":0,"block":0,"practice":3,"trial_type":"pit-trial","trial_index":23,"time_elapsed":903278,"internal_node_id":"0.0-6.0-7.3-0.3","task_version":"battery-v0.2-trt"},{"rune":"3","rune_set":"elianto","hex":"#f73b6a7A","correct":-1,"choice":-1,"rt":-1,"accuracy":1,"outcome":"-1","keys":[],"total_keys":0,"block":0,"practice":3,"trial_type":"pit-trial","trial_index":24,"time_elapsed":907285,"internal_node_id":"0.0-6.0-7.4-0.4","task_version":"battery-v0.2-trt"},{"trial_type":"call-function","trial_index":25,"time_elapsed":907288,"internal_node_id":"0.0-6.0-8.0","task_version":"battery-v0.2-trt"},{"view_history":"[{\"page_index\":0,\"viewing_time\":6670.294999988982},{\"page_index\":1,\"viewing_time\":7270.670000012615}]","rt":13941.305000000284,"trial_type":"pit-instructions","trial_index":26,"time_elapsed":921230,"internal_node_id":"0.0-6.0-9.0","task_version":"battery-v0.2-trt"},{"rune":"4","rune_set":"elianto","hex":"#f73b6a7A","correct":32,"choice":-1,"rt":-1,"accuracy":0,"outcome":"-10","keys":[],"total_keys":0,"block":0,"practice":4,"trial_type":"pit-trial","trial_index":27,"time_elapsed":925234,"internal_node_id":"0.0-6.0-10.0-0.0","task_version":"battery-v0.2-trt"},{"rune":"4","rune_set":"elianto","hex":"#f73b6a7A","correct":32,"choice":32,"rt":437.2049999947194,"accuracy":1,"outcome":"-1","keys":[1937.5600000057602],"total_keys":1,"block":0,"practice":4,"trial_type":"pit-trial","trial_index":28,"time_elapsed":928378,"internal_node_id":"0.0-6.0-10.1-0.1","task_version":"battery-v0.2-trt"},{"rune":"4","rune_set":"elianto","hex":"#f73b6a7A","correct":32,"choice":32,"rt":612.3800000059418,"accuracy":1,"outcome":"-1","keys":[2113.069999992149],"total_keys":1,"block":0,"practice":4,"trial_type":"pit-trial","trial_index":29,"time_elapsed":931695,"internal_node_id":"0.0-6.0-10.2-0.2","task_version":"battery-v0.2-trt"},{"rune":"4","rune_set":"elianto","hex":"#f73b6a7A","correct":32,"choice":32,"rt":324.87500000570435,"accuracy":1,"outcome":"-1","keys":[1826.4849999977741],"total_keys":1,"block":0,"practice":4,"trial_type":"pit-trial","trial_index":30,"time_elapsed":934727,"internal_node_id":"0.0-6.0-10.3-0.3","task_version":"battery-v0.2-trt"},{"trial_type":"call-function","trial_index":31,"time_elapsed":934730,"internal_node_id":"0.0-6.0-11.0","task_version":"battery-v0.2-trt"},{"view_history":"[{\"page_index\":0,\"viewing_time\":2776.434999992489},{\"page_index\":1,\"viewing_time\":29958.834999997634},{\"page_index\":2,\"viewing_time\":8413.820000001579},{\"page_index\":3,\"viewing_time\":2291.140000001178},{\"page_index\":4,\"viewing_time\":2787.355000007665},{\"page_index\":5,\"viewing_time\":1244.1099999996368}]","rt":47472.3299999896,"trial_type":"pit-instructions","trial_index":32,"time_elapsed":982203,"internal_node_id":"0.0-6.0-12.0","task_version":"battery-v0.2-trt"},{"responses":["Press SPACE","+10","-1","True","True"],"num_errors":0,"rt":17228.07000001194,"trial_type":"pit-comprehension","trial_index":33,"time_elapsed":999436,"internal_node_id":"0.0-6.0-13.0","task_version":"battery-v0.2-trt"},{"view_history":"[{\"page_index\":0,\"viewing_time\":3255.5449999927077},{\"page_index\":1,\"viewing_time\":8471.034999995027}]","rt":11727.144999997108,"trial_type":"pit-instructions","trial_index":34,"time_elapsed":1011167,"internal_node_id":"0.0-7.0","task_version":"battery-v0.2-trt"},{"rune":"K","rune_set":"elianto","hex":"#3366ff99","correct":32,"choice":32,"rt":544.2550000007031,"accuracy":1,"outcome":"+10","keys":[2045.7600000081584],"total_keys":1,"block":1,"trial":1,"stimulus":3,"robot":1,"valence":"win","action":"go","sham":0,"trial_type":"pit-trial","trial_index":35,"time_elapsed":1014419,"internal_node_id":"0.0-8.0","task_version":"battery-v0.2-trt"},{"rune":"J","rune_set":"elianto","hex":"#3366ff99","correct":32,"choice":-1,"rt":-1,"accuracy":0,"outcome":"+1","keys":[],"total_keys":0,"block":1,"trial":2,"stimulus":1,"robot":1,"valence":"win","action":"go","sham":0,"trial_type":"pit-trial","trial_index":36,"time_elapsed":1018425,"internal_node_id":"0.0-9.0","task_version":"battery-v0.2-trt"},{"rune":"V","rune_set":"elianto","hex":"#3366ff99","correct":-1,"choice":32,"rt":605.569999999716,"accuracy":0,"outcome":"+1","keys":[2107.144999987213],"total_keys":1,"block":1,"trial":3,"stimulus":0,"robot":2,"valence":"win","action":"no-go","sham":0,"trial_type":"pit-trial","trial_index":37,"time_elapsed":1021739,"internal_node_id":"0.0-10.0","task_version":"battery-v0.2-trt"},{"rune":"D","rune_set":"elianto","hex":"#f73b6a7A","correct":-1,"choice":32,"rt":1005.6700000131968,"accuracy":0,"outcome":"-10","keys":[2506.715000010445],"total_keys":1,"block":1,"trial":4,"stimulus":2,"robot":4,"valence":"lose","action":"no-go","sham":0,"trial_type":"pit-trial","trial_index":38,"time_elapsed":1025454,"internal_node_id":"0.0-11.0","task_version":"battery-v0.2-trt"},{"rune":"K","rune_set":"elianto","hex":"#3366ff99","correct":32,"choice":32,"rt":588.3099999919068,"accuracy":1,"outcome":"+10","keys":[2089.4050000060815],"total_keys":1,"block":1,"trial":5,"stimulus":3,"robot":1,"valence":"win","action":"go","sham":0,"trial_type":"pit-trial","trial_index":39,"time_elapsed":1028748,"internal_node_id":"0.0-12.0","task_version":"battery-v0.2-trt"},{"rune":"V","rune_set":"elianto","hex":"#3366ff99","correct":-1,"choice":32,"rt":643.819999997504,"accuracy":0,"outcome":"+1","keys":[2144.234999999753],"total_keys":1,"block":1,"trial":6,"stimulus":0,"robot":2,"valence":"win","action":"no-go","sham":0,"trial_type":"pit-trial","trial_index":40,"time_elapsed":1032096,"internal_node_id":"0.0-13.0","task_version":"battery-v0.2-trt"},{"rune":"D","rune_set":"elianto","hex":"#f73b6a7A","correct":-1,"choice":32,"rt":1253.8649999914924,"accuracy":0,"outcome":"-10","keys":[2754.384999992908],"total_keys":1,"block":1,"trial":7,"stimulus":2,"robot":4,"valence":"lose","action":"no-go","sham":0,"trial_type":"pit-trial","trial_index":41,"time_elapsed":1036057,"internal_node_id":"0.0-14.0","task_version":"battery-v0.2-trt"},{"rune":"J","rune_set":"elianto","hex":"#3366ff99","correct":32,"choice":32,"rt":937.5099999888334,"accuracy":1,"outcome":"+10","keys":[2438.785000005737],"total_keys":1,"block":1,"trial":8,"stimulus":1,"robot":1,"valence":"win","action":"go","sham":0,"trial_type":"pit-trial","trial_index":42,"time_elapsed":1039699,"internal_node_id":"0.0-15.0","task_version":"battery-v0.2-trt"},{"rune":"D","rune_set":"elianto","hex":"#f73b6a7A","correct":-1,"choice":-1,"rt":-1,"accuracy":1,"outcome":"-1","keys":[],"total_keys":0,"block":1,"trial":9,"stimulus":2,"robot":4,"valence":"lose","action":"no-go","sham":0,"trial_type":"pit-trial","trial_index":43,"time_elapsed":1043703,"internal_node_id":"0.0-16.0","task_version":"battery-v0.2-trt"},{"rune":"K","rune_set":"elianto","hex":"#3366ff99","correct":32,"choice":32,"rt":812.5149999978021,"accuracy":1,"outcome":"+1","keys":[2313.5550000006333],"total_keys":1,"block":1,"trial":10,"stimulus":3,"robot":1,"valence":"win","action":"go","sham":1,"trial_type":"pit-trial","trial_index":44,"time_elapsed":1047223,"internal_node_id":"0.0-17.0","task_version":"battery-v0.2-trt"},{"rune":"J","rune_set":"elianto","hex":"#3366ff99","correct":32,"choice":32,"rt":654.3600000005681,"accuracy":1,"outcome":"+10","keys":[2155.5450000015553],"total_keys":1,"block":1,"trial":11,"stimulus":1,"robot":1,"valence":"win","action":"go","sham":0,"trial_type":"pit-trial","trial_index":45,"time_elapsed":1050586,"internal_node_id":"0.0-18.0","task_version":"battery-v0.2-trt"},{"rune":"V","rune_set":"elianto","hex":"#3366ff99","correct":-1,"choice":32,"rt":1205.2499999990687,"accuracy":0,"outcome":"+1","keys":[2705.4499999939],"total_keys":1,"block":1,"trial":12,"stimulus":0,"robot":2,"valence":"win","action":"no-go","sham":0,"trial_type":"pit-trial","trial_index":46,"time_elapsed":1054495,"internal_node_id":"0.0-19.0","task_version":"battery-v0.2-trt"},{"rune":"D","rune_set":"elianto","hex":"#f73b6a7A","correct":-1,"choice":-1,"rt":-1,"accuracy":1,"outcome":"-1","keys":[],"total_keys":0,"block":1,"trial":13,"stimulus":2,"robot":4,"valence":"lose","action":"no-go","sham":0,"trial_type":"pit-trial","trial_index":47,"time_elapsed":1058502,"internal_node_id":"0.0-20.0","task_version":"battery-v0.2-trt"},{"rune":"J","rune_set":"elianto","hex":"#3366ff99","correct":32,"choice":32,"rt":1137.1050000016112,"accuracy":1,"outcome":"+10","keys":[2637.7350000110455],"total_keys":1,"block":1,"trial":14,"stimulus":1,"robot":1,"valence":"win","action":"go","sham":0,"trial_type":"pit-trial","trial_index":48,"time_elapsed":1062345,"internal_node_id":"0.0-21.0","task_version":"battery-v0.2-trt"},{"rune":"K","rune_set":"elianto","hex":"#3366ff99","correct":32,"choice":-1,"rt":-1,"accuracy":0,"outcome":"+1","keys":[3782.4299999917857],"total_keys":1,"block":1,"trial":15,"stimulus":3,"robot":1,"valence":"win","action":"go","sham":0,"trial_type":"pit-trial","trial_index":49,"time_elapsed":1066351,"internal_node_id":"0.0-22.0","task_version":"battery-v0.2-trt"},{"rune":"V","rune_set":"elianto","hex":"#3366ff99","correct":-1,"choice":-1,"rt":-1,"accuracy":1,"outcome":"+1","keys":[],"total_keys":0,"block":1,"trial":16,"stimulus":0,"robot":2,"valence":"win","action":"no-go","sham":1,"trial_type":"pit-trial","trial_index":50,"time_elapsed":1070357,"internal_node_id":"0.0-23.0","task_version":"battery-v0.2-trt"},{"rune":"K","rune_set":"elianto","hex":"#3366ff99","correct":32,"choice":32,"rt":378.7399999999907,"accuracy":1,"outcome":"+1","keys":[1878.814999989001],"total_keys":1,"block":1,"trial":17,"stimulus":3,"robot":1,"valence":"win","action":"go","sham":1,"trial_type":"pit-trial","trial_index":51,"time_elapsed":1073442,"internal_node_id":"0.0-24.0","task_version":"battery-v0.2-trt"},{"rune":"V","rune_set":"elianto","hex":"#3366ff99","correct":-1,"choice":32,"rt":603.3400000014808,"accuracy":0,"outcome":"+10","keys":[2103.42499999376],"total_keys":1,"block":1,"trial":18,"stimulus":0,"robot":2,"valence":"win","action":"no-go","sham":1,"trial_type":"pit-trial","trial_index":52,"time_elapsed":1076752,"internal_node_id":"0.0-25.0","task_version":"battery-v0.2-trt"},{"rune":"J","rune_set":"elianto","hex":"#3366ff99","correct":32,"choice":32,"rt":689.5150000054855,"accuracy":1,"outcome":"+1","keys":[2190.6199999938253],"total_keys":1,"block":1,"trial":19,"stimulus":1,"robot":1,"valence":"win","action":"go","sham":1,"trial_type":"pit-trial","trial_index":53,"time_elapsed":1080146,"internal_node_id":"0.0-26.0","task_version":"battery-v0.2-trt"},{"rune":"D","rune_set":"elianto","hex":"#f73b6a7A","correct":-1,"choice":32,"rt":1293.6349999946542,"accuracy":0,"outcome":"-10","keys":[2793.77499999851],"total_keys":1,"block":1,"trial":20,"stimulus":2,"robot":4,"valence":"lose","action":"no-go","sham":0,"trial_type":"pit-trial","trial_index":54,"time_elapsed":1084145,"internal_node_id":"0.0-27.0","task_version":"battery-v0.2-trt"},{"rune":"J","rune_set":"elianto","hex":"#3366ff99","correct":32,"choice":32,"rt":695.9849999984726,"accuracy":1,"outcome":"+1","keys":[2196.2849999982864],"total_keys":1,"block":1,"trial":21,"stimulus":1,"robot":1,"valence":"win","action":"go","sham":1,"trial_type":"pit-trial","trial_index":55,"time_elapsed":1087547,"internal_node_id":"0.0-28.0","task_version":"battery-v0.2-trt"},{"rune":"D","rune_set":"elianto","hex":"#f73b6a7A","correct":-1,"choice":-1,"rt":-1,"accuracy":1,"outcome":"-1","keys":[],"total_keys":0,"block":1,"trial":22,"stimulus":2,"robot":4,"valence":"lose","action":"no-go","sham":0,"trial_type":"pit-trial","trial_index":56,"time_elapsed":1091559,"internal_node_id":"0.0-29.0","task_version":"battery-v0.2-trt"},{"rune":"V","rune_set":"elianto","hex":"#3366ff99","correct":-1,"choice":32,"rt":999.6549999923445,"accuracy":0,"outcome":"+1","keys":[2500],"total_keys":1,"block":1,"trial":23,"stimulus":0,"robot":2,"valence":"win","action":"no-go","sham":0,"trial_type":"pit-trial","trial_index":57,"time_elapsed":1095262,"internal_node_id":"0.0-30.0","task_version":"battery-v0.2-trt"},{"rune":"K","rune_set":"elianto","hex":"#3366ff99","correct":32,"choice":32,"rt":859.679999994114,"accuracy":1,"outcome":"+1","keys":[2360.5399999942165],"total_keys":1,"block":1,"trial":24,"stimulus":3,"robot":1,"valence":"win","action":"go","sham":1,"trial_type":"pit-trial","trial_index":58,"time_elapsed":1098829,"internal_node_id":"0.0-31.0","task_version":"battery-v0.2-trt"},{"rune":"D","rune_set":"elianto","hex":"#f73b6a7A","correct":-1,"choice":-1,"rt":-1,"accuracy":1,"outcome":"-1","keys":[],"total_keys":0,"block":1,"trial":25,"stimulus":2,"robot":4,"valence":"lose","action":"no-go","sham":0,"trial_type":"pit-trial","trial_index":59,"time_elapsed":1102835,"internal_node_id":"0.0-32.0","task_version":"battery-v0.2-trt"},{"rune":"J","rune_set":"elianto","hex":"#3366ff99","correct":32,"choice":32,"rt":499.3949999916367,"accuracy":1,"outcome":"+10","keys":[1999.844999998575],"total_keys":1,"block":1,"trial":26,"stimulus":1,"robot":1,"valence":"win","action":"go","sham":0,"trial_type":"pit-trial","trial_index":60,"time_elapsed":1106041,"internal_node_id":"0.0-33.0","task_version":"battery-v0.2-trt"},{"rune":"K","rune_set":"elianto","hex":"#3366ff99","correct":32,"choice":-1,"rt":-1,"accuracy":0,"outcome":"+1","keys":[],"total_keys":0,"block":1,"trial":27,"stimulus":3,"robot":1,"valence":"win","action":"go","sham":0,"trial_type":"pit-trial","trial_index":61,"time_elapsed":1110046,"internal_node_id":"0.0-34.0","task_version":"battery-v0.2-trt"},{"rune":"V","rune_set":"elianto","hex":"#3366ff99","correct":-1,"choice":32,"rt":448.15499999094754,"accuracy":0,"outcome":"+1","keys":[1949.5650000025053],"total_keys":1,"block":1,"trial":28,"stimulus":0,"robot":2,"valence":"win","action":"no-go","sham":0,"trial_type":"pit-trial","trial_index":62,"time_elapsed":1113200,"internal_node_id":"0.0-35.0","task_version":"battery-v0.2-trt"},{"rune":"K","rune_set":"elianto","hex":"#3366ff99","correct":32,"choice":32,"rt":999.2300000013784,"accuracy":1,"outcome":"+1","keys":[2500.5200000014156],"total_keys":1,"block":1,"trial":29,"stimulus":3,"robot":1,"valence":"win","action":"go","sham":1,"trial_type":"pit-trial","trial_index":63,"time_elapsed":1116906,"internal_node_id":"0.0-36.0","task_version":"battery-v0.2-trt"},{"rune":"V","rune_set":"elianto","hex":"#3366ff99","correct":-1,"choice":32,"rt":1281.0849999950733,"accuracy":0,"outcome":"+1","keys":[2781.275000001304],"total_keys":1,"block":1,"trial":30,"stimulus":0,"robot":2,"valence":"win","action":"no-go","sham":0,"trial_type":"pit-trial","trial_index":64,"time_elapsed":1120892,"internal_node_id":"0.0-37.0","task_version":"battery-v0.2-trt"},{"rune":"D","rune_set":"elianto","hex":"#f73b6a7A","correct":-1,"choice":-1,"rt":-1,"accuracy":1,"outcome":"-1","keys":[],"total_keys":0,"block":1,"trial":31,"stimulus":2,"robot":4,"valence":"lose","action":"no-go","sham":0,"trial_type":"pit-trial","trial_index":65,"time_elapsed":1124898,"internal_node_id":"0.0-38.0","task_version":"battery-v0.2-trt"},{"rune":"J","rune_set":"elianto","hex":"#3366ff99","correct":32,"choice":32,"rt":477.5099999969825,"accuracy":1,"outcome":"+10","keys":[1978.010000006063],"total_keys":1,"block":1,"trial":32,"stimulus":1,"robot":1,"valence":"win","action":"go","sham":0,"trial_type":"pit-trial","trial_index":66,"time_elapsed":1128080,"internal_node_id":"0.0-39.0","task_version":"battery-v0.2-trt"},{"rune":"V","rune_set":"elianto","hex":"#3366ff99","correct":-1,"choice":-1,"rt":-1,"accuracy":1,"outcome":"+10","keys":[],"total_keys":0,"block":1,"trial":33,"stimulus":0,"robot":2,"valence":"win","action":"no-go","sham":0,"trial_type":"pit-trial","trial_index":67,"time_elapsed":1132087,"internal_node_id":"0.0-40.0","task_version":"battery-v0.2-trt"},{"rune":"K","rune_set":"elianto","hex":"#3366ff99","correct":32,"choice":-1,"rt":-1,"accuracy":0,"outcome":"+1","keys":[],"total_keys":0,"block":1,"trial":34,"stimulus":3,"robot":1,"valence":"win","action":"go","sham":0,"trial_type":"pit-trial","trial_index":68,"time_elapsed":1136093,"internal_node_id":"0.0-41.0","task_version":"battery-v0.2-trt"},{"rune":"D","rune_set":"elianto","hex":"#f73b6a7A","correct":-1,"choice":-1,"rt":-1,"accuracy":1,"outcome":"-1","keys":[],"total_keys":0,"block":1,"trial":35,"stimulus":2,"robot":4,"valence":"lose","action":"no-go","sham":0,"trial_type":"pit-trial","trial_index":69,"time_elapsed":1140101,"internal_node_id":"0.0-42.0","task_version":"battery-v0.2-trt"},{"rune":"E","rune_set":"elianto","hex":"#3366ff99","correct":32,"choice":32,"rt":974.0000000020955,"accuracy":1,"outcome":"+1","keys":[2474.6699999959674],"total_keys":1,"block":1,"trial":36,"stimulus":4,"robot":1,"valence":"win","action":"go","sham":1,"trial_type":"pit-trial","trial_index":70,"time_elapsed":1143780,"internal_node_id":"0.0-43.0","task_version":"battery-v0.2-trt"},{"rune":"D","rune_set":"elianto","hex":"#f73b6a7A","correct":-1,"choice":-1,"rt":-1,"accuracy":1,"outcome":"-10","keys":[],"total_keys":0,"block":1,"trial":37,"stimulus":2,"robot":4,"valence":"lose","action":"no-go","sham":1,"trial_type":"pit-trial","trial_index":71,"time_elapsed":1147784,"internal_node_id":"0.0-44.0","task_version":"battery-v0.2-trt"},{"rune":"V","rune_set":"elianto","hex":"#3366ff99","correct":-1,"choice":32,"rt":737.5199999948964,"accuracy":0,"outcome":"+1","keys":[2238.9799999946263],"total_keys":1,"block":1,"trial":38,"stimulus":0,"robot":2,"valence":"win","action":"no-go","sham":0,"trial_type":"pit-trial","trial_index":72,"time_elapsed":1151228,"internal_node_id":"0.0-45.0","task_version":"battery-v0.2-trt"},{"rune":"E","rune_set":"elianto","hex":"#3366ff99","correct":32,"choice":-1,"rt":-1,"accuracy":0,"outcome":"+1","keys":[],"total_keys":0,"block":1,"trial":39,"stimulus":4,"robot":1,"valence":"win","action":"go","sham":0,"trial_type":"pit-trial","trial_index":73,"time_elapsed":1155233,"internal_node_id":"0.0-46.0","task_version":"battery-v0.2-trt"},{"rune":"K","rune_set":"elianto","hex":"#3366ff99","correct":32,"choice":32,"rt":1266.0400000023656,"accuracy":1,"outcome":"+10","keys":[2767.1450000053737],"total_keys":1,"block":1,"trial":40,"stimulus":3,"robot":1,"valence":"win","action":"go","sham":0,"trial_type":"pit-trial","trial_index":74,"time_elapsed":1159205,"internal_node_id":"0.0-47.0","task_version":"battery-v0.2-trt"},{"rune":"E","rune_set":"elianto","hex":"#3366ff99","correct":32,"choice":-1,"rt":-1,"accuracy":0,"outcome":"+1","keys":[2959.9000000015367],"total_keys":1,"block":1,"trial":41,"stimulus":4,"robot":1,"valence":"win","action":"go","sham":0,"trial_type":"pit-trial","trial_index":75,"time_elapsed":1163213,"internal_node_id":"0.0-48.0","task_version":"battery-v0.2-trt"},{"rune":"V","rune_set":"elianto","hex":"#3366ff99","correct":-1,"choice":-1,"rt":-1,"accuracy":1,"outcome":"+1","keys":[2984.1499999894295],"total_keys":1,"block":1,"trial":42,"stimulus":0,"robot":2,"valence":"win","action":"no-go","sham":1,"trial_type":"pit-trial","trial_index":76,"time_elapsed":1167221,"internal_node_id":"0.0-49.0","task_version":"battery-v0.2-trt"},{"rune":"S","rune_set":"elianto","hex":"#f73b6a7A","correct":-1,"choice":32,"rt":1123.9800000037067,"accuracy":0,"outcome":"-10","keys":[2624.044999989681],"total_keys":1,"block":1,"trial":43,"stimulus":6,"robot":4,"valence":"lose","action":"no-go","sham":0,"trial_type":"pit-trial","trial_index":77,"time_elapsed":1171051,"internal_node_id":"0.0-50.0","task_version":"battery-v0.2-trt"},{"rune":"W","rune_set":"elianto","hex":"#f73b6a7A","correct":32,"choice":-1,"rt":-1,"accuracy":0,"outcome":"-10","keys":[],"total_keys":0,"block":1,"trial":44,"stimulus":5,"robot":3,"valence":"lose","action":"go","sham":0,"trial_type":"pit-trial","trial_index":78,"time_elapsed":1175057,"internal_node_id":"0.0-51.0","task_version":"battery-v0.2-trt"},{"rune":"W","rune_set":"elianto","hex":"#f73b6a7A","correct":32,"choice":32,"rt":652.0949999974109,"accuracy":1,"outcome":"-1","keys":[2154.0099999983795],"total_keys":1,"block":1,"trial":45,"stimulus":5,"robot":3,"valence":"lose","action":"go","sham":0,"trial_type":"pit-trial","trial_index":79,"time_elapsed":1178414,"internal_node_id":"0.0-52.0","task_version":"battery-v0.2-trt"},{"rune":"V","rune_set":"elianto","hex":"#3366ff99","correct":-1,"choice":32,"rt":1042.4950000015087,"accuracy":0,"outcome":"+1","keys":[2543.2949999957345],"total_keys":1,"block":1,"trial":46,"stimulus":0,"robot":2,"valence":"win","action":"no-go","sham":0,"trial_type":"pit-trial","trial_index":80,"time_elapsed":1182162,"internal_node_id":"0.0-53.0","task_version":"battery-v0.2-trt"},{"rune":"S","rune_set":"elianto","hex":"#f73b6a7A","correct":-1,"choice":-1,"rt":-1,"accuracy":1,"outcome":"-1","keys":[],"total_keys":0,"block":1,"trial":47,"stimulus":6,"robot":4,"valence":"lose","action":"no-go","sham":0,"trial_type":"pit-trial","trial_index":81,"time_elapsed":1186170,"internal_node_id":"0.0-54.0","task_version":"battery-v0.2-trt"},{"rune":"E","rune_set":"elianto","hex":"#3366ff99","correct":32,"choice":32,"rt":1134.0550000022631,"accuracy":1,"outcome":"+10","keys":[2635.0099999983795],"total_keys":1,"block":1,"trial":48,"stimulus":4,"robot":1,"valence":"win","action":"go","sham":0,"trial_type":"pit-trial","trial_index":82,"time_elapsed":1190010,"internal_node_id":"0.0-55.0","task_version":"battery-v0.2-trt"},{"rune":"W","rune_set":"elianto","hex":"#f73b6a7A","correct":32,"choice":-1,"rt":-1,"accuracy":0,"outcome":"-10","keys":[2966.3299999956507],"total_keys":1,"block":1,"trial":49,"stimulus":5,"robot":3,"valence":"lose","action":"go","sham":0,"trial_type":"pit-trial","trial_index":83,"time_elapsed":1194015,"internal_node_id":"0.0-56.0","task_version":"battery-v0.2-trt"},{"rune":"E","rune_set":"elianto","hex":"#3366ff99","correct":32,"choice":32,"rt":1173.055000006687,"accuracy":1,"outcome":"+10","keys":[2673.0549999920186],"total_keys":1,"block":1,"trial":50,"stimulus":4,"robot":1,"valence":"win","action":"go","sham":0,"trial_type":"pit-trial","trial_index":84,"time_elapsed":1197892,"internal_node_id":"0.0-57.0","task_version":"battery-v0.2-trt"},{"rune":"P","rune_set":"elianto","hex":"#3366ff99","correct":-1,"choice":32,"rt":1093.2049999975134,"accuracy":0,"outcome":"+1","keys":[2593.974999996135],"total_keys":1,"block":1,"trial":51,"stimulus":7,"robot":2,"valence":"win","action":"no-go","sham":0,"trial_type":"pit-trial","trial_index":85,"time_elapsed":1201692,"internal_node_id":"0.0-58.0","task_version":"battery-v0.2-trt"},{"rune":"S","rune_set":"elianto","hex":"#f73b6a7A","correct":-1,"choice":32,"rt":1130.4499999969266,"accuracy":0,"outcome":"-10","keys":[2631.2750000071246],"total_keys":1,"block":1,"trial":52,"stimulus":6,"robot":4,"valence":"lose","action":"no-go","sham":0,"trial_type":"pit-trial","trial_index":86,"time_elapsed":1205530,"internal_node_id":"0.0-59.0","task_version":"battery-v0.2-trt"},{"rune":"E","rune_set":"elianto","hex":"#3366ff99","correct":32,"choice":32,"rt":902.6499999889638,"accuracy":1,"outcome":"+10","keys":[2403.090000006836],"total_keys":1,"block":1,"trial":53,"stimulus":4,"robot":1,"valence":"win","action":"go","sham":0,"trial_type":"pit-trial","trial_index":87,"time_elapsed":1209139,"internal_node_id":"0.0-60.0","task_version":"battery-v0.2-trt"},{"rune":"W","rune_set":"elianto","hex":"#f73b6a7A","correct":32,"choice":-1,"rt":-1,"accuracy":0,"outcome":"-10","keys":[2874.129999996396],"total_keys":1,"block":1,"trial":54,"stimulus":5,"robot":3,"valence":"lose","action":"go","sham":0,"trial_type":"pit-trial","trial_index":88,"time_elapsed":1213141,"internal_node_id":"0.0-61.0","task_version":"battery-v0.2-trt"},{"rune":"P","rune_set":"elianto","hex":"#3366ff99","correct":-1,"choice":32,"rt":866.8899999903515,"accuracy":0,"outcome":"+1","keys":[2367.664999997942],"total_keys":1,"block":1,"trial":55,"stimulus":7,"robot":2,"valence":"win","action":"no-go","sham":0,"trial_type":"pit-trial","trial_index":89,"time_elapsed":1216713,"internal_node_id":"0.0-62.0","task_version":"battery-v0.2-trt"},{"rune":"S","rune_set":"elianto","hex":"#f73b6a7A","correct":-1,"choice":-1,"rt":-1,"accuracy":1,"outcome":"-1","keys":[],"total_keys":0,"block":1,"trial":56,"stimulus":6,"robot":4,"valence":"lose","action":"no-go","sham":0,"trial_type":"pit-trial","trial_index":90,"time_elapsed":1220719,"internal_node_id":"0.0-63.0","task_version":"battery-v0.2-trt"},{"rune":"E","rune_set":"elianto","hex":"#3366ff99","correct":32,"choice":-1,"rt":-1,"accuracy":0,"outcome":"+1","keys":[2936.514999993844],"total_keys":1,"block":1,"trial":57,"stimulus":4,"robot":1,"valence":"win","action":"go","sham":0,"trial_type":"pit-trial","trial_index":91,"time_elapsed":1224724,"internal_node_id":"0.0-64.0","task_version":"battery-v0.2-trt"},{"rune":"P","rune_set":"elianto","hex":"#3366ff99","correct":-1,"choice":32,"rt":1052.6300000054762,"accuracy":0,"outcome":"+1","keys":[2552.7500000023283],"total_keys":1,"block":1,"trial":58,"stimulus":7,"robot":2,"valence":"win","action":"no-go","sham":0,"trial_type":"pit-trial","trial_index":92,"time_elapsed":1228480,"internal_node_id":"0.0-65.0","task_version":"battery-v0.2-trt"},{"rune":"S","rune_set":"elianto","hex":"#f73b6a7A","correct":-1,"choice":-1,"rt":-1,"accuracy":1,"outcome":"-1","keys":[],"total_keys":0,"block":1,"trial":59,"stimulus":6,"robot":4,"valence":"lose","action":"no-go","sham":0,"trial_type":"pit-trial","trial_index":93,"time_elapsed":1232487,"internal_node_id":"0.0-66.0","task_version":"battery-v0.2-trt"},{"rune":"W","rune_set":"elianto","hex":"#f73b6a7A","correct":32,"choice":-1,"rt":-1,"accuracy":0,"outcome":"-10","keys":[2930.770000006305],"total_keys":1,"block":1,"trial":60,"stimulus":5,"robot":3,"valence":"lose","action":"go","sham":0,"trial_type":"pit-trial","trial_index":94,"time_elapsed":1236491,"internal_node_id":"0.0-67.0","task_version":"battery-v0.2-trt"},{"rune":"E","rune_set":"elianto","hex":"#3366ff99","correct":32,"choice":32,"rt":1195.0450000003912,"accuracy":1,"outcome":"+1","keys":[2695.280000000028],"total_keys":1,"block":1,"trial":61,"stimulus":4,"robot":1,"valence":"win","action":"go","sham":1,"trial_type":"pit-trial","trial_index":95,"time_elapsed":1240396,"internal_node_id":"0.0-68.0","task_version":"battery-v0.2-trt"},{"rune":"S","rune_set":"elianto","hex":"#f73b6a7A","correct":-1,"choice":-1,"rt":-1,"accuracy":1,"outcome":"-1","keys":[2851.3399999937974],"total_keys":1,"block":1,"trial":62,"stimulus":6,"robot":4,"valence":"lose","action":"no-go","sham":0,"trial_type":"pit-trial","trial_index":96,"time_elapsed":1244404,"internal_node_id":"0.0-69.0","task_version":"battery-v0.2-trt"},{"rune":"W","rune_set":"elianto","hex":"#f73b6a7A","correct":32,"choice":-1,"rt":-1,"accuracy":0,"outcome":"-10","keys":[],"total_keys":0,"block":1,"trial":63,"stimulus":5,"robot":3,"valence":"lose","action":"go","sham":0,"trial_type":"pit-trial","trial_index":97,"time_elapsed":1248410,"internal_node_id":"0.0-70.0","task_version":"battery-v0.2-trt"},{"rune":"P","rune_set":"elianto","hex":"#3366ff99","correct":-1,"choice":-1,"rt":-1,"accuracy":1,"outcome":"+10","keys":[],"total_keys":0,"block":1,"trial":64,"stimulus":7,"robot":2,"valence":"win","action":"no-go","sham":0,"trial_type":"pit-trial","trial_index":98,"time_elapsed":1252432,"internal_node_id":"0.0-71.0","task_version":"battery-v0.2-trt"},{"rune":"S","rune_set":"elianto","hex":"#f73b6a7A","correct":-1,"choice":-1,"rt":-1,"accuracy":1,"outcome":"-1","keys":[],"total_keys":0,"block":1,"trial":65,"stimulus":6,"robot":4,"valence":"lose","action":"no-go","sham":0,"trial_type":"pit-trial","trial_index":99,"time_elapsed":1256446,"internal_node_id":"0.0-72.0","task_version":"battery-v0.2-trt"},{"rune":"E","rune_set":"elianto","hex":"#3366ff99","correct":32,"choice":32,"rt":831.8149999978486,"accuracy":1,"outcome":"+10","keys":[2332.3200000012293],"total_keys":1,"block":1,"trial":66,"stimulus":4,"robot":1,"valence":"win","action":"go","sham":0,"trial_type":"pit-trial","trial_index":100,"time_elapsed":1259981,"internal_node_id":"0.0-73.0","task_version":"battery-v0.2-trt"},{"rune":"P","rune_set":"elianto","hex":"#3366ff99","correct":-1,"choice":-1,"rt":-1,"accuracy":1,"outcome":"+10","keys":[],"total_keys":0,"block":1,"trial":67,"stimulus":7,"robot":2,"valence":"win","action":"no-go","sham":0,"trial_type":"pit-trial","trial_index":101,"time_elapsed":1263986,"internal_node_id":"0.0-74.0","task_version":"battery-v0.2-trt"},{"rune":"W","rune_set":"elianto","hex":"#f73b6a7A","correct":32,"choice":-1,"rt":-1,"accuracy":0,"outcome":"-10","keys":[],"total_keys":0,"block":1,"trial":68,"stimulus":5,"robot":3,"valence":"lose","action":"go","sham":0,"trial_type":"pit-trial","trial_index":102,"time_elapsed":1267992,"internal_node_id":"0.0-75.0","task_version":"battery-v0.2-trt"},{"rune":"S","rune_set":"elianto","hex":"#f73b6a7A","correct":-1,"choice":-1,"rt":-1,"accuracy":1,"outcome":"-10","keys":[],"total_keys":0,"block":1,"trial":69,"stimulus":6,"robot":4,"valence":"lose","action":"no-go","sham":1,"trial_type":"pit-trial","trial_index":103,"time_elapsed":1272000,"internal_node_id":"0.0-76.0","task_version":"battery-v0.2-trt"},{"rune":"P","rune_set":"elianto","hex":"#3366ff99","correct":-1,"choice":32,"rt":685.7149999996182,"accuracy":0,"outcome":"+1","keys":[2186.8499999982305],"total_keys":1,"block":1,"trial":70,"stimulus":7,"robot":2,"valence":"win","action":"no-go","sham":0,"trial_type":"pit-trial","trial_index":104,"time_elapsed":1275391,"internal_node_id":"0.0-77.0","task_version":"battery-v0.2-trt"},{"rune":"E","rune_set":"elianto","hex":"#3366ff99","correct":32,"choice":32,"rt":1173.16500000027,"accuracy":1,"outcome":"+1","keys":[2675.224999999162],"total_keys":1,"block":1,"trial":71,"stimulus":4,"robot":1,"valence":"win","action":"go","sham":1,"trial_type":"pit-trial","trial_index":105,"time_elapsed":1279269,"internal_node_id":"0.0-78.0","task_version":"battery-v0.2-trt"},{"rune":"W","rune_set":"elianto","hex":"#f73b6a7A","correct":32,"choice":-1,"rt":-1,"accuracy":0,"outcome":"-1","keys":[2881.6300000033807],"total_keys":1,"block":1,"trial":72,"stimulus":5,"robot":3,"valence":"lose","action":"go","sham":1,"trial_type":"pit-trial","trial_index":106,"time_elapsed":1283275,"internal_node_id":"0.0-79.0","task_version":"battery-v0.2-trt"},{"rune":"G","rune_set":"elianto","hex":"#f73b6a7A","correct":32,"choice":-1,"rt":-1,"accuracy":0,"outcome":"-10","keys":[],"total_keys":0,"block":1,"trial":73,"stimulus":8,"robot":3,"valence":"lose","action":"go","sham":0,"trial_type":"pit-trial","trial_index":107,"time_elapsed":1287281,"internal_node_id":"0.0-80.0","task_version":"battery-v0.2-trt"},{"rune":"P","rune_set":"elianto","hex":"#3366ff99","correct":-1,"choice":32,"rt":697.2400000086054,"accuracy":0,"outcome":"+10","keys":[2198.080000001937],"total_keys":1,"block":1,"trial":74,"stimulus":7,"robot":2,"valence":"win","action":"no-go","sham":1,"trial_type":"pit-trial","trial_index":108,"time_elapsed":1290685,"internal_node_id":"0.0-81.0","task_version":"battery-v0.2-trt"},{"rune":"S","rune_set":"elianto","hex":"#f73b6a7A","correct":-1,"choice":-1,"rt":-1,"accuracy":1,"outcome":"-10","keys":[],"total_keys":0,"block":1,"trial":75,"stimulus":6,"robot":4,"valence":"lose","action":"no-go","sham":1,"trial_type":"pit-trial","trial_index":109,"time_elapsed":1294691,"internal_node_id":"0.0-82.0","task_version":"battery-v0.2-trt"},{"rune":"E","rune_set":"elianto","hex":"#3366ff99","correct":32,"choice":32,"rt":1173.0049999896437,"accuracy":1,"outcome":"+10","keys":[2674.4199999957345],"total_keys":1,"block":1,"trial":76,"stimulus":4,"robot":1,"valence":"win","action":"go","sham":0,"trial_type":"pit-trial","trial_index":110,"time_elapsed":1298571,"internal_node_id":"0.0-83.0","task_version":"battery-v0.2-trt"},{"rune":"P","rune_set":"elianto","hex":"#3366ff99","correct":-1,"choice":32,"rt":885.4500000015832,"accuracy":0,"outcome":"+10","keys":[2386.3850000051316],"total_keys":1,"block":1,"trial":77,"stimulus":7,"robot":2,"valence":"win","action":"no-go","sham":1,"trial_type":"pit-trial","trial_index":111,"time_elapsed":1302161,"internal_node_id":"0.0-84.0","task_version":"battery-v0.2-trt"},{"rune":"E","rune_set":"elianto","hex":"#3366ff99","correct":32,"choice":-1,"rt":-1,"accuracy":0,"outcome":"+1","keys":[],"total_keys":0,"block":1,"trial":78,"stimulus":4,"robot":1,"valence":"win","action":"go","sham":0,"trial_type":"pit-trial","trial_index":112,"time_elapsed":1306166,"internal_node_id":"0.0-85.0","task_version":"battery-v0.2-trt"},{"rune":"G","rune_set":"elianto","hex":"#f73b6a7A","correct":32,"choice":-1,"rt":-1,"accuracy":0,"outcome":"-10","keys":[2899.8299999947194],"total_keys":1,"block":1,"trial":79,"stimulus":8,"robot":3,"valence":"lose","action":"go","sham":0,"trial_type":"pit-trial","trial_index":113,"time_elapsed":1310174,"internal_node_id":"0.0-86.0","task_version":"battery-v0.2-trt"},{"rune":"S","rune_set":"elianto","hex":"#f73b6a7A","correct":-1,"choice":32,"rt":1191.625000006752,"accuracy":0,"outcome":"-1","keys":[2692.255000001751],"total_keys":1,"block":1,"trial":80,"stimulus":6,"robot":4,"valence":"lose","action":"no-go","sham":1,"trial_type":"pit-trial","trial_index":114,"time_elapsed":1314071,"internal_node_id":"0.0-87.0","task_version":"battery-v0.2-trt"},{"rune":"S","rune_set":"elianto","hex":"#f73b6a7A","correct":-1,"choice":32,"rt":1010.3300000044983,"accuracy":0,"outcome":"-10","keys":[2511.8099999963306],"total_keys":1,"block":1,"trial":81,"stimulus":6,"robot":4,"valence":"lose","action":"no-go","sham":0,"trial_type":"pit-trial","trial_index":115,"time_elapsed":1317791,"internal_node_id":"0.0-88.0","task_version":"battery-v0.2-trt"},{"rune":"G","rune_set":"elianto","hex":"#f73b6a7A","correct":32,"choice":-1,"rt":-1,"accuracy":0,"outcome":"-10","keys":[],"total_keys":0,"block":1,"trial":82,"stimulus":8,"robot":3,"valence":"lose","action":"go","sham":0,"trial_type":"pit-trial","trial_index":116,"time_elapsed":1321797,"internal_node_id":"0.0-89.0","task_version":"battery-v0.2-trt"},{"rune":"P","rune_set":"elianto","hex":"#3366ff99","correct":-1,"choice":32,"rt":386.4800000009127,"accuracy":0,"outcome":"+1","keys":[1887.6850000086706],"total_keys":1,"block":1,"trial":83,"stimulus":7,"robot":2,"valence":"win","action":"no-go","sham":0,"trial_type":"pit-trial","trial_index":117,"time_elapsed":1324891,"internal_node_id":"0.0-90.0","task_version":"battery-v0.2-trt"},{"rune":"A","rune_set":"elianto","hex":"#f73b6a7A","correct":32,"choice":-1,"rt":-1,"accuracy":0,"outcome":"-1","keys":[],"total_keys":0,"block":1,"trial":84,"stimulus":9,"robot":3,"valence":"lose","action":"go","sham":1,"trial_type":"pit-trial","trial_index":118,"time_elapsed":1328896,"internal_node_id":"0.0-91.0","task_version":"battery-v0.2-trt"},{"rune":"S","rune_set":"elianto","hex":"#f73b6a7A","correct":-1,"choice":-1,"rt":-1,"accuracy":1,"outcome":"-1","keys":[],"total_keys":0,"block":1,"trial":85,"stimulus":6,"robot":4,"valence":"lose","action":"no-go","sham":0,"trial_type":"pit-trial","trial_index":119,"time_elapsed":1332913,"internal_node_id":"0.0-92.0","task_version":"battery-v0.2-trt"},{"rune":"G","rune_set":"elianto","hex":"#f73b6a7A","correct":32,"choice":-1,"rt":-1,"accuracy":0,"outcome":"-10","keys":[],"total_keys":0,"block":1,"trial":86,"stimulus":8,"robot":3,"valence":"lose","action":"go","sham":0,"trial_type":"pit-trial","trial_index":120,"time_elapsed":1336919,"internal_node_id":"0.0-93.0","task_version":"battery-v0.2-trt"},{"rune":"A","rune_set":"elianto","hex":"#f73b6a7A","correct":32,"choice":-1,"rt":-1,"accuracy":0,"outcome":"-10","keys":[],"total_keys":0,"block":1,"trial":87,"stimulus":9,"robot":3,"valence":"lose","action":"go","sham":0,"trial_type":"pit-trial","trial_index":121,"time_elapsed":1340926,"internal_node_id":"0.0-94.0","task_version":"battery-v0.2-trt"},{"rune":"P","rune_set":"elianto","hex":"#3366ff99","correct":-1,"choice":-1,"rt":-1,"accuracy":1,"outcome":"+10","keys":[],"total_keys":0,"block":1,"trial":88,"stimulus":7,"robot":2,"valence":"win","action":"no-go","sham":0,"trial_type":"pit-trial","trial_index":122,"time_elapsed":1344933,"internal_node_id":"0.0-95.0","task_version":"battery-v0.2-trt"},{"rune":"A","rune_set":"elianto","hex":"#f73b6a7A","correct":32,"choice":32,"rt":1013.234999991022,"accuracy":1,"outcome":"-1","keys":[2513.9099999943282],"total_keys":1,"block":1,"trial":89,"stimulus":9,"robot":3,"valence":"lose","action":"go","sham":0,"trial_type":"pit-trial","trial_index":123,"time_elapsed":1348651,"internal_node_id":"0.0-96.0","task_version":"battery-v0.2-trt"},{"rune":"U","rune_set":"elianto","hex":"#3366ff99","correct":-1,"choice":-1,"rt":-1,"accuracy":1,"outcome":"+10","keys":[3007.1699999971315],"total_keys":1,"block":1,"trial":90,"stimulus":11,"robot":2,"valence":"win","action":"no-go","sham":0,"trial_type":"pit-trial","trial_index":124,"time_elapsed":1352660,"internal_node_id":"0.0-97.0","task_version":"battery-v0.2-trt"},{"rune":"G","rune_set":"elianto","hex":"#f73b6a7A","correct":32,"choice":-1,"rt":-1,"accuracy":0,"outcome":"-10","keys":[2860.645000007935],"total_keys":1,"block":1,"trial":91,"stimulus":8,"robot":3,"valence":"lose","action":"go","sham":0,"trial_type":"pit-trial","trial_index":125,"time_elapsed":1356665,"internal_node_id":"0.0-98.0","task_version":"battery-v0.2-trt"},{"rune":"L","rune_set":"elianto","hex":"#f73b6a7A","correct":-1,"choice":-1,"rt":-1,"accuracy":1,"outcome":"-1","keys":[],"total_keys":0,"block":1,"trial":92,"stimulus":10,"robot":4,"valence":"lose","action":"no-go","sham":0,"trial_type":"pit-trial","trial_index":126,"time_elapsed":1360672,"internal_node_id":"0.0-99.0","task_version":"battery-v0.2-trt"},{"rune":"A","rune_set":"elianto","hex":"#f73b6a7A","correct":32,"choice":-1,"rt":-1,"accuracy":0,"outcome":"-10","keys":[],"total_keys":0,"block":1,"trial":93,"stimulus":9,"robot":3,"valence":"lose","action":"go","sham":0,"trial_type":"pit-trial","trial_index":127,"time_elapsed":1364689,"internal_node_id":"0.0-100.0","task_version":"battery-v0.2-trt"},{"rune":"L","rune_set":"elianto","hex":"#f73b6a7A","correct":-1,"choice":-1,"rt":-1,"accuracy":1,"outcome":"-1","keys":[],"total_keys":0,"block":1,"trial":94,"stimulus":10,"robot":4,"valence":"lose","action":"no-go","sham":0,"trial_type":"pit-trial","trial_index":128,"time_elapsed":1368696,"internal_node_id":"0.0-101.0","task_version":"battery-v0.2-trt"},{"rune":"G","rune_set":"elianto","hex":"#f73b6a7A","correct":32,"choice":-1,"rt":-1,"accuracy":0,"outcome":"-10","keys":[2934.0549999906216],"total_keys":1,"block":1,"trial":95,"stimulus":8,"robot":3,"valence":"lose","action":"go","sham":0,"trial_type":"pit-trial","trial_index":129,"time_elapsed":1372703,"internal_node_id":"0.0-102.0","task_version":"battery-v0.2-trt"},{"rune":"U","rune_set":"elianto","hex":"#3366ff99","correct":-1,"choice":32,"rt":870.295000000624,"accuracy":0,"outcome":"+1","keys":[2370.4200000066776],"total_keys":1,"block":1,"trial":96,"stimulus":11,"robot":2,"valence":"win","action":"no-go","sham":0,"trial_type":"pit-trial","trial_index":130,"time_elapsed":1376278,"internal_node_id":"0.0-103.0","task_version":"battery-v0.2-trt"},{"rune":"A","rune_set":"elianto","hex":"#f73b6a7A","correct":32,"choice":-1,"rt":-1,"accuracy":0,"outcome":"-1","keys":[],"total_keys":0,"block":1,"trial":97,"stimulus":9,"robot":3,"valence":"lose","action":"go","sham":1,"trial_type":"pit-trial","trial_index":131,"time_elapsed":1380282,"internal_node_id":"0.0-104.0","task_version":"battery-v0.2-trt"},{"rune":"U","rune_set":"elianto","hex":"#3366ff99","correct":-1,"choice":32,"rt":1115.2449999935925,"accuracy":0,"outcome":"+10","keys":[2615.709999998333],"total_keys":1,"block":1,"trial":98,"stimulus":11,"robot":2,"valence":"win","action":"no-go","sham":1,"trial_type":"pit-trial","trial_index":132,"time_elapsed":1384104,"internal_node_id":"0.0-105.0","task_version":"battery-v0.2-trt"},{"rune":"L","rune_set":"elianto","hex":"#f73b6a7A","correct":-1,"choice":-1,"rt":-1,"accuracy":1,"outcome":"-10","keys":[],"total_keys":0,"block":1,"trial":99,"stimulus":10,"robot":4,"valence":"lose","action":"no-go","sham":1,"trial_type":"pit-trial","trial_index":133,"time_elapsed":1388111,"internal_node_id":"0.0-106.0","task_version":"battery-v0.2-trt"},{"rune":"G","rune_set":"elianto","hex":"#f73b6a7A","correct":32,"choice":32,"rt":958.7250000042841,"accuracy":1,"outcome":"-1","keys":[2459.7849999992177],"total_keys":1,"block":1,"trial":100,"stimulus":8,"robot":3,"valence":"lose","action":"go","sham":0,"trial_type":"pit-trial","trial_index":134,"time_elapsed":1391776,"internal_node_id":"0.0-107.0","task_version":"battery-v0.2-trt"},{"rune":"G","rune_set":"elianto","hex":"#f73b6a7A","correct":32,"choice":-1,"rt":-1,"accuracy":0,"outcome":"-1","keys":[],"total_keys":0,"block":1,"trial":101,"stimulus":8,"robot":3,"valence":"lose","action":"go","sham":1,"trial_type":"pit-trial","trial_index":135,"time_elapsed":1395781,"internal_node_id":"0.0-108.0","task_version":"battery-v0.2-trt"},{"rune":"U","rune_set":"elianto","hex":"#3366ff99","correct":-1,"choice":-1,"rt":-1,"accuracy":1,"outcome":"+10","keys":[],"total_keys":0,"block":1,"trial":102,"stimulus":11,"robot":2,"valence":"win","action":"no-go","sham":0,"trial_type":"pit-trial","trial_index":136,"time_elapsed":1399789,"internal_node_id":"0.0-109.0","task_version":"battery-v0.2-trt"},{"rune":"A","rune_set":"elianto","hex":"#f73b6a7A","correct":32,"choice":-1,"rt":-1,"accuracy":0,"outcome":"-10","keys":[],"total_keys":0,"block":1,"trial":103,"stimulus":9,"robot":3,"valence":"lose","action":"go","sham":0,"trial_type":"pit-trial","trial_index":137,"time_elapsed":1403797,"internal_node_id":"0.0-110.0","task_version":"battery-v0.2-trt"},{"rune":"L","rune_set":"elianto","hex":"#f73b6a7A","correct":-1,"choice":32,"rt":848.519999999553,"accuracy":0,"outcome":"-1","keys":[2350.6449999986216],"total_keys":1,"block":1,"trial":104,"stimulus":10,"robot":4,"valence":"lose","action":"no-go","sham":1,"trial_type":"pit-trial","trial_index":138,"time_elapsed":1407353,"internal_node_id":"0.0-111.0","task_version":"battery-v0.2-trt"},{"rune":"G","rune_set":"elianto","hex":"#f73b6a7A","correct":32,"choice":32,"rt":1258.0900000028778,"accuracy":1,"outcome":"-1","keys":[2759.9000000045635],"total_keys":1,"block":1,"trial":105,"stimulus":8,"robot":3,"valence":"lose","action":"go","sham":0,"trial_type":"pit-trial","trial_index":139,"time_elapsed":1411319,"internal_node_id":"0.0-112.0","task_version":"battery-v0.2-trt"},{"rune":"L","rune_set":"elianto","hex":"#f73b6a7A","correct":-1,"choice":32,"rt":894.0900000014808,"accuracy":0,"outcome":"-10","keys":[2394.945000007283],"total_keys":1,"block":1,"trial":106,"stimulus":10,"robot":4,"valence":"lose","action":"no-go","sham":0,"trial_type":"pit-trial","trial_index":140,"time_elapsed":1414920,"internal_node_id":"0.0-113.0","task_version":"battery-v0.2-trt"},{"rune":"A","rune_set":"elianto","hex":"#f73b6a7A","correct":32,"choice":-1,"rt":-1,"accuracy":0,"outcome":"-10","keys":[],"total_keys":0,"block":1,"trial":107,"stimulus":9,"robot":3,"valence":"lose","action":"go","sham":0,"trial_type":"pit-trial","trial_index":141,"time_elapsed":1418928,"internal_node_id":"0.0-114.0","task_version":"battery-v0.2-trt"},{"rune":"U","rune_set":"elianto","hex":"#3366ff99","correct":-1,"choice":32,"rt":777.4749999954365,"accuracy":0,"outcome":"+1","keys":[2278.424999996787],"total_keys":1,"block":1,"trial":108,"stimulus":11,"robot":2,"valence":"win","action":"no-go","sham":0,"trial_type":"pit-trial","trial_index":142,"time_elapsed":1422411,"internal_node_id":"0.0-115.0","task_version":"battery-v0.2-trt"},{"rune":"G","rune_set":"elianto","hex":"#f73b6a7A","correct":32,"choice":32,"rt":1023.9399999990128,"accuracy":1,"outcome":"-1","keys":[2524.7249999956694],"total_keys":1,"block":1,"trial":109,"stimulus":8,"robot":3,"valence":"lose","action":"go","sham":0,"trial_type":"pit-trial","trial_index":143,"time_elapsed":1426140,"internal_node_id":"0.0-116.0","task_version":"battery-v0.2-trt"},{"rune":"A","rune_set":"elianto","hex":"#f73b6a7A","correct":32,"choice":-1,"rt":-1,"accuracy":0,"outcome":"-10","keys":[],"total_keys":0,"block":1,"trial":110,"stimulus":9,"robot":3,"valence":"lose","action":"go","sham":0,"trial_type":"pit-trial","trial_index":144,"time_elapsed":1430147,"internal_node_id":"0.0-117.0","task_version":"battery-v0.2-trt"},{"rune":"U","rune_set":"elianto","hex":"#3366ff99","correct":-1,"choice":-1,"rt":-1,"accuracy":1,"outcome":"+10","keys":[],"total_keys":0,"block":1,"trial":111,"stimulus":11,"robot":2,"valence":"win","action":"no-go","sham":0,"trial_type":"pit-trial","trial_index":145,"time_elapsed":1434155,"internal_node_id":"0.0-118.0","task_version":"battery-v0.2-trt"},{"rune":"L","rune_set":"elianto","hex":"#f73b6a7A","correct":-1,"choice":-1,"rt":-1,"accuracy":1,"outcome":"-1","keys":[],"total_keys":0,"block":1,"trial":112,"stimulus":10,"robot":4,"valence":"lose","action":"no-go","sham":0,"trial_type":"pit-trial","trial_index":146,"time_elapsed":1438162,"internal_node_id":"0.0-119.0","task_version":"battery-v0.2-trt"},{"rune":"U","rune_set":"elianto","hex":"#3366ff99","correct":-1,"choice":-1,"rt":-1,"accuracy":1,"outcome":"+10","keys":[],"total_keys":0,"block":1,"trial":113,"stimulus":11,"robot":2,"valence":"win","action":"no-go","sham":0,"trial_type":"pit-trial","trial_index":147,"time_elapsed":1442167,"internal_node_id":"0.0-120.0","task_version":"battery-v0.2-trt"},{"rune":"L","rune_set":"elianto","hex":"#f73b6a7A","correct":-1,"choice":-1,"rt":-1,"accuracy":1,"outcome":"-1","keys":[],"total_keys":0,"block":1,"trial":114,"stimulus":10,"robot":4,"valence":"lose","action":"no-go","sham":0,"trial_type":"pit-trial","trial_index":148,"time_elapsed":1446171,"internal_node_id":"0.0-121.0","task_version":"battery-v0.2-trt"},{"rune":"G","rune_set":"elianto","hex":"#f73b6a7A","correct":32,"choice":32,"rt":1035.4450000014622,"accuracy":1,"outcome":"-1","keys":[2535.9099999915343],"total_keys":1,"block":1,"trial":115,"stimulus":8,"robot":3,"valence":"lose","action":"go","sham":0,"trial_type":"pit-trial","trial_index":149,"time_elapsed":1449911,"internal_node_id":"0.0-122.0","task_version":"battery-v0.2-trt"},{"rune":"A","rune_set":"elianto","hex":"#f73b6a7A","correct":32,"choice":-1,"rt":-1,"accuracy":0,"outcome":"-10","keys":[],"total_keys":0,"block":1,"trial":116,"stimulus":9,"robot":3,"valence":"lose","action":"go","sham":0,"trial_type":"pit-trial","trial_index":150,"time_elapsed":1453918,"internal_node_id":"0.0-123.0","task_version":"battery-v0.2-trt"},{"rune":"U","rune_set":"elianto","hex":"#3366ff99","correct":-1,"choice":-1,"rt":-1,"accuracy":1,"outcome":"+10","keys":[],"total_keys":0,"block":1,"trial":117,"stimulus":11,"robot":2,"valence":"win","action":"no-go","sham":0,"trial_type":"pit-trial","trial_index":151,"time_elapsed":1457926,"internal_node_id":"0.0-124.0","task_version":"battery-v0.2-trt"},{"rune":"G","rune_set":"elianto","hex":"#f73b6a7A","correct":32,"choice":32,"rt":934.7500000004657,"accuracy":1,"outcome":"-1","keys":[2434.974999996368],"total_keys":1,"block":1,"trial":118,"stimulus":8,"robot":3,"valence":"lose","action":"go","sham":0,"trial_type":"pit-trial","trial_index":152,"time_elapsed":1461566,"internal_node_id":"0.0-125.0","task_version":"battery-v0.2-trt"},{"rune":"L","rune_set":"elianto","hex":"#f73b6a7A","correct":-1,"choice":32,"rt":1168.1049999897368,"accuracy":0,"outcome":"-10","keys":[2668.2299999957904],"total_keys":1,"block":1,"trial":119,"stimulus":10,"robot":4,"valence":"lose","action":"no-go","sham":0,"trial_type":"pit-trial","trial_index":153,"time_elapsed":1465441,"internal_node_id":"0.0-126.0","task_version":"battery-v0.2-trt"},{"rune":"A","rune_set":"elianto","hex":"#f73b6a7A","correct":32,"choice":32,"rt":1047.8399999993853,"accuracy":1,"outcome":"-10","keys":[2548.47500000312],"total_keys":1,"block":1,"trial":120,"stimulus":9,"robot":3,"valence":"lose","action":"go","sham":1,"trial_type":"pit-trial","trial_index":154,"time_elapsed":1469195,"internal_node_id":"0.0-127.0","task_version":"battery-v0.2-trt"},{"view_history":"[{\"page_index\":0,\"viewing_time\":18367.605000006966},{\"page_index\":1,\"viewing_time\":4487.3549999902025}]","rt":22855.50999999419,"trial_type":"pit-instructions","trial_index":155,"time_elapsed":1492054,"internal_node_id":"0.0-128.0","task_version":"battery-v0.2-trt"},{"rune":"M","rune_set":"elianto","hex":"#f73b6a7A","correct":-1,"choice":32,"rt":774.7000000090338,"accuracy":0,"outcome":"-1","keys":[2274.8150000115857],"total_keys":1,"block":2,"trial":121,"stimulus":0,"robot":4,"valence":"lose","action":"no-go","sham":1,"trial_type":"pit-trial","trial_index":156,"time_elapsed":1495538,"internal_node_id":"0.0-129.0","task_version":"battery-v0.2-trt"},{"rune":"Y","rune_set":"elianto","hex":"#3366ff99","correct":32,"choice":32,"rt":761.9499999999534,"accuracy":1,"outcome":"+10","keys":[2262.8800000092015],"total_keys":1,"block":2,"trial":122,"stimulus":2,"robot":1,"valence":"win","action":"go","sham":0,"trial_type":"pit-trial","trial_index":157,"time_elapsed":1499007,"internal_node_id":"0.0-130.0","task_version":"battery-v0.2-trt"},{"rune":"R","rune_set":"elianto","hex":"#f73b6a7A","correct":-1,"choice":-1,"rt":-1,"accuracy":1,"outcome":"-1","keys":[],"total_keys":0,"block":2,"trial":123,"stimulus":1,"robot":4,"valence":"lose","action":"no-go","sham":0,"trial_type":"pit-trial","trial_index":158,"time_elapsed":1503012,"internal_node_id":"0.0-131.0","task_version":"battery-v0.2-trt"},{"rune":"H","rune_set":"elianto","hex":"#3366ff99","correct":-1,"choice":-1,"rt":-1,"accuracy":1,"outcome":"+10","keys":[],"total_keys":0,"block":2,"trial":124,"stimulus":3,"robot":2,"valence":"win","action":"no-go","sham":0,"trial_type":"pit-trial","trial_index":159,"time_elapsed":1507018,"internal_node_id":"0.0-132.0","task_version":"battery-v0.2-trt"},{"rune":"R","rune_set":"elianto","hex":"#f73b6a7A","correct":-1,"choice":-1,"rt":-1,"accuracy":1,"outcome":"-1","keys":[],"total_keys":0,"block":2,"trial":125,"stimulus":1,"robot":4,"valence":"lose","action":"no-go","sham":0,"trial_type":"pit-trial","trial_index":160,"time_elapsed":1511025,"internal_node_id":"0.0-133.0","task_version":"battery-v0.2-trt"},{"rune":"Y","rune_set":"elianto","hex":"#3366ff99","correct":32,"choice":32,"rt":1290.0649999938905,"accuracy":1,"outcome":"+10","keys":[2790.659999998752],"total_keys":1,"block":2,"trial":126,"stimulus":2,"robot":1,"valence":"win","action":"go","sham":0,"trial_type":"pit-trial","trial_index":161,"time_elapsed":1515020,"internal_node_id":"0.0-134.0","task_version":"battery-v0.2-trt"},{"rune":"H","rune_set":"elianto","hex":"#3366ff99","correct":-1,"choice":-1,"rt":-1,"accuracy":1,"outcome":"+10","keys":[2884.609999993583],"total_keys":1,"block":2,"trial":127,"stimulus":3,"robot":2,"valence":"win","action":"no-go","sham":0,"trial_type":"pit-trial","trial_index":162,"time_elapsed":1519027,"internal_node_id":"0.0-135.0","task_version":"battery-v0.2-trt"},{"rune":"M","rune_set":"elianto","hex":"#f73b6a7A","correct":-1,"choice":-1,"rt":-1,"accuracy":1,"outcome":"-1","keys":[2818.370000008261],"total_keys":1,"block":2,"trial":128,"stimulus":0,"robot":4,"valence":"lose","action":"no-go","sham":0,"trial_type":"pit-trial","trial_index":163,"time_elapsed":1523032,"internal_node_id":"0.0-136.0","task_version":"battery-v0.2-trt"},{"rune":"H","rune_set":"elianto","hex":"#3366ff99","correct":-1,"choice":-1,"rt":-1,"accuracy":1,"outcome":"+1","keys":[],"total_keys":0,"block":2,"trial":129,"stimulus":3,"robot":2,"valence":"win","action":"no-go","sham":1,"trial_type":"pit-trial","trial_index":164,"time_elapsed":1527038,"internal_node_id":"0.0-137.0","task_version":"battery-v0.2-trt"},{"rune":"Y","rune_set":"elianto","hex":"#3366ff99","correct":32,"choice":-1,"rt":-1,"accuracy":0,"outcome":"+1","keys":[],"total_keys":0,"block":2,"trial":130,"stimulus":2,"robot":1,"valence":"win","action":"go","sham":0,"trial_type":"pit-trial","trial_index":165,"time_elapsed":1531042,"internal_node_id":"0.0-138.0","task_version":"battery-v0.2-trt"},{"rune":"M","rune_set":"elianto","hex":"#f73b6a7A","correct":-1,"choice":32,"rt":1216.2300000053365,"accuracy":0,"outcome":"-10","keys":[2718.0850000004284],"total_keys":1,"block":2,"trial":131,"stimulus":0,"robot":4,"valence":"lose","action":"no-go","sham":0,"trial_type":"pit-trial","trial_index":166,"time_elapsed":1534966,"internal_node_id":"0.0-139.0","task_version":"battery-v0.2-trt"},{"rune":"R","rune_set":"elianto","hex":"#f73b6a7A","correct":-1,"choice":-1,"rt":-1,"accuracy":1,"outcome":"-1","keys":[],"total_keys":0,"block":2,"trial":132,"stimulus":1,"robot":4,"valence":"lose","action":"no-go","sham":0,"trial_type":"pit-trial","trial_index":167,"time_elapsed":1538969,"internal_node_id":"0.0-140.0","task_version":"battery-v0.2-trt"},{"rune":"Y","rune_set":"elianto","hex":"#3366ff99","correct":32,"choice":32,"rt":1155.615000010701,"accuracy":1,"outcome":"+10","keys":[2655.8850000000093],"total_keys":1,"block":2,"trial":133,"stimulus":2,"robot":1,"valence":"win","action":"go","sham":0,"trial_type":"pit-trial","trial_index":168,"time_elapsed":1542830,"internal_node_id":"0.0-141.0","task_version":"battery-v0.2-trt"},{"rune":"R","rune_set":"elianto","hex":"#f73b6a7A","correct":-1,"choice":-1,"rt":-1,"accuracy":1,"outcome":"-1","keys":[],"total_keys":0,"block":2,"trial":134,"stimulus":1,"robot":4,"valence":"lose","action":"no-go","sham":0,"trial_type":"pit-trial","trial_index":169,"time_elapsed":1546838,"internal_node_id":"0.0-142.0","task_version":"battery-v0.2-trt"},{"rune":"H","rune_set":"elianto","hex":"#3366ff99","correct":-1,"choice":-1,"rt":-1,"accuracy":1,"outcome":"+10","keys":[],"total_keys":0,"block":2,"trial":135,"stimulus":3,"robot":2,"valence":"win","action":"no-go","sham":0,"trial_type":"pit-trial","trial_index":170,"time_elapsed":1550845,"internal_node_id":"0.0-143.0","task_version":"battery-v0.2-trt"},{"rune":"M","rune_set":"elianto","hex":"#f73b6a7A","correct":-1,"choice":-1,"rt":-1,"accuracy":1,"outcome":"-10","keys":[3104.949999993434],"total_keys":1,"block":2,"trial":136,"stimulus":0,"robot":4,"valence":"lose","action":"no-go","sham":1,"trial_type":"pit-trial","trial_index":171,"time_elapsed":1554852,"internal_node_id":"0.0-144.0","task_version":"battery-v0.2-trt"},{"rune":"R","rune_set":"elianto","hex":"#f73b6a7A","correct":-1,"choice":-1,"rt":-1,"accuracy":1,"outcome":"-1","keys":[],"total_keys":0,"block":2,"trial":137,"stimulus":1,"robot":4,"valence":"lose","action":"no-go","sham":0,"trial_type":"pit-trial","trial_index":172,"time_elapsed":1558859,"internal_node_id":"0.0-145.0","task_version":"battery-v0.2-trt"},{"rune":"Y","rune_set":"elianto","hex":"#3366ff99","correct":32,"choice":32,"rt":1122.4800000055693,"accuracy":1,"outcome":"+10","keys":[2623.410000000149],"total_keys":1,"block":2,"trial":138,"stimulus":2,"robot":1,"valence":"win","action":"go","sham":0,"trial_type":"pit-trial","trial_index":173,"time_elapsed":1562688,"internal_node_id":"0.0-146.0","task_version":"battery-v0.2-trt"},{"rune":"M","rune_set":"elianto","hex":"#f73b6a7A","correct":-1,"choice":32,"rt":1144.7850000113249,"accuracy":0,"outcome":"-10","keys":[2646.0349999980535],"total_keys":1,"block":2,"trial":139,"stimulus":0,"robot":4,"valence":"lose","action":"no-go","sham":0,"trial_type":"pit-trial","trial_index":174,"time_elapsed":1566540,"internal_node_id":"0.0-147.0","task_version":"battery-v0.2-trt"},{"rune":"H","rune_set":"elianto","hex":"#3366ff99","correct":-1,"choice":32,"rt":1152.5399999956135,"accuracy":0,"outcome":"+1","keys":[2653.39500000095],"total_keys":1,"block":2,"trial":140,"stimulus":3,"robot":2,"valence":"win","action":"no-go","sham":0,"trial_type":"pit-trial","trial_index":175,"time_elapsed":1570399,"internal_node_id":"0.0-148.0","task_version":"battery-v0.2-trt"},{"rune":"R","rune_set":"elianto","hex":"#f73b6a7A","correct":-1,"choice":-1,"rt":-1,"accuracy":1,"outcome":"-10","keys":[],"total_keys":0,"block":2,"trial":141,"stimulus":1,"robot":4,"valence":"lose","action":"no-go","sham":1,"trial_type":"pit-trial","trial_index":176,"time_elapsed":1574407,"internal_node_id":"0.0-149.0","task_version":"battery-v0.2-trt"},{"rune":"Y","rune_set":"elianto","hex":"#3366ff99","correct":32,"choice":32,"rt":877.04999999539,"accuracy":1,"outcome":"+10","keys":[2377.2599999939557],"total_keys":1,"block":2,"trial":142,"stimulus":2,"robot":1,"valence":"win","action":"go","sham":0,"trial_type":"pit-trial","trial_index":177,"time_elapsed":1577989,"internal_node_id":"0.0-150.0","task_version":"battery-v0.2-trt"},{"rune":"H","rune_set":"elianto","hex":"#3366ff99","correct":-1,"choice":-1,"rt":-1,"accuracy":1,"outcome":"+10","keys":[],"total_keys":0,"block":2,"trial":143,"stimulus":3,"robot":2,"valence":"win","action":"no-go","sham":0,"trial_type":"pit-trial","trial_index":178,"time_elapsed":1581996,"internal_node_id":"0.0-151.0","task_version":"battery-v0.2-trt"},{"rune":"M","rune_set":"elianto","hex":"#f73b6a7A","correct":-1,"choice":32,"rt":968.4549999947194,"accuracy":0,"outcome":"-1","keys":[2469.905000005383],"total_keys":1,"block":2,"trial":144,"stimulus":0,"robot":4,"valence":"lose","action":"no-go","sham":1,"trial_type":"pit-trial","trial_index":179,"time_elapsed":1585671,"internal_node_id":"0.0-152.0","task_version":"battery-v0.2-trt"},{"rune":"Y","rune_set":"elianto","hex":"#3366ff99","correct":32,"choice":-1,"rt":-1,"accuracy":0,"outcome":"+1","keys":[3177.4900000018533],"total_keys":1,"block":2,"trial":145,"stimulus":2,"robot":1,"valence":"win","action":"go","sham":0,"trial_type":"pit-trial","trial_index":180,"time_elapsed":1589677,"internal_node_id":"0.0-153.0","task_version":"battery-v0.2-trt"},{"rune":"H","rune_set":"elianto","hex":"#3366ff99","correct":-1,"choice":32,"rt":1196.0399999953806,"accuracy":0,"outcome":"+1","keys":[2696.6099999989383],"total_keys":1,"block":2,"trial":146,"stimulus":3,"robot":2,"valence":"win","action":"no-go","sham":0,"trial_type":"pit-trial","trial_index":181,"time_elapsed":1593576,"internal_node_id":"0.0-154.0","task_version":"battery-v0.2-trt"},{"rune":"M","rune_set":"elianto","hex":"#f73b6a7A","correct":-1,"choice":-1,"rt":-1,"accuracy":1,"outcome":"-1","keys":[],"total_keys":0,"block":2,"trial":147,"stimulus":0,"robot":4,"valence":"lose","action":"no-go","sham":0,"trial_type":"pit-trial","trial_index":182,"time_elapsed":1597581,"internal_node_id":"0.0-155.0","task_version":"battery-v0.2-trt"},{"rune":"R","rune_set":"elianto","hex":"#f73b6a7A","correct":-1,"choice":-1,"rt":-1,"accuracy":1,"outcome":"-1","keys":[],"total_keys":0,"block":2,"trial":148,"stimulus":1,"robot":4,"valence":"lose","action":"no-go","sham":0,"trial_type":"pit-trial","trial_index":183,"time_elapsed":1601587,"internal_node_id":"0.0-156.0","task_version":"battery-v0.2-trt"},{"rune":"Y","rune_set":"elianto","hex":"#3366ff99","correct":32,"choice":32,"rt":1109.1700000106357,"accuracy":1,"outcome":"+10","keys":[2609.2349999961443],"total_keys":1,"block":2,"trial":149,"stimulus":2,"robot":1,"valence":"win","action":"go","sham":0,"trial_type":"pit-trial","trial_index":184,"time_elapsed":1605402,"internal_node_id":"0.0-157.0","task_version":"battery-v0.2-trt"},{"rune":"H","rune_set":"elianto","hex":"#3366ff99","correct":-1,"choice":32,"rt":1293.2299999955576,"accuracy":0,"outcome":"+1","keys":[2794.5500000061],"total_keys":1,"block":2,"trial":150,"stimulus":3,"robot":2,"valence":"win","action":"no-go","sham":0,"trial_type":"pit-trial","trial_index":185,"time_elapsed":1609402,"internal_node_id":"0.0-158.0","task_version":"battery-v0.2-trt"},{"rune":"R","rune_set":"elianto","hex":"#f73b6a7A","correct":-1,"choice":-1,"rt":-1,"accuracy":1,"outcome":"-1","keys":[],"total_keys":0,"block":2,"trial":151,"stimulus":1,"robot":4,"valence":"lose","action":"no-go","sham":0,"trial_type":"pit-trial","trial_index":186,"time_elapsed":1613409,"internal_node_id":"0.0-159.0","task_version":"battery-v0.2-trt"},{"rune":"M","rune_set":"elianto","hex":"#f73b6a7A","correct":-1,"choice":32,"rt":1183.6449999972247,"accuracy":0,"outcome":"-10","keys":[2685.28000000515],"total_keys":1,"block":2,"trial":152,"stimulus":0,"robot":4,"valence":"lose","action":"no-go","sham":0,"trial_type":"pit-trial","trial_index":187,"time_elapsed":1617300,"internal_node_id":"0.0-160.0","task_version":"battery-v0.2-trt"},{"rune":"H","rune_set":"elianto","hex":"#3366ff99","correct":-1,"choice":-1,"rt":-1,"accuracy":1,"outcome":"+10","keys":[],"total_keys":0,"block":2,"trial":153,"stimulus":3,"robot":2,"valence":"win","action":"no-go","sham":0,"trial_type":"pit-trial","trial_index":188,"time_elapsed":1621307,"internal_node_id":"0.0-161.0","task_version":"battery-v0.2-trt"},{"rune":"M","rune_set":"elianto","hex":"#f73b6a7A","correct":-1,"choice":-1,"rt":-1,"accuracy":1,"outcome":"-1","keys":[],"total_keys":0,"block":2,"trial":154,"stimulus":0,"robot":4,"valence":"lose","action":"no-go","sham":0,"trial_type":"pit-trial","trial_index":189,"time_elapsed":1625313,"internal_node_id":"0.0-162.0","task_version":"battery-v0.2-trt"},{"rune":"Y","rune_set":"elianto","hex":"#3366ff99","correct":32,"choice":32,"rt":1276.719999994617,"accuracy":1,"outcome":"+10","keys":[2777.400000006426],"total_keys":1,"block":2,"trial":155,"stimulus":2,"robot":1,"valence":"win","action":"go","sham":0,"trial_type":"pit-trial","trial_index":190,"time_elapsed":1629295,"internal_node_id":"0.0-163.0","task_version":"battery-v0.2-trt"},{"rune":"Z","rune_set":"elianto","hex":"#f73b6a7A","correct":32,"choice":-1,"rt":-1,"accuracy":0,"outcome":"-10","keys":[],"total_keys":0,"block":2,"trial":156,"stimulus":4,"robot":3,"valence":"lose","action":"go","sham":0,"trial_type":"pit-trial","trial_index":191,"time_elapsed":1633299,"internal_node_id":"0.0-164.0","task_version":"battery-v0.2-trt"},{"rune":"Z","rune_set":"elianto","hex":"#f73b6a7A","correct":32,"choice":32,"rt":997.0500000054017,"accuracy":1,"outcome":"-1","keys":[2497.8649999976624],"total_keys":1,"block":2,"trial":157,"stimulus":4,"robot":3,"valence":"lose","action":"go","sham":0,"trial_type":"pit-trial","trial_index":192,"time_elapsed":1637003,"internal_node_id":"0.0-165.0","task_version":"battery-v0.2-trt"},{"rune":"H","rune_set":"elianto","hex":"#3366ff99","correct":-1,"choice":-1,"rt":-1,"accuracy":1,"outcome":"+10","keys":[],"total_keys":0,"block":2,"trial":158,"stimulus":3,"robot":2,"valence":"win","action":"no-go","sham":0,"trial_type":"pit-trial","trial_index":193,"time_elapsed":1641010,"internal_node_id":"0.0-166.0","task_version":"battery-v0.2-trt"},{"rune":"M","rune_set":"elianto","hex":"#f73b6a7A","correct":-1,"choice":-1,"rt":-1,"accuracy":1,"outcome":"-1","keys":[3771.7849999899045],"total_keys":1,"block":2,"trial":159,"stimulus":0,"robot":4,"valence":"lose","action":"no-go","sham":0,"trial_type":"pit-trial","trial_index":194,"time_elapsed":1645015,"internal_node_id":"0.0-167.0","task_version":"battery-v0.2-trt"},{"rune":"Y","rune_set":"elianto","hex":"#3366ff99","correct":32,"choice":-1,"rt":-1,"accuracy":0,"outcome":"+1","keys":[2842.894999994198],"total_keys":1,"block":2,"trial":160,"stimulus":2,"robot":1,"valence":"win","action":"go","sham":0,"trial_type":"pit-trial","trial_index":195,"time_elapsed":1649019,"internal_node_id":"0.0-168.0","task_version":"battery-v0.2-trt"},{"rune":"M","rune_set":"elianto","hex":"#f73b6a7A","correct":-1,"choice":-1,"rt":-1,"accuracy":1,"outcome":"-1","keys":[],"total_keys":0,"block":2,"trial":161,"stimulus":0,"robot":4,"valence":"lose","action":"no-go","sham":0,"trial_type":"pit-trial","trial_index":196,"time_elapsed":1653023,"internal_node_id":"0.0-169.0","task_version":"battery-v0.2-trt"},{"rune":"C","rune_set":"elianto","hex":"#3366ff99","correct":-1,"choice":-1,"rt":-1,"accuracy":1,"outcome":"+10","keys":[],"total_keys":0,"block":2,"trial":162,"stimulus":5,"robot":2,"valence":"win","action":"no-go","sham":0,"trial_type":"pit-trial","trial_index":197,"time_elapsed":1657030,"internal_node_id":"0.0-170.0","task_version":"battery-v0.2-trt"},{"rune":"B","rune_set":"elianto","hex":"#3366ff99","correct":32,"choice":-1,"rt":-1,"accuracy":0,"outcome":"+1","keys":[],"total_keys":0,"block":2,"trial":163,"stimulus":6,"robot":1,"valence":"win","action":"go","sham":0,"trial_type":"pit-trial","trial_index":198,"time_elapsed":1661036,"internal_node_id":"0.0-171.0","task_version":"battery-v0.2-trt"},{"rune":"Z","rune_set":"elianto","hex":"#f73b6a7A","correct":32,"choice":32,"rt":1047.7700000046752,"accuracy":1,"outcome":"-10","keys":[2548.185000006808],"total_keys":1,"block":2,"trial":164,"stimulus":4,"robot":3,"valence":"lose","action":"go","sham":1,"trial_type":"pit-trial","trial_index":199,"time_elapsed":1664789,"internal_node_id":"0.0-172.0","task_version":"battery-v0.2-trt"},{"rune":"C","rune_set":"elianto","hex":"#3366ff99","correct":-1,"choice":-1,"rt":-1,"accuracy":1,"outcome":"+1","keys":[],"total_keys":0,"block":2,"trial":165,"stimulus":5,"robot":2,"valence":"win","action":"no-go","sham":1,"trial_type":"pit-trial","trial_index":200,"time_elapsed":1668794,"internal_node_id":"0.0-173.0","task_version":"battery-v0.2-trt"},{"rune":"Z","rune_set":"elianto","hex":"#f73b6a7A","correct":32,"choice":-1,"rt":-1,"accuracy":0,"outcome":"-10","keys":[2814.389999999432],"total_keys":1,"block":2,"trial":166,"stimulus":4,"robot":3,"valence":"lose","action":"go","sham":0,"trial_type":"pit-trial","trial_index":201,"time_elapsed":1672799,"internal_node_id":"0.0-174.0","task_version":"battery-v0.2-trt"},{"rune":"M","rune_set":"elianto","hex":"#f73b6a7A","correct":-1,"choice":32,"rt":1282.749999998603,"accuracy":0,"outcome":"-10","keys":[2782.9350000103004],"total_keys":1,"block":2,"trial":167,"stimulus":0,"robot":4,"valence":"lose","action":"no-go","sham":0,"trial_type":"pit-trial","trial_index":202,"time_elapsed":1676787,"internal_node_id":"0.0-175.0","task_version":"battery-v0.2-trt"},{"rune":"B","rune_set":"elianto","hex":"#3366ff99","correct":32,"choice":32,"rt":1258.1299999875482,"accuracy":1,"outcome":"+1","keys":[2759.4800000078976],"total_keys":1,"block":2,"trial":168,"stimulus":6,"robot":1,"valence":"win","action":"go","sham":1,"trial_type":"pit-trial","trial_index":203,"time_elapsed":1680752,"internal_node_id":"0.0-176.0","task_version":"battery-v0.2-trt"},{"rune":"C","rune_set":"elianto","hex":"#3366ff99","correct":-1,"choice":-1,"rt":-1,"accuracy":1,"outcome":"+10","keys":[],"total_keys":0,"block":2,"trial":169,"stimulus":5,"robot":2,"valence":"win","action":"no-go","sham":0,"trial_type":"pit-trial","trial_index":204,"time_elapsed":1684760,"internal_node_id":"0.0-177.0","task_version":"battery-v0.2-trt"},{"rune":"Z","rune_set":"elianto","hex":"#f73b6a7A","correct":32,"choice":-1,"rt":-1,"accuracy":0,"outcome":"-1","keys":[],"total_keys":0,"block":2,"trial":170,"stimulus":4,"robot":3,"valence":"lose","action":"go","sham":1,"trial_type":"pit-trial","trial_index":205,"time_elapsed":1688766,"internal_node_id":"0.0-178.0","task_version":"battery-v0.2-trt"},{"rune":"T","rune_set":"elianto","hex":"#f73b6a7A","correct":-1,"choice":-1,"rt":-1,"accuracy":1,"outcome":"-1","keys":[],"total_keys":0,"block":2,"trial":171,"stimulus":7,"robot":4,"valence":"lose","action":"no-go","sham":0,"trial_type":"pit-trial","trial_index":206,"time_elapsed":1692773,"internal_node_id":"0.0-179.0","task_version":"battery-v0.2-trt"},{"rune":"B","rune_set":"elianto","hex":"#3366ff99","correct":32,"choice":-1,"rt":-1,"accuracy":0,"outcome":"+1","keys":[],"total_keys":0,"block":2,"trial":172,"stimulus":6,"robot":1,"valence":"win","action":"go","sham":0,"trial_type":"pit-trial","trial_index":207,"time_elapsed":1696780,"internal_node_id":"0.0-180.0","task_version":"battery-v0.2-trt"},{"rune":"C","rune_set":"elianto","hex":"#3366ff99","correct":-1,"choice":32,"rt":1287.345000004163,"accuracy":0,"outcome":"+1","keys":[2787.5800000038],"total_keys":1,"block":2,"trial":173,"stimulus":5,"robot":2,"valence":"win","action":"no-go","sham":0,"trial_type":"pit-trial","trial_index":208,"time_elapsed":1700774,"internal_node_id":"0.0-181.0","task_version":"battery-v0.2-trt"},{"rune":"B","rune_set":"elianto","hex":"#3366ff99","correct":32,"choice":32,"rt":1281.604999996489,"accuracy":1,"outcome":"+10","keys":[2782.1649999967776],"total_keys":1,"block":2,"trial":174,"stimulus":6,"robot":1,"valence":"win","action":"go","sham":0,"trial_type":"pit-trial","trial_index":209,"time_elapsed":1704762,"internal_node_id":"0.0-182.0","task_version":"battery-v0.2-trt"},{"rune":"T","rune_set":"elianto","hex":"#f73b6a7A","correct":-1,"choice":-1,"rt":-1,"accuracy":1,"outcome":"-1","keys":[],"total_keys":0,"block":2,"trial":175,"stimulus":7,"robot":4,"valence":"lose","action":"no-go","sham":0,"trial_type":"pit-trial","trial_index":210,"time_elapsed":1708767,"internal_node_id":"0.0-183.0","task_version":"battery-v0.2-trt"},{"rune":"Z","rune_set":"elianto","hex":"#f73b6a7A","correct":32,"choice":-1,"rt":-1,"accuracy":0,"outcome":"-10","keys":[],"total_keys":0,"block":2,"trial":176,"stimulus":4,"robot":3,"valence":"lose","action":"go","sham":0,"trial_type":"pit-trial","trial_index":211,"time_elapsed":1712773,"internal_node_id":"0.0-184.0","task_version":"battery-v0.2-trt"},{"rune":"T","rune_set":"elianto","hex":"#f73b6a7A","correct":-1,"choice":-1,"rt":-1,"accuracy":1,"outcome":"-1","keys":[],"total_keys":0,"block":2,"trial":177,"stimulus":7,"robot":4,"valence":"lose","action":"no-go","sham":0,"trial_type":"pit-trial","trial_index":212,"time_elapsed":1716777,"internal_node_id":"0.0-185.0","task_version":"battery-v0.2-trt"},{"rune":"B","rune_set":"elianto","hex":"#3366ff99","correct":32,"choice":-1,"rt":-1,"accuracy":0,"outcome":"+1","keys":[2970.6750000040047],"total_keys":1,"block":2,"trial":178,"stimulus":6,"robot":1,"valence":"win","action":"go","sham":0,"trial_type":"pit-trial","trial_index":213,"time_elapsed":1720787,"internal_node_id":"0.0-186.0","task_version":"battery-v0.2-trt"},{"rune":"Z","rune_set":"elianto","hex":"#f73b6a7A","correct":32,"choice":-1,"rt":-1,"accuracy":0,"outcome":"-1","keys":[],"total_keys":0,"block":2,"trial":179,"stimulus":4,"robot":3,"valence":"lose","action":"go","sham":1,"trial_type":"pit-trial","trial_index":214,"time_elapsed":1724791,"internal_node_id":"0.0-187.0","task_version":"battery-v0.2-trt"},{"rune":"C","rune_set":"elianto","hex":"#3366ff99","correct":-1,"choice":32,"rt":1239.1349999960512,"accuracy":0,"outcome":"+1","keys":[2740.185000002384],"total_keys":1,"block":2,"trial":180,"stimulus":5,"robot":2,"valence":"win","action":"no-go","sham":0,"trial_type":"pit-trial","trial_index":215,"time_elapsed":1728734,"internal_node_id":"0.0-188.0","task_version":"battery-v0.2-trt"},{"rune":"T","rune_set":"elianto","hex":"#f73b6a7A","correct":-1,"choice":-1,"rt":-1,"accuracy":1,"outcome":"-1","keys":[],"total_keys":0,"block":2,"trial":181,"stimulus":7,"robot":4,"valence":"lose","action":"no-go","sham":0,"trial_type":"pit-trial","trial_index":216,"time_elapsed":1732739,"internal_node_id":"0.0-189.0","task_version":"battery-v0.2-trt"},{"rune":"Z","rune_set":"elianto","hex":"#f73b6a7A","correct":32,"choice":-1,"rt":-1,"accuracy":0,"outcome":"-10","keys":[],"total_keys":0,"block":2,"trial":182,"stimulus":4,"robot":3,"valence":"lose","action":"go","sham":0,"trial_type":"pit-trial","trial_index":217,"time_elapsed":1736746,"internal_node_id":"0.0-190.0","task_version":"battery-v0.2-trt"},{"rune":"B","rune_set":"elianto","hex":"#3366ff99","correct":32,"choice":-1,"rt":-1,"accuracy":0,"outcome":"+1","keys":[],"total_keys":0,"block":2,"trial":183,"stimulus":6,"robot":1,"valence":"win","action":"go","sham":0,"trial_type":"pit-trial","trial_index":218,"time_elapsed":1740750,"internal_node_id":"0.0-191.0","task_version":"battery-v0.2-trt"},{"rune":"C","rune_set":"elianto","hex":"#3366ff99","correct":-1,"choice":-1,"rt":-1,"accuracy":1,"outcome":"+1","keys":[],"total_keys":0,"block":2,"trial":184,"stimulus":5,"robot":2,"valence":"win","action":"no-go","sham":1,"trial_type":"pit-trial","trial_index":219,"time_elapsed":1744756,"internal_node_id":"0.0-192.0","task_version":"battery-v0.2-trt"},{"rune":"C","rune_set":"elianto","hex":"#3366ff99","correct":-1,"choice":-1,"rt":-1,"accuracy":1,"outcome":"+10","keys":[],"total_keys":0,"block":2,"trial":185,"stimulus":5,"robot":2,"valence":"win","action":"no-go","sham":0,"trial_type":"pit-trial","trial_index":220,"time_elapsed":1748763,"internal_node_id":"0.0-193.0","task_version":"battery-v0.2-trt"},{"rune":"T","rune_set":"elianto","hex":"#f73b6a7A","correct":-1,"choice":32,"rt":1284.5950000048615,"accuracy":0,"outcome":"-10","keys":[2784.6399999982677],"total_keys":1,"block":2,"trial":186,"stimulus":7,"robot":4,"valence":"lose","action":"no-go","sham":0,"trial_type":"pit-trial","trial_index":221,"time_elapsed":1752754,"internal_node_id":"0.0-194.0","task_version":"battery-v0.2-trt"},{"rune":"B","rune_set":"elianto","hex":"#3366ff99","correct":32,"choice":-1,"rt":-1,"accuracy":0,"outcome":"+1","keys":[],"total_keys":0,"block":2,"trial":187,"stimulus":6,"robot":1,"valence":"win","action":"go","sham":0,"trial_type":"pit-trial","trial_index":222,"time_elapsed":1756758,"internal_node_id":"0.0-195.0","task_version":"battery-v0.2-trt"},{"rune":"Z","rune_set":"elianto","hex":"#f73b6a7A","correct":32,"choice":-1,"rt":-1,"accuracy":0,"outcome":"-10","keys":[],"total_keys":0,"block":2,"trial":188,"stimulus":4,"robot":3,"valence":"lose","action":"go","sham":0,"trial_type":"pit-trial","trial_index":223,"time_elapsed":1760763,"internal_node_id":"0.0-196.0","task_version":"battery-v0.2-trt"},{"rune":"Z","rune_set":"elianto","hex":"#f73b6a7A","correct":32,"choice":-1,"rt":-1,"accuracy":0,"outcome":"-10","keys":[],"total_keys":0,"block":2,"trial":189,"stimulus":4,"robot":3,"valence":"lose","action":"go","sham":0,"trial_type":"pit-trial","trial_index":224,"time_elapsed":1764767,"internal_node_id":"0.0-197.0","task_version":"battery-v0.2-trt"},{"rune":"C","rune_set":"elianto","hex":"#3366ff99","correct":-1,"choice":-1,"rt":-1,"accuracy":1,"outcome":"+10","keys":[3123.0899999937974],"total_keys":1,"block":2,"trial":190,"stimulus":5,"robot":2,"valence":"win","action":"no-go","sham":0,"trial_type":"pit-trial","trial_index":225,"time_elapsed":1768774,"internal_node_id":"0.0-198.0","task_version":"battery-v0.2-trt"},{"rune":"T","rune_set":"elianto","hex":"#f73b6a7A","correct":-1,"choice":32,"rt":1293.3349999948405,"accuracy":0,"outcome":"-10","keys":[2794.0850000013597],"total_keys":1,"block":2,"trial":191,"stimulus":7,"robot":4,"valence":"lose","action":"no-go","sham":0,"trial_type":"pit-trial","trial_index":226,"time_elapsed":1772773,"internal_node_id":"0.0-199.0","task_version":"battery-v0.2-trt"},{"rune":"B","rune_set":"elianto","hex":"#3366ff99","correct":32,"choice":-1,"rt":-1,"accuracy":0,"outcome":"+1","keys":[],"total_keys":0,"block":2,"trial":192,"stimulus":6,"robot":1,"valence":"win","action":"go","sham":0,"trial_type":"pit-trial","trial_index":227,"time_elapsed":1776783,"internal_node_id":"0.0-200.0","task_version":"battery-v0.2-trt"},{"rune":"T","rune_set":"elianto","hex":"#f73b6a7A","correct":-1,"choice":32,"rt":1000.1350000095554,"accuracy":0,"outcome":"-10","keys":[2501.025000005029],"total_keys":1,"block":2,"trial":193,"stimulus":7,"robot":4,"valence":"lose","action":"no-go","sham":0,"trial_type":"pit-trial","trial_index":228,"time_elapsed":1780497,"internal_node_id":"0.0-201.0","task_version":"battery-v0.2-trt"},{"rune":"X","rune_set":"elianto","hex":"#3366ff99","correct":32,"choice":32,"rt":767.0099999958184,"accuracy":1,"outcome":"+10","keys":[2268.0949999922886],"total_keys":1,"block":2,"trial":194,"stimulus":8,"robot":1,"valence":"win","action":"go","sham":0,"trial_type":"pit-trial","trial_index":229,"time_elapsed":1783971,"internal_node_id":"0.0-202.0","task_version":"battery-v0.2-trt"},{"rune":"F","rune_set":"elianto","hex":"#f73b6a7A","correct":32,"choice":32,"rt":434.3899999950081,"accuracy":1,"outcome":"-10","keys":[1935.2149999905378],"total_keys":1,"block":2,"trial":195,"stimulus":9,"robot":3,"valence":"lose","action":"go","sham":1,"trial_type":"pit-trial","trial_index":230,"time_elapsed":1787111,"internal_node_id":"0.0-203.0","task_version":"battery-v0.2-trt"},{"rune":"C","rune_set":"elianto","hex":"#3366ff99","correct":-1,"choice":-1,"rt":-1,"accuracy":1,"outcome":"+10","keys":[],"total_keys":0,"block":2,"trial":196,"stimulus":5,"robot":2,"valence":"win","action":"no-go","sham":0,"trial_type":"pit-trial","trial_index":231,"time_elapsed":1791117,"internal_node_id":"0.0-204.0","task_version":"battery-v0.2-trt"},{"rune":"T","rune_set":"elianto","hex":"#f73b6a7A","correct":-1,"choice":-1,"rt":-1,"accuracy":1,"outcome":"-1","keys":[],"total_keys":0,"block":2,"trial":197,"stimulus":7,"robot":4,"valence":"lose","action":"no-go","sham":0,"trial_type":"pit-trial","trial_index":232,"time_elapsed":1795127,"internal_node_id":"0.0-205.0","task_version":"battery-v0.2-trt"},{"rune":"C","rune_set":"elianto","hex":"#3366ff99","correct":-1,"choice":32,"rt":542.3250000022817,"accuracy":0,"outcome":"+1","keys":[2043.3599999959115],"total_keys":1,"block":2,"trial":198,"stimulus":5,"robot":2,"valence":"win","action":"no-go","sham":0,"trial_type":"pit-trial","trial_index":233,"time_elapsed":1798376,"internal_node_id":"0.0-206.0","task_version":"battery-v0.2-trt"},{"rune":"F","rune_set":"elianto","hex":"#f73b6a7A","correct":32,"choice":-1,"rt":-1,"accuracy":0,"outcome":"-1","keys":[],"total_keys":0,"block":2,"trial":199,"stimulus":9,"robot":3,"valence":"lose","action":"go","sham":1,"trial_type":"pit-trial","trial_index":234,"time_elapsed":1802383,"internal_node_id":"0.0-207.0","task_version":"battery-v0.2-trt"},{"rune":"X","rune_set":"elianto","hex":"#3366ff99","correct":32,"choice":32,"rt":729.6950000019278,"accuracy":1,"outcome":"+10","keys":[2230.079999993788],"total_keys":1,"block":2,"trial":200,"stimulus":8,"robot":1,"valence":"win","action":"go","sham":0,"trial_type":"pit-trial","trial_index":235,"time_elapsed":1805819,"internal_node_id":"0.0-208.0","task_version":"battery-v0.2-trt"},{"rune":"C","rune_set":"elianto","hex":"#3366ff99","correct":-1,"choice":32,"rt":1064.539999992121,"accuracy":0,"outcome":"+1","keys":[2565.2799999951385],"total_keys":1,"block":2,"trial":201,"stimulus":5,"robot":2,"valence":"win","action":"no-go","sham":0,"trial_type":"pit-trial","trial_index":236,"time_elapsed":1809590,"internal_node_id":"0.0-209.0","task_version":"battery-v0.2-trt"},{"rune":"X","rune_set":"elianto","hex":"#3366ff99","correct":32,"choice":32,"rt":1037.1550000128336,"accuracy":1,"outcome":"+1","keys":[2537.8199999979697],"total_keys":1,"block":2,"trial":202,"stimulus":8,"robot":1,"valence":"win","action":"go","sham":1,"trial_type":"pit-trial","trial_index":237,"time_elapsed":1813333,"internal_node_id":"0.0-210.0","task_version":"battery-v0.2-trt"},{"rune":"T","rune_set":"elianto","hex":"#f73b6a7A","correct":-1,"choice":-1,"rt":-1,"accuracy":1,"outcome":"-10","keys":[],"total_keys":0,"block":2,"trial":203,"stimulus":7,"robot":4,"valence":"lose","action":"no-go","sham":1,"trial_type":"pit-trial","trial_index":238,"time_elapsed":1817339,"internal_node_id":"0.0-211.0","task_version":"battery-v0.2-trt"},{"rune":"F","rune_set":"elianto","hex":"#f73b6a7A","correct":32,"choice":32,"rt":966.2799999932759,"accuracy":1,"outcome":"-10","keys":[2466.9400000129826],"total_keys":1,"block":2,"trial":204,"stimulus":9,"robot":3,"valence":"lose","action":"go","sham":1,"trial_type":"pit-trial","trial_index":239,"time_elapsed":1821009,"internal_node_id":"0.0-212.0","task_version":"battery-v0.2-trt"},{"rune":"F","rune_set":"elianto","hex":"#f73b6a7A","correct":32,"choice":-1,"rt":-1,"accuracy":0,"outcome":"-10","keys":[],"total_keys":0,"block":2,"trial":205,"stimulus":9,"robot":3,"valence":"lose","action":"go","sham":0,"trial_type":"pit-trial","trial_index":240,"time_elapsed":1825012,"internal_node_id":"0.0-213.0","task_version":"battery-v0.2-trt"},{"rune":"X","rune_set":"elianto","hex":"#3366ff99","correct":32,"choice":32,"rt":783.0600000014529,"accuracy":1,"outcome":"+1","keys":[2283.7449999935925],"total_keys":1,"block":2,"trial":206,"stimulus":8,"robot":1,"valence":"win","action":"go","sham":1,"trial_type":"pit-trial","trial_index":241,"time_elapsed":1828498,"internal_node_id":"0.0-214.0","task_version":"battery-v0.2-trt"},{"rune":"C","rune_set":"elianto","hex":"#3366ff99","correct":-1,"choice":-1,"rt":-1,"accuracy":1,"outcome":"+10","keys":[],"total_keys":0,"block":2,"trial":207,"stimulus":5,"robot":2,"valence":"win","action":"no-go","sham":0,"trial_type":"pit-trial","trial_index":242,"time_elapsed":1832502,"internal_node_id":"0.0-215.0","task_version":"battery-v0.2-trt"},{"rune":"T","rune_set":"elianto","hex":"#f73b6a7A","correct":-1,"choice":-1,"rt":-1,"accuracy":1,"outcome":"-1","keys":[],"total_keys":0,"block":2,"trial":208,"stimulus":7,"robot":4,"valence":"lose","action":"no-go","sham":0,"trial_type":"pit-trial","trial_index":243,"time_elapsed":1836509,"internal_node_id":"0.0-216.0","task_version":"battery-v0.2-trt"},{"rune":"Q","rune_set":"elianto","hex":"#3366ff99","correct":-1,"choice":32,"rt":1151.3099999865517,"accuracy":0,"outcome":"+1","keys":[2652.1599999978207],"total_keys":1,"block":2,"trial":209,"stimulus":11,"robot":2,"valence":"win","action":"no-go","sham":0,"trial_type":"pit-trial","trial_index":244,"time_elapsed":1840368,"internal_node_id":"0.0-217.0","task_version":"battery-v0.2-trt"},{"rune":"F","rune_set":"elianto","hex":"#f73b6a7A","correct":32,"choice":-1,"rt":-1,"accuracy":0,"outcome":"-10","keys":[],"total_keys":0,"block":2,"trial":210,"stimulus":9,"robot":3,"valence":"lose","action":"go","sham":0,"trial_type":"pit-trial","trial_index":245,"time_elapsed":1844374,"internal_node_id":"0.0-218.0","task_version":"battery-v0.2-trt"},{"rune":"N","rune_set":"elianto","hex":"#f73b6a7A","correct":32,"choice":32,"rt":412.7100000041537,"accuracy":1,"outcome":"-10","keys":[1913.6550000112038],"total_keys":1,"block":2,"trial":211,"stimulus":10,"robot":3,"valence":"lose","action":"go","sham":1,"trial_type":"pit-trial","trial_index":246,"time_elapsed":1847493,"internal_node_id":"0.0-219.0","task_version":"battery-v0.2-trt"},{"rune":"X","rune_set":"elianto","hex":"#3366ff99","correct":32,"choice":32,"rt":603.2799999956042,"accuracy":1,"outcome":"+10","keys":[2104.6100000096485],"total_keys":1,"block":2,"trial":212,"stimulus":8,"robot":1,"valence":"win","action":"go","sham":0,"trial_type":"pit-trial","trial_index":247,"time_elapsed":1850804,"internal_node_id":"0.0-220.0","task_version":"battery-v0.2-trt"},{"rune":"F","rune_set":"elianto","hex":"#f73b6a7A","correct":32,"choice":32,"rt":1254.1450000135228,"accuracy":1,"outcome":"-1","keys":[2754.929999995511],"total_keys":1,"block":2,"trial":213,"stimulus":9,"robot":3,"valence":"lose","action":"go","sham":0,"trial_type":"pit-trial","trial_index":248,"time_elapsed":1854765,"internal_node_id":"0.0-221.0","task_version":"battery-v0.2-trt"},{"rune":"Q","rune_set":"elianto","hex":"#3366ff99","correct":-1,"choice":32,"rt":1050.809999986086,"accuracy":0,"outcome":"+1","keys":[2552.315000008093],"total_keys":1,"block":2,"trial":214,"stimulus":11,"robot":2,"valence":"win","action":"no-go","sham":0,"trial_type":"pit-trial","trial_index":249,"time_elapsed":1858521,"internal_node_id":"0.0-222.0","task_version":"battery-v0.2-trt"},{"rune":"N","rune_set":"elianto","hex":"#f73b6a7A","correct":32,"choice":-1,"rt":-1,"accuracy":0,"outcome":"-1","keys":[],"total_keys":0,"block":2,"trial":215,"stimulus":10,"robot":3,"valence":"lose","action":"go","sham":1,"trial_type":"pit-trial","trial_index":250,"time_elapsed":1862527,"internal_node_id":"0.0-223.0","task_version":"battery-v0.2-trt"},{"rune":"X","rune_set":"elianto","hex":"#3366ff99","correct":32,"choice":-1,"rt":-1,"accuracy":0,"outcome":"+10","keys":[],"total_keys":0,"block":2,"trial":216,"stimulus":8,"robot":1,"valence":"win","action":"go","sham":1,"trial_type":"pit-trial","trial_index":251,"time_elapsed":1866533,"internal_node_id":"0.0-224.0","task_version":"battery-v0.2-trt"},{"rune":"F","rune_set":"elianto","hex":"#f73b6a7A","correct":32,"choice":32,"rt":973.295000003418,"accuracy":1,"outcome":"-1","keys":[2474.954999997746],"total_keys":1,"block":2,"trial":217,"stimulus":9,"robot":3,"valence":"lose","action":"go","sham":0,"trial_type":"pit-trial","trial_index":252,"time_elapsed":1870212,"internal_node_id":"0.0-225.0","task_version":"battery-v0.2-trt"},{"rune":"N","rune_set":"elianto","hex":"#f73b6a7A","correct":32,"choice":-1,"rt":-1,"accuracy":0,"outcome":"-1","keys":[],"total_keys":0,"block":2,"trial":218,"stimulus":10,"robot":3,"valence":"lose","action":"go","sham":1,"trial_type":"pit-trial","trial_index":253,"time_elapsed":1874219,"internal_node_id":"0.0-226.0","task_version":"battery-v0.2-trt"},{"rune":"X","rune_set":"elianto","hex":"#3366ff99","correct":32,"choice":32,"rt":710.100000011269,"accuracy":1,"outcome":"+10","keys":[2212.0449999929406],"total_keys":1,"block":2,"trial":219,"stimulus":8,"robot":1,"valence":"win","action":"go","sham":0,"trial_type":"pit-trial","trial_index":254,"time_elapsed":1877638,"internal_node_id":"0.0-227.0","task_version":"battery-v0.2-trt"},{"rune":"Q","rune_set":"elianto","hex":"#3366ff99","correct":-1,"choice":-1,"rt":-1,"accuracy":1,"outcome":"+10","keys":[],"total_keys":0,"block":2,"trial":220,"stimulus":11,"robot":2,"valence":"win","action":"no-go","sham":0,"trial_type":"pit-trial","trial_index":255,"time_elapsed":1881644,"internal_node_id":"0.0-228.0","task_version":"battery-v0.2-trt"},{"rune":"F","rune_set":"elianto","hex":"#f73b6a7A","correct":32,"choice":32,"rt":656.4350000116974,"accuracy":1,"outcome":"-1","keys":[2157.1750000002794],"total_keys":1,"block":2,"trial":221,"stimulus":9,"robot":3,"valence":"lose","action":"go","sham":0,"trial_type":"pit-trial","trial_index":256,"time_elapsed":1885006,"internal_node_id":"0.0-229.0","task_version":"battery-v0.2-trt"},{"rune":"Q","rune_set":"elianto","hex":"#3366ff99","correct":-1,"choice":-1,"rt":-1,"accuracy":1,"outcome":"+10","keys":[],"total_keys":0,"block":2,"trial":222,"stimulus":11,"robot":2,"valence":"win","action":"no-go","sham":0,"trial_type":"pit-trial","trial_index":257,"time_elapsed":1889013,"internal_node_id":"0.0-230.0","task_version":"battery-v0.2-trt"},{"rune":"X","rune_set":"elianto","hex":"#3366ff99","correct":32,"choice":32,"rt":1225.109999999404,"accuracy":1,"outcome":"+10","keys":[2725.454999992624],"total_keys":1,"block":2,"trial":223,"stimulus":8,"robot":1,"valence":"win","action":"go","sham":0,"trial_type":"pit-trial","trial_index":258,"time_elapsed":1892943,"internal_node_id":"0.0-231.0","task_version":"battery-v0.2-trt"},{"rune":"N","rune_set":"elianto","hex":"#f73b6a7A","correct":32,"choice":32,"rt":733.1249999988358,"accuracy":1,"outcome":"-1","keys":[2233.694999988191],"total_keys":1,"block":2,"trial":224,"stimulus":10,"robot":3,"valence":"lose","action":"go","sham":0,"trial_type":"pit-trial","trial_index":259,"time_elapsed":1896382,"internal_node_id":"0.0-232.0","task_version":"battery-v0.2-trt"},{"rune":"X","rune_set":"elianto","hex":"#3366ff99","correct":32,"choice":-1,"rt":-1,"accuracy":0,"outcome":"+1","keys":[],"total_keys":0,"block":2,"trial":225,"stimulus":8,"robot":1,"valence":"win","action":"go","sham":0,"trial_type":"pit-trial","trial_index":260,"time_elapsed":1900389,"internal_node_id":"0.0-233.0","task_version":"battery-v0.2-trt"},{"rune":"Q","rune_set":"elianto","hex":"#3366ff99","correct":-1,"choice":-1,"rt":-1,"accuracy":1,"outcome":"+10","keys":[],"total_keys":0,"block":2,"trial":226,"stimulus":11,"robot":2,"valence":"win","action":"no-go","sham":0,"trial_type":"pit-trial","trial_index":261,"time_elapsed":1904396,"internal_node_id":"0.0-234.0","task_version":"battery-v0.2-trt"},{"rune":"N","rune_set":"elianto","hex":"#f73b6a7A","correct":32,"choice":32,"rt":1080.0400000007357,"accuracy":1,"outcome":"-1","keys":[2581.3450000132434],"total_keys":1,"block":2,"trial":227,"stimulus":10,"robot":3,"valence":"lose","action":"go","sham":0,"trial_type":"pit-trial","trial_index":262,"time_elapsed":1908183,"internal_node_id":"0.0-235.0","task_version":"battery-v0.2-trt"},{"rune":"F","rune_set":"elianto","hex":"#f73b6a7A","correct":32,"choice":32,"rt":540.185000005411,"accuracy":1,"outcome":"-10","keys":[2040.30000000773],"total_keys":1,"block":2,"trial":228,"stimulus":9,"robot":3,"valence":"lose","action":"go","sham":1,"trial_type":"pit-trial","trial_index":263,"time_elapsed":1911429,"internal_node_id":"0.0-236.0","task_version":"battery-v0.2-trt"},{"rune":"N","rune_set":"elianto","hex":"#f73b6a7A","correct":32,"choice":32,"rt":1283.9349999993574,"accuracy":1,"outcome":"-10","keys":[2784.079999997746],"total_keys":1,"block":2,"trial":229,"stimulus":10,"robot":3,"valence":"lose","action":"go","sham":1,"trial_type":"pit-trial","trial_index":264,"time_elapsed":1915421,"internal_node_id":"0.0-237.0","task_version":"battery-v0.2-trt"},{"rune":"F","rune_set":"elianto","hex":"#f73b6a7A","correct":32,"choice":32,"rt":630.6599999952596,"accuracy":1,"outcome":"-1","keys":[2131.4349999884143],"total_keys":1,"block":2,"trial":230,"stimulus":9,"robot":3,"valence":"lose","action":"go","sham":0,"trial_type":"pit-trial","trial_index":265,"time_elapsed":1918757,"internal_node_id":"0.0-238.0","task_version":"battery-v0.2-trt"},{"rune":"Q","rune_set":"elianto","hex":"#3366ff99","correct":-1,"choice":-1,"rt":-1,"accuracy":1,"outcome":"+10","keys":[],"total_keys":0,"block":2,"trial":231,"stimulus":11,"robot":2,"valence":"win","action":"no-go","sham":0,"trial_type":"pit-trial","trial_index":266,"time_elapsed":1922762,"internal_node_id":"0.0-239.0","task_version":"battery-v0.2-trt"},{"rune":"X","rune_set":"elianto","hex":"#3366ff99","correct":32,"choice":32,"rt":736.7200000006706,"accuracy":1,"outcome":"+1","keys":[2237.869999997318],"total_keys":1,"block":2,"trial":232,"stimulus":8,"robot":1,"valence":"win","action":"go","sham":1,"trial_type":"pit-trial","trial_index":267,"time_elapsed":1926205,"internal_node_id":"0.0-240.0","task_version":"battery-v0.2-trt"},{"rune":"F","rune_set":"elianto","hex":"#f73b6a7A","correct":32,"choice":32,"rt":728.2399999964982,"accuracy":1,"outcome":"-1","keys":[2228.87499998603],"total_keys":1,"block":2,"trial":233,"stimulus":9,"robot":3,"valence":"lose","action":"go","sham":0,"trial_type":"pit-trial","trial_index":268,"time_elapsed":1929637,"internal_node_id":"0.0-241.0","task_version":"battery-v0.2-trt"},{"rune":"Q","rune_set":"elianto","hex":"#3366ff99","correct":-1,"choice":-1,"rt":-1,"accuracy":1,"outcome":"+10","keys":[],"total_keys":0,"block":2,"trial":234,"stimulus":11,"robot":2,"valence":"win","action":"no-go","sham":0,"trial_type":"pit-trial","trial_index":269,"time_elapsed":1933643,"internal_node_id":"0.0-242.0","task_version":"battery-v0.2-trt"},{"rune":"X","rune_set":"elianto","hex":"#3366ff99","correct":32,"choice":32,"rt":1066.7499999981374,"accuracy":1,"outcome":"+10","keys":[2566.835000005085],"total_keys":1,"block":2,"trial":235,"stimulus":8,"robot":1,"valence":"win","action":"go","sham":0,"trial_type":"pit-trial","trial_index":270,"time_elapsed":1937414,"internal_node_id":"0.0-243.0","task_version":"battery-v0.2-trt"},{"rune":"N","rune_set":"elianto","hex":"#f73b6a7A","correct":32,"choice":32,"rt":534.684999991674,"accuracy":1,"outcome":"-10","keys":[2035.7350000124425],"total_keys":1,"block":2,"trial":236,"stimulus":10,"robot":3,"valence":"lose","action":"go","sham":1,"trial_type":"pit-trial","trial_index":271,"time_elapsed":1940655,"internal_node_id":"0.0-244.0","task_version":"battery-v0.2-trt"},{"rune":"F","rune_s