[{"view_history":"[{\"page_index\":0,\"viewing_time\":4248.235000006389}]","rt":4248.955000017304,"trial_type":"instructions","trial_index":0,"time_elapsed":4257,"internal_node_id":"0.0-0.0","task_version":"battery-v0.2-trt"},{"slider_type":"valence","raw_loc":693,"loc":0.886,"trial_type":"affective-slider","trial_index":1,"time_elapsed":8032,"internal_node_id":"0.0-1.0","task_version":"battery-v0.2-trt"},{"responses":{"Q04":"3","Q06":"3","Q11":"2","Q03":"3","Q08":"3","Q13":"0","Q07":"3","Q01":"2","Q12":"0","Q05":"3","Q09":"0","Q10":"0","Q02":"2"},"rt":48830.2300000214,"item_order":[3,5,10,2,7,12,6,0,11,4,8,9,1],"radio_events":[7961.475000018254,9703.930000017863,13053.64500003634,21263.78500001738,22087.770000041928,23736.475000041537,25463.965000002645,27699.755000008736,36757.865000050515,38561.805000004824,40947.82000000123,43876.59500003792,45351.80500004208,47808.015000016894],"key_events":[],"mouse_events":[5919.990000023972,7961.475000018254,9703.930000017863,13053.64500003634,16531.8500000285,18289.925000048243,21263.78500001738,22087.770000041928,23736.475000041537,25463.965000002645,27699.755000008736,33279.81500001624,35367.86000005668,36757.865000050515,38561.805000004824,40947.82000000123,43876.59500003792,45351.80500004208,47808.015000016894,48828.23500002269],"straightlining":0.46153846153846156,"zigzagging":0.5833333333333334,"survey":"bisbas","trial_type":"survey-template","trial_index":2,"time_elapsed":56870,"internal_node_id":"0.0-2.0","task_version":"battery-v0.2-trt","infrequency":0},{"responses":{"Q05":"0","Q06":"0","Q08":"0","Q01":"0","Q03":"0","Q07":"0","Q04":"0","Q02":"0"},"rt":15919.009999954142,"item_order":[4,5,7,0,2,6,3,1],"radio_events":[4255.48999995226,5345.804999989923,8289.799999969546,9183.549999957904,10831.654999987222,12042.209999985062,13303.625000000466,14237.804999982473],"key_events":[],"mouse_events":[4255.48999995226,5345.804999989923,6405.469999997877,8289.799999969546,9183.549999957904,10831.654999987222,12042.209999985062,13303.625000000466,14237.804999982473,15917.599999986123],"straightlining":1,"zigzagging":0,"survey":"dass_d","trial_type":"survey-template","trial_index":3,"time_elapsed":72793,"internal_node_id":"0.0-3.0","task_version":"battery-v0.2-trt","infrequency":1},{"responses":{"Q07":"0","Q05":"0","Q02":"0","Q08":"0","Q03":"0","Q01":"0","Q06":"0","Q04":"0"},"rt":23179.96000003768,"item_order":[6,4,1,7,2,0,5,3],"radio_events":[7276.665000012144,9820.495000050869,13376.870000036433,14380.525000044145,15779.080000007525,17888.94000003347,19230.71000003256,20486.970000027213],"key_events":[],"mouse_events":[7276.665000012144,9820.495000050869,11602.815000049304,13376.870000036433,14380.525000044145,15779.080000007525,17888.94000003347,19230.71000003256,20486.970000027213,23178.830000048038],"straightlining":1,"zigzagging":0,"survey":"gad7","trial_type":"survey-template","trial_index":4,"time_elapsed":95978,"internal_node_id":"0.0-4.0","task_version":"battery-v0.2-trt","infrequency":0},{"value":[1,2.4615384615384617,0.5833333333333334],"trial_type":"call-function","trial_index":5,"time_elapsed":95980,"internal_node_id":"0.0-5.0","task_version":"battery-v0.2-trt"},{"view_history":"[{\"page_index\":0,\"viewing_time\":9274.455000006128},{\"page_index\":1,\"viewing_time\":5668.230000010226},{\"page_index\":2,\"viewing_time\":3649.730000004638},{\"page_index\":3,\"viewing_time\":5100.189999968279},{\"page_index\":4,\"viewing_time\":7181.860000011511},{\"page_index\":5,\"viewing_time\":20788.310000032652},{\"page_index\":6,\"viewing_time\":6677.904999989551},{\"page_index\":7,\"viewing_time\":9024.199999985285},{\"page_index\":8,\"viewing_time\":8586.300000024494},{\"page_index\":9,\"viewing_time\":5239.644999965094}]","rt":81191.43000000622,"trial_type":"pit-instructions","trial_index":6,"time_elapsed":177175,"internal_node_id":"0.0-6.0-0.0","task_version":"battery-v0.2-trt"},{"rune":"1","rune_set":"elianto","hex":"#3366ff99","correct":32,"choice":32,"rt":504.69500001054257,"accuracy":1,"outcome":"+10","keys":[2006.0149999917485],"total_keys":1,"block":0,"practice":1,"trial_type":"pit-trial","trial_index":7,"time_elapsed":180385,"internal_node_id":"0.0-6.0-1.0-0.0","task_version":"battery-v0.2-trt"},{"rune":"1","rune_set":"elianto","hex":"#3366ff99","correct":32,"choice":32,"rt":724.2100000148639,"accuracy":1,"outcome":"+10","keys":[2225.174999970477],"total_keys":1,"block":0,"practice":1,"trial_type":"pit-trial","trial_index":8,"time_elapsed":183813,"internal_node_id":"0.0-6.0-1.1-0.1","task_version":"battery-v0.2-trt"},{"rune":"1","rune_set":"elianto","hex":"#3366ff99","correct":32,"choice":32,"rt":1176.2649999582209,"accuracy":1,"outcome":"+10","keys":[2677.0849999738857],"total_keys":1,"block":0,"practice":1,"trial_type":"pit-trial","trial_index":9,"time_elapsed":187695,"internal_node_id":"0.0-6.0-1.2-0.2","task_version":"battery-v0.2-trt"},{"rune":"1","rune_set":"elianto","hex":"#3366ff99","correct":32,"choice":32,"rt":1058.7199999717996,"accuracy":1,"outcome":"+10","keys":[2560.6649999972433],"total_keys":1,"block":0,"practice":1,"trial_type":"pit-trial","trial_index":10,"time_elapsed":191459,"internal_node_id":"0.0-6.0-1.3-0.3","task_version":"battery-v0.2-trt"},{"trial_type":"call-function","trial_index":11,"time_elapsed":191460,"internal_node_id":"0.0-6.0-2.0","task_version":"battery-v0.2-trt"},{"view_history":"[{\"page_index\":0,\"viewing_time\":5365.60499999905},{\"page_index\":1,\"viewing_time\":5810.240000020713}]","rt":11176.384999998845,"trial_type":"pit-instructions","trial_index":12,"time_elapsed":202637,"internal_node_id":"0.0-6.0-3.0","task_version":"battery-v0.2-trt"},{"rune":"2","rune_set":"elianto","hex":"#3366ff99","correct":-1,"choice":32,"rt":696.7249999870546,"accuracy":0,"outcome":"+1","keys":[2197.2550000064075],"total_keys":1,"block":0,"practice":2,"trial_type":"pit-trial","trial_index":13,"time_elapsed":206037,"internal_node_id":"0.0-6.0-4.0-0.0","task_version":"battery-v0.2-trt"},{"rune":"2","rune_set":"elianto","hex":"#3366ff99","correct":-1,"choice":-1,"rt":-1,"accuracy":1,"outcome":"+10","keys":[3790.739999967627],"total_keys":1,"block":0,"practice":2,"trial_type":"pit-trial","trial_index":14,"time_elapsed":210041,"internal_node_id":"0.0-6.0-4.1-0.1","task_version":"battery-v0.2-trt"},{"rune":"2","rune_set":"elianto","hex":"#3366ff99","correct":-1,"choice":-1,"rt":-1,"accuracy":1,"outcome":"+10","keys":[],"total_keys":0,"block":0,"practice":2,"trial_type":"pit-trial","trial_index":15,"time_elapsed":214045,"internal_node_id":"0.0-6.0-4.2-0.2","task_version":"battery-v0.2-trt"},{"rune":"2","rune_set":"elianto","hex":"#3366ff99","correct":-1,"choice":-1,"rt":-1,"accuracy":1,"outcome":"+10","keys":[],"total_keys":0,"block":0,"practice":2,"trial_type":"pit-trial","trial_index":16,"time_elapsed":218050,"internal_node_id":"0.0-6.0-4.3-0.3","task_version":"battery-v0.2-trt"},{"trial_type":"call-function","trial_index":17,"time_elapsed":218052,"internal_node_id":"0.0-6.0-5.0","task_version":"battery-v0.2-trt"},{"view_history":"[{\"page_index\":0,\"viewing_time\":18050.31500000041},{\"page_index\":1,\"viewing_time\":4285.889999999199}]","rt":22336.62000001641,"trial_type":"pit-instructions","trial_index":18,"time_elapsed":240389,"internal_node_id":"0.0-6.0-6.0","task_version":"battery-v0.2-trt"},{"rune":"3","rune_set":"elianto","hex":"#f73b6a7A","correct":-1,"choice":-1,"rt":-1,"accuracy":1,"outcome":"-1","keys":[],"total_keys":0,"block":0,"practice":3,"trial_type":"pit-trial","trial_index":19,"time_elapsed":244394,"internal_node_id":"0.0-6.0-7.0-0.0","task_version":"battery-v0.2-trt"},{"rune":"3","rune_set":"elianto","hex":"#f73b6a7A","correct":-1,"choice":-1,"rt":-1,"accuracy":1,"outcome":"-1","keys":[2924.669999978505],"total_keys":1,"block":0,"practice":3,"trial_type":"pit-trial","trial_index":20,"time_elapsed":248407,"internal_node_id":"0.0-6.0-7.1-0.1","task_version":"battery-v0.2-trt"},{"rune":"3","rune_set":"elianto","hex":"#f73b6a7A","correct":-1,"choice":-1,"rt":-1,"accuracy":1,"outcome":"-1","keys":[2824.4500000146218],"total_keys":1,"block":0,"practice":3,"trial_type":"pit-trial","trial_index":21,"time_elapsed":252411,"internal_node_id":"0.0-6.0-7.2-0.2","task_version":"battery-v0.2-trt"},{"rune":"3","rune_set":"elianto","hex":"#f73b6a7A","correct":-1,"choice":32,"rt":1103.865000011865,"accuracy":0,"outcome":"-10","keys":[2605.5150000029244],"total_keys":1,"block":0,"practice":3,"trial_type":"pit-trial","trial_index":22,"time_elapsed":256219,"internal_node_id":"0.0-6.0-7.3-0.3","task_version":"battery-v0.2-trt"},{"rune":"3","rune_set":"elianto","hex":"#f73b6a7A","correct":-1,"choice":-1,"rt":-1,"accuracy":1,"outcome":"-1","keys":[],"total_keys":0,"block":0,"practice":3,"trial_type":"pit-trial","trial_index":23,"time_elapsed":260222,"internal_node_id":"0.0-6.0-7.4-0.4","task_version":"battery-v0.2-trt"},{"rune":"3","rune_set":"elianto","hex":"#f73b6a7A","correct":-1,"choice":-1,"rt":-1,"accuracy":1,"outcome":"-1","keys":[],"total_keys":0,"block":0,"practice":3,"trial_type":"pit-trial","trial_index":24,"time_elapsed":264226,"internal_node_id":"0.0-6.0-7.5-0.5","task_version":"battery-v0.2-trt"},{"rune":"3","rune_set":"elianto","hex":"#f73b6a7A","correct":-1,"choice":-1,"rt":-1,"accuracy":1,"outcome":"-1","keys":[],"total_keys":0,"block":0,"practice":3,"trial_type":"pit-trial","trial_index":25,"time_elapsed":268230,"internal_node_id":"0.0-6.0-7.6-0.6","task_version":"battery-v0.2-trt"},{"trial_type":"call-function","trial_index":26,"time_elapsed":268231,"internal_node_id":"0.0-6.0-8.0","task_version":"battery-v0.2-trt"},{"view_history":"[{\"page_index\":0,\"viewing_time\":4410.1900000241585},{\"page_index\":1,\"viewing_time\":7910.065000003669}]","rt":12320.669999986421,"trial_type":"pit-instructions","trial_index":27,"time_elapsed":280552,"internal_node_id":"0.0-6.0-9.0","task_version":"battery-v0.2-trt"},{"rune":"4","rune_set":"elianto","hex":"#f73b6a7A","correct":32,"choice":32,"rt":972.8449999820441,"accuracy":1,"outcome":"-1","keys":[2473.709999991115],"total_keys":1,"block":0,"practice":4,"trial_type":"pit-trial","trial_index":28,"time_elapsed":284227,"internal_node_id":"0.0-6.0-10.0-0.0","task_version":"battery-v0.2-trt"},{"rune":"4","rune_set":"elianto","hex":"#f73b6a7A","correct":32,"choice":32,"rt":669.2250000196509,"accuracy":1,"outcome":"-1","keys":[2169.4799999822862],"total_keys":1,"block":0,"practice":4,"trial_type":"pit-trial","trial_index":29,"time_elapsed":287599,"internal_node_id":"0.0-6.0-10.1-0.1","task_version":"battery-v0.2-trt"},{"rune":"4","rune_set":"elianto","hex":"#f73b6a7A","correct":32,"choice":32,"rt":972.4449999630451,"accuracy":1,"outcome":"-1","keys":[2472.9149999911897],"total_keys":1,"block":0,"practice":4,"trial_type":"pit-trial","trial_index":30,"time_elapsed":291276,"internal_node_id":"0.0-6.0-10.2-0.2","task_version":"battery-v0.2-trt"},{"rune":"4","rune_set":"elianto","hex":"#f73b6a7A","correct":32,"choice":32,"rt":850.7500000414439,"accuracy":1,"outcome":"-1","keys":[2350.97999998834],"total_keys":1,"block":0,"practice":4,"trial_type":"pit-trial","trial_index":31,"time_elapsed":294830,"internal_node_id":"0.0-6.0-10.3-0.3","task_version":"battery-v0.2-trt"},{"trial_type":"call-function","trial_index":32,"time_elapsed":294832,"internal_node_id":"0.0-6.0-11.0","task_version":"battery-v0.2-trt"},{"view_history":"[{\"page_index\":0,\"viewing_time\":3387.1999999973923},{\"page_index\":1,\"viewing_time\":13906.500000040978},{\"page_index\":2,\"viewing_time\":3983.5800000000745},{\"page_index\":3,\"viewing_time\":2708.53999996325},{\"page_index\":4,\"viewing_time\":3305.6150000193156},{\"page_index\":5,\"viewing_time\":1523.9949999959208}]","rt":28815.835000015795,"trial_type":"pit-instructions","trial_index":33,"time_elapsed":323648,"internal_node_id":"0.0-6.0-12.0","task_version":"battery-v0.2-trt"},{"responses":["Press SPACE","+10","-1","True","True"],"num_errors":0,"rt":14664.344999997411,"trial_type":"pit-comprehension","trial_index":34,"time_elapsed":338316,"internal_node_id":"0.0-6.0-13.0","task_version":"battery-v0.2-trt"},{"view_history":"[{\"page_index\":0,\"viewing_time\":1775.9100000257604},{\"page_index\":1,\"viewing_time\":3398.0400000000373}]","rt":5174.360000004526,"trial_type":"pit-instructions","trial_index":35,"time_elapsed":343494,"internal_node_id":"0.0-7.0","task_version":"battery-v0.2-trt"},{"rune":"H","rune_set":"bacs1","hex":"#3366ff99","correct":32,"choice":32,"rt":1091.550000011921,"accuracy":1,"outcome":"+10","keys":[2591.695000010077],"total_keys":1,"block":1,"trial":1,"stimulus":1,"robot":1,"valence":"win","action":"go","sham":0,"trial_type":"pit-trial","trial_index":36,"time_elapsed":347291,"internal_node_id":"0.0-8.0","task_version":"battery-v0.2-trt"},{"rune":"P","rune_set":"bacs1","hex":"#f73b6a7A","correct":-1,"choice":-1,"rt":-1,"accuracy":1,"outcome":"-1","keys":[],"total_keys":0,"block":1,"trial":2,"stimulus":2,"robot":4,"valence":"lose","action":"no-go","sham":0,"trial_type":"pit-trial","trial_index":37,"time_elapsed":351295,"internal_node_id":"0.0-9.0","task_version":"battery-v0.2-trt"},{"rune":"M","rune_set":"bacs1","hex":"#3366ff99","correct":32,"choice":-1,"rt":-1,"accuracy":0,"outcome":"+10","keys":[2853.9050000254065],"total_keys":1,"block":1,"trial":3,"stimulus":3,"robot":1,"valence":"win","action":"go","sham":1,"trial_type":"pit-trial","trial_index":38,"time_elapsed":355299,"internal_node_id":"0.0-10.0","task_version":"battery-v0.2-trt"},{"rune":"Y","rune_set":"bacs1","hex":"#3366ff99","correct":-1,"choice":-1,"rt":-1,"accuracy":1,"outcome":"+10","keys":[3075.364999996964],"total_keys":1,"block":1,"trial":4,"stimulus":0,"robot":2,"valence":"win","action":"no-go","sham":0,"trial_type":"pit-trial","trial_index":39,"time_elapsed":359302,"internal_node_id":"0.0-11.0","task_version":"battery-v0.2-trt"},{"rune":"M","rune_set":"bacs1","hex":"#3366ff99","correct":32,"choice":32,"rt":851.7700000084005,"accuracy":1,"outcome":"+10","keys":[2352.4750000215136],"total_keys":1,"block":1,"trial":5,"stimulus":3,"robot":1,"valence":"win","action":"go","sham":0,"trial_type":"pit-trial","trial_index":40,"time_elapsed":362857,"internal_node_id":"0.0-12.0","task_version":"battery-v0.2-trt"},{"rune":"P","rune_set":"bacs1","hex":"#f73b6a7A","correct":-1,"choice":-1,"rt":-1,"accuracy":1,"outcome":"-1","keys":[],"total_keys":0,"block":1,"trial":6,"stimulus":2,"robot":4,"valence":"lose","action":"no-go","sham":0,"trial_type":"pit-trial","trial_index":41,"time_elapsed":366861,"internal_node_id":"0.0-13.0","task_version":"battery-v0.2-trt"},{"rune":"H","rune_set":"bacs1","hex":"#3366ff99","correct":32,"choice":32,"rt":880.2499999874271,"accuracy":1,"outcome":"+10","keys":[2380.4399999789894],"total_keys":1,"block":1,"trial":7,"stimulus":1,"robot":1,"valence":"win","action":"go","sham":0,"trial_type":"pit-trial","trial_index":42,"time_elapsed":370444,"internal_node_id":"0.0-14.0","task_version":"battery-v0.2-trt"},{"rune":"Y","rune_set":"bacs1","hex":"#3366ff99","correct":-1,"choice":-1,"rt":-1,"accuracy":1,"outcome":"+10","keys":[],"total_keys":0,"block":1,"trial":8,"stimulus":0,"robot":2,"valence":"win","action":"no-go","sham":0,"trial_type":"pit-trial","trial_index":43,"time_elapsed":374449,"internal_node_id":"0.0-15.0","task_version":"battery-v0.2-trt"},{"rune":"M","rune_set":"bacs1","hex":"#3366ff99","correct":32,"choice":32,"rt":760.0200000451878,"accuracy":1,"outcome":"+10","keys":[2260.4450000217184],"total_keys":1,"block":1,"trial":9,"stimulus":3,"robot":1,"valence":"win","action":"go","sham":0,"trial_type":"pit-trial","trial_index":44,"time_elapsed":377913,"internal_node_id":"0.0-16.0","task_version":"battery-v0.2-trt"},{"rune":"P","rune_set":"bacs1","hex":"#f73b6a7A","correct":-1,"choice":-1,"rt":-1,"accuracy":1,"outcome":"-1","keys":[],"total_keys":0,"block":1,"trial":10,"stimulus":2,"robot":4,"valence":"lose","action":"no-go","sham":0,"trial_type":"pit-trial","trial_index":45,"time_elapsed":381917,"internal_node_id":"0.0-17.0","task_version":"battery-v0.2-trt"},{"rune":"Y","rune_set":"bacs1","hex":"#3366ff99","correct":-1,"choice":-1,"rt":-1,"accuracy":1,"outcome":"+10","keys":[],"total_keys":0,"block":1,"trial":11,"stimulus":0,"robot":2,"valence":"win","action":"no-go","sham":0,"trial_type":"pit-trial","trial_index":46,"time_elapsed":385922,"internal_node_id":"0.0-18.0","task_version":"battery-v0.2-trt"},{"rune":"H","rune_set":"bacs1","hex":"#3366ff99","correct":32,"choice":32,"rt":580.9799999697134,"accuracy":1,"outcome":"+10","keys":[2084.9100000341423],"total_keys":1,"block":1,"trial":12,"stimulus":1,"robot":1,"valence":"win","action":"go","sham":0,"trial_type":"pit-trial","trial_index":47,"time_elapsed":389209,"internal_node_id":"0.0-19.0","task_version":"battery-v0.2-trt"},{"rune":"Y","rune_set":"bacs1","hex":"#3366ff99","correct":-1,"choice":-1,"rt":-1,"accuracy":1,"outcome":"+10","keys":[],"total_keys":0,"block":1,"trial":13,"stimulus":0,"robot":2,"valence":"win","action":"no-go","sham":0,"trial_type":"pit-trial","trial_index":48,"time_elapsed":393212,"internal_node_id":"0.0-20.0","task_version":"battery-v0.2-trt"},{"rune":"M","rune_set":"bacs1","hex":"#3366ff99","correct":32,"choice":32,"rt":621.2350000278093,"accuracy":1,"outcome":"+1","keys":[2121.419999981299],"total_keys":1,"block":1,"trial":14,"stimulus":3,"robot":1,"valence":"win","action":"go","sham":1,"trial_type":"pit-trial","trial_index":49,"time_elapsed":396536,"internal_node_id":"0.0-21.0","task_version":"battery-v0.2-trt"},{"rune":"H","rune_set":"bacs1","hex":"#3366ff99","correct":32,"choice":32,"rt":935.6700000353158,"accuracy":1,"outcome":"+10","keys":[2436.5749999997206],"total_keys":1,"block":1,"trial":15,"stimulus":1,"robot":1,"valence":"win","action":"go","sham":0,"trial_type":"pit-trial","trial_index":50,"time_elapsed":400177,"internal_node_id":"0.0-22.0","task_version":"battery-v0.2-trt"},{"rune":"P","rune_set":"bacs1","hex":"#f73b6a7A","correct":-1,"choice":-1,"rt":-1,"accuracy":1,"outcome":"-1","keys":[],"total_keys":0,"block":1,"trial":16,"stimulus":2,"robot":4,"valence":"lose","action":"no-go","sham":0,"trial_type":"pit-trial","trial_index":51,"time_elapsed":404181,"internal_node_id":"0.0-23.0","task_version":"battery-v0.2-trt"},{"rune":"P","rune_set":"bacs1","hex":"#f73b6a7A","correct":-1,"choice":-1,"rt":-1,"accuracy":1,"outcome":"-1","keys":[],"total_keys":0,"block":1,"trial":17,"stimulus":2,"robot":4,"valence":"lose","action":"no-go","sham":0,"trial_type":"pit-trial","trial_index":52,"time_elapsed":408188,"internal_node_id":"0.0-24.0","task_version":"battery-v0.2-trt"},{"rune":"M","rune_set":"bacs1","hex":"#3366ff99","correct":32,"choice":-1,"rt":-1,"accuracy":0,"outcome":"+10","keys":[],"total_keys":0,"block":1,"trial":18,"stimulus":3,"robot":1,"valence":"win","action":"go","sham":1,"trial_type":"pit-trial","trial_index":53,"time_elapsed":412193,"internal_node_id":"0.0-25.0","task_version":"battery-v0.2-trt"},{"rune":"H","rune_set":"bacs1","hex":"#3366ff99","correct":32,"choice":32,"rt":582.3050000471994,"accuracy":1,"outcome":"+10","keys":[2083.4649999742396],"total_keys":1,"block":1,"trial":19,"stimulus":1,"robot":1,"valence":"win","action":"go","sham":0,"trial_type":"pit-trial","trial_index":54,"time_elapsed":415479,"internal_node_id":"0.0-26.0","task_version":"battery-v0.2-trt"},{"rune":"Y","rune_set":"bacs1","hex":"#3366ff99","correct":-1,"choice":-1,"rt":-1,"accuracy":1,"outcome":"+10","keys":[],"total_keys":0,"block":1,"trial":20,"stimulus":0,"robot":2,"valence":"win","action":"no-go","sham":0,"trial_type":"pit-trial","trial_index":55,"time_elapsed":419482,"internal_node_id":"0.0-27.0","task_version":"battery-v0.2-trt"},{"rune":"H","rune_set":"bacs1","hex":"#3366ff99","correct":32,"choice":32,"rt":657.1699999622069,"accuracy":1,"outcome":"+10","keys":[2158.0850000027567],"total_keys":1,"block":1,"trial":21,"stimulus":1,"robot":1,"valence":"win","action":"go","sham":0,"trial_type":"pit-trial","trial_index":56,"time_elapsed":422843,"internal_node_id":"0.0-28.0","task_version":"battery-v0.2-trt"},{"rune":"P","rune_set":"bacs1","hex":"#f73b6a7A","correct":-1,"choice":-1,"rt":-1,"accuracy":1,"outcome":"-1","keys":[],"total_keys":0,"block":1,"trial":22,"stimulus":2,"robot":4,"valence":"lose","action":"no-go","sham":0,"trial_type":"pit-trial","trial_index":57,"time_elapsed":426847,"internal_node_id":"0.0-29.0","task_version":"battery-v0.2-trt"},{"rune":"M","rune_set":"bacs1","hex":"#3366ff99","correct":32,"choice":-1,"rt":-1,"accuracy":0,"outcome":"+1","keys":[],"total_keys":0,"block":1,"trial":23,"stimulus":3,"robot":1,"valence":"win","action":"go","sham":0,"trial_type":"pit-trial","trial_index":58,"time_elapsed":430865,"internal_node_id":"0.0-30.0","task_version":"battery-v0.2-trt"},{"rune":"Y","rune_set":"bacs1","hex":"#3366ff99","correct":-1,"choice":-1,"rt":-1,"accuracy":1,"outcome":"+10","keys":[],"total_keys":0,"block":1,"trial":24,"stimulus":0,"robot":2,"valence":"win","action":"no-go","sham":0,"trial_type":"pit-trial","trial_index":59,"time_elapsed":434869,"internal_node_id":"0.0-31.0","task_version":"battery-v0.2-trt"},{"rune":"P","rune_set":"bacs1","hex":"#f73b6a7A","correct":-1,"choice":-1,"rt":-1,"accuracy":1,"outcome":"-1","keys":[],"total_keys":0,"block":1,"trial":25,"stimulus":2,"robot":4,"valence":"lose","action":"no-go","sham":0,"trial_type":"pit-trial","trial_index":60,"time_elapsed":438875,"internal_node_id":"0.0-32.0","task_version":"battery-v0.2-trt"},{"rune":"H","rune_set":"bacs1","hex":"#3366ff99","correct":32,"choice":32,"rt":739.5900000119582,"accuracy":1,"outcome":"+10","keys":[2239.6799999987707],"total_keys":1,"block":1,"trial":26,"stimulus":1,"robot":1,"valence":"win","action":"go","sham":0,"trial_type":"pit-trial","trial_index":61,"time_elapsed":442318,"internal_node_id":"0.0-33.0","task_version":"battery-v0.2-trt"},{"rune":"Y","rune_set":"bacs1","hex":"#3366ff99","correct":-1,"choice":-1,"rt":-1,"accuracy":1,"outcome":"+10","keys":[],"total_keys":0,"block":1,"trial":27,"stimulus":0,"robot":2,"valence":"win","action":"no-go","sham":0,"trial_type":"pit-trial","trial_index":62,"time_elapsed":446323,"internal_node_id":"0.0-34.0","task_version":"battery-v0.2-trt"},{"rune":"M","rune_set":"bacs1","hex":"#3366ff99","correct":32,"choice":32,"rt":619.6450000279583,"accuracy":1,"outcome":"+10","keys":[2120.100000000093],"total_keys":1,"block":1,"trial":28,"stimulus":3,"robot":1,"valence":"win","action":"go","sham":0,"trial_type":"pit-trial","trial_index":63,"time_elapsed":449646,"internal_node_id":"0.0-35.0","task_version":"battery-v0.2-trt"},{"rune":"M","rune_set":"bacs1","hex":"#3366ff99","correct":32,"choice":32,"rt":708.2700000028126,"accuracy":1,"outcome":"+1","keys":[2209.0399999869987],"total_keys":1,"block":1,"trial":29,"stimulus":3,"robot":1,"valence":"win","action":"go","sham":1,"trial_type":"pit-trial","trial_index":64,"time_elapsed":453061,"internal_node_id":"0.0-36.0","task_version":"battery-v0.2-trt"},{"rune":"P","rune_set":"bacs1","hex":"#f73b6a7A","correct":-1,"choice":-1,"rt":-1,"accuracy":1,"outcome":"-1","keys":[],"total_keys":0,"block":1,"trial":30,"stimulus":2,"robot":4,"valence":"lose","action":"no-go","sham":0,"trial_type":"pit-trial","trial_index":65,"time_elapsed":457065,"internal_node_id":"0.0-37.0","task_version":"battery-v0.2-trt"},{"rune":"H","rune_set":"bacs1","hex":"#3366ff99","correct":32,"choice":32,"rt":503.59500001650304,"accuracy":1,"outcome":"+10","keys":[2004.0600000065751],"total_keys":1,"block":1,"trial":31,"stimulus":1,"robot":1,"valence":"win","action":"go","sham":0,"trial_type":"pit-trial","trial_index":66,"time_elapsed":460271,"internal_node_id":"0.0-38.0","task_version":"battery-v0.2-trt"},{"rune":"Y","rune_set":"bacs1","hex":"#3366ff99","correct":-1,"choice":-1,"rt":-1,"accuracy":1,"outcome":"+10","keys":[],"total_keys":0,"block":1,"trial":32,"stimulus":0,"robot":2,"valence":"win","action":"no-go","sham":0,"trial_type":"pit-trial","trial_index":67,"time_elapsed":464275,"internal_node_id":"0.0-39.0","task_version":"battery-v0.2-trt"},{"rune":"P","rune_set":"bacs1","hex":"#f73b6a7A","correct":-1,"choice":-1,"rt":-1,"accuracy":1,"outcome":"-10","keys":[],"total_keys":0,"block":1,"trial":33,"stimulus":2,"robot":4,"valence":"lose","action":"no-go","sham":1,"trial_type":"pit-trial","trial_index":68,"time_elapsed":468286,"internal_node_id":"0.0-40.0","task_version":"battery-v0.2-trt"},{"rune":"U","rune_set":"bacs1","hex":"#3366ff99","correct":32,"choice":32,"rt":1148.0600000359118,"accuracy":1,"outcome":"+1","keys":[2650.054999976419],"total_keys":1,"block":1,"trial":34,"stimulus":4,"robot":1,"valence":"win","action":"go","sham":1,"trial_type":"pit-trial","trial_index":69,"time_elapsed":472139,"internal_node_id":"0.0-41.0","task_version":"battery-v0.2-trt"},{"rune":"M","rune_set":"bacs1","hex":"#3366ff99","correct":32,"choice":-1,"rt":-1,"accuracy":0,"outcome":"+1","keys":[2950.124999973923],"total_keys":1,"block":1,"trial":35,"stimulus":3,"robot":1,"valence":"win","action":"go","sham":0,"trial_type":"pit-trial","trial_index":70,"time_elapsed":476143,"internal_node_id":"0.0-42.0","task_version":"battery-v0.2-trt"},{"rune":"Y","rune_set":"bacs1","hex":"#3366ff99","correct":-1,"choice":-1,"rt":-1,"accuracy":1,"outcome":"+10","keys":[],"total_keys":0,"block":1,"trial":36,"stimulus":0,"robot":2,"valence":"win","action":"no-go","sham":0,"trial_type":"pit-trial","trial_index":71,"time_elapsed":480148,"internal_node_id":"0.0-43.0","task_version":"battery-v0.2-trt"},{"rune":"M","rune_set":"bacs1","hex":"#3366ff99","correct":32,"choice":32,"rt":780.399999988731,"accuracy":1,"outcome":"+10","keys":[2280.9249999700114],"total_keys":1,"block":1,"trial":37,"stimulus":3,"robot":1,"valence":"win","action":"go","sham":0,"trial_type":"pit-trial","trial_index":72,"time_elapsed":483631,"internal_node_id":"0.0-44.0","task_version":"battery-v0.2-trt"},{"rune":"Y","rune_set":"bacs1","hex":"#3366ff99","correct":-1,"choice":-1,"rt":-1,"accuracy":1,"outcome":"+10","keys":[],"total_keys":0,"block":1,"trial":38,"stimulus":0,"robot":2,"valence":"win","action":"no-go","sham":0,"trial_type":"pit-trial","trial_index":73,"time_elapsed":487634,"internal_node_id":"0.0-45.0","task_version":"battery-v0.2-trt"},{"rune":"P","rune_set":"bacs1","hex":"#f73b6a7A","correct":-1,"choice":-1,"rt":-1,"accuracy":1,"outcome":"-1","keys":[],"total_keys":0,"block":1,"trial":39,"stimulus":2,"robot":4,"valence":"lose","action":"no-go","sham":0,"trial_type":"pit-trial","trial_index":74,"time_elapsed":491639,"internal_node_id":"0.0-46.0","task_version":"battery-v0.2-trt"},{"rune":"U","rune_set":"bacs1","hex":"#3366ff99","correct":32,"choice":32,"rt":944.4750000257045,"accuracy":1,"outcome":"+10","keys":[2445.884999993723],"total_keys":1,"block":1,"trial":40,"stimulus":4,"robot":1,"valence":"win","action":"go","sham":0,"trial_type":"pit-trial","trial_index":75,"time_elapsed":495287,"internal_node_id":"0.0-47.0","task_version":"battery-v0.2-trt"},{"rune":"U","rune_set":"bacs1","hex":"#3366ff99","correct":32,"choice":32,"rt":858.0300000030547,"accuracy":1,"outcome":"+10","keys":[2358.859999978449],"total_keys":1,"block":1,"trial":41,"stimulus":4,"robot":1,"valence":"win","action":"go","sham":0,"trial_type":"pit-trial","trial_index":76,"time_elapsed":498849,"internal_node_id":"0.0-48.0","task_version":"battery-v0.2-trt"},{"rune":"Y","rune_set":"bacs1","hex":"#3366ff99","correct":-1,"choice":-1,"rt":-1,"accuracy":1,"outcome":"+10","keys":[],"total_keys":0,"block":1,"trial":42,"stimulus":0,"robot":2,"valence":"win","action":"no-go","sham":0,"trial_type":"pit-trial","trial_index":77,"time_elapsed":502853,"internal_node_id":"0.0-49.0","task_version":"battery-v0.2-trt"},{"rune":"K","rune_set":"bacs1","hex":"#f73b6a7A","correct":-1,"choice":32,"rt":892.2399999573827,"accuracy":0,"outcome":"-10","keys":[2392.6399999763817],"total_keys":1,"block":1,"trial":43,"stimulus":6,"robot":4,"valence":"lose","action":"no-go","sham":0,"trial_type":"pit-trial","trial_index":78,"time_elapsed":506449,"internal_node_id":"0.0-50.0","task_version":"battery-v0.2-trt"},{"rune":"S","rune_set":"bacs1","hex":"#f73b6a7A","correct":32,"choice":-1,"rt":-1,"accuracy":0,"outcome":"-10","keys":[],"total_keys":0,"block":1,"trial":44,"stimulus":5,"robot":3,"valence":"lose","action":"go","sham":0,"trial_type":"pit-trial","trial_index":79,"time_elapsed":510453,"internal_node_id":"0.0-51.0","task_version":"battery-v0.2-trt"},{"rune":"Y","rune_set":"bacs1","hex":"#3366ff99","correct":-1,"choice":-1,"rt":-1,"accuracy":1,"outcome":"+10","keys":[],"total_keys":0,"block":1,"trial":45,"stimulus":0,"robot":2,"valence":"win","action":"no-go","sham":0,"trial_type":"pit-trial","trial_index":80,"time_elapsed":514458,"internal_node_id":"0.0-52.0","task_version":"battery-v0.2-trt"},{"rune":"S","rune_set":"bacs1","hex":"#f73b6a7A","correct":32,"choice":32,"rt":842.7099999971688,"accuracy":1,"outcome":"-1","keys":[2343.494999979157],"total_keys":1,"block":1,"trial":46,"stimulus":5,"robot":3,"valence":"lose","action":"go","sham":0,"trial_type":"pit-trial","trial_index":81,"time_elapsed":518004,"internal_node_id":"0.0-53.0","task_version":"battery-v0.2-trt"},{"rune":"U","rune_set":"bacs1","hex":"#3366ff99","correct":32,"choice":32,"rt":912.4350000056438,"accuracy":1,"outcome":"+10","keys":[2413.6799999978393],"total_keys":1,"block":1,"trial":47,"stimulus":4,"robot":1,"valence":"win","action":"go","sham":0,"trial_type":"pit-trial","trial_index":82,"time_elapsed":521621,"internal_node_id":"0.0-54.0","task_version":"battery-v0.2-trt"},{"rune":"K","rune_set":"bacs1","hex":"#f73b6a7A","correct":-1,"choice":32,"rt":1002.5250000180677,"accuracy":0,"outcome":"-10","keys":[2502.870000025723],"total_keys":1,"block":1,"trial":48,"stimulus":6,"robot":4,"valence":"lose","action":"no-go","sham":0,"trial_type":"pit-trial","trial_index":83,"time_elapsed":525327,"internal_node_id":"0.0-55.0","task_version":"battery-v0.2-trt"},{"rune":"D","rune_set":"bacs1","hex":"#3366ff99","correct":-1,"choice":-1,"rt":-1,"accuracy":1,"outcome":"+10","keys":[],"total_keys":0,"block":1,"trial":49,"stimulus":7,"robot":2,"valence":"win","action":"no-go","sham":0,"trial_type":"pit-trial","trial_index":84,"time_elapsed":529330,"internal_node_id":"0.0-56.0","task_version":"battery-v0.2-trt"},{"rune":"S","rune_set":"bacs1","hex":"#f73b6a7A","correct":32,"choice":32,"rt":829.1350000072271,"accuracy":1,"outcome":"-1","keys":[2329.650000028778],"total_keys":1,"block":1,"trial":50,"stimulus":5,"robot":3,"valence":"lose","action":"go","sham":0,"trial_type":"pit-trial","trial_index":85,"time_elapsed":532863,"internal_node_id":"0.0-57.0","task_version":"battery-v0.2-trt"},{"rune":"U","rune_set":"bacs1","hex":"#3366ff99","correct":32,"choice":32,"rt":765.190000005532,"accuracy":1,"outcome":"+10","keys":[2266.674999962561],"total_keys":1,"block":1,"trial":51,"stimulus":4,"robot":1,"valence":"win","action":"go","sham":0,"trial_type":"pit-trial","trial_index":86,"time_elapsed":536332,"internal_node_id":"0.0-58.0","task_version":"battery-v0.2-trt"},{"rune":"K","rune_set":"bacs1","hex":"#f73b6a7A","correct":-1,"choice":-1,"rt":-1,"accuracy":1,"outcome":"-1","keys":[],"total_keys":0,"block":1,"trial":52,"stimulus":6,"robot":4,"valence":"lose","action":"no-go","sham":0,"trial_type":"pit-trial","trial_index":87,"time_elapsed":540336,"internal_node_id":"0.0-59.0","task_version":"battery-v0.2-trt"},{"rune":"U","rune_set":"bacs1","hex":"#3366ff99","correct":32,"choice":32,"rt":599.7349999961443,"accuracy":1,"outcome":"+10","keys":[2101.1600000201724],"total_keys":1,"block":1,"trial":53,"stimulus":4,"robot":1,"valence":"win","action":"go","sham":0,"trial_type":"pit-trial","trial_index":88,"time_elapsed":543641,"internal_node_id":"0.0-60.0","task_version":"battery-v0.2-trt"},{"rune":"K","rune_set":"bacs1","hex":"#f73b6a7A","correct":-1,"choice":-1,"rt":-1,"accuracy":1,"outcome":"-1","keys":[],"total_keys":0,"block":1,"trial":54,"stimulus":6,"robot":4,"valence":"lose","action":"no-go","sham":0,"trial_type":"pit-trial","trial_index":89,"time_elapsed":547646,"internal_node_id":"0.0-61.0","task_version":"battery-v0.2-trt"},{"rune":"D","rune_set":"bacs1","hex":"#3366ff99","correct":-1,"choice":-1,"rt":-1,"accuracy":1,"outcome":"+10","keys":[],"total_keys":0,"block":1,"trial":55,"stimulus":7,"robot":2,"valence":"win","action":"no-go","sham":0,"trial_type":"pit-trial","trial_index":90,"time_elapsed":551650,"internal_node_id":"0.0-62.0","task_version":"battery-v0.2-trt"},{"rune":"S","rune_set":"bacs1","hex":"#f73b6a7A","correct":32,"choice":32,"rt":760.1750000030734,"accuracy":1,"outcome":"-10","keys":[2261.144999996759],"total_keys":1,"block":1,"trial":56,"stimulus":5,"robot":3,"valence":"lose","action":"go","sham":1,"trial_type":"pit-trial","trial_index":91,"time_elapsed":555115,"internal_node_id":"0.0-63.0","task_version":"battery-v0.2-trt"},{"rune":"S","rune_set":"bacs1","hex":"#f73b6a7A","correct":32,"choice":-1,"rt":-1,"accuracy":0,"outcome":"-10","keys":[],"total_keys":0,"block":1,"trial":57,"stimulus":5,"robot":3,"valence":"lose","action":"go","sham":0,"trial_type":"pit-trial","trial_index":92,"time_elapsed":559118,"internal_node_id":"0.0-64.0","task_version":"battery-v0.2-trt"},{"rune":"K","rune_set":"bacs1","hex":"#f73b6a7A","correct":-1,"choice":-1,"rt":-1,"accuracy":1,"outcome":"-1","keys":[],"total_keys":0,"block":1,"trial":58,"stimulus":6,"robot":4,"valence":"lose","action":"no-go","sham":0,"trial_type":"pit-trial","trial_index":93,"time_elapsed":563122,"internal_node_id":"0.0-65.0","task_version":"battery-v0.2-trt"},{"rune":"U","rune_set":"bacs1","hex":"#3366ff99","correct":32,"choice":32,"rt":662.624999997206,"accuracy":1,"outcome":"+10","keys":[2163.7850000406615],"total_keys":1,"block":1,"trial":59,"stimulus":4,"robot":1,"valence":"win","action":"go","sham":0,"trial_type":"pit-trial","trial_index":94,"time_elapsed":566489,"internal_node_id":"0.0-66.0","task_version":"battery-v0.2-trt"},{"rune":"D","rune_set":"bacs1","hex":"#3366ff99","correct":-1,"choice":-1,"rt":-1,"accuracy":1,"outcome":"+10","keys":[],"total_keys":0,"block":1,"trial":60,"stimulus":7,"robot":2,"valence":"win","action":"no-go","sham":0,"trial_type":"pit-trial","trial_index":95,"time_elapsed":570492,"internal_node_id":"0.0-67.0","task_version":"battery-v0.2-trt"},{"rune":"U","rune_set":"bacs1","hex":"#3366ff99","correct":32,"choice":32,"rt":917.7300000446849,"accuracy":1,"outcome":"+10","keys":[2418.9100000075996],"total_keys":1,"block":1,"trial":61,"stimulus":4,"robot":1,"valence":"win","action":"go","sham":0,"trial_type":"pit-trial","trial_index":96,"time_elapsed":574114,"internal_node_id":"0.0-68.0","task_version":"battery-v0.2-trt"},{"rune":"D","rune_set":"bacs1","hex":"#3366ff99","correct":-1,"choice":-1,"rt":-1,"accuracy":1,"outcome":"+10","keys":[],"total_keys":0,"block":1,"trial":62,"stimulus":7,"robot":2,"valence":"win","action":"no-go","sham":0,"trial_type":"pit-trial","trial_index":97,"time_elapsed":578117,"internal_node_id":"0.0-69.0","task_version":"battery-v0.2-trt"},{"rune":"K","rune_set":"bacs1","hex":"#f73b6a7A","correct":-1,"choice":-1,"rt":-1,"accuracy":1,"outcome":"-1","keys":[],"total_keys":0,"block":1,"trial":63,"stimulus":6,"robot":4,"valence":"lose","action":"no-go","sham":0,"trial_type":"pit-trial","trial_index":98,"time_elapsed":582121,"internal_node_id":"0.0-70.0","task_version":"battery-v0.2-trt"},{"rune":"S","rune_set":"bacs1","hex":"#f73b6a7A","correct":32,"choice":32,"rt":459.75999999791384,"accuracy":1,"outcome":"-1","keys":[1960.0699999718927],"total_keys":1,"block":1,"trial":64,"stimulus":5,"robot":3,"valence":"lose","action":"go","sham":0,"trial_type":"pit-trial","trial_index":99,"time_elapsed":585284,"internal_node_id":"0.0-71.0","task_version":"battery-v0.2-trt"},{"rune":"S","rune_set":"bacs1","hex":"#f73b6a7A","correct":32,"choice":-1,"rt":-1,"accuracy":0,"outcome":"-10","keys":[],"total_keys":0,"block":1,"trial":65,"stimulus":5,"robot":3,"valence":"lose","action":"go","sham":0,"trial_type":"pit-trial","trial_index":100,"time_elapsed":589289,"internal_node_id":"0.0-72.0","task_version":"battery-v0.2-trt"},{"rune":"D","rune_set":"bacs1","hex":"#3366ff99","correct":-1,"choice":-1,"rt":-1,"accuracy":1,"outcome":"+10","keys":[],"total_keys":0,"block":1,"trial":66,"stimulus":7,"robot":2,"valence":"win","action":"no-go","sham":0,"trial_type":"pit-trial","trial_index":101,"time_elapsed":593293,"internal_node_id":"0.0-73.0","task_version":"battery-v0.2-trt"},{"rune":"U","rune_set":"bacs1","hex":"#3366ff99","correct":32,"choice":32,"rt":612.0549999759533,"accuracy":1,"outcome":"+10","keys":[2114.199999952689],"total_keys":1,"block":1,"trial":67,"stimulus":4,"robot":1,"valence":"win","action":"go","sham":0,"trial_type":"pit-trial","trial_index":102,"time_elapsed":596610,"internal_node_id":"0.0-74.0","task_version":"battery-v0.2-trt"},{"rune":"K","rune_set":"bacs1","hex":"#f73b6a7A","correct":-1,"choice":-1,"rt":-1,"accuracy":1,"outcome":"-1","keys":[],"total_keys":0,"block":1,"trial":68,"stimulus":6,"robot":4,"valence":"lose","action":"no-go","sham":0,"trial_type":"pit-trial","trial_index":103,"time_elapsed":600615,"internal_node_id":"0.0-75.0","task_version":"battery-v0.2-trt"},{"rune":"U","rune_set":"bacs1","hex":"#3366ff99","correct":32,"choice":32,"rt":693.1599999661557,"accuracy":1,"outcome":"+10","keys":[2193.8499999814667],"total_keys":1,"block":1,"trial":69,"stimulus":4,"robot":1,"valence":"win","action":"go","sham":0,"trial_type":"pit-trial","trial_index":104,"time_elapsed":604012,"internal_node_id":"0.0-76.0","task_version":"battery-v0.2-trt"},{"rune":"K","rune_set":"bacs1","hex":"#f73b6a7A","correct":-1,"choice":-1,"rt":-1,"accuracy":1,"outcome":"-10","keys":[],"total_keys":0,"block":1,"trial":70,"stimulus":6,"robot":4,"valence":"lose","action":"no-go","sham":1,"trial_type":"pit-trial","trial_index":105,"time_elapsed":608015,"internal_node_id":"0.0-77.0","task_version":"battery-v0.2-trt"},{"rune":"S","rune_set":"bacs1","hex":"#f73b6a7A","correct":32,"choice":32,"rt":702.5749999447726,"accuracy":1,"outcome":"-1","keys":[2204.349999956321],"total_keys":1,"block":1,"trial":71,"stimulus":5,"robot":3,"valence":"lose","action":"go","sham":0,"trial_type":"pit-trial","trial_index":106,"time_elapsed":611438,"internal_node_id":"0.0-78.0","task_version":"battery-v0.2-trt"},{"rune":"D","rune_set":"bacs1","hex":"#3366ff99","correct":-1,"choice":-1,"rt":-1,"accuracy":1,"outcome":"+10","keys":[],"total_keys":0,"block":1,"trial":72,"stimulus":7,"robot":2,"valence":"win","action":"no-go","sham":0,"trial_type":"pit-trial","trial_index":107,"time_elapsed":615441,"internal_node_id":"0.0-79.0","task_version":"battery-v0.2-trt"},{"rune":"O","rune_set":"bacs1","hex":"#f73b6a7A","correct":32,"choice":-1,"rt":-1,"accuracy":0,"outcome":"-10","keys":[],"total_keys":0,"block":1,"trial":73,"stimulus":8,"robot":3,"valence":"lose","action":"go","sham":0,"trial_type":"pit-trial","trial_index":108,"time_elapsed":619445,"internal_node_id":"0.0-80.0","task_version":"battery-v0.2-trt"},{"rune":"U","rune_set":"bacs1","hex":"#3366ff99","correct":32,"choice":32,"rt":704.1450000251643,"accuracy":1,"outcome":"+10","keys":[2204.184999980498],"total_keys":1,"block":1,"trial":74,"stimulus":4,"robot":1,"valence":"win","action":"go","sham":0,"trial_type":"pit-trial","trial_index":109,"time_elapsed":622852,"internal_node_id":"0.0-81.0","task_version":"battery-v0.2-trt"},{"rune":"D","rune_set":"bacs1","hex":"#3366ff99","correct":-1,"choice":-1,"rt":-1,"accuracy":1,"outcome":"+10","keys":[],"total_keys":0,"block":1,"trial":75,"stimulus":7,"robot":2,"valence":"win","action":"no-go","sham":0,"trial_type":"pit-trial","trial_index":110,"time_elapsed":626857,"internal_node_id":"0.0-82.0","task_version":"battery-v0.2-trt"},{"rune":"K","rune_set":"bacs1","hex":"#f73b6a7A","correct":-1,"choice":32,"rt":1190.2199999894947,"accuracy":0,"outcome":"-10","keys":[2690.6399999861605],"total_keys":1,"block":1,"trial":76,"stimulus":6,"robot":4,"valence":"lose","action":"no-go","sham":0,"trial_type":"pit-trial","trial_index":111,"time_elapsed":630751,"internal_node_id":"0.0-83.0","task_version":"battery-v0.2-trt"},{"rune":"D","rune_set":"bacs1","hex":"#3366ff99","correct":-1,"choice":-1,"rt":-1,"accuracy":1,"outcome":"+10","keys":[],"total_keys":0,"block":1,"trial":77,"stimulus":7,"robot":2,"valence":"win","action":"no-go","sham":0,"trial_type":"pit-trial","trial_index":112,"time_elapsed":634755,"internal_node_id":"0.0-84.0","task_version":"battery-v0.2-trt"},{"rune":"K","rune_set":"bacs1","hex":"#f73b6a7A","correct":-1,"choice":32,"rt":588.7050000019372,"accuracy":0,"outcome":"-10","keys":[2089.3299999879673],"total_keys":1,"block":1,"trial":78,"stimulus":6,"robot":4,"valence":"lose","action":"no-go","sham":0,"trial_type":"pit-trial","trial_index":113,"time_elapsed":638048,"internal_node_id":"0.0-85.0","task_version":"battery-v0.2-trt"},{"rune":"O","rune_set":"bacs1","hex":"#f73b6a7A","correct":32,"choice":32,"rt":776.4949999982491,"accuracy":1,"outcome":"-10","keys":[2277.0199999795295],"total_keys":1,"block":1,"trial":79,"stimulus":8,"robot":3,"valence":"lose","action":"go","sham":1,"trial_type":"pit-trial","trial_index":114,"time_elapsed":641527,"internal_node_id":"0.0-86.0","task_version":"battery-v0.2-trt"},{"rune":"U","rune_set":"bacs1","hex":"#3366ff99","correct":32,"choice":32,"rt":680.4649999830872,"accuracy":1,"outcome":"+10","keys":[2180.525000032503],"total_keys":1,"block":1,"trial":80,"stimulus":4,"robot":1,"valence":"win","action":"go","sham":0,"trial_type":"pit-trial","trial_index":115,"time_elapsed":644910,"internal_node_id":"0.0-87.0","task_version":"battery-v0.2-trt"},{"rune":"K","rune_set":"bacs1","hex":"#f73b6a7A","correct":-1,"choice":-1,"rt":-1,"accuracy":1,"outcome":"-1","keys":[],"total_keys":0,"block":1,"trial":81,"stimulus":6,"robot":4,"valence":"lose","action":"no-go","sham":0,"trial_type":"pit-trial","trial_index":116,"time_elapsed":648914,"internal_node_id":"0.0-88.0","task_version":"battery-v0.2-trt"},{"rune":"O","rune_set":"bacs1","hex":"#f73b6a7A","correct":32,"choice":-1,"rt":-1,"accuracy":0,"outcome":"-10","keys":[],"total_keys":0,"block":1,"trial":82,"stimulus":8,"robot":3,"valence":"lose","action":"go","sham":0,"trial_type":"pit-trial","trial_index":117,"time_elapsed":652919,"internal_node_id":"0.0-89.0","task_version":"battery-v0.2-trt"},{"rune":"D","rune_set":"bacs1","hex":"#3366ff99","correct":-1,"choice":-1,"rt":-1,"accuracy":1,"outcome":"+10","keys":[],"total_keys":0,"block":1,"trial":83,"stimulus":7,"robot":2,"valence":"win","action":"no-go","sham":0,"trial_type":"pit-trial","trial_index":118,"time_elapsed":656924,"internal_node_id":"0.0-90.0","task_version":"battery-v0.2-trt"},{"rune":"I","rune_set":"bacs1","hex":"#f73b6a7A","correct":32,"choice":-1,"rt":-1,"accuracy":0,"outcome":"-1","keys":[],"total_keys":0,"block":1,"trial":84,"stimulus":9,"robot":3,"valence":"lose","action":"go","sham":1,"trial_type":"pit-trial","trial_index":119,"time_elapsed":660927,"internal_node_id":"0.0-91.0","task_version":"battery-v0.2-trt"},{"rune":"K","rune_set":"bacs1","hex":"#f73b6a7A","correct":-1,"choice":-1,"rt":-1,"accuracy":1,"outcome":"-1","keys":[],"total_keys":0,"block":1,"trial":85,"stimulus":6,"robot":4,"valence":"lose","action":"no-go","sham":0,"trial_type":"pit-trial","trial_index":120,"time_elapsed":664931,"internal_node_id":"0.0-92.0","task_version":"battery-v0.2-trt"},{"rune":"I","rune_set":"bacs1","hex":"#f73b6a7A","correct":32,"choice":-1,"rt":-1,"accuracy":0,"outcome":"-10","keys":[],"total_keys":0,"block":1,"trial":86,"stimulus":9,"robot":3,"valence":"lose","action":"go","sham":0,"trial_type":"pit-trial","trial_index":121,"time_elapsed":668934,"internal_node_id":"0.0-93.0","task_version":"battery-v0.2-trt"},{"rune":"D","rune_set":"bacs1","hex":"#3366ff99","correct":-1,"choice":-1,"rt":-1,"accuracy":1,"outcome":"+10","keys":[],"total_keys":0,"block":1,"trial":87,"stimulus":7,"robot":2,"valence":"win","action":"no-go","sham":0,"trial_type":"pit-trial","trial_index":122,"time_elapsed":672938,"internal_node_id":"0.0-94.0","task_version":"battery-v0.2-trt"},{"rune":"O","rune_set":"bacs1","hex":"#f73b6a7A","correct":32,"choice":-1,"rt":-1,"accuracy":0,"outcome":"-10","keys":[],"total_keys":0,"block":1,"trial":88,"stimulus":8,"robot":3,"valence":"lose","action":"go","sham":0,"trial_type":"pit-trial","trial_index":123,"time_elapsed":676942,"internal_node_id":"0.0-95.0","task_version":"battery-v0.2-trt"},{"rune":"N","rune_set":"bacs1","hex":"#3366ff99","correct":-1,"choice":32,"rt":1212.1099999640137,"accuracy":0,"outcome":"+1","keys":[2713.309999962803],"total_keys":1,"block":1,"trial":89,"stimulus":11,"robot":2,"valence":"win","action":"no-go","sham":0,"trial_type":"pit-trial","trial_index":124,"time_elapsed":680859,"internal_node_id":"0.0-96.0","task_version":"battery-v0.2-trt"},{"rune":"G","rune_set":"bacs1","hex":"#f73b6a7A","correct":-1,"choice":-1,"rt":-1,"accuracy":1,"outcome":"-1","keys":[],"total_keys":0,"block":1,"trial":90,"stimulus":10,"robot":4,"valence":"lose","action":"no-go","sham":0,"trial_type":"pit-trial","trial_index":125,"time_elapsed":684863,"internal_node_id":"0.0-97.0","task_version":"battery-v0.2-trt"},{"rune":"I","rune_set":"bacs1","hex":"#f73b6a7A","correct":32,"choice":32,"rt":696.6350000002421,"accuracy":1,"outcome":"-10","keys":[2198.8400000263937],"total_keys":1,"block":1,"trial":91,"stimulus":9,"robot":3,"valence":"lose","action":"go","sham":1,"trial_type":"pit-trial","trial_index":126,"time_elapsed":688264,"internal_node_id":"0.0-98.0","task_version":"battery-v0.2-trt"},{"rune":"O","rune_set":"bacs1","hex":"#f73b6a7A","correct":32,"choice":-1,"rt":-1,"accuracy":0,"outcome":"-10","keys":[],"total_keys":0,"block":1,"trial":92,"stimulus":8,"robot":3,"valence":"lose","action":"go","sham":0,"trial_type":"pit-trial","trial_index":127,"time_elapsed":692268,"internal_node_id":"0.0-99.0","task_version":"battery-v0.2-trt"},{"rune":"O","rune_set":"bacs1","hex":"#f73b6a7A","correct":32,"choice":-1,"rt":-1,"accuracy":0,"outcome":"-10","keys":[],"total_keys":0,"block":1,"trial":93,"stimulus":8,"robot":3,"valence":"lose","action":"go","sham":0,"trial_type":"pit-trial","trial_index":128,"time_elapsed":696273,"internal_node_id":"0.0-100.0","task_version":"battery-v0.2-trt"},{"rune":"I","rune_set":"bacs1","hex":"#f73b6a7A","correct":32,"choice":32,"rt":988.9750000438653,"accuracy":1,"outcome":"-1","keys":[2489.6000000298955],"total_keys":1,"block":1,"trial":94,"stimulus":9,"robot":3,"valence":"lose","action":"go","sham":0,"trial_type":"pit-trial","trial_index":129,"time_elapsed":699966,"internal_node_id":"0.0-101.0","task_version":"battery-v0.2-trt"},{"rune":"N","rune_set":"bacs1","hex":"#3366ff99","correct":-1,"choice":32,"rt":1104.8900000168942,"accuracy":0,"outcome":"+10","keys":[2605.1299999817275],"total_keys":1,"block":1,"trial":95,"stimulus":11,"robot":2,"valence":"win","action":"no-go","sham":1,"trial_type":"pit-trial","trial_index":130,"time_elapsed":703774,"internal_node_id":"0.0-102.0","task_version":"battery-v0.2-trt"},{"rune":"G","rune_set":"bacs1","hex":"#f73b6a7A","correct":-1,"choice":-1,"rt":-1,"accuracy":1,"outcome":"-1","keys":[],"total_keys":0,"block":1,"trial":96,"stimulus":10,"robot":4,"valence":"lose","action":"no-go","sham":0,"trial_type":"pit-trial","trial_index":131,"time_elapsed":707778,"internal_node_id":"0.0-103.0","task_version":"battery-v0.2-trt"},{"rune":"G","rune_set":"bacs1","hex":"#f73b6a7A","correct":-1,"choice":-1,"rt":-1,"accuracy":1,"outcome":"-1","keys":[],"total_keys":0,"block":1,"trial":97,"stimulus":10,"robot":4,"valence":"lose","action":"no-go","sham":0,"trial_type":"pit-trial","trial_index":132,"time_elapsed":711782,"internal_node_id":"0.0-104.0","task_version":"battery-v0.2-trt"},{"rune":"I","rune_set":"bacs1","hex":"#f73b6a7A","correct":32,"choice":32,"rt":731.8649999797344,"accuracy":1,"outcome":"-10","keys":[2232.605000026524],"total_keys":1,"block":1,"trial":98,"stimulus":9,"robot":3,"valence":"lose","action":"go","sham":1,"trial_type":"pit-trial","trial_index":133,"time_elapsed":715217,"internal_node_id":"0.0-105.0","task_version":"battery-v0.2-trt"},{"rune":"O","rune_set":"bacs1","hex":"#f73b6a7A","correct":32,"choice":32,"rt":637.8750000149012,"accuracy":1,"outcome":"-10","keys":[2137.924999988172],"total_keys":1,"block":1,"trial":99,"stimulus":8,"robot":3,"valence":"lose","action":"go","sham":1,"trial_type":"pit-trial","trial_index":134,"time_elapsed":718559,"internal_node_id":"0.0-106.0","task_version":"battery-v0.2-trt"},{"rune":"N","rune_set":"bacs1","hex":"#3366ff99","correct":-1,"choice":32,"rt":722.9550000047311,"accuracy":0,"outcome":"+1","keys":[2223.3150000101887],"total_keys":1,"block":1,"trial":100,"stimulus":11,"robot":2,"valence":"win","action":"no-go","sham":0,"trial_type":"pit-trial","trial_index":135,"time_elapsed":721986,"internal_node_id":"0.0-107.0","task_version":"battery-v0.2-trt"},{"rune":"O","rune_set":"bacs1","hex":"#f73b6a7A","correct":32,"choice":-1,"rt":-1,"accuracy":0,"outcome":"-10","keys":[],"total_keys":0,"block":1,"trial":101,"stimulus":8,"robot":3,"valence":"lose","action":"go","sham":0,"trial_type":"pit-trial","trial_index":136,"time_elapsed":725991,"internal_node_id":"0.0-108.0","task_version":"battery-v0.2-trt"},{"rune":"N","rune_set":"bacs1","hex":"#3366ff99","correct":-1,"choice":32,"rt":878.9700000197627,"accuracy":0,"outcome":"+1","keys":[2379.5500000123866],"total_keys":1,"block":1,"trial":102,"stimulus":11,"robot":2,"valence":"win","action":"no-go","sham":0,"trial_type":"pit-trial","trial_index":137,"time_elapsed":729573,"internal_node_id":"0.0-109.0","task_version":"battery-v0.2-trt"},{"rune":"I","rune_set":"bacs1","hex":"#f73b6a7A","correct":32,"choice":-1,"rt":-1,"accuracy":0,"outcome":"-10","keys":[],"total_keys":0,"block":1,"trial":103,"stimulus":9,"robot":3,"valence":"lose","action":"go","sham":0,"trial_type":"pit-trial","trial_index":138,"time_elapsed":733581,"internal_node_id":"0.0-110.0","task_version":"battery-v0.2-trt"},{"rune":"G","rune_set":"bacs1","hex":"#f73b6a7A","correct":-1,"choice":-1,"rt":-1,"accuracy":1,"outcome":"-1","keys":[],"total_keys":0,"block":1,"trial":104,"stimulus":10,"robot":4,"valence":"lose","action":"no-go","sham":0,"trial_type":"pit-trial","trial_index":139,"time_elapsed":737585,"internal_node_id":"0.0-111.0","task_version":"battery-v0.2-trt"},{"rune":"N","rune_set":"bacs1","hex":"#3366ff99","correct":-1,"choice":-1,"rt":-1,"accuracy":1,"outcome":"+10","keys":[],"total_keys":0,"block":1,"trial":105,"stimulus":11,"robot":2,"valence":"win","action":"no-go","sham":0,"trial_type":"pit-trial","trial_index":140,"time_elapsed":741589,"internal_node_id":"0.0-112.0","task_version":"battery-v0.2-trt"},{"rune":"I","rune_set":"bacs1","hex":"#f73b6a7A","correct":32,"choice":-1,"rt":-1,"accuracy":0,"outcome":"-10","keys":[],"total_keys":0,"block":1,"trial":106,"stimulus":9,"robot":3,"valence":"lose","action":"go","sham":0,"trial_type":"pit-trial","trial_index":141,"time_elapsed":745593,"internal_node_id":"0.0-113.0","task_version":"battery-v0.2-trt"},{"rune":"G","rune_set":"bacs1","hex":"#f73b6a7A","correct":-1,"choice":-1,"rt":-1,"accuracy":1,"outcome":"-1","keys":[],"total_keys":0,"block":1,"trial":107,"stimulus":10,"robot":4,"valence":"lose","action":"no-go","sham":0,"trial_type":"pit-trial","trial_index":142,"time_elapsed":749597,"internal_node_id":"0.0-114.0","task_version":"battery-v0.2-trt"},{"rune":"O","rune_set":"bacs1","hex":"#f73b6a7A","correct":32,"choice":32,"rt":1241.2350000231527,"accuracy":1,"outcome":"-1","keys":[2741.280000016559],"total_keys":1,"block":1,"trial":108,"stimulus":8,"robot":3,"valence":"lose","action":"go","sham":0,"trial_type":"pit-trial","trial_index":143,"time_elapsed":753542,"internal_node_id":"0.0-115.0","task_version":"battery-v0.2-trt"},{"rune":"I","rune_set":"bacs1","hex":"#f73b6a7A","correct":32,"choice":32,"rt":629.0199999930337,"accuracy":1,"outcome":"-1","keys":[2130.0849999533966],"total_keys":1,"block":1,"trial":109,"stimulus":9,"robot":3,"valence":"lose","action":"go","sham":0,"trial_type":"pit-trial","trial_index":144,"time_elapsed":756874,"internal_node_id":"0.0-116.0","task_version":"battery-v0.2-trt"},{"rune":"N","rune_set":"bacs1","hex":"#3366ff99","correct":-1,"choice":-1,"rt":-1,"accuracy":1,"outcome":"+1","keys":[],"total_keys":0,"block":1,"trial":110,"stimulus":11,"robot":2,"valence":"win","action":"no-go","sham":1,"trial_type":"pit-trial","trial_index":145,"time_elapsed":760879,"internal_node_id":"0.0-117.0","task_version":"battery-v0.2-trt"},{"rune":"G","rune_set":"bacs1","hex":"#f73b6a7A","correct":-1,"choice":-1,"rt":-1,"accuracy":1,"outcome":"-1","keys":[],"total_keys":0,"block":1,"trial":111,"stimulus":10,"robot":4,"valence":"lose","action":"no-go","sham":0,"trial_type":"pit-trial","trial_index":146,"time_elapsed":764882,"internal_node_id":"0.0-118.0","task_version":"battery-v0.2-trt"},{"rune":"O","rune_set":"bacs1","hex":"#f73b6a7A","correct":32,"choice":32,"rt":458.9750000159256,"accuracy":1,"outcome":"-1","keys":[1960.3299999726005],"total_keys":1,"block":1,"trial":112,"stimulus":8,"robot":3,"valence":"lose","action":"go","sham":0,"trial_type":"pit-trial","trial_index":147,"time_elapsed":768046,"internal_node_id":"0.0-119.0","task_version":"battery-v0.2-trt"},{"rune":"I","rune_set":"bacs1","hex":"#f73b6a7A","correct":32,"choice":32,"rt":662.1450000093319,"accuracy":1,"outcome":"-1","keys":[2162.4399999855086],"total_keys":1,"block":1,"trial":113,"stimulus":9,"robot":3,"valence":"lose","action":"go","sham":0,"trial_type":"pit-trial","trial_index":148,"time_elapsed":771413,"internal_node_id":"0.0-120.0","task_version":"battery-v0.2-trt"},{"rune":"G","rune_set":"bacs1","hex":"#f73b6a7A","correct":-1,"choice":-1,"rt":-1,"accuracy":1,"outcome":"-1","keys":[],"total_keys":0,"block":1,"trial":114,"stimulus":10,"robot":4,"valence":"lose","action":"no-go","sham":0,"trial_type":"pit-trial","trial_index":149,"time_elapsed":775417,"internal_node_id":"0.0-121.0","task_version":"battery-v0.2-trt"},{"rune":"O","rune_set":"bacs1","hex":"#f73b6a7A","correct":32,"choice":32,"rt":669.6799999917857,"accuracy":1,"outcome":"-1","keys":[2171.504999976605],"total_keys":1,"block":1,"trial":115,"stimulus":8,"robot":3,"valence":"lose","action":"go","sham":0,"trial_type":"pit-trial","trial_index":150,"time_elapsed":778791,"internal_node_id":"0.0-122.0","task_version":"battery-v0.2-trt"},{"rune":"N","rune_set":"bacs1","hex":"#3366ff99","correct":-1,"choice":-1,"rt":-1,"accuracy":1,"outcome":"+10","keys":[],"total_keys":0,"block":1,"trial":116,"stimulus":11,"robot":2,"valence":"win","action":"no-go","sham":0,"trial_type":"pit-trial","trial_index":151,"time_elapsed":782795,"internal_node_id":"0.0-123.0","task_version":"battery-v0.2-trt"},{"rune":"O","rune_set":"bacs1","hex":"#f73b6a7A","correct":32,"choice":32,"rt":746.6399999684654,"accuracy":1,"outcome":"-1","keys":[2246.9700000365265],"total_keys":1,"block":1,"trial":117,"stimulus":8,"robot":3,"valence":"lose","action":"go","sham":0,"trial_type":"pit-trial","trial_index":152,"time_elapsed":786245,"internal_node_id":"0.0-124.0","task_version":"battery-v0.2-trt"},{"rune":"G","rune_set":"bacs1","hex":"#f73b6a7A","correct":-1,"choice":-1,"rt":-1,"accuracy":1,"outcome":"-1","keys":[],"total_keys":0,"block":1,"trial":118,"stimulus":10,"robot":4,"valence":"lose","action":"no-go","sham":0,"trial_type":"pit-trial","trial_index":153,"time_elapsed":790248,"internal_node_id":"0.0-125.0","task_version":"battery-v0.2-trt"},{"rune":"I","rune_set":"bacs1","hex":"#f73b6a7A","correct":32,"choice":32,"rt":554.0599999949336,"accuracy":1,"outcome":"-1","keys":[2054.954999999609],"total_keys":1,"block":1,"trial":119,"stimulus":9,"robot":3,"valence":"lose","action":"go","sham":0,"trial_type":"pit-trial","trial_index":154,"time_elapsed":793506,"internal_node_id":"0.0-126.0","task_version":"battery-v0.2-trt"},{"rune":"N","rune_set":"bacs1","hex":"#3366ff99","correct":-1,"choice":-1,"rt":-1,"accuracy":1,"outcome":"+10","keys":[],"total_keys":0,"block":1,"trial":120,"stimulus":11,"robot":2,"valence":"win","action":"no-go","sham":0,"trial_type":"pit-trial","trial_index":155,"time_elapsed":797509,"internal_node_id":"0.0-127.0","task_version":"battery-v0.2-trt"},{"view_history":"[{\"page_index\":0,\"viewing_time\":22448.82999995025},{\"page_index\":1,\"viewing_time\":2149.810000031721}]","rt":24599.149999965448,"trial_type":"pit-instructions","trial_index":156,"time_elapsed":822110,"internal_node_id":"0.0-128.0","task_version":"battery-v0.2-trt"},{"rune":"B","rune_set":"bacs1","hex":"#f73b6a7A","correct":-1,"choice":32,"rt":857.6199999661185,"accuracy":0,"outcome":"-10","keys":[2357.7199999708682],"total_keys":1,"block":2,"trial":121,"stimulus":0,"robot":4,"valence":"lose","action":"no-go","sham":0,"trial_type":"pit-trial","trial_index":157,"time_elapsed":825671,"internal_node_id":"0.0-129.0","task_version":"battery-v0.2-trt"},{"rune":"Z","rune_set":"bacs1","hex":"#f73b6a7A","correct":-1,"choice":32,"rt":853.3349999925122,"accuracy":0,"outcome":"-10","keys":[2353.6150000290945],"total_keys":1,"block":2,"trial":122,"stimulus":1,"robot":4,"valence":"lose","action":"no-go","sham":0,"trial_type":"pit-trial","trial_index":158,"time_elapsed":829228,"internal_node_id":"0.0-130.0","task_version":"battery-v0.2-trt"},{"rune":"J","rune_set":"bacs1","hex":"#3366ff99","correct":32,"choice":-1,"rt":-1,"accuracy":0,"outcome":"+1","keys":[2959.5400000107475],"total_keys":1,"block":2,"trial":123,"stimulus":2,"robot":1,"valence":"win","action":"go","sham":0,"trial_type":"pit-trial","trial_index":159,"time_elapsed":833234,"internal_node_id":"0.0-131.0","task_version":"battery-v0.2-trt"},{"rune":"R","rune_set":"bacs1","hex":"#3366ff99","correct":-1,"choice":-1,"rt":-1,"accuracy":1,"outcome":"+1","keys":[2818.649999971967],"total_keys":1,"block":2,"trial":124,"stimulus":3,"robot":2,"valence":"win","action":"no-go","sham":1,"trial_type":"pit-trial","trial_index":160,"time_elapsed":837242,"internal_node_id":"0.0-132.0","task_version":"battery-v0.2-trt"},{"rune":"Z","rune_set":"bacs1","hex":"#f73b6a7A","correct":-1,"choice":-1,"rt":-1,"accuracy":1,"outcome":"-1","keys":[],"total_keys":0,"block":2,"trial":125,"stimulus":1,"robot":4,"valence":"lose","action":"no-go","sham":0,"trial_type":"pit-trial","trial_index":161,"time_elapsed":841246,"internal_node_id":"0.0-133.0","task_version":"battery-v0.2-trt"},{"rune":"J","rune_set":"bacs1","hex":"#3366ff99","correct":32,"choice":32,"rt":864.3849999643862,"accuracy":1,"outcome":"+10","keys":[2365.6949999858625],"total_keys":1,"block":2,"trial":126,"stimulus":2,"robot":1,"valence":"win","action":"go","sham":0,"trial_type":"pit-trial","trial_index":162,"time_elapsed":844815,"internal_node_id":"0.0-134.0","task_version":"battery-v0.2-trt"},{"rune":"R","rune_set":"bacs1","hex":"#3366ff99","correct":-1,"choice":32,"rt":616.3999999989755,"accuracy":0,"outcome":"+1","keys":[2116.654999961611],"total_keys":1,"block":2,"trial":127,"stimulus":3,"robot":2,"valence":"win","action":"no-go","sham":0,"trial_type":"pit-trial","trial_index":163,"time_elapsed":848135,"internal_node_id":"0.0-135.0","task_version":"battery-v0.2-trt"},{"rune":"B","rune_set":"bacs1","hex":"#f73b6a7A","correct":-1,"choice":-1,"rt":-1,"accuracy":1,"outcome":"-10","keys":[],"total_keys":0,"block":2,"trial":128,"stimulus":0,"robot":4,"valence":"lose","action":"no-go","sham":1,"trial_type":"pit-trial","trial_index":164,"time_elapsed":852140,"internal_node_id":"0.0-136.0","task_version":"battery-v0.2-trt"},{"rune":"Z","rune_set":"bacs1","hex":"#f73b6a7A","correct":-1,"choice":-1,"rt":-1,"accuracy":1,"outcome":"-1","keys":[],"total_keys":0,"block":2,"trial":129,"stimulus":1,"robot":4,"valence":"lose","action":"no-go","sham":0,"trial_type":"pit-trial","trial_index":165,"time_elapsed":856143,"internal_node_id":"0.0-137.0","task_version":"battery-v0.2-trt"},{"rune":"B","rune_set":"bacs1","hex":"#f73b6a7A","correct":-1,"choice":32,"rt":811.7399999755435,"accuracy":0,"outcome":"-1","keys":[2312.904999998864],"total_keys":1,"block":2,"trial":130,"stimulus":0,"robot":4,"valence":"lose","action":"no-go","sham":1,"trial_type":"pit-trial","trial_index":166,"time_elapsed":859658,"internal_node_id":"0.0-138.0","task_version":"battery-v0.2-trt"},{"rune":"J","rune_set":"bacs1","hex":"#3366ff99","correct":32,"choice":32,"rt":874.9800000223331,"accuracy":1,"outcome":"+10","keys":[2376.1800000211224],"total_keys":1,"block":2,"trial":131,"stimulus":2,"robot":1,"valence":"win","action":"go","sham":0,"trial_type":"pit-trial","trial_index":167,"time_elapsed":863237,"internal_node_id":"0.0-139.0","task_version":"battery-v0.2-trt"},{"rune":"R","rune_set":"bacs1","hex":"#3366ff99","correct":-1,"choice":32,"rt":915.1849999907427,"accuracy":0,"outcome":"+1","keys":[2417.0650000451133],"total_keys":1,"block":2,"trial":132,"stimulus":3,"robot":2,"valence":"win","action":"no-go","sham":0,"trial_type":"pit-trial","trial_index":168,"time_elapsed":866873,"internal_node_id":"0.0-140.0","task_version":"battery-v0.2-trt"},{"rune":"B","rune_set":"bacs1","hex":"#f73b6a7A","correct":-1,"choice":32,"rt":1085.7550000073388,"accuracy":0,"outcome":"-10","keys":[2586.4699999801815],"total_keys":1,"block":2,"trial":133,"stimulus":0,"robot":4,"valence":"lose","action":"no-go","sham":0,"trial_type":"pit-trial","trial_index":169,"time_elapsed":870662,"internal_node_id":"0.0-141.0","task_version":"battery-v0.2-trt"},{"rune":"R","rune_set":"bacs1","hex":"#3366ff99","correct":-1,"choice":-1,"rt":-1,"accuracy":1,"outcome":"+1","keys":[],"total_keys":0,"block":2,"trial":134,"stimulus":3,"robot":2,"valence":"win","action":"no-go","sham":1,"trial_type":"pit-trial","trial_index":170,"time_elapsed":874666,"internal_node_id":"0.0-142.0","task_version":"battery-v0.2-trt"},{"rune":"Z","rune_set":"bacs1","hex":"#f73b6a7A","correct":-1,"choice":32,"rt":1043.9649999607354,"accuracy":0,"outcome":"-10","keys":[2545.125000004191],"total_keys":1,"block":2,"trial":135,"stimulus":1,"robot":4,"valence":"lose","action":"no-go","sham":0,"trial_type":"pit-trial","trial_index":171,"time_elapsed":878414,"internal_node_id":"0.0-143.0","task_version":"battery-v0.2-trt"},{"rune":"J","rune_set":"bacs1","hex":"#3366ff99","correct":32,"choice":32,"rt":771.5199999511242,"accuracy":1,"outcome":"+10","keys":[2272.289999993518],"total_keys":1,"block":2,"trial":136,"stimulus":2,"robot":1,"valence":"win","action":"go","sham":0,"trial_type":"pit-trial","trial_index":172,"time_elapsed":881889,"internal_node_id":"0.0-144.0","task_version":"battery-v0.2-trt"},{"rune":"Z","rune_set":"bacs1","hex":"#f73b6a7A","correct":-1,"choice":-1,"rt":-1,"accuracy":1,"outcome":"-1","keys":[],"total_keys":0,"block":2,"trial":137,"stimulus":1,"robot":4,"valence":"lose","action":"no-go","sham":0,"trial_type":"pit-trial","trial_index":173,"time_elapsed":885894,"internal_node_id":"0.0-145.0","task_version":"battery-v0.2-trt"},{"rune":"R","rune_set":"bacs1","hex":"#3366ff99","correct":-1,"choice":-1,"rt":-1,"accuracy":1,"outcome":"+1","keys":[],"total_keys":0,"block":2,"trial":138,"stimulus":3,"robot":2,"valence":"win","action":"no-go","sham":1,"trial_type":"pit-trial","trial_index":174,"time_elapsed":889897,"internal_node_id":"0.0-146.0","task_version":"battery-v0.2-trt"},{"rune":"B","rune_set":"bacs1","hex":"#f73b6a7A","correct":-1,"choice":-1,"rt":-1,"accuracy":1,"outcome":"-1","keys":[],"total_keys":0,"block":2,"trial":139,"stimulus":0,"robot":4,"valence":"lose","action":"no-go","sham":0,"trial_type":"pit-trial","trial_index":175,"time_elapsed":893901,"internal_node_id":"0.0-147.0","task_version":"battery-v0.2-trt"},{"rune":"J","rune_set":"bacs1","hex":"#3366ff99","correct":32,"choice":32,"rt":642.9399999906309,"accuracy":1,"outcome":"+10","keys":[2143.4599999920465],"total_keys":1,"block":2,"trial":140,"stimulus":2,"robot":1,"valence":"win","action":"go","sham":0,"trial_type":"pit-trial","trial_index":176,"time_elapsed":897246,"internal_node_id":"0.0-148.0","task_version":"battery-v0.2-trt"},{"rune":"B","rune_set":"bacs1","hex":"#f73b6a7A","correct":-1,"choice":-1,"rt":-1,"accuracy":1,"outcome":"-1","keys":[],"total_keys":0,"block":2,"trial":141,"stimulus":0,"robot":4,"valence":"lose","action":"no-go","sham":0,"trial_type":"pit-trial","trial_index":177,"time_elapsed":901251,"internal_node_id":"0.0-149.0","task_version":"battery-v0.2-trt"},{"rune":"Z","rune_set":"bacs1","hex":"#f73b6a7A","correct":-1,"choice":-1,"rt":-1,"accuracy":1,"outcome":"-1","keys":[],"total_keys":0,"block":2,"trial":142,"stimulus":1,"robot":4,"valence":"lose","action":"no-go","sham":0,"trial_type":"pit-trial","trial_index":178,"time_elapsed":905257,"internal_node_id":"0.0-150.0","task_version":"battery-v0.2-trt"},{"rune":"J","rune_set":"bacs1","hex":"#3366ff99","correct":32,"choice":32,"rt":698.2850000495091,"accuracy":1,"outcome":"+10","keys":[2198.5200000344776],"total_keys":1,"block":2,"trial":143,"stimulus":2,"robot":1,"valence":"win","action":"go","sham":0,"trial_type":"pit-trial","trial_index":179,"time_elapsed":908659,"internal_node_id":"0.0-151.0","task_version":"battery-v0.2-trt"},{"rune":"R","rune_set":"bacs1","hex":"#3366ff99","correct":-1,"choice":-1,"rt":-1,"accuracy":1,"outcome":"+10","keys":[],"total_keys":0,"block":2,"trial":144,"stimulus":3,"robot":2,"valence":"win","action":"no-go","sham":0,"trial_type":"pit-trial","trial_index":180,"time_elapsed":912665,"internal_node_id":"0.0-152.0","task_version":"battery-v0.2-trt"},{"rune":"J","rune_set":"bacs1","hex":"#3366ff99","correct":32,"choice":32,"rt":551.8249999731779,"accuracy":1,"outcome":"+1","keys":[2053.5950000048615],"total_keys":1,"block":2,"trial":145,"stimulus":2,"robot":1,"valence":"win","action":"go","sham":1,"trial_type":"pit-trial","trial_index":181,"time_elapsed":915921,"internal_node_id":"0.0-153.0","task_version":"battery-v0.2-trt"},{"rune":"B","rune_set":"bacs1","hex":"#f73b6a7A","correct":-1,"choice":-1,"rt":-1,"accuracy":1,"outcome":"-1","keys":[],"total_keys":0,"block":2,"trial":146,"stimulus":0,"robot":4,"valence":"lose","action":"no-go","sham":0,"trial_type":"pit-trial","trial_index":182,"time_elapsed":919925,"internal_node_id":"0.0-154.0","task_version":"battery-v0.2-trt"},{"rune":"R","rune_set":"bacs1","hex":"#3366ff99","correct":-1,"choice":32,"rt":874.0600000019185,"accuracy":0,"outcome":"+1","keys":[2374.3649999960326],"total_keys":1,"block":2,"trial":147,"stimulus":3,"robot":2,"valence":"win","action":"no-go","sham":0,"trial_type":"pit-trial","trial_index":183,"time_elapsed":923504,"internal_node_id":"0.0-155.0","task_version":"battery-v0.2-trt"},{"rune":"Z","rune_set":"bacs1","hex":"#f73b6a7A","correct":-1,"choice":-1,"rt":-1,"accuracy":1,"outcome":"-10","keys":[],"total_keys":0,"block":2,"trial":148,"stimulus":1,"robot":4,"valence":"lose","action":"no-go","sham":1,"trial_type":"pit-trial","trial_index":184,"time_elapsed":927508,"internal_node_id":"0.0-156.0","task_version":"battery-v0.2-trt"},{"rune":"Z","rune_set":"bacs1","hex":"#f73b6a7A","correct":-1,"choice":32,"rt":730.0099999993108,"accuracy":0,"outcome":"-10","keys":[2230.824999976903],"total_keys":1,"block":2,"trial":149,"stimulus":1,"robot":4,"valence":"lose","action":"no-go","sham":0,"trial_type":"pit-trial","trial_index":185,"time_elapsed":930943,"internal_node_id":"0.0-157.0","task_version":"battery-v0.2-trt"},{"rune":"R","rune_set":"bacs1","hex":"#3366ff99","correct":-1,"choice":-1,"rt":-1,"accuracy":1,"outcome":"+10","keys":[],"total_keys":0,"block":2,"trial":150,"stimulus":3,"robot":2,"valence":"win","action":"no-go","sham":0,"trial_type":"pit-trial","trial_index":186,"time_elapsed":934946,"internal_node_id":"0.0-158.0","task_version":"battery-v0.2-trt"},{"rune":"J","rune_set":"bacs1","hex":"#3366ff99","correct":32,"choice":32,"rt":625.655000039842,"accuracy":1,"outcome":"+10","keys":[2125.9549999958836],"total_keys":1,"block":2,"trial":151,"stimulus":2,"robot":1,"valence":"win","action":"go","sham":0,"trial_type":"pit-trial","trial_index":187,"time_elapsed":938274,"internal_node_id":"0.0-159.0","task_version":"battery-v0.2-trt"},{"rune":"B","rune_set":"bacs1","hex":"#f73b6a7A","correct":-1,"choice":-1,"rt":-1,"accuracy":1,"outcome":"-1","keys":[],"total_keys":0,"block":2,"trial":152,"stimulus":0,"robot":4,"valence":"lose","action":"no-go","sham":0,"trial_type":"pit-trial","trial_index":188,"time_elapsed":942277,"internal_node_id":"0.0-160.0","task_version":"battery-v0.2-trt"},{"rune":"J","rune_set":"bacs1","hex":"#3366ff99","correct":32,"choice":32,"rt":509.4150000368245,"accuracy":1,"outcome":"+1","keys":[2009.9100000225008],"total_keys":1,"block":2,"trial":153,"stimulus":2,"robot":1,"valence":"win","action":"go","sham":1,"trial_type":"pit-trial","trial_index":189,"time_elapsed":945489,"internal_node_id":"0.0-161.0","task_version":"battery-v0.2-trt"},{"rune":"B","rune_set":"bacs1","hex":"#f73b6a7A","correct":-1,"choice":-1,"rt":-1,"accuracy":1,"outcome":"-1","keys":[],"total_keys":0,"block":2,"trial":154,"stimulus":0,"robot":4,"valence":"lose","action":"no-go","sham":0,"trial_type":"pit-trial","trial_index":190,"time_elapsed":949497,"internal_node_id":"0.0-162.0","task_version":"battery-v0.2-trt"},{"rune":"R","rune_set":"bacs1","hex":"#3366ff99","correct":-1,"choice":-1,"rt":-1,"accuracy":1,"outcome":"+10","keys":[],"total_keys":0,"block":2,"trial":155,"stimulus":3,"robot":2,"valence":"win","action":"no-go","sham":0,"trial_type":"pit-trial","trial_index":191,"time_elapsed":953502,"internal_node_id":"0.0-163.0","task_version":"battery-v0.2-trt"},{"rune":"V","rune_set":"bacs1","hex":"#f73b6a7A","correct":32,"choice":32,"rt":1187.9249999765307,"accuracy":1,"outcome":"-10","keys":[2688.745000050403],"total_keys":1,"block":2,"trial":156,"stimulus":4,"robot":3,"valence":"lose","action":"go","sham":1,"trial_type":"pit-trial","trial_index":192,"time_elapsed":957393,"internal_node_id":"0.0-164.0","task_version":"battery-v0.2-trt"},{"rune":"R","rune_set":"bacs1","hex":"#3366ff99","correct":-1,"choice":-1,"rt":-1,"accuracy":1,"outcome":"+10","keys":[],"total_keys":0,"block":2,"trial":157,"stimulus":3,"robot":2,"valence":"win","action":"no-go","sham":0,"trial_type":"pit-trial","trial_index":193,"time_elapsed":961398,"internal_node_id":"0.0-165.0","task_version":"battery-v0.2-trt"},{"rune":"V","rune_set":"bacs1","hex":"#f73b6a7A","correct":32,"choice":-1,"rt":-1,"accuracy":0,"outcome":"-10","keys":[],"total_keys":0,"block":2,"trial":158,"stimulus":4,"robot":3,"valence":"lose","action":"go","sham":0,"trial_type":"pit-trial","trial_index":194,"time_elapsed":965402,"internal_node_id":"0.0-166.0","task_version":"battery-v0.2-trt"},{"rune":"B","rune_set":"bacs1","hex":"#f73b6a7A","correct":-1,"choice":-1,"rt":-1,"accuracy":1,"outcome":"-1","keys":[],"total_keys":0,"block":2,"trial":159,"stimulus":0,"robot":4,"valence":"lose","action":"no-go","sham":0,"trial_type":"pit-trial","trial_index":195,"time_elapsed":969407,"internal_node_id":"0.0-167.0","task_version":"battery-v0.2-trt"},{"rune":"J","rune_set":"bacs1","hex":"#3366ff99","correct":32,"choice":32,"rt":784.7600000095554,"accuracy":1,"outcome":"+1","keys":[2286.4600000320934],"total_keys":1,"block":2,"trial":160,"stimulus":2,"robot":1,"valence":"win","action":"go","sham":1,"trial_type":"pit-trial","trial_index":196,"time_elapsed":972896,"internal_node_id":"0.0-168.0","task_version":"battery-v0.2-trt"},{"rune":"B","rune_set":"bacs1","hex":"#f73b6a7A","correct":-1,"choice":-1,"rt":-1,"accuracy":1,"outcome":"-1","keys":[],"total_keys":0,"block":2,"trial":161,"stimulus":0,"robot":4,"valence":"lose","action":"no-go","sham":0,"trial_type":"pit-trial","trial_index":197,"time_elapsed":976900,"internal_node_id":"0.0-169.0","task_version":"battery-v0.2-trt"},{"rune":"T","rune_set":"bacs1","hex":"#3366ff99","correct":32,"choice":32,"rt":1034.7900000051595,"accuracy":1,"outcome":"+10","keys":[2534.9150000256486],"total_keys":1,"block":2,"trial":162,"stimulus":6,"robot":1,"valence":"win","action":"go","sham":0,"trial_type":"pit-trial","trial_index":198,"time_elapsed":980638,"internal_node_id":"0.0-170.0","task_version":"battery-v0.2-trt"},{"rune":"V","rune_set":"bacs1","hex":"#f73b6a7A","correct":32,"choice":32,"rt":973.6550000379793,"accuracy":1,"outcome":"-1","keys":[2473.9799999515526],"total_keys":1,"block":2,"trial":163,"stimulus":4,"robot":3,"valence":"lose","action":"go","sham":0,"trial_type":"pit-trial","trial_index":199,"time_elapsed":984315,"internal_node_id":"0.0-171.0","task_version":"battery-v0.2-trt"},{"rune":"E","rune_set":"bacs1","hex":"#3366ff99","correct":-1,"choice":-1,"rt":-1,"accuracy":1,"outcome":"+10","keys":[],"total_keys":0,"block":2,"trial":164,"stimulus":5,"robot":2,"valence":"win","action":"no-go","sham":0,"trial_type":"pit-trial","trial_index":200,"time_elapsed":988320,"internal_node_id":"0.0-172.0","task_version":"battery-v0.2-trt"},{"rune":"V","rune_set":"bacs1","hex":"#f73b6a7A","correct":32,"choice":32,"rt":937.1200000168756,"accuracy":1,"outcome":"-1","keys":[2437.4449999886565],"total_keys":1,"block":2,"trial":165,"stimulus":4,"robot":3,"valence":"lose","action":"go","sham":0,"trial_type":"pit-trial","trial_index":201,"time_elapsed":991961,"internal_node_id":"0.0-173.0","task_version":"battery-v0.2-trt"},{"rune":"B","rune_set":"bacs1","hex":"#f73b6a7A","correct":-1,"choice":-1,"rt":-1,"accuracy":1,"outcome":"-10","keys":[],"total_keys":0,"block":2,"trial":166,"stimulus":0,"robot":4,"valence":"lose","action":"no-go","sham":1,"trial_type":"pit-trial","trial_index":202,"time_elapsed":995967,"internal_node_id":"0.0-174.0","task_version":"battery-v0.2-trt"},{"rune":"T","rune_set":"bacs1","hex":"#3366ff99","correct":32,"choice":32,"rt":1029.0149999782443,"accuracy":1,"outcome":"+10","keys":[2529.6849999576807],"total_keys":1,"block":2,"trial":167,"stimulus":6,"robot":1,"valence":"win","action":"go","sham":0,"trial_type":"pit-trial","trial_index":203,"time_elapsed":999699,"internal_node_id":"0.0-175.0","task_version":"battery-v0.2-trt"},{"rune":"E","rune_set":"bacs1","hex":"#3366ff99","correct":-1,"choice":-1,"rt":-1,"accuracy":1,"outcome":"+10","keys":[],"total_keys":0,"block":2,"trial":168,"stimulus":5,"robot":2,"valence":"win","action":"no-go","sham":0,"trial_type":"pit-trial","trial_index":204,"time_elapsed":1003704,"internal_node_id":"0.0-176.0","task_version":"battery-v0.2-trt"},{"rune":"V","rune_set":"bacs1","hex":"#f73b6a7A","correct":32,"choice":32,"rt":692.8099999786355,"accuracy":1,"outcome":"-1","keys":[2193.0600000196137],"total_keys":1,"block":2,"trial":169,"stimulus":4,"robot":3,"valence":"lose","action":"go","sham":0,"trial_type":"pit-trial","trial_index":205,"time_elapsed":1007100,"internal_node_id":"0.0-177.0","task_version":"battery-v0.2-trt"},{"rune":"F","rune_set":"bacs1","hex":"#f73b6a7A","correct":-1,"choice":-1,"rt":-1,"accuracy":1,"outcome":"-1","keys":[],"total_keys":0,"block":2,"trial":170,"stimulus":7,"robot":4,"valence":"lose","action":"no-go","sham":0,"trial_type":"pit-trial","trial_index":206,"time_elapsed":1011103,"internal_node_id":"0.0-178.0","task_version":"battery-v0.2-trt"},{"rune":"E","rune_set":"bacs1","hex":"#3366ff99","correct":-1,"choice":-1,"rt":-1,"accuracy":1,"outcome":"+10","keys":[],"total_keys":0,"block":2,"trial":171,"stimulus":5,"robot":2,"valence":"win","action":"no-go","sham":0,"trial_type":"pit-trial","trial_index":207,"time_elapsed":1015106,"internal_node_id":"0.0-179.0","task_version":"battery-v0.2-trt"},{"rune":"T","rune_set":"bacs1","hex":"#3366ff99","correct":32,"choice":32,"rt":619.8800000129268,"accuracy":1,"outcome":"+10","keys":[2120.889999961946],"total_keys":1,"block":2,"trial":172,"stimulus":6,"robot":1,"valence":"win","action":"go","sham":0,"trial_type":"pit-trial","trial_index":208,"time_elapsed":1018430,"internal_node_id":"0.0-180.0","task_version":"battery-v0.2-trt"},{"rune":"V","rune_set":"bacs1","hex":"#f73b6a7A","correct":32,"choice":32,"rt":715.1149999699555,"accuracy":1,"outcome":"-1","keys":[2216.8199999723583],"total_keys":1,"block":2,"trial":173,"stimulus":4,"robot":3,"valence":"lose","action":"go","sham":0,"trial_type":"pit-trial","trial_index":209,"time_elapsed":1021850,"internal_node_id":"0.0-181.0","task_version":"battery-v0.2-trt"},{"rune":"E","rune_set":"bacs1","hex":"#3366ff99","correct":-1,"choice":-1,"rt":-1,"accuracy":1,"outcome":"+10","keys":[],"total_keys":0,"block":2,"trial":174,"stimulus":5,"robot":2,"valence":"win","action":"no-go","sham":0,"trial_type":"pit-trial","trial_index":210,"time_elapsed":1025855,"internal_node_id":"0.0-182.0","task_version":"battery-v0.2-trt"},{"rune":"F","rune_set":"bacs1","hex":"#f73b6a7A","correct":-1,"choice":-1,"rt":-1,"accuracy":1,"outcome":"-10","keys":[],"total_keys":0,"block":2,"trial":175,"stimulus":7,"robot":4,"valence":"lose","action":"no-go","sham":1,"trial_type":"pit-trial","trial_index":211,"time_elapsed":1029858,"internal_node_id":"0.0-183.0","task_version":"battery-v0.2-trt"},{"rune":"T","rune_set":"bacs1","hex":"#3366ff99","correct":32,"choice":32,"rt":913.8300000340678,"accuracy":1,"outcome":"+10","keys":[2414.340000017546],"total_keys":1,"block":2,"trial":176,"stimulus":6,"robot":1,"valence":"win","action":"go","sham":0,"trial_type":"pit-trial","trial_index":212,"time_elapsed":1033475,"internal_node_id":"0.0-184.0","task_version":"battery-v0.2-trt"},{"rune":"F","rune_set":"bacs1","hex":"#f73b6a7A","correct":-1,"choice":32,"rt":679.3500000494532,"accuracy":0,"outcome":"-10","keys":[2180.090000038035],"total_keys":1,"block":2,"trial":177,"stimulus":7,"robot":4,"valence":"lose","action":"no-go","sham":0,"trial_type":"pit-trial","trial_index":213,"time_elapsed":1036858,"internal_node_id":"0.0-185.0","task_version":"battery-v0.2-trt"},{"rune":"V","rune_set":"bacs1","hex":"#f73b6a7A","correct":32,"choice":32,"rt":851.894999970682,"accuracy":1,"outcome":"-10","keys":[2352.0400000270456],"total_keys":1,"block":2,"trial":178,"stimulus":4,"robot":3,"valence":"lose","action":"go","sham":1,"trial_type":"pit-trial","trial_index":214,"time_elapsed":1040415,"internal_node_id":"0.0-186.0","task_version":"battery-v0.2-trt"},{"rune":"T","rune_set":"bacs1","hex":"#3366ff99","correct":32,"choice":32,"rt":614.000000001397,"accuracy":1,"outcome":"+10","keys":[2114.5050000050105],"total_keys":1,"block":2,"trial":179,"stimulus":6,"robot":1,"valence":"win","action":"go","sham":0,"trial_type":"pit-trial","trial_index":215,"time_elapsed":1043732,"internal_node_id":"0.0-187.0","task_version":"battery-v0.2-trt"},{"rune":"E","rune_set":"bacs1","hex":"#3366ff99","correct":-1,"choice":-1,"rt":-1,"accuracy":1,"outcome":"+10","keys":[],"total_keys":0,"block":2,"trial":180,"stimulus":5,"robot":2,"valence":"win","action":"no-go","sham":0,"trial_type":"pit-trial","trial_index":216,"time_elapsed":1047738,"internal_node_id":"0.0-188.0","task_version":"battery-v0.2-trt"},{"rune":"E","rune_set":"bacs1","hex":"#3366ff99","correct":-1,"choice":-1,"rt":-1,"accuracy":1,"outcome":"+1","keys":[],"total_keys":0,"block":2,"trial":181,"stimulus":5,"robot":2,"valence":"win","action":"no-go","sham":1,"trial_type":"pit-trial","trial_index":217,"time_elapsed":1051741,"internal_node_id":"0.0-189.0","task_version":"battery-v0.2-trt"},{"rune":"T","rune_set":"bacs1","hex":"#3366ff99","correct":32,"choice":32,"rt":1042.9349999758415,"accuracy":1,"outcome":"+10","keys":[2544.930000032764],"total_keys":1,"block":2,"trial":182,"stimulus":6,"robot":1,"valence":"win","action":"go","sham":0,"trial_type":"pit-trial","trial_index":218,"time_elapsed":1055488,"internal_node_id":"0.0-190.0","task_version":"battery-v0.2-trt"},{"rune":"V","rune_set":"bacs1","hex":"#f73b6a7A","correct":32,"choice":-1,"rt":-1,"accuracy":0,"outcome":"-10","keys":[],"total_keys":0,"block":2,"trial":183,"stimulus":4,"robot":3,"valence":"lose","action":"go","sham":0,"trial_type":"pit-trial","trial_index":219,"time_elapsed":1059491,"internal_node_id":"0.0-191.0","task_version":"battery-v0.2-trt"},{"rune":"F","rune_set":"bacs1","hex":"#f73b6a7A","correct":-1,"choice":32,"rt":514.6100000129081,"accuracy":0,"outcome":"-10","keys":[2014.8649999755435],"total_keys":1,"block":2,"trial":184,"stimulus":7,"robot":4,"valence":"lose","action":"no-go","sham":0,"trial_type":"pit-trial","trial_index":220,"time_elapsed":1062710,"internal_node_id":"0.0-192.0","task_version":"battery-v0.2-trt"},{"rune":"V","rune_set":"bacs1","hex":"#f73b6a7A","correct":32,"choice":-1,"rt":-1,"accuracy":0,"outcome":"-10","keys":[],"total_keys":0,"block":2,"trial":185,"stimulus":4,"robot":3,"valence":"lose","action":"go","sham":0,"trial_type":"pit-trial","trial_index":221,"time_elapsed":1066715,"internal_node_id":"0.0-193.0","task_version":"battery-v0.2-trt"},{"rune":"T","rune_set":"bacs1","hex":"#3366ff99","correct":32,"choice":32,"rt":876.9699999829754,"accuracy":1,"outcome":"+10","keys":[2377.6700000162236],"total_keys":1,"block":2,"trial":186,"stimulus":6,"robot":1,"valence":"win","action":"go","sham":0,"trial_type":"pit-trial","trial_index":222,"time_elapsed":1070297,"internal_node_id":"0.0-194.0","task_version":"battery-v0.2-trt"},{"rune":"E","rune_set":"bacs1","hex":"#3366ff99","correct":-1,"choice":32,"rt":658.4499999880791,"accuracy":0,"outcome":"+10","keys":[2159.6300000092015],"total_keys":1,"block":2,"trial":187,"stimulus":5,"robot":2,"valence":"win","action":"no-go","sham":1,"trial_type":"pit-trial","trial_index":223,"time_elapsed":1073660,"internal_node_id":"0.0-195.0","task_version":"battery-v0.2-trt"},{"rune":"F","rune_set":"bacs1","hex":"#f73b6a7A","correct":-1,"choice":32,"rt":1005.8100000023842,"accuracy":0,"outcome":"-10","keys":[2507.7949999831617],"total_keys":1,"block":2,"trial":188,"stimulus":7,"robot":4,"valence":"lose","action":"no-go","sham":0,"trial_type":"pit-trial","trial_index":224,"time_elapsed":1077371,"internal_node_id":"0.0-196.0","task_version":"battery-v0.2-trt"},{"rune":"V","rune_set":"bacs1","hex":"#f73b6a7A","correct":32,"choice":-1,"rt":-1,"accuracy":0,"outcome":"-1","keys":[],"total_keys":0,"block":2,"trial":189,"stimulus":4,"robot":3,"valence":"lose","action":"go","sham":1,"trial_type":"pit-trial","trial_index":225,"time_elapsed":1081375,"internal_node_id":"0.0-197.0","task_version":"battery-v0.2-trt"},{"rune":"F","rune_set":"bacs1","hex":"#f73b6a7A","correct":-1,"choice":-1,"rt":-1,"accuracy":1,"outcome":"-10","keys":[],"total_keys":0,"block":2,"trial":190,"stimulus":7,"robot":4,"valence":"lose","action":"no-go","sham":1,"trial_type":"pit-trial","trial_index":226,"time_elapsed":1085377,"internal_node_id":"0.0-198.0","task_version":"battery-v0.2-trt"},{"rune":"E","rune_set":"bacs1","hex":"#3366ff99","correct":-1,"choice":32,"rt":630.3400000324473,"accuracy":0,"outcome":"+1","keys":[2131.0299999895506],"total_keys":1,"block":2,"trial":191,"stimulus":5,"robot":2,"valence":"win","action":"no-go","sham":0,"trial_type":"pit-trial","trial_index":227,"time_elapsed":1088711,"internal_node_id":"0.0-199.0","task_version":"battery-v0.2-trt"},{"rune":"T","rune_set":"bacs1","hex":"#3366ff99","correct":32,"choice":32,"rt":772.5050000008196,"accuracy":1,"outcome":"+1","keys":[2272.6649999967776],"total_keys":1,"block":2,"trial":192,"stimulus":6,"robot":1,"valence":"win","action":"go","sham":1,"trial_type":"pit-trial","trial_index":228,"time_elapsed":1092186,"internal_node_id":"0.0-200.0","task_version":"battery-v0.2-trt"},{"rune":"A","rune_set":"bacs1","hex":"#3366ff99","correct":32,"choice":-1,"rt":-1,"accuracy":0,"outcome":"+1","keys":[],"total_keys":0,"block":2,"trial":193,"stimulus":8,"robot":1,"valence":"win","action":"go","sham":0,"trial_type":"pit-trial","trial_index":229,"time_elapsed":1096188,"internal_node_id":"0.0-201.0","task_version":"battery-v0.2-trt"},{"rune":"E","rune_set":"bacs1","hex":"#3366ff99","correct":-1,"choice":-1,"rt":-1,"accuracy":1,"outcome":"+10","keys":[],"total_keys":0,"block":2,"trial":194,"stimulus":5,"robot":2,"valence":"win","action":"no-go","sham":0,"trial_type":"pit-trial","trial_index":230,"time_elapsed":1100191,"internal_node_id":"0.0-202.0","task_version":"battery-v0.2-trt"},{"rune":"F","rune_set":"bacs1","hex":"#f73b6a7A","correct":-1,"choice":-1,"rt":-1,"accuracy":1,"outcome":"-1","keys":[],"total_keys":0,"block":2,"trial":195,"stimulus":7,"robot":4,"valence":"lose","action":"no-go","sham":0,"trial_type":"pit-trial","trial_index":231,"time_elapsed":1104194,"internal_node_id":"0.0-203.0","task_version":"battery-v0.2-trt"},{"rune":"C","rune_set":"bacs1","hex":"#f73b6a7A","correct":32,"choice":-1,"rt":-1,"accuracy":0,"outcome":"-10","keys":[],"total_keys":0,"block":2,"trial":196,"stimulus":9,"robot":3,"valence":"lose","action":"go","sham":0,"trial_type":"pit-trial","trial_index":232,"time_elapsed":1108199,"internal_node_id":"0.0-204.0","task_version":"battery-v0.2-trt"},{"rune":"A","rune_set":"bacs1","hex":"#3366ff99","correct":32,"choice":32,"rt":797.309999994468,"accuracy":1,"outcome":"+10","keys":[2297.8649999713525],"total_keys":1,"block":2,"trial":197,"stimulus":8,"robot":1,"valence":"win","action":"go","sham":0,"trial_type":"pit-trial","trial_index":233,"time_elapsed":1111700,"internal_node_id":"0.0-205.0","task_version":"battery-v0.2-trt"},{"rune":"F","rune_set":"bacs1","hex":"#f73b6a7A","correct":-1,"choice":-1,"rt":-1,"accuracy":1,"outcome":"-10","keys":[],"total_keys":0,"block":2,"trial":198,"stimulus":7,"robot":4,"valence":"lose","action":"no-go","sham":1,"trial_type":"pit-trial","trial_index":234,"time_elapsed":1115704,"internal_node_id":"0.0-206.0","task_version":"battery-v0.2-trt"},{"rune":"C","rune_set":"bacs1","hex":"#f73b6a7A","correct":32,"choice":32,"rt":807.98500002129,"accuracy":1,"outcome":"-1","keys":[2309.175000002142],"total_keys":1,"block":2,"trial":199,"stimulus":9,"robot":3,"valence":"lose","action":"go","sham":0,"trial_type":"pit-trial","trial_index":235,"time_elapsed":1119217,"internal_node_id":"0.0-207.0","task_version":"battery-v0.2-trt"},{"rune":"E","rune_set":"bacs1","hex":"#3366ff99","correct":-1,"choice":-1,"rt":-1,"accuracy":1,"outcome":"+10","keys":[],"total_keys":0,"block":2,"trial":200,"stimulus":5,"robot":2,"valence":"win","action":"no-go","sham":0,"trial_type":"pit-trial","trial_index":236,"time_elapsed":1123222,"internal_node_id":"0.0-208.0","task_version":"battery-v0.2-trt"},{"rune":"C","rune_set":"bacs1","hex":"#f73b6a7A","correct":32,"choice":32,"rt":946.5349999954924,"accuracy":1,"outcome":"-1","keys":[2448.115000035614],"total_keys":1,"block":2,"trial":201,"stimulus":9,"robot":3,"valence":"lose","action":"go","sham":0,"trial_type":"pit-trial","trial_index":237,"time_elapsed":1126874,"internal_node_id":"0.0-209.0","task_version":"battery-v0.2-trt"},{"rune":"A","rune_set":"bacs1","hex":"#3366ff99","correct":32,"choice":32,"rt":704.970000020694,"accuracy":1,"outcome":"+1","keys":[2205.705000029411],"total_keys":1,"block":2,"trial":202,"stimulus":8,"robot":1,"valence":"win","action":"go","sham":1,"trial_type":"pit-trial","trial_index":238,"time_elapsed":1130283,"internal_node_id":"0.0-210.0","task_version":"battery-v0.2-trt"},{"rune":"F","rune_set":"bacs1","hex":"#f73b6a7A","correct":-1,"choice":-1,"rt":-1,"accuracy":1,"outcome":"-1","keys":[],"total_keys":0,"block":2,"trial":203,"stimulus":7,"robot":4,"valence":"lose","action":"no-go","sham":0,"trial_type":"pit-trial","trial_index":239,"time_elapsed":1134286,"internal_node_id":"0.0-211.0","task_version":"battery-v0.2-trt"},{"rune":"E","rune_set":"bacs1","hex":"#3366ff99","correct":-1,"choice":-1,"rt":-1,"accuracy":1,"outcome":"+1","keys":[],"total_keys":0,"block":2,"trial":204,"stimulus":5,"robot":2,"valence":"win","action":"no-go","sham":1,"trial_type":"pit-trial","trial_index":240,"time_elapsed":1138289,"internal_node_id":"0.0-212.0","task_version":"battery-v0.2-trt"},{"rune":"E","rune_set":"bacs1","hex":"#3366ff99","correct":-1,"choice":32,"rt":503.0249999836087,"accuracy":0,"outcome":"+1","keys":[2003.305000020191],"total_keys":1,"block":2,"trial":205,"stimulus":5,"robot":2,"valence":"win","action":"no-go","sham":0,"trial_type":"pit-trial","trial_index":241,"time_elapsed":1141495,"internal_node_id":"0.0-213.0","task_version":"battery-v0.2-trt"},{"rune":"A","rune_set":"bacs1","hex":"#3366ff99","correct":32,"choice":-1,"rt":-1,"accuracy":0,"outcome":"+1","keys":[],"total_keys":0,"block":2,"trial":206,"stimulus":8,"robot":1,"valence":"win","action":"go","sham":0,"trial_type":"pit-trial","trial_index":242,"time_elapsed":1145506,"internal_node_id":"0.0-214.0","task_version":"battery-v0.2-trt"},{"rune":"C","rune_set":"bacs1","hex":"#f73b6a7A","correct":32,"choice":32,"rt":794.0299999900162,"accuracy":1,"outcome":"-1","keys":[2294.575000007171],"total_keys":1,"block":2,"trial":207,"stimulus":9,"robot":3,"valence":"lose","action":"go","sham":0,"trial_type":"pit-trial","trial_index":243,"time_elapsed":1149015,"internal_node_id":"0.0-215.0","task_version":"battery-v0.2-trt"},{"rune":"F","rune_set":"bacs1","hex":"#f73b6a7A","correct":-1,"choice":-1,"rt":-1,"accuracy":1,"outcome":"-1","keys":[],"total_keys":0,"block":2,"trial":208,"stimulus":7,"robot":4,"valence":"lose","action":"no-go","sham":0,"trial_type":"pit-trial","trial_index":244,"time_elapsed":1153020,"internal_node_id":"0.0-216.0","task_version":"battery-v0.2-trt"},{"rune":"A","rune_set":"bacs1","hex":"#3366ff99","correct":32,"choice":-1,"rt":-1,"accuracy":0,"outcome":"+10","keys":[],"total_keys":0,"block":2,"trial":209,"stimulus":8,"robot":1,"valence":"win","action":"go","sham":1,"trial_type":"pit-trial","trial_index":245,"time_elapsed":1157023,"internal_node_id":"0.0-217.0","task_version":"battery-v0.2-trt"},{"rune":"L","rune_set":"bacs1","hex":"#f73b6a7A","correct":32,"choice":-1,"rt":-1,"accuracy":0,"outcome":"-10","keys":[],"total_keys":0,"block":2,"trial":210,"stimulus":10,"robot":3,"valence":"lose","action":"go","sham":0,"trial_type":"pit-trial","trial_index":246,"time_elapsed":1161030,"internal_node_id":"0.0-218.0","task_version":"battery-v0.2-trt"},{"rune":"C","rune_set":"bacs1","hex":"#f73b6a7A","correct":32,"choice":32,"rt":725.8600000059232,"accuracy":1,"outcome":"-1","keys":[2226.8249999615364],"total_keys":1,"block":2,"trial":211,"stimulus":9,"robot":3,"valence":"lose","action":"go","sham":0,"trial_type":"pit-trial","trial_index":247,"time_elapsed":1164460,"internal_node_id":"0.0-219.0","task_version":"battery-v0.2-trt"},{"rune":"Q","rune_set":"bacs1","hex":"#3366ff99","correct":-1,"choice":-1,"rt":-1,"accuracy":1,"outcome":"+10","keys":[],"total_keys":0,"block":2,"trial":212,"stimulus":11,"robot":2,"valence":"win","action":"no-go","sham":0,"trial_type":"pit-trial","trial_index":248,"time_elapsed":1168464,"internal_node_id":"0.0-220.0","task_version":"battery-v0.2-trt"},{"rune":"A","rune_set":"bacs1","hex":"#3366ff99","correct":32,"choice":-1,"rt":-1,"accuracy":0,"outcome":"+1","keys":[],"total_keys":0,"block":2,"trial":213,"stimulus":8,"robot":1,"valence":"win","action":"go","sham":0,"trial_type":"pit-trial","trial_index":249,"time_elapsed":1172468,"internal_node_id":"0.0-221.0","task_version":"battery-v0.2-trt"},{"rune":"C","rune_set":"bacs1","hex":"#f73b6a7A","correct":32,"choice":32,"rt":751.7450000159442,"accuracy":1,"outcome":"-1","keys":[2251.985000038985],"total_keys":1,"block":2,"trial":214,"stimulus":9,"robot":3,"valence":"lose","action":"go","sham":0,"trial_type":"pit-trial","trial_index":250,"time_elapsed":1175922,"internal_node_id":"0.0-222.0","task_version":"battery-v0.2-trt"},{"rune":"L","rune_set":"bacs1","hex":"#f73b6a7A","correct":32,"choice":32,"rt":936.0449999803677,"accuracy":1,"outcome":"-1","keys":[2437.249999959022],"total_keys":1,"block":2,"trial":215,"stimulus":10,"robot":3,"valence":"lose","action":"go","sham":0,"trial_type":"pit-trial","trial_index":251,"time_elapsed":1179562,"internal_node_id":"0.0-223.0","task_version":"battery-v0.2-trt"},{"rune":"Q","rune_set":"bacs1","hex":"#3366ff99","correct":-1,"choice":-1,"rt":-1,"accuracy":1,"outcome":"+10","keys":[],"total_keys":0,"block":2,"trial":216,"stimulus":11,"robot":2,"valence":"win","action":"no-go","sham":0,"trial_type":"pit-trial","trial_index":252,"time_elapsed":1183566,"internal_node_id":"0.0-224.0","task_version":"battery-v0.2-trt"},{"rune":"A","rune_set":"bacs1","hex":"#3366ff99","correct":32,"choice":32,"rt":687.4850000021979,"accuracy":1,"outcome":"+1","keys":[2188.3399999933317],"total_keys":1,"block":2,"trial":217,"stimulus":8,"robot":1,"valence":"win","action":"go","sham":1,"trial_type":"pit-trial","trial_index":253,"time_elapsed":1186958,"internal_node_id":"0.0-225.0","task_version":"battery-v0.2-trt"},{"rune":"L","rune_set":"bacs1","hex":"#f73b6a7A","correct":32,"choice":32,"rt":822.3799999686889,"accuracy":1,"outcome":"-1","keys":[2324.224999989383],"total_keys":1,"block":2,"trial":218,"stimulus":10,"robot":3,"valence":"lose","action":"go","sham":0,"trial_type":"pit-trial","trial_index":254,"time_elapsed":1190484,"internal_node_id":"0.0-226.0","task_version":"battery-v0.2-trt"},{"rune":"Q","rune_set":"bacs1","hex":"#3366ff99","correct":-1,"choice":-1,"rt":-1,"accuracy":1,"outcome":"+10","keys":[],"total_keys":0,"block":2,"trial":219,"stimulus":11,"robot":2,"valence":"win","action":"no-go","sham":0,"trial_type":"pit-trial","trial_index":255,"time_elapsed":1194488,"internal_node_id":"0.0-227.0","task_version":"battery-v0.2-trt"},{"rune":"C","rune_set":"bacs1","hex":"#f73b6a7A","correct":32,"choice":32,"rt":700.0949999783188,"accuracy":1,"outcome":"-10","keys":[2201.429999957327],"total_keys":1,"block":2,"trial":220,"stimulus":9,"robot":3,"valence":"lose","action":"go","sham":1,"trial_type":"pit-trial","trial_index":256,"time_elapsed":1197893,"internal_node_id":"0.0-228.0","task_version":"battery-v0.2-trt"},{"rune":"A","rune_set":"bacs1","hex":"#3366ff99","correct":32,"choice":32,"rt":589.5050000399351,"accuracy":1,"outcome":"+10","keys":[2090.7599999918602],"total_keys":1,"block":2,"trial":221,"stimulus":8,"robot":1,"valence":"win","action":"go","sham":0,"trial_type":"pit-trial","trial_index":257,"time_elapsed":1201187,"internal_node_id":"0.0-229.0","task_version":"battery-v0.2-trt"},{"rune":"L","rune_set":"bacs1","hex":"#f73b6a7A","correct":32,"choice":32,"rt":1017.0149999903515,"accuracy":1,"outcome":"-1","keys":[2517.9950000019744],"total_keys":1,"block":2,"trial":222,"stimulus":10,"robot":3,"valence":"lose","action":"go","sham":0,"trial_type":"pit-trial","trial_index":258,"time_elapsed":1204909,"internal_node_id":"0.0-230.0","task_version":"battery-v0.2-trt"},{"rune":"Q","rune_set":"bacs1","hex":"#3366ff99","correct":-1,"choice":-1,"rt":-1,"accuracy":1,"outcome":"+1","keys":[],"total_keys":0,"block":2,"trial":223,"stimulus":11,"robot":2,"valence":"win","action":"no-go","sham":1,"trial_type":"pit-trial","trial_index":259,"time_elapsed":1208913,"internal_node_id":"0.0-231.0","task_version":"battery-v0.2-trt"},{"rune":"C","rune_set":"bacs1","hex":"#f73b6a7A","correct":32,"choice":32,"rt":860.7799999881536,"accuracy":1,"outcome":"-1","keys":[2361.845000006724],"total_keys":1,"block":2,"trial":224,"stimulus":9,"robot":3,"valence":"lose","action":"go","sham":0,"trial_type":"pit-trial","trial_index":260,"time_elapsed":1212477,"internal_node_id":"0.0-232.0","task_version":"battery-v0.2-trt"},{"rune":"L","rune_set":"bacs1","hex":"#f73b6a7A","correct":32,"choice":32,"rt":807.5899999821559,"accuracy":1,"outcome":"-10","keys":[2307.7250000205822],"total_keys":1,"block":2,"trial":225,"stimulus":10,"robot":3,"valence":"lose","action":"go","sham":1,"trial_type":"pit-trial","trial_index":261,"time_elapsed":1215987,"internal_node_id":"0.0-233.0","task_version":"battery-v0.2-trt"},{"rune":"A","rune_set":"bacs1","hex":"#3366ff99","correct":32,"choice":32,"rt":853.6949999979697,"accuracy":1,"outcome":"+10","keys":[2355.489999987185],"total_keys":1,"block":2,"trial":226,"stimulus":8,"robot":1,"valence":"win","action":"go","sham":0,"trial_type":"pit-trial","trial_index":262,"time_elapsed":1219546,"internal_node_id":"0.0-234.0","task_version":"battery-v0.2-trt"},{"rune":"Q","rune_set":"bacs1","hex":"#3366ff99","correct":-1,"choice":32,"rt":767.3800000338815,"accuracy":0,"outcome":"+10","keys":[2268.6399999656714],"total_keys":1,"block":2,"trial":227,"stimulus":11,"robot":2,"valence":"win","action":"no-go","sham":1,"trial_type":"pit-trial","trial_index":263,"time_elapsed":1223017,"internal_node_id":"0.0-235.0","task_version":"battery-v0.2-trt"},{"rune":"C","rune_set":"bacs1","hex":"#f73b6a7A","correct":32,"choice":32,"rt":1105.840000032913,"accuracy":1,"outcome":"-1","keys":[2605.920000001788],"total_keys":1,"block":2,"trial":228,"stimulus":9,"robot":3,"valence":"lose","action":"go","sham":0,"trial_type":"pit-trial","trial_index":264,"time_elapsed":1226826,"internal_node_id":"0.0-236.0","task_version":"battery-v0.2-trt"},{"rune":"A","rune_set":"bacs1","hex":"#3366ff99","correct":32,"choice":32,"rt":737.0550000341609,"accuracy":1,"outcome":"+10","keys":[2237.554999999702],"total_keys":1,"block":2,"trial":229,"stimulus":8,"robot":1,"valence":"win","action":"go","sham":0,"trial_type":"pit-trial","trial_index":265,"time_elapsed":1230267,"internal_node_id":"0.0-237.0","task_version":"battery-v0.2-trt"},{"rune":"Q","rune_set":"bacs1","hex":"#3366ff99","correct":-1,"choice":32,"rt":604.6950000454672,"accuracy":0,"outcome":"+10","keys":[2106.2350000138395],"total_keys":1,"block":2,"trial":230,"stimulus":11,"robot":2,"valence":"win","action":"no-go","sham":1,"trial_type":"pit-trial","trial_index":266,"time_elapsed":1233575,"internal_node_id":"0.0-238.0","task_version":"battery-v0.2-trt"},{"rune":"C","rune_set":"bacs1","hex":"#f73b6a7A","correct":32,"choice":32,"rt":615.3399999602698,"accuracy":1,"outcome":"-1","keys":[2116.2200000253506],"total_keys":1,"block":2,"trial":231,"stimulus":9,"robot":3,"valence":"lose","action":"go","sham":0,"trial_type":"pit-trial","trial_index":267,"time_elapsed":1236894,"internal_node_id":"0.0-239.0","task_version":"battery-v0.2-trt"},{"rune":"L","rune_set":"bacs1","hex":"#f73b6a7A","correct":32,"choice":32,"rt":565.83999999566,"accuracy":1,"outcome":"-1","keys":[2066.65500003146],"total_keys":1,"block":2,"trial":232,"stimulus":10,"robot":3,"valence":"lose","action":"go","sham":0,"trial_type":"pit-trial","trial_index":268,"time_elapsed":1240163,"internal_node_id":"0.0-240.0","task_version":"battery-v0.2-trt"},{"rune":"Q","rune_set":"bacs1","hex":"#3366ff99","correct":-1,"choice":32,"rt":691.8249999871477,"accuracy":0,"outcome":"+10","keys":[2192.6749999984168],"total_keys":1,"block":2,"trial":233,"stimulus":11,"robot":2,"valence":"win","action":"no-go","sham":1,"trial_type":"pit-trial","trial_index":269,"time_elapsed":1243558,"internal_node_id":"0.0-241.0","task_version":"battery-v0.2-trt"},{"rune":"L","rune_set":"bacs1","hex":"#f73b6a7A","correct":32,"choice":32,"rt":506.0899999807589,"accuracy":1,"outcome":"-1","keys":[2006.7399999825284],"total_keys":1,"block":2,"trial":234,"stimulus":10,"robot":3,"valence":"lose","action":"go","sham":0,"trial_type":"pit-trial","trial_index":270,"time_elapsed":1246769,"internal_node_id":"0.0-242.0","task_version":"battery-v0.2-trt"},{"rune":"A","rune_set":"bacs1","hex":"#3366ff99","correct":32,"choice":32,"rt":756.5900000045076,"accuracy":1,"outcome":"+10","keys":[2257.095000008121],"total_keys":1,"block":2,"trial":235,"stimulus":8,"robot":1,"valence":"win","action":"go","sham":0,"trial_type":"pit-trial","trial_index":271,"time_elapsed":1250228,"internal_node_id":"0.0-243.0","task_version":"battery-v0.2-trt"},{"rune":"C","rune_set":"bacs1","hex":"#f73b6a7A","correct":32,"choice":32,"rt":586.0049999901094,"accuracy":1,"outcome":"-1","keys":[2086.330000020098],"total_keys":1,"block":2,"trial":236,"stimulus":9,"robot":3,"valence":"lose","action":"go","sham":0,"trial_type":"pit-trial","trial_index":272,"time_elapsed":1253518,"internal_node_id":"0.0-244.0","task_version":"battery-v0.2-trt"},{"rune":"C","rune_set":"bacs1","hex":"#f73b6a7A","correct":32,"choice":32,"rt":707.4699999648146,"accuracy":1,"outcome":"-1","keys":[2208.664999983739],"total_keys":1,"block":2,"trial":237,"stimulus":9,"robot":3,"valence":"lose","action":"go","sham":0,"trial_type":"pit-trial","trial_index":273,"time_elapsed":1256930,"internal_node_id":"0.0-245.0","task_version":"battery-v0.2-trt"},{"rune":"Q","rune_set":"bacs1","hex":"#3366ff99","correct":-1,"choice":32,"rt":69