[{"view_history":"[{\"page_index\":0,\"viewing_time\":3205.015000072308}]","rt":3205.4900000803173,"trial_type":"instructions","trial_index":0,"time_elapsed":3213,"internal_node_id":"0.0-0.0","task_version":"battery-v0.2-trt"},{"slider_type":"valence","raw_loc":535.5,"loc":0.571,"trial_type":"affective-slider","trial_index":1,"time_elapsed":7563,"internal_node_id":"0.0-1.0","task_version":"battery-v0.2-trt"},{"responses":{"Q10":"2","Q01":"1","Q12":"2","Q11":"2","Q09":"2","Q06":"3","Q03":"2","Q04":"2","Q08":"1","Q02":"1","Q13":"0","Q07":"3","Q05":"3"},"rt":51841.35999996215,"item_order":[9,0,11,10,8,5,2,3,7,1,12,6,4],"radio_events":[3500.2800000365824,5948.875000001863,9418.08500001207,11142.160000046715,16426.044999971054,18024.119999958202,20289.9449999677,21990.069999941625,23672.050000051968,34570.0750000542,37274.02000001166,39628.135000006296,43175.82999996375,44828.05500004906,48470.05500004161,51005.9449999826],"key_events":[],"mouse_events":[3500.2800000365824,5948.875000001863,9418.08500001207,11142.160000046715,16426.044999971054,18024.119999958202,19922.254999983124,20289.9449999677,21990.069999941625,23672.050000051968,33573.955000028946,34570.0750000542,37274.02000001166,39628.135000006296,43175.82999996375,44828.05500004906,48470.05500004161,51005.9449999826,51840.10499995202],"straightlining":0.46153846153846156,"zigzagging":0.5833333333333334,"survey":"bisbas","trial_type":"survey-template","trial_index":2,"time_elapsed":59410,"internal_node_id":"0.0-2.0","task_version":"battery-v0.2-trt","infrequency":0},{"responses":{"Q05":"0","Q07":"1","Q03":"0","Q08":"0","Q02":"0","Q04":"0","Q01":"1","Q06":"1"},"rt":31280.82500002347,"item_order":[4,6,2,7,1,3,0,5],"radio_events":[10888.40000005439,12358.450000057928,13222.185000078753,14282.110000029206,20696.16000005044,23694.440000108443,25754.270000034012,29338.070000056177],"key_events":[],"mouse_events":[7722.37000009045,10888.40000005439,12358.450000057928,13222.185000078753,13854.850000003353,14282.110000029206,17284.110000007786,20696.16000005044,23694.440000108443,25754.270000034012,28264.200000092387,29338.070000056177,31280.100000090897],"straightlining":0.625,"zigzagging":0.42857142857142855,"survey":"gad7","trial_type":"survey-template","trial_index":3,"time_elapsed":90694,"internal_node_id":"0.0-3.0","task_version":"battery-v0.2-trt","infrequency":0},{"responses":{"Q07":"0","Q04":"0","Q02":"0","Q06":"0","Q03":"0","Q08":"3","Q05":"0","Q01":"0"},"rt":25921.17500002496,"item_order":[6,3,1,5,2,7,4,0],"radio_events":[3658.5350000532344,4128.965000039898,4994.595000054687,6880.594999995083,8607.079999987036,9348.585000028834,12268.604999990202,22596.464999951422,25016.38499996625],"key_events":[],"mouse_events":[2650.565000018105,3658.5350000532344,4128.965000039898,4994.595000054687,6880.594999995083,7828.639999963343,8607.079999987036,9348.585000028834,12268.604999990202,22020.510000060312,22596.464999951422,24456.529999966733,25016.38499996625,25920.449999975972],"straightlining":0.875,"zigzagging":0.2857142857142857,"survey":"dass_d","trial_type":"survey-template","trial_index":4,"time_elapsed":116618,"internal_node_id":"0.0-4.0","task_version":"battery-v0.2-trt","infrequency":0},{"value":[0,1.9615384615384617,1.2976190476190474],"trial_type":"call-function","trial_index":5,"time_elapsed":116619,"internal_node_id":"0.0-5.0","task_version":"battery-v0.2-trt"},{"view_history":"[{\"page_index\":0,\"viewing_time\":4953.970000031404},{\"page_index\":1,\"viewing_time\":2979.899999918416},{\"page_index\":2,\"viewing_time\":3380.07000007201},{\"page_index\":3,\"viewing_time\":11408.025000011548},{\"page_index\":4,\"viewing_time\":38733.91499998979},{\"page_index\":5,\"viewing_time\":2572.2850000020117},{\"page_index\":6,\"viewing_time\":4601.67999996338},{\"page_index\":7,\"viewing_time\":8588.059999980032},{\"page_index\":8,\"viewing_time\":160208.31999997608},{\"page_index\":9,\"viewing_time\":1879.490000079386},{\"page_index\":8,\"viewing_time\":2619.8099999455735},{\"page_index\":9,\"viewing_time\":1100.1800000667572}]","rt":243026.33999998216,"trial_type":"pit-instructions","trial_index":6,"time_elapsed":359646,"internal_node_id":"0.0-6.0-0.0","task_version":"battery-v0.2-trt"},{"rune":"1","rune_set":"elianto","hex":"#3366ff99","correct":32,"choice":32,"rt":523.2499999692664,"accuracy":1,"outcome":"+10","keys":[2024.6399999596179],"total_keys":1,"block":0,"practice":1,"trial_type":"pit-trial","trial_index":7,"time_elapsed":362874,"internal_node_id":"0.0-6.0-1.0-0.0","task_version":"battery-v0.2-trt"},{"rune":"1","rune_set":"elianto","hex":"#3366ff99","correct":32,"choice":32,"rt":574.3599999696016,"accuracy":1,"outcome":"+10","keys":[2075.109999976121],"total_keys":1,"block":0,"practice":1,"trial_type":"pit-trial","trial_index":8,"time_elapsed":366155,"internal_node_id":"0.0-6.0-1.1-0.1","task_version":"battery-v0.2-trt"},{"rune":"1","rune_set":"elianto","hex":"#3366ff99","correct":32,"choice":32,"rt":543.6900000786409,"accuracy":1,"outcome":"+10","keys":[2044.6699999738485],"total_keys":1,"block":0,"practice":1,"trial_type":"pit-trial","trial_index":9,"time_elapsed":369404,"internal_node_id":"0.0-6.0-1.2-0.2","task_version":"battery-v0.2-trt"},{"rune":"1","rune_set":"elianto","hex":"#3366ff99","correct":32,"choice":32,"rt":422.0849999692291,"accuracy":1,"outcome":"+10","keys":[1922.8549998952076],"total_keys":1,"block":0,"practice":1,"trial_type":"pit-trial","trial_index":10,"time_elapsed":372532,"internal_node_id":"0.0-6.0-1.3-0.3","task_version":"battery-v0.2-trt"},{"trial_type":"call-function","trial_index":11,"time_elapsed":372534,"internal_node_id":"0.0-6.0-2.0","task_version":"battery-v0.2-trt"},{"view_history":"[{\"page_index\":0,\"viewing_time\":5052.374999970198},{\"page_index\":1,\"viewing_time\":3401.9700000062585}]","rt":8454.639999894425,"trial_type":"pit-instructions","trial_index":12,"time_elapsed":380990,"internal_node_id":"0.0-6.0-3.0","task_version":"battery-v0.2-trt"},{"rune":"2","rune_set":"elianto","hex":"#3366ff99","correct":-1,"choice":32,"rt":569.8250000132248,"accuracy":0,"outcome":"+1","keys":[2070.35499997437],"total_keys":1,"block":0,"practice":2,"trial_type":"pit-trial","trial_index":13,"time_elapsed":384262,"internal_node_id":"0.0-6.0-4.0-0.0","task_version":"battery-v0.2-trt"},{"rune":"2","rune_set":"elianto","hex":"#3366ff99","correct":-1,"choice":-1,"rt":-1,"accuracy":1,"outcome":"+10","keys":[2962.125000078231],"total_keys":1,"block":0,"practice":2,"trial_type":"pit-trial","trial_index":14,"time_elapsed":388264,"internal_node_id":"0.0-6.0-4.1-0.1","task_version":"battery-v0.2-trt"},{"rune":"2","rune_set":"elianto","hex":"#3366ff99","correct":-1,"choice":32,"rt":768.709999974817,"accuracy":0,"outcome":"+1","keys":[2269.7649999754503],"total_keys":1,"block":0,"practice":2,"trial_type":"pit-trial","trial_index":15,"time_elapsed":391737,"internal_node_id":"0.0-6.0-4.2-0.2","task_version":"battery-v0.2-trt"},{"rune":"2","rune_set":"elianto","hex":"#3366ff99","correct":-1,"choice":32,"rt":719.2049999721348,"accuracy":0,"outcome":"+1","keys":[2219.679999980144],"total_keys":1,"block":0,"practice":2,"trial_type":"pit-trial","trial_index":16,"time_elapsed":395161,"internal_node_id":"0.0-6.0-4.3-0.3","task_version":"battery-v0.2-trt"},{"rune":"2","rune_set":"elianto","hex":"#3366ff99","correct":-1,"choice":-1,"rt":-1,"accuracy":1,"outcome":"+10","keys":[2996.5350000420585],"total_keys":1,"block":0,"practice":2,"trial_type":"pit-trial","trial_index":17,"time_elapsed":399167,"internal_node_id":"0.0-6.0-4.4-0.4","task_version":"battery-v0.2-trt"},{"rune":"2","rune_set":"elianto","hex":"#3366ff99","correct":-1,"choice":32,"rt":763.5100000770763,"accuracy":0,"outcome":"+1","keys":[2263.5849999496713],"total_keys":1,"block":0,"practice":2,"trial_type":"pit-trial","trial_index":18,"time_elapsed":402634,"internal_node_id":"0.0-6.0-4.5-0.5","task_version":"battery-v0.2-trt"},{"rune":"2","rune_set":"elianto","hex":"#3366ff99","correct":-1,"choice":32,"rt":865.6699999701232,"accuracy":0,"outcome":"+1","keys":[2366.5599999949336],"total_keys":1,"block":0,"practice":2,"trial_type":"pit-trial","trial_index":19,"time_elapsed":406203,"internal_node_id":"0.0-6.0-4.6-0.6","task_version":"battery-v0.2-trt"},{"rune":"2","rune_set":"elianto","hex":"#3366ff99","correct":-1,"choice":-1,"rt":-1,"accuracy":1,"outcome":"+10","keys":[2816.439999965951],"total_keys":1,"block":0,"practice":2,"trial_type":"pit-trial","trial_index":20,"time_elapsed":410208,"internal_node_id":"0.0-6.0-4.7-0.7","task_version":"battery-v0.2-trt"},{"rune":"2","rune_set":"elianto","hex":"#3366ff99","correct":-1,"choice":32,"rt":1009.2699999222532,"accuracy":0,"outcome":"+1","keys":[2509.3299999134615],"total_keys":1,"block":0,"practice":2,"trial_type":"pit-trial","trial_index":21,"time_elapsed":413922,"internal_node_id":"0.0-6.0-4.8-0.8","task_version":"battery-v0.2-trt"},{"rune":"2","rune_set":"elianto","hex":"#3366ff99","correct":-1,"choice":-1,"rt":-1,"accuracy":1,"outcome":"+10","keys":[2844.5400000782683],"total_keys":1,"block":0,"practice":2,"trial_type":"pit-trial","trial_index":22,"time_elapsed":417928,"internal_node_id":"0.0-6.0-4.9-0.9","task_version":"battery-v0.2-trt"},{"rune":"2","rune_set":"elianto","hex":"#3366ff99","correct":-1,"choice":32,"rt":437.2650000732392,"accuracy":0,"outcome":"+1","keys":[1937.7549999626353],"total_keys":1,"block":0,"practice":2,"trial_type":"pit-trial","trial_index":23,"time_elapsed":421070,"internal_node_id":"0.0-6.0-4.10-0.10","task_version":"battery-v0.2-trt"},{"rune":"2","rune_set":"elianto","hex":"#3366ff99","correct":-1,"choice":32,"rt":373.4750000294298,"accuracy":0,"outcome":"+1","keys":[1874.1199999349192],"total_keys":1,"block":0,"practice":2,"trial_type":"pit-trial","trial_index":24,"time_elapsed":424253,"internal_node_id":"0.0-6.0-4.11-0.11","task_version":"battery-v0.2-trt"},{"rune":"2","rune_set":"elianto","hex":"#3366ff99","correct":-1,"choice":-1,"rt":-1,"accuracy":1,"outcome":"+10","keys":[],"total_keys":0,"block":0,"practice":2,"trial_type":"pit-trial","trial_index":25,"time_elapsed":428257,"internal_node_id":"0.0-6.0-4.12-0.12","task_version":"battery-v0.2-trt"},{"rune":"2","rune_set":"elianto","hex":"#3366ff99","correct":-1,"choice":-1,"rt":-1,"accuracy":1,"outcome":"+10","keys":[2992.1399999875575],"total_keys":1,"block":0,"practice":2,"trial_type":"pit-trial","trial_index":26,"time_elapsed":432263,"internal_node_id":"0.0-6.0-4.13-0.13","task_version":"battery-v0.2-trt"},{"rune":"2","rune_set":"elianto","hex":"#3366ff99","correct":-1,"choice":-1,"rt":-1,"accuracy":1,"outcome":"+10","keys":[],"total_keys":0,"block":0,"practice":2,"trial_type":"pit-trial","trial_index":27,"time_elapsed":436266,"internal_node_id":"0.0-6.0-4.14-0.14","task_version":"battery-v0.2-trt"},{"trial_type":"call-function","trial_index":28,"time_elapsed":436267,"internal_node_id":"0.0-6.0-5.0","task_version":"battery-v0.2-trt"},{"view_history":"[{\"page_index\":0,\"viewing_time\":36775.290000019595},{\"page_index\":1,\"viewing_time\":4670.210000011139}]","rt":41445.80500002485,"trial_type":"pit-instructions","trial_index":29,"time_elapsed":477712,"internal_node_id":"0.0-6.0-6.0","task_version":"battery-v0.2-trt"},{"rune":"3","rune_set":"elianto","hex":"#f73b6a7A","correct":-1,"choice":32,"rt":655.26500006672,"accuracy":0,"outcome":"-10","keys":[2155.4849999956787],"total_keys":1,"block":0,"practice":3,"trial_type":"pit-trial","trial_index":30,"time_elapsed":481070,"internal_node_id":"0.0-6.0-7.0-0.0","task_version":"battery-v0.2-trt"},{"rune":"3","rune_set":"elianto","hex":"#f73b6a7A","correct":-1,"choice":-1,"rt":-1,"accuracy":1,"outcome":"-1","keys":[],"total_keys":0,"block":0,"practice":3,"trial_type":"pit-trial","trial_index":31,"time_elapsed":485076,"internal_node_id":"0.0-6.0-7.1-0.1","task_version":"battery-v0.2-trt"},{"rune":"3","rune_set":"elianto","hex":"#f73b6a7A","correct":-1,"choice":-1,"rt":-1,"accuracy":1,"outcome":"-1","keys":[],"total_keys":0,"block":0,"practice":3,"trial_type":"pit-trial","trial_index":32,"time_elapsed":489081,"internal_node_id":"0.0-6.0-7.2-0.2","task_version":"battery-v0.2-trt"},{"rune":"3","rune_set":"elianto","hex":"#f73b6a7A","correct":-1,"choice":-1,"rt":-1,"accuracy":1,"outcome":"-1","keys":[],"total_keys":0,"block":0,"practice":3,"trial_type":"pit-trial","trial_index":33,"time_elapsed":493086,"internal_node_id":"0.0-6.0-7.3-0.3","task_version":"battery-v0.2-trt"},{"trial_type":"call-function","trial_index":34,"time_elapsed":493088,"internal_node_id":"0.0-6.0-8.0","task_version":"battery-v0.2-trt"},{"view_history":"[{\"page_index\":0,\"viewing_time\":2684.6849999856204},{\"page_index\":1,\"viewing_time\":2249.9400000087917}]","rt":4934.935000026599,"trial_type":"pit-instructions","trial_index":35,"time_elapsed":498024,"internal_node_id":"0.0-6.0-9.0","task_version":"battery-v0.2-trt"},{"rune":"4","rune_set":"elianto","hex":"#f73b6a7A","correct":32,"choice":32,"rt":280.765000032261,"accuracy":1,"outcome":"-1","keys":[1780.945000005886],"total_keys":1,"block":0,"practice":4,"trial_type":"pit-trial","trial_index":36,"time_elapsed":501008,"internal_node_id":"0.0-6.0-10.0-0.0","task_version":"battery-v0.2-trt"},{"rune":"4","rune_set":"elianto","hex":"#f73b6a7A","correct":32,"choice":32,"rt":728.8450000341982,"accuracy":1,"outcome":"-1","keys":[2229.7650000546128],"total_keys":1,"block":0,"practice":4,"trial_type":"pit-trial","trial_index":37,"time_elapsed":504441,"internal_node_id":"0.0-6.0-10.1-0.1","task_version":"battery-v0.2-trt"},{"rune":"4","rune_set":"elianto","hex":"#f73b6a7A","correct":32,"choice":-1,"rt":-1,"accuracy":0,"outcome":"-10","keys":[],"total_keys":0,"block":0,"practice":4,"trial_type":"pit-trial","trial_index":38,"time_elapsed":508447,"internal_node_id":"0.0-6.0-10.2-0.2","task_version":"battery-v0.2-trt"},{"rune":"4","rune_set":"elianto","hex":"#f73b6a7A","correct":32,"choice":32,"rt":459.2399999964982,"accuracy":1,"outcome":"-1","keys":[1959.3650000169873],"total_keys":1,"block":0,"practice":4,"trial_type":"pit-trial","trial_index":39,"time_elapsed":511609,"internal_node_id":"0.0-6.0-10.3-0.3","task_version":"battery-v0.2-trt"},{"rune":"4","rune_set":"elianto","hex":"#f73b6a7A","correct":32,"choice":32,"rt":464.3200000282377,"accuracy":1,"outcome":"-1","keys":[1964.7200000472367],"total_keys":1,"block":0,"practice":4,"trial_type":"pit-trial","trial_index":40,"time_elapsed":514778,"internal_node_id":"0.0-6.0-10.4-0.4","task_version":"battery-v0.2-trt"},{"rune":"4","rune_set":"elianto","hex":"#f73b6a7A","correct":32,"choice":32,"rt":180.84499996621162,"accuracy":1,"outcome":"-1","keys":[1682.3699999367818],"total_keys":1,"block":0,"practice":4,"trial_type":"pit-trial","trial_index":41,"time_elapsed":517666,"internal_node_id":"0.0-6.0-10.5-0.5","task_version":"battery-v0.2-trt"},{"trial_type":"call-function","trial_index":42,"time_elapsed":517668,"internal_node_id":"0.0-6.0-11.0","task_version":"battery-v0.2-trt"},{"view_history":"[{\"page_index\":0,\"viewing_time\":14163.140000076964},{\"page_index\":1,\"viewing_time\":4023.259999928996},{\"page_index\":2,\"viewing_time\":1739.9800000712276},{\"page_index\":3,\"viewing_time\":1122.8750000009313},{\"page_index\":4,\"viewing_time\":2413.2549999048933},{\"page_index\":5,\"viewing_time\":1135.9100000699982}]","rt":24598.69000001345,"trial_type":"pit-instructions","trial_index":43,"time_elapsed":542268,"internal_node_id":"0.0-6.0-12.0","task_version":"battery-v0.2-trt"},{"responses":["Press SPACE","+10","-1","True","True"],"num_errors":0,"rt":11930.775000015274,"trial_type":"pit-comprehension","trial_index":44,"time_elapsed":554201,"internal_node_id":"0.0-6.0-13.0","task_version":"battery-v0.2-trt"},{"view_history":"[{\"page_index\":0,\"viewing_time\":2090.8399999607354},{\"page_index\":1,\"viewing_time\":2193.165000062436}]","rt":4284.274999983609,"trial_type":"pit-instructions","trial_index":45,"time_elapsed":558488,"internal_node_id":"0.0-7.0","task_version":"battery-v0.2-trt"},{"rune":"Y","rune_set":"bacs1","hex":"#f73b6a7A","correct":-1,"choice":-1,"rt":-1,"accuracy":1,"outcome":"-1","keys":[],"total_keys":0,"block":1,"trial":1,"stimulus":0,"robot":4,"valence":"lose","action":"no-go","sham":0,"trial_type":"pit-trial","trial_index":46,"time_elapsed":562492,"internal_node_id":"0.0-8.0","task_version":"battery-v0.2-trt"},{"rune":"M","rune_set":"bacs1","hex":"#3366ff99","correct":-1,"choice":32,"rt":700.660000089556,"accuracy":0,"outcome":"+10","keys":[2201.039999956265],"total_keys":1,"block":1,"trial":2,"stimulus":3,"robot":2,"valence":"win","action":"no-go","sham":1,"trial_type":"pit-trial","trial_index":47,"time_elapsed":565896,"internal_node_id":"0.0-9.0","task_version":"battery-v0.2-trt"},{"rune":"P","rune_set":"bacs1","hex":"#3366ff99","correct":32,"choice":32,"rt":732.8399999532849,"accuracy":1,"outcome":"+10","keys":[2233.1099999137223],"total_keys":1,"block":1,"trial":3,"stimulus":2,"robot":1,"valence":"win","action":"go","sham":0,"trial_type":"pit-trial","trial_index":48,"time_elapsed":569332,"internal_node_id":"0.0-10.0","task_version":"battery-v0.2-trt"},{"rune":"H","rune_set":"bacs1","hex":"#f73b6a7A","correct":-1,"choice":-1,"rt":-1,"accuracy":1,"outcome":"-1","keys":[],"total_keys":0,"block":1,"trial":4,"stimulus":1,"robot":4,"valence":"lose","action":"no-go","sham":0,"trial_type":"pit-trial","trial_index":49,"time_elapsed":573335,"internal_node_id":"0.0-11.0","task_version":"battery-v0.2-trt"},{"rune":"H","rune_set":"bacs1","hex":"#f73b6a7A","correct":-1,"choice":-1,"rt":-1,"accuracy":1,"outcome":"-1","keys":[],"total_keys":0,"block":1,"trial":5,"stimulus":1,"robot":4,"valence":"lose","action":"no-go","sham":0,"trial_type":"pit-trial","trial_index":50,"time_elapsed":577339,"internal_node_id":"0.0-12.0","task_version":"battery-v0.2-trt"},{"rune":"P","rune_set":"bacs1","hex":"#3366ff99","correct":32,"choice":32,"rt":562.6149999443442,"accuracy":1,"outcome":"+10","keys":[2062.7150000073016],"total_keys":1,"block":1,"trial":6,"stimulus":2,"robot":1,"valence":"win","action":"go","sham":0,"trial_type":"pit-trial","trial_index":51,"time_elapsed":580606,"internal_node_id":"0.0-13.0","task_version":"battery-v0.2-trt"},{"rune":"M","rune_set":"bacs1","hex":"#3366ff99","correct":-1,"choice":32,"rt":456.6600000252947,"accuracy":0,"outcome":"+10","keys":[1960.469999932684],"total_keys":1,"block":1,"trial":7,"stimulus":3,"robot":2,"valence":"win","action":"no-go","sham":1,"trial_type":"pit-trial","trial_index":52,"time_elapsed":583768,"internal_node_id":"0.0-14.0","task_version":"battery-v0.2-trt"},{"rune":"Y","rune_set":"bacs1","hex":"#f73b6a7A","correct":-1,"choice":-1,"rt":-1,"accuracy":1,"outcome":"-1","keys":[],"total_keys":0,"block":1,"trial":8,"stimulus":0,"robot":4,"valence":"lose","action":"no-go","sham":0,"trial_type":"pit-trial","trial_index":53,"time_elapsed":587772,"internal_node_id":"0.0-15.0","task_version":"battery-v0.2-trt"},{"rune":"Y","rune_set":"bacs1","hex":"#f73b6a7A","correct":-1,"choice":-1,"rt":-1,"accuracy":1,"outcome":"-1","keys":[],"total_keys":0,"block":1,"trial":9,"stimulus":0,"robot":4,"valence":"lose","action":"no-go","sham":0,"trial_type":"pit-trial","trial_index":54,"time_elapsed":591776,"internal_node_id":"0.0-16.0","task_version":"battery-v0.2-trt"},{"rune":"H","rune_set":"bacs1","hex":"#f73b6a7A","correct":-1,"choice":-1,"rt":-1,"accuracy":1,"outcome":"-1","keys":[],"total_keys":0,"block":1,"trial":10,"stimulus":1,"robot":4,"valence":"lose","action":"no-go","sham":0,"trial_type":"pit-trial","trial_index":55,"time_elapsed":595781,"internal_node_id":"0.0-17.0","task_version":"battery-v0.2-trt"},{"rune":"M","rune_set":"bacs1","hex":"#3366ff99","correct":-1,"choice":32,"rt":465.59000003617257,"accuracy":0,"outcome":"+1","keys":[1966.3650000002235],"total_keys":1,"block":1,"trial":11,"stimulus":3,"robot":2,"valence":"win","action":"no-go","sham":0,"trial_type":"pit-trial","trial_index":56,"time_elapsed":598952,"internal_node_id":"0.0-18.0","task_version":"battery-v0.2-trt"},{"rune":"P","rune_set":"bacs1","hex":"#3366ff99","correct":32,"choice":32,"rt":654.7300000675023,"accuracy":1,"outcome":"+10","keys":[2156.3399999868125],"total_keys":1,"block":1,"trial":12,"stimulus":2,"robot":1,"valence":"win","action":"go","sham":0,"trial_type":"pit-trial","trial_index":57,"time_elapsed":602313,"internal_node_id":"0.0-19.0","task_version":"battery-v0.2-trt"},{"rune":"H","rune_set":"bacs1","hex":"#f73b6a7A","correct":-1,"choice":-1,"rt":-1,"accuracy":1,"outcome":"-1","keys":[],"total_keys":0,"block":1,"trial":13,"stimulus":1,"robot":4,"valence":"lose","action":"no-go","sham":0,"trial_type":"pit-trial","trial_index":58,"time_elapsed":606322,"internal_node_id":"0.0-20.0","task_version":"battery-v0.2-trt"},{"rune":"M","rune_set":"bacs1","hex":"#3366ff99","correct":-1,"choice":32,"rt":982.1150000207126,"accuracy":0,"outcome":"+1","keys":[2482.285000034608],"total_keys":1,"block":1,"trial":14,"stimulus":3,"robot":2,"valence":"win","action":"no-go","sham":0,"trial_type":"pit-trial","trial_index":59,"time_elapsed":610010,"internal_node_id":"0.0-21.0","task_version":"battery-v0.2-trt"},{"rune":"Y","rune_set":"bacs1","hex":"#f73b6a7A","correct":-1,"choice":-1,"rt":-1,"accuracy":1,"outcome":"-1","keys":[],"total_keys":0,"block":1,"trial":15,"stimulus":0,"robot":4,"valence":"lose","action":"no-go","sham":0,"trial_type":"pit-trial","trial_index":60,"time_elapsed":614016,"internal_node_id":"0.0-22.0","task_version":"battery-v0.2-trt"},{"rune":"P","rune_set":"bacs1","hex":"#3366ff99","correct":32,"choice":32,"rt":892.4500000430271,"accuracy":1,"outcome":"+10","keys":[2393.4550000121817],"total_keys":1,"block":1,"trial":16,"stimulus":2,"robot":1,"valence":"win","action":"go","sham":0,"trial_type":"pit-trial","trial_index":61,"time_elapsed":617613,"internal_node_id":"0.0-23.0","task_version":"battery-v0.2-trt"},{"rune":"M","rune_set":"bacs1","hex":"#3366ff99","correct":-1,"choice":-1,"rt":-1,"accuracy":1,"outcome":"+10","keys":[],"total_keys":0,"block":1,"trial":17,"stimulus":3,"robot":2,"valence":"win","action":"no-go","sham":0,"trial_type":"pit-trial","trial_index":62,"time_elapsed":621616,"internal_node_id":"0.0-24.0","task_version":"battery-v0.2-trt"},{"rune":"Y","rune_set":"bacs1","hex":"#f73b6a7A","correct":-1,"choice":-1,"rt":-1,"accuracy":1,"outcome":"-1","keys":[],"total_keys":0,"block":1,"trial":18,"stimulus":0,"robot":4,"valence":"lose","action":"no-go","sham":0,"trial_type":"pit-trial","trial_index":63,"time_elapsed":625620,"internal_node_id":"0.0-25.0","task_version":"battery-v0.2-trt"},{"rune":"H","rune_set":"bacs1","hex":"#f73b6a7A","correct":-1,"choice":-1,"rt":-1,"accuracy":1,"outcome":"-1","keys":[],"total_keys":0,"block":1,"trial":19,"stimulus":1,"robot":4,"valence":"lose","action":"no-go","sham":0,"trial_type":"pit-trial","trial_index":64,"time_elapsed":629623,"internal_node_id":"0.0-26.0","task_version":"battery-v0.2-trt"},{"rune":"P","rune_set":"bacs1","hex":"#3366ff99","correct":32,"choice":32,"rt":593.3349999831989,"accuracy":1,"outcome":"+10","keys":[2096.1099999258295],"total_keys":1,"block":1,"trial":20,"stimulus":2,"robot":1,"valence":"win","action":"go","sham":0,"trial_type":"pit-trial","trial_index":65,"time_elapsed":632922,"internal_node_id":"0.0-27.0","task_version":"battery-v0.2-trt"},{"rune":"P","rune_set":"bacs1","hex":"#3366ff99","correct":32,"choice":-1,"rt":-1,"accuracy":0,"outcome":"+1","keys":[],"total_keys":0,"block":1,"trial":21,"stimulus":2,"robot":1,"valence":"win","action":"go","sham":0,"trial_type":"pit-trial","trial_index":66,"time_elapsed":636929,"internal_node_id":"0.0-28.0","task_version":"battery-v0.2-trt"},{"rune":"M","rune_set":"bacs1","hex":"#3366ff99","correct":-1,"choice":-1,"rt":-1,"accuracy":1,"outcome":"+10","keys":[],"total_keys":0,"block":1,"trial":22,"stimulus":3,"robot":2,"valence":"win","action":"no-go","sham":0,"trial_type":"pit-trial","trial_index":67,"time_elapsed":640935,"internal_node_id":"0.0-29.0","task_version":"battery-v0.2-trt"},{"rune":"H","rune_set":"bacs1","hex":"#f73b6a7A","correct":-1,"choice":-1,"rt":-1,"accuracy":1,"outcome":"-10","keys":[],"total_keys":0,"block":1,"trial":23,"stimulus":1,"robot":4,"valence":"lose","action":"no-go","sham":1,"trial_type":"pit-trial","trial_index":68,"time_elapsed":644941,"internal_node_id":"0.0-30.0","task_version":"battery-v0.2-trt"},{"rune":"Y","rune_set":"bacs1","hex":"#f73b6a7A","correct":-1,"choice":-1,"rt":-1,"accuracy":1,"outcome":"-1","keys":[],"total_keys":0,"block":1,"trial":24,"stimulus":0,"robot":4,"valence":"lose","action":"no-go","sham":0,"trial_type":"pit-trial","trial_index":69,"time_elapsed":648946,"internal_node_id":"0.0-31.0","task_version":"battery-v0.2-trt"},{"rune":"M","rune_set":"bacs1","hex":"#3366ff99","correct":-1,"choice":-1,"rt":-1,"accuracy":1,"outcome":"+10","keys":[],"total_keys":0,"block":1,"trial":25,"stimulus":3,"robot":2,"valence":"win","action":"no-go","sham":0,"trial_type":"pit-trial","trial_index":70,"time_elapsed":652951,"internal_node_id":"0.0-32.0","task_version":"battery-v0.2-trt"},{"rune":"Y","rune_set":"bacs1","hex":"#f73b6a7A","correct":-1,"choice":-1,"rt":-1,"accuracy":1,"outcome":"-10","keys":[],"total_keys":0,"block":1,"trial":26,"stimulus":0,"robot":4,"valence":"lose","action":"no-go","sham":1,"trial_type":"pit-trial","trial_index":71,"time_elapsed":656954,"internal_node_id":"0.0-33.0","task_version":"battery-v0.2-trt"},{"rune":"H","rune_set":"bacs1","hex":"#f73b6a7A","correct":-1,"choice":32,"rt":675.8799999952316,"accuracy":0,"outcome":"-10","keys":[2176.6200000420213],"total_keys":1,"block":1,"trial":27,"stimulus":1,"robot":4,"valence":"lose","action":"no-go","sham":0,"trial_type":"pit-trial","trial_index":72,"time_elapsed":660333,"internal_node_id":"0.0-34.0","task_version":"battery-v0.2-trt"},{"rune":"P","rune_set":"bacs1","hex":"#3366ff99","correct":32,"choice":32,"rt":790.2450000401586,"accuracy":1,"outcome":"+10","keys":[2291.414999985136],"total_keys":1,"block":1,"trial":28,"stimulus":2,"robot":1,"valence":"win","action":"go","sham":0,"trial_type":"pit-trial","trial_index":73,"time_elapsed":663830,"internal_node_id":"0.0-35.0","task_version":"battery-v0.2-trt"},{"rune":"P","rune_set":"bacs1","hex":"#3366ff99","correct":32,"choice":32,"rt":470.83000000566244,"accuracy":1,"outcome":"+1","keys":[1972.6100000552833],"total_keys":1,"block":1,"trial":29,"stimulus":2,"robot":1,"valence":"win","action":"go","sham":1,"trial_type":"pit-trial","trial_index":74,"time_elapsed":667006,"internal_node_id":"0.0-36.0","task_version":"battery-v0.2-trt"},{"rune":"H","rune_set":"bacs1","hex":"#f73b6a7A","correct":-1,"choice":32,"rt":625.5149999633431,"accuracy":0,"outcome":"-1","keys":[2127.420000033453],"total_keys":1,"block":1,"trial":30,"stimulus":1,"robot":4,"valence":"lose","action":"no-go","sham":1,"trial_type":"pit-trial","trial_index":75,"time_elapsed":670339,"internal_node_id":"0.0-37.0","task_version":"battery-v0.2-trt"},{"rune":"Y","rune_set":"bacs1","hex":"#f73b6a7A","correct":-1,"choice":-1,"rt":-1,"accuracy":1,"outcome":"-1","keys":[],"total_keys":0,"block":1,"trial":31,"stimulus":0,"robot":4,"valence":"lose","action":"no-go","sham":0,"trial_type":"pit-trial","trial_index":76,"time_elapsed":674344,"internal_node_id":"0.0-38.0","task_version":"battery-v0.2-trt"},{"rune":"M","rune_set":"bacs1","hex":"#3366ff99","correct":-1,"choice":-1,"rt":-1,"accuracy":1,"outcome":"+10","keys":[],"total_keys":0,"block":1,"trial":32,"stimulus":3,"robot":2,"valence":"win","action":"no-go","sham":0,"trial_type":"pit-trial","trial_index":77,"time_elapsed":678346,"internal_node_id":"0.0-39.0","task_version":"battery-v0.2-trt"},{"rune":"Y","rune_set":"bacs1","hex":"#f73b6a7A","correct":-1,"choice":-1,"rt":-1,"accuracy":1,"outcome":"-1","keys":[],"total_keys":0,"block":1,"trial":33,"stimulus":0,"robot":4,"valence":"lose","action":"no-go","sham":0,"trial_type":"pit-trial","trial_index":78,"time_elapsed":682350,"internal_node_id":"0.0-40.0","task_version":"battery-v0.2-trt"},{"rune":"P","rune_set":"bacs1","hex":"#3366ff99","correct":32,"choice":32,"rt":486.4350000862032,"accuracy":1,"outcome":"+10","keys":[1987.26500000339],"total_keys":1,"block":1,"trial":34,"stimulus":2,"robot":1,"valence":"win","action":"go","sham":0,"trial_type":"pit-trial","trial_index":79,"time_elapsed":685539,"internal_node_id":"0.0-41.0","task_version":"battery-v0.2-trt"},{"rune":"M","rune_set":"bacs1","hex":"#3366ff99","correct":-1,"choice":-1,"rt":-1,"accuracy":1,"outcome":"+10","keys":[],"total_keys":0,"block":1,"trial":35,"stimulus":3,"robot":2,"valence":"win","action":"no-go","sham":0,"trial_type":"pit-trial","trial_index":80,"time_elapsed":689543,"internal_node_id":"0.0-42.0","task_version":"battery-v0.2-trt"},{"rune":"U","rune_set":"bacs1","hex":"#f73b6a7A","correct":32,"choice":32,"rt":584.2499999562278,"accuracy":1,"outcome":"-1","keys":[2084.52999999281],"total_keys":1,"block":1,"trial":36,"stimulus":4,"robot":3,"valence":"lose","action":"go","sham":0,"trial_type":"pit-trial","trial_index":81,"time_elapsed":692831,"internal_node_id":"0.0-43.0","task_version":"battery-v0.2-trt"},{"rune":"M","rune_set":"bacs1","hex":"#3366ff99","correct":-1,"choice":32,"rt":1132.2500000242144,"accuracy":0,"outcome":"+1","keys":[2632.424999959767],"total_keys":1,"block":1,"trial":37,"stimulus":3,"robot":2,"valence":"win","action":"no-go","sham":0,"trial_type":"pit-trial","trial_index":82,"time_elapsed":696669,"internal_node_id":"0.0-44.0","task_version":"battery-v0.2-trt"},{"rune":"Y","rune_set":"bacs1","hex":"#f73b6a7A","correct":-1,"choice":-1,"rt":-1,"accuracy":1,"outcome":"-10","keys":[],"total_keys":0,"block":1,"trial":38,"stimulus":0,"robot":4,"valence":"lose","action":"no-go","sham":1,"trial_type":"pit-trial","trial_index":83,"time_elapsed":700676,"internal_node_id":"0.0-45.0","task_version":"battery-v0.2-trt"},{"rune":"P","rune_set":"bacs1","hex":"#3366ff99","correct":32,"choice":32,"rt":407.87999995518476,"accuracy":1,"outcome":"+10","keys":[1908.504999941215],"total_keys":1,"block":1,"trial":39,"stimulus":2,"robot":1,"valence":"win","action":"go","sham":0,"trial_type":"pit-trial","trial_index":84,"time_elapsed":703788,"internal_node_id":"0.0-46.0","task_version":"battery-v0.2-trt"},{"rune":"U","rune_set":"bacs1","hex":"#f73b6a7A","correct":32,"choice":-1,"rt":-1,"accuracy":0,"outcome":"-10","keys":[],"total_keys":0,"block":1,"trial":40,"stimulus":4,"robot":3,"valence":"lose","action":"go","sham":0,"trial_type":"pit-trial","trial_index":85,"time_elapsed":707795,"internal_node_id":"0.0-47.0","task_version":"battery-v0.2-trt"},{"rune":"Y","rune_set":"bacs1","hex":"#f73b6a7A","correct":-1,"choice":32,"rt":865.5949999811128,"accuracy":0,"outcome":"-10","keys":[2366.2000000476837],"total_keys":1,"block":1,"trial":41,"stimulus":0,"robot":4,"valence":"lose","action":"no-go","sham":0,"trial_type":"pit-trial","trial_index":86,"time_elapsed":711364,"internal_node_id":"0.0-48.0","task_version":"battery-v0.2-trt"},{"rune":"U","rune_set":"bacs1","hex":"#f73b6a7A","correct":32,"choice":-1,"rt":-1,"accuracy":0,"outcome":"-10","keys":[],"total_keys":0,"block":1,"trial":42,"stimulus":4,"robot":3,"valence":"lose","action":"go","sham":0,"trial_type":"pit-trial","trial_index":87,"time_elapsed":715369,"internal_node_id":"0.0-49.0","task_version":"battery-v0.2-trt"},{"rune":"S","rune_set":"bacs1","hex":"#3366ff99","correct":-1,"choice":32,"rt":781.929999939166,"accuracy":0,"outcome":"+1","keys":[2284.289999981411],"total_keys":1,"block":1,"trial":43,"stimulus":5,"robot":2,"valence":"win","action":"no-go","sham":0,"trial_type":"pit-trial","trial_index":88,"time_elapsed":718857,"internal_node_id":"0.0-50.0","task_version":"battery-v0.2-trt"},{"rune":"K","rune_set":"bacs1","hex":"#3366ff99","correct":32,"choice":32,"rt":616.8700000271201,"accuracy":1,"outcome":"+10","keys":[2117.8199999267235],"total_keys":1,"block":1,"trial":44,"stimulus":6,"robot":1,"valence":"win","action":"go","sham":0,"trial_type":"pit-trial","trial_index":89,"time_elapsed":722178,"internal_node_id":"0.0-51.0","task_version":"battery-v0.2-trt"},{"rune":"U","rune_set":"bacs1","hex":"#f73b6a7A","correct":32,"choice":32,"rt":513.4299999335781,"accuracy":1,"outcome":"-1","keys":[2014.5849999971688],"total_keys":1,"block":1,"trial":45,"stimulus":4,"robot":3,"valence":"lose","action":"go","sham":0,"trial_type":"pit-trial","trial_index":90,"time_elapsed":725397,"internal_node_id":"0.0-52.0","task_version":"battery-v0.2-trt"},{"rune":"K","rune_set":"bacs1","hex":"#3366ff99","correct":32,"choice":-1,"rt":-1,"accuracy":0,"outcome":"+1","keys":[3381.429999950342],"total_keys":1,"block":1,"trial":46,"stimulus":6,"robot":1,"valence":"win","action":"go","sham":0,"trial_type":"pit-trial","trial_index":91,"time_elapsed":729400,"internal_node_id":"0.0-53.0","task_version":"battery-v0.2-trt"},{"rune":"S","rune_set":"bacs1","hex":"#3366ff99","correct":-1,"choice":32,"rt":554.6050000702962,"accuracy":0,"outcome":"+10","keys":[2055.8149999706075],"total_keys":1,"block":1,"trial":47,"stimulus":5,"robot":2,"valence":"win","action":"no-go","sham":1,"trial_type":"pit-trial","trial_index":92,"time_elapsed":732659,"internal_node_id":"0.0-54.0","task_version":"battery-v0.2-trt"},{"rune":"Y","rune_set":"bacs1","hex":"#f73b6a7A","correct":-1,"choice":32,"rt":758.3249999443069,"accuracy":0,"outcome":"-10","keys":[2259.0549999149516],"total_keys":1,"block":1,"trial":48,"stimulus":0,"robot":4,"valence":"lose","action":"no-go","sham":0,"trial_type":"pit-trial","trial_index":93,"time_elapsed":736121,"internal_node_id":"0.0-55.0","task_version":"battery-v0.2-trt"},{"rune":"S","rune_set":"bacs1","hex":"#3366ff99","correct":-1,"choice":32,"rt":682.6000000583008,"accuracy":0,"outcome":"+1","keys":[2182.7650000341237],"total_keys":1,"block":1,"trial":49,"stimulus":5,"robot":2,"valence":"win","action":"no-go","sham":0,"trial_type":"pit-trial","trial_index":94,"time_elapsed":739509,"internal_node_id":"0.0-56.0","task_version":"battery-v0.2-trt"},{"rune":"K","rune_set":"bacs1","hex":"#3366ff99","correct":32,"choice":32,"rt":1039.1250000102445,"accuracy":1,"outcome":"+10","keys":[2540.6300000613555],"total_keys":1,"block":1,"trial":50,"stimulus":6,"robot":1,"valence":"win","action":"go","sham":0,"trial_type":"pit-trial","trial_index":95,"time_elapsed":743254,"internal_node_id":"0.0-57.0","task_version":"battery-v0.2-trt"},{"rune":"D","rune_set":"bacs1","hex":"#f73b6a7A","correct":-1,"choice":-1,"rt":-1,"accuracy":1,"outcome":"-1","keys":[],"total_keys":0,"block":1,"trial":51,"stimulus":7,"robot":4,"valence":"lose","action":"no-go","sham":0,"trial_type":"pit-trial","trial_index":96,"time_elapsed":747257,"internal_node_id":"0.0-58.0","task_version":"battery-v0.2-trt"},{"rune":"U","rune_set":"bacs1","hex":"#f73b6a7A","correct":32,"choice":32,"rt":675.1299999887124,"accuracy":1,"outcome":"-10","keys":[2175.344999996014],"total_keys":1,"block":1,"trial":52,"stimulus":4,"robot":3,"valence":"lose","action":"go","sham":1,"trial_type":"pit-trial","trial_index":97,"time_elapsed":750636,"internal_node_id":"0.0-59.0","task_version":"battery-v0.2-trt"},{"rune":"K","rune_set":"bacs1","hex":"#3366ff99","correct":32,"choice":32,"rt":517.8900000173599,"accuracy":1,"outcome":"+10","keys":[2018.3250000700355],"total_keys":1,"block":1,"trial":53,"stimulus":6,"robot":1,"valence":"win","action":"go","sham":0,"trial_type":"pit-trial","trial_index":98,"time_elapsed":753857,"internal_node_id":"0.0-60.0","task_version":"battery-v0.2-trt"},{"rune":"D","rune_set":"bacs1","hex":"#f73b6a7A","correct":-1,"choice":-1,"rt":-1,"accuracy":1,"outcome":"-1","keys":[],"total_keys":0,"block":1,"trial":54,"stimulus":7,"robot":4,"valence":"lose","action":"no-go","sham":0,"trial_type":"pit-trial","trial_index":99,"time_elapsed":757862,"internal_node_id":"0.0-61.0","task_version":"battery-v0.2-trt"},{"rune":"S","rune_set":"bacs1","hex":"#3366ff99","correct":-1,"choice":32,"rt":415.5950000276789,"accuracy":0,"outcome":"+1","keys":[1917.4000000348315],"total_keys":1,"block":1,"trial":55,"stimulus":5,"robot":2,"valence":"win","action":"no-go","sham":0,"trial_type":"pit-trial","trial_index":100,"time_elapsed":760981,"internal_node_id":"0.0-62.0","task_version":"battery-v0.2-trt"},{"rune":"U","rune_set":"bacs1","hex":"#f73b6a7A","correct":32,"choice":-1,"rt":-1,"accuracy":0,"outcome":"-1","keys":[],"total_keys":0,"block":1,"trial":56,"stimulus":4,"robot":3,"valence":"lose","action":"go","sham":1,"trial_type":"pit-trial","trial_index":101,"time_elapsed":765252,"internal_node_id":"0.0-63.0","task_version":"battery-v0.2-trt"},{"rune":"K","rune_set":"bacs1","hex":"#3366ff99","correct":32,"choice":-1,"rt":-1,"accuracy":0,"outcome":"+1","keys":[2834.540000068955],"total_keys":1,"block":1,"trial":57,"stimulus":6,"robot":1,"valence":"win","action":"go","sham":0,"trial_type":"pit-trial","trial_index":102,"time_elapsed":769257,"internal_node_id":"0.0-64.0","task_version":"battery-v0.2-trt"},{"rune":"S","rune_set":"bacs1","hex":"#3366ff99","correct":-1,"choice":-1,"rt":-1,"accuracy":1,"outcome":"+10","keys":[],"total_keys":0,"block":1,"trial":58,"stimulus":5,"robot":2,"valence":"win","action":"no-go","sham":0,"trial_type":"pit-trial","trial_index":103,"time_elapsed":773263,"internal_node_id":"0.0-65.0","task_version":"battery-v0.2-trt"},{"rune":"U","rune_set":"bacs1","hex":"#f73b6a7A","correct":32,"choice":-1,"rt":-1,"accuracy":0,"outcome":"-1","keys":[],"total_keys":0,"block":1,"trial":59,"stimulus":4,"robot":3,"valence":"lose","action":"go","sham":1,"trial_type":"pit-trial","trial_index":104,"time_elapsed":777270,"internal_node_id":"0.0-66.0","task_version":"battery-v0.2-trt"},{"rune":"D","rune_set":"bacs1","hex":"#f73b6a7A","correct":-1,"choice":32,"rt":460.10499994736165,"accuracy":0,"outcome":"-10","keys":[1960.7649999670684],"total_keys":1,"block":1,"trial":60,"stimulus":7,"robot":4,"valence":"lose","action":"no-go","sham":0,"trial_type":"pit-trial","trial_index":105,"time_elapsed":780434,"internal_node_id":"0.0-67.0","task_version":"battery-v0.2-trt"},{"rune":"S","rune_set":"bacs1","hex":"#3366ff99","correct":-1,"choice":-1,"rt":-1,"accuracy":1,"outcome":"+1","keys":[],"total_keys":0,"block":1,"trial":61,"stimulus":5,"robot":2,"valence":"win","action":"no-go","sham":1,"trial_type":"pit-trial","trial_index":106,"time_elapsed":784439,"internal_node_id":"0.0-68.0","task_version":"battery-v0.2-trt"},{"rune":"D","rune_set":"bacs1","hex":"#f73b6a7A","correct":-1,"choice":-1,"rt":-1,"accuracy":1,"outcome":"-1","keys":[],"total_keys":0,"block":1,"trial":62,"stimulus":7,"robot":4,"valence":"lose","action":"no-go","sham":0,"trial_type":"pit-trial","trial_index":107,"time_elapsed":788445,"internal_node_id":"0.0-69.0","task_version":"battery-v0.2-trt"},{"rune":"K","rune_set":"bacs1","hex":"#3366ff99","correct":32,"choice":32,"rt":613.0949999205768,"accuracy":1,"outcome":"+10","keys":[2113.9349999139085],"total_keys":1,"block":1,"trial":63,"stimulus":6,"robot":1,"valence":"win","action":"go","sham":0,"trial_type":"pit-trial","trial_index":108,"time_elapsed":791764,"internal_node_id":"0.0-70.0","task_version":"battery-v0.2-trt"},{"rune":"U","rune_set":"bacs1","hex":"#f73b6a7A","correct":32,"choice":-1,"rt":-1,"accuracy":0,"outcome":"-10","keys":[],"total_keys":0,"block":1,"trial":64,"stimulus":4,"robot":3,"valence":"lose","action":"go","sham":0,"trial_type":"pit-trial","trial_index":109,"time_elapsed":795769,"internal_node_id":"0.0-71.0","task_version":"battery-v0.2-trt"},{"rune":"U","rune_set":"bacs1","hex":"#f73b6a7A","correct":32,"choice":32,"rt":611.8299999507144,"accuracy":1,"outcome":"-1","keys":[2112.3749999096617],"total_keys":1,"block":1,"trial":65,"stimulus":4,"robot":3,"valence":"lose","action":"go","sham":0,"trial_type":"pit-trial","trial_index":110,"time_elapsed":799084,"internal_node_id":"0.0-72.0","task_version":"battery-v0.2-trt"},{"rune":"D","rune_set":"bacs1","hex":"#f73b6a7A","correct":-1,"choice":-1,"rt":-1,"accuracy":1,"outcome":"-1","keys":[],"total_keys":0,"block":1,"trial":66,"stimulus":7,"robot":4,"valence":"lose","action":"no-go","sham":0,"trial_type":"pit-trial","trial_index":111,"time_elapsed":803088,"internal_node_id":"0.0-73.0","task_version":"battery-v0.2-trt"},{"rune":"S","rune_set":"bacs1","hex":"#3366ff99","correct":-1,"choice":32,"rt":629.5099999988452,"accuracy":0,"outcome":"+1","keys":[2131.569999968633],"total_keys":1,"block":1,"trial":67,"stimulus":5,"robot":2,"valence":"win","action":"no-go","sham":0,"trial_type":"pit-trial","trial_index":112,"time_elapsed":806422,"internal_node_id":"0.0-74.0","task_version":"battery-v0.2-trt"},{"rune":"K","rune_set":"bacs1","hex":"#3366ff99","correct":32,"choice":32,"rt":717.2300000675023,"accuracy":1,"outcome":"+10","keys":[2218.405000050552],"total_keys":1,"block":1,"trial":68,"stimulus":6,"robot":1,"valence":"win","action":"go","sham":0,"trial_type":"pit-trial","trial_index":113,"time_elapsed":809843,"internal_node_id":"0.0-75.0","task_version":"battery-v0.2-trt"},{"rune":"U","rune_set":"bacs1","hex":"#f73b6a7A","correct":32,"choice":-1,"rt":-1,"accuracy":0,"outcome":"-10","keys":[],"total_keys":0,"block":1,"trial":69,"stimulus":4,"robot":3,"valence":"lose","action":"go","sham":0,"trial_type":"pit-trial","trial_index":114,"time_elapsed":813850,"internal_node_id":"0.0-76.0","task_version":"battery-v0.2-trt"},{"rune":"K","rune_set":"bacs1","hex":"#3366ff99","correct":32,"choice":32,"rt":558.214999968186,"accuracy":1,"outcome":"+10","keys":[2058.7750000413507],"total_keys":1,"block":1,"trial":70,"stimulus":6,"robot":1,"valence":"win","action":"go","sham":0,"trial_type":"pit-trial","trial_index":115,"time_elapsed":817112,"internal_node_id":"0.0-77.0","task_version":"battery-v0.2-trt"},{"rune":"D","rune_set":"bacs1","hex":"#f73b6a7A","correct":-1,"choice":32,"rt":834.7549999598414,"accuracy":0,"outcome":"-10","keys":[2335.644999984652],"total_keys":1,"block":1,"trial":71,"stimulus":7,"robot":4,"valence":"lose","action":"no-go","sham":0,"trial_type":"pit-trial","trial_index":116,"time_elapsed":820650,"internal_node_id":"0.0-78.0","task_version":"battery-v0.2-trt"},{"rune":"S","rune_set":"bacs1","hex":"#3366ff99","correct":-1,"choice":32,"rt":664.6549999713898,"accuracy":0,"outcome":"+1","keys":[2165.180000010878],"total_keys":1,"block":1,"trial":72,"stimulus":5,"robot":2,"valence":"win","action":"no-go","sham":0,"trial_type":"pit-trial","trial_index":117,"time_elapsed":824018,"internal_node_id":"0.0-79.0","task_version":"battery-v0.2-trt"},{"rune":"O","rune_set":"bacs1","hex":"#3366ff99","correct":32,"choice":32,"rt":796.6000000014901,"accuracy":1,"outcome":"+10","keys":[2298.6099999397993],"total_keys":1,"block":1,"trial":73,"stimulus":8,"robot":1,"valence":"win","action":"go","sham":0,"trial_type":"pit-trial","trial_index":118,"time_elapsed":827521,"internal_node_id":"0.0-80.0","task_version":"battery-v0.2-trt"},{"rune":"I","rune_set":"bacs1","hex":"#f73b6a7A","correct":32,"choice":-1,"rt":-1,"accuracy":0,"outcome":"-10","keys":[],"total_keys":0,"block":1,"trial":74,"stimulus":9,"robot":3,"valence":"lose","action":"go","sham":0,"trial_type":"pit-trial","trial_index":119,"time_elapsed":831524,"internal_node_id":"0.0-81.0","task_version":"battery-v0.2-trt"},{"rune":"S","rune_set":"bacs1","hex":"#3366ff99","correct":-1,"choice":32,"rt":790.7150000100955,"accuracy":0,"outcome":"+1","keys":[2291.0599999595433],"total_keys":1,"block":1,"trial":75,"stimulus":5,"robot":2,"valence":"win","action":"no-go","sham":0,"trial_type":"pit-trial","trial_index":120,"time_elapsed":835018,"internal_node_id":"0.0-82.0","task_version":"battery-v0.2-trt"},{"rune":"D","rune_set":"bacs1","hex":"#f73b6a7A","correct":-1,"choice":-1,"rt":-1,"accuracy":1,"outcome":"-1","keys":[],"total_keys":0,"block":1,"trial":76,"stimulus":7,"robot":4,"valence":"lose","action":"no-go","sham":0,"trial_type":"pit-trial","trial_index":121,"time_elapsed":839024,"internal_node_id":"0.0-83.0","task_version":"battery-v0.2-trt"},{"rune":"D","rune_set":"bacs1","hex":"#f73b6a7A","correct":-1,"choice":-1,"rt":-1,"accuracy":1,"outcome":"-10","keys":[],"total_keys":0,"block":1,"trial":77,"stimulus":7,"robot":4,"valence":"lose","action":"no-go","sham":1,"trial_type":"pit-trial","trial_index":122,"time_elapsed":843031,"internal_node_id":"0.0-84.0","task_version":"battery-v0.2-trt"},{"rune":"O","rune_set":"bacs1","hex":"#3366ff99","correct":32,"choice":32,"rt":845.9649999858811,"accuracy":1,"outcome":"+10","keys":[2347.9150000493973],"total_keys":1,"block":1,"trial":78,"stimulus":8,"robot":1,"valence":"win","action":"go","sham":0,"trial_type":"pit-trial","trial_index":123,"time_elapsed":846584,"internal_node_id":"0.0-85.0","task_version":"battery-v0.2-trt"},{"rune":"I","rune_set":"bacs1","hex":"#f73b6a7A","correct":32,"choice":32,"rt":780.0950000528246,"accuracy":1,"outcome":"-10","keys":[2280.559999984689],"total_keys":1,"block":1,"trial":79,"stimulus":9,"robot":3,"valence":"lose","action":"go","sham":1,"trial_type":"pit-trial","trial_index":124,"time_elapsed":850068,"internal_node_id":"0.0-86.0","task_version":"battery-v0.2-trt"},{"rune":"S","rune_set":"bacs1","hex":"#3366ff99","correct":-1,"choice":32,"rt":682.4450000422075,"accuracy":0,"outcome":"+1","keys":[2183.614999987185],"total_keys":1,"block":1,"trial":80,"stimulus":5,"robot":2,"valence":"win","action":"no-go","sham":0,"trial_type":"pit-trial","trial_index":125,"time_elapsed":853456,"internal_node_id":"0.0-87.0","task_version":"battery-v0.2-trt"},{"rune":"O","rune_set":"bacs1","hex":"#3366ff99","correct":32,"choice":32,"rt":518.7500000465661,"accuracy":1,"outcome":"+10","keys":[2020.409999997355],"total_keys":1,"block":1,"trial":81,"stimulus":8,"robot":1,"valence":"win","action":"go","sham":0,"trial_type":"pit-trial","trial_index":126,"time_elapsed":856680,"internal_node_id":"0.0-88.0","task_version":"battery-v0.2-trt"},{"rune":"D","rune_set":"bacs1","hex":"#f73b6a7A","correct":-1,"choice":-1,"rt":-1,"accuracy":1,"outcome":"-1","keys":[],"total_keys":0,"block":1,"trial":82,"stimulus":7,"robot":4,"valence":"lose","action":"no-go","sham":0,"trial_type":"pit-trial","trial_index":127,"time_elapsed":860686,"internal_node_id":"0.0-89.0","task_version":"battery-v0.2-trt"},{"rune":"I","rune_set":"bacs1","hex":"#f73b6a7A","correct":32,"choice":32,"rt":784.7649999894202,"accuracy":1,"outcome":"-1","keys":[2285.050000064075],"total_keys":1,"block":1,"trial":83,"stimulus":9,"robot":3,"valence":"lose","action":"go","sham":0,"trial_type":"pit-trial","trial_index":128,"time_elapsed":864174,"internal_node_id":"0.0-90.0","task_version":"battery-v0.2-trt"},{"rune":"S","rune_set":"bacs1","hex":"#3366ff99","correct":-1,"choice":-1,"rt":-1,"accuracy":1,"outcome":"+10","keys":[],"total_keys":0,"block":1,"trial":84,"stimulus":5,"robot":2,"valence":"win","action":"no-go","sham":0,"trial_type":"pit-trial","trial_index":129,"time_elapsed":868179,"internal_node_id":"0.0-91.0","task_version":"battery-v0.2-trt"},{"rune":"D","rune_set":"bacs1","hex":"#f73b6a7A","correct":-1,"choice":-1,"rt":-1,"accuracy":1,"outcome":"-1","keys":[],"total_keys":0,"block":1,"trial":85,"stimulus":7,"robot":4,"valence":"lose","action":"no-go","sham":0,"trial_type":"pit-trial","trial_index":130,"time_elapsed":872185,"internal_node_id":"0.0-92.0","task_version":"battery-v0.2-trt"},{"rune":"O","rune_set":"bacs1","hex":"#3366ff99","correct":32,"choice":32,"rt":995.0899999821559,"accuracy":1,"outcome":"+10","keys":[2495.645000017248],"total_keys":1,"block":1,"trial":86,"stimulus":8,"robot":1,"valence":"win","action":"go","sham":0,"trial_type":"pit-trial","trial_index":131,"time_elapsed":875885,"internal_node_id":"0.0-93.0","task_version":"battery-v0.2-trt"},{"rune":"S","rune_set":"bacs1","hex":"#3366ff99","correct":-1,"choice":-1,"rt":-1,"accuracy":1,"outcome":"+10","keys":[],"total_keys":0,"block":1,"trial":87,"stimulus":5,"robot":2,"valence":"win","action":"no-go","sham":0,"trial_type":"pit-trial","trial_index":132,"time_elapsed":879889,"internal_node_id":"0.0-94.0","task_version":"battery-v0.2-trt"},{"rune":"I","rune_set":"bacs1","hex":"#f73b6a7A","correct":32,"choice":32,"rt":515.3849999187514,"accuracy":1,"outcome":"-1","keys":[2017.1400000108406],"total_keys":1,"block":1,"trial":88,"stimulus":9,"robot":3,"valence":"lose","action":"go","sham":0,"trial_type":"pit-trial","trial_index":133,"time_elapsed":883108,"internal_node_id":"0.0-95.0","task_version":"battery-v0.2-trt"},{"rune":"I","rune_set":"bacs1","hex":"#f73b6a7A","correct":32,"choice":-1,"rt":-1,"accuracy":0,"outcome":"-10","keys":[],"total_keys":0,"block":1,"trial":89,"stimulus":9,"robot":3,"valence":"lose","action":"go","sham":0,"trial_type":"pit-trial","trial_index":134,"time_elapsed":887112,"internal_node_id":"0.0-96.0","task_version":"battery-v0.2-trt"},{"rune":"O","rune_set":"bacs1","hex":"#3366ff99","correct":32,"choice":32,"rt":946.9800000078976,"accuracy":1,"outcome":"+1","keys":[2448.4850000590086],"total_keys":1,"block":1,"trial":90,"stimulus":8,"robot":1,"valence":"win","action":"go","sham":1,"trial_type":"pit-trial","trial_index":135,"time_elapsed":890763,"internal_node_id":"0.0-97.0","task_version":"battery-v0.2-trt"},{"rune":"G","rune_set":"bacs1","hex":"#f73b6a7A","correct":32,"choice":-1,"rt":-1,"accuracy":0,"outcome":"-1","keys":[],"total_keys":0,"block":1,"trial":91,"stimulus":10,"robot":3,"valence":"lose","action":"go","sham":1,"trial_type":"pit-trial","trial_index":136,"time_elapsed":894769,"internal_node_id":"0.0-98.0","task_version":"battery-v0.2-trt"},{"rune":"N","rune_set":"bacs1","hex":"#3366ff99","correct":-1,"choice":32,"rt":665.7300000078976,"accuracy":0,"outcome":"+1","keys":[2167.0950000407174],"total_keys":1,"block":1,"trial":92,"stimulus":11,"robot":2,"valence":"win","action":"no-go","sham":0,"trial_type":"pit-trial","trial_index":137,"time_elapsed":898142,"internal_node_id":"0.0-99.0","task_version":"battery-v0.2-trt"},{"rune":"G","rune_set":"bacs1","hex":"#f73b6a7A","correct":32,"choice":-1,"rt":-1,"accuracy":0,"outcome":"-10","keys":[],"total_keys":0,"block":1,"trial":93,"stimulus":10,"robot":3,"valence":"lose","action":"go","sham":0,"trial_type":"pit-trial","trial_index":138,"time_elapsed":902147,"internal_node_id":"0.0-100.0","task_version":"battery-v0.2-trt"},{"rune":"O","rune_set":"bacs1","hex":"#3366ff99","correct":32,"choice":32,"rt":1266.79999998305,"accuracy":1,"outcome":"+10","keys":[2767.9650000063702],"total_keys":1,"block":1,"trial":94,"stimulus":8,"robot":1,"valence":"win","action":"go","sham":0,"trial_type":"pit-trial","trial_index":139,"time_elapsed":906120,"internal_node_id":"0.0-101.0","task_version":"battery-v0.2-trt"},{"rune":"N","rune_set":"bacs1","hex":"#3366ff99","correct":-1,"choice":-1,"rt":-1,"accuracy":1,"outcome":"+1","keys":[],"total_keys":0,"block":1,"trial":95,"stimulus":11,"robot":2,"valence":"win","action":"no-go","sham":1,"trial_type":"pit-trial","trial_index":140,"time_elapsed":910122,"internal_node_id":"0.0-102.0","task_version":"battery-v0.2-trt"},{"rune":"I","rune_set":"bacs1","hex":"#f73b6a7A","correct":32,"choice":32,"rt":582.6700000325218,"accuracy":1,"outcome":"-1","keys":[2084.37000005506],"total_keys":1,"block":1,"trial":96,"stimulus":9,"robot":3,"valence":"lose","action":"go","sham":0,"trial_type":"pit-trial","trial_index":141,"time_elapsed":913411,"internal_node_id":"0.0-103.0","task_version":"battery-v0.2-trt"},{"rune":"N","rune_set":"bacs1","hex":"#3366ff99","correct":-1,"choice":-1,"rt":-1,"accuracy":1,"outcome":"+1","keys":[],"total_keys":0,"block":1,"trial":97,"stimulus":11,"robot":2,"valence":"win","action":"no-go","sham":1,"trial_type":"pit-trial","trial_index":142,"time_elapsed":917415,"internal_node_id":"0.0-104.0","task_version":"battery-v0.2-trt"},{"rune":"O","rune_set":"bacs1","hex":"#3366ff99","correct":32,"choice":32,"rt":577.0850001135841,"accuracy":1,"outcome":"+10","keys":[2077.324999962002],"total_keys":1,"block":1,"trial":98,"stimulus":8,"robot":1,"valence":"win","action":"go","sham":0,"trial_type":"pit-trial","trial_index":143,"time_elapsed":920697,"internal_node_id":"0.0-105.0","task_version":"battery-v0.2-trt"},{"rune":"I","rune_set":"bacs1","hex":"#f73b6a7A","correct":32,"choice":32,"rt":763.8799999840558,"accuracy":1,"outcome":"-1","keys":[2264.3849999876693],"total_keys":1,"block":1,"trial":99,"stimulus":9,"robot":3,"valence":"lose","action":"go","sham":0,"trial_type":"pit-trial","trial_index":144,"time_elapsed":924252,"internal_node_id":"0.0-106.0","task_version":"battery-v0.2-trt"},{"rune":"G","rune_set":"bacs1","hex":"#f73b6a7A","correct":32,"choice":-1,"rt":-1,"accuracy":0,"outcome":"-1","keys":[],"total_keys":0,"block":1,"trial":100,"stimulus":10,"robot":3,"valence":"lose","action":"go","sham":1,"trial_type":"pit-trial","trial_index":145,"time_elapsed":928454,"internal_node_id":"0.0-107.0","task_version":"battery-v0.2-trt"},{"rune":"O","rune_set":"bacs1","hex":"#3366ff99","correct":32,"choice":32,"rt":318.33000003825873,"accuracy":1,"outcome":"+10","keys":[1819.8150000534952],"total_keys":1,"block":1,"trial":101,"stimulus":8,"robot":1,"valence":"win","action":"go","sham":0,"trial_type":"pit-trial","trial_index":146,"time_elapsed":931477,"internal_node_id":"0.0-108.0","task_version":"battery-v0.2-trt"},{"rune":"N","rune_set":"bacs1","hex":"#3366ff99","correct":-1,"choice":-1,"rt":-1,"accuracy":1,"outcome":"+10","keys":[],"total_keys":0,"block":1,"trial":102,"stimulus":11,"robot":2,"valence":"win","action":"no-go","sham":0,"trial_type":"pit-trial","trial_index":147,"time_elapsed":935482,"internal_node_id":"0.0-109.0","task_version":"battery-v0.2-trt"},{"rune":"G","rune_set":"bacs1","hex":"#f73b6a7A","correct":32,"choice":-1,"rt":-1,"accuracy":0,"outcome":"-10","keys":[],"total_keys":0,"block":1,"trial":103,"stimulus":10,"robot":3,"valence":"lose","action":"go","sham":0,"trial_type":"pit-trial","trial_index":148,"time_elapsed":939486,"internal_node_id":"0.0-110.0","task_version":"battery-v0.2-trt"},{"rune":"I","rune_set":"bacs1","hex":"#f73b6a7A","correct":32,"choice":-1,"rt":-1,"accuracy":0,"outcome":"-10","keys":[],"total_keys":0,"block":1,"trial":104,"stimulus":9,"robot":3,"valence":"lose","action":"go","sham":0,"trial_type":"pit-trial","trial_index":149,"time_elapsed":943490,"internal_node_id":"0.0-111.0","task_version":"battery-v0.2-trt"},{"rune":"N","rune_set":"bacs1","hex":"#3366ff99","correct":-1,"choice":32,"rt":511.9999999878928,"accuracy":0,"outcome":"+10","keys":[2013.6300000594929],"total_keys":1,"block":1,"trial":105,"stimulus":11,"robot":2,"valence":"win","action":"no-go","sham":1,"trial_type":"pit-trial","trial_index":150,"time_elapsed":946707,"internal_node_id":"0.0-112.0","task_version":"battery-v0.2-trt"},{"rune":"G","rune_set":"bacs1","hex":"#f73b6a7A","correct":32,"choice":32,"rt":1167.1299999579787,"accuracy":1,"outcome":"-1","keys":[2668.195000034757],"total_keys":1,"block":1,"trial":106,"stimulus":10,"robot":3,"valence":"lose","action":"go","sham":0,"trial_type":"pit-trial","trial_index":151,"time_elapsed":950578,"internal_node_id":"0.0-113.0","task_version":"battery-v0.2-trt"},{"rune":"O","rune_set":"bacs1","hex":"#3366ff99","correct":32,"choice":-1,"rt":-1,"accuracy":0,"outcome":"+1","keys":[],"total_keys":0,"block":1,"trial":107,"stimulus":8,"robot":1,"valence":"win","action":"go","sham":0,"trial_type":"pit-trial","trial_index":152,"time_elapsed":954583,"internal_node_id":"0.0-114.0","task_version":"battery-v0.2-trt"},{"rune":"I","rune_set":"bacs1","hex":"#f73b6a7A","correct":32,"choice":32,"rt":598.4200000530109,"accuracy":1,"outcome":"-1","keys":[2098.920000018552],"total_keys":1,"block":1,"trial":108,"stimulus":9,"robot":3,"valence":"lose","action":"go","sham":0,"trial_type":"pit-trial","trial_index":153,"time_elapsed":957885,"internal_node_id":"0.0-115.0","task_version":"battery-v0.2-trt"},{"rune":"N","rune_set":"bacs1","hex":"#3366ff99","correct":-1,"choice":-1,"rt":-1,"accuracy":1,"outcome":"+10","keys":[],"total_keys":0,"block":1,"trial":109,"stimulus":11,"robot":2,"valence":"win","action":"no-go","sham":0,"trial_type":"pit-trial","trial_index":154,"time_elapsed":961891,"internal_node_id":"0.0-116.0","task_version":"battery-v0.2-trt"},{"rune":"G","rune_set":"bacs1","hex":"#f73b6a7A","correct":32,"choice":32,"rt":445.075000054203,"accuracy":1,"outcome":"-1","keys":[1947.044999920763],"total_keys":1,"block":1,"trial":110,"stimulus":10,"robot":3,"valence":"lose","action":"go","sham":0,"trial_type":"pit-trial","trial_index":155,"time_elapsed":965043,"internal_node_id":"0.0-117.0","task_version":"battery-v0.2-trt"},{"rune":"I","rune_set":"bacs1","hex":"#f73b6a7A","correct":32,"choice":32,"rt":574.6750000398606,"accuracy":1,"outcome":"-1","keys":[2074.9599999981],"total_keys":1,"block":1,"trial":111,"stimulus":9,"robot":3,"valence":"lose","action":"go","sham":0,"trial_type":"pit-trial","trial_index":156,"time_elapsed":968323,"internal_node_id":"0.0-118.0","task_version":"battery-v0.2-trt"},{"rune":"O","rune_set":"bacs1","hex":"#3366ff99","correct":32,"choice":-1,"rt":-1,"accuracy":0,"outcome":"+1","keys":[],"total_keys":0,"block":1,"trial":112,"stimulus":8,"robot":1,"valence":"win","action":"go","sham":0,"trial_type":"pit-trial","trial_index":157,"time_elapsed":972328,"internal_node_id":"0.0-119.0","task_version":"battery-v0.2-trt"},{"rune":"G","rune_set":"bacs1","hex":"#f73b6a7A","correct":32,"choice":-1,"rt":-1,"accuracy":0,"outcome":"-10","keys":[],"total_keys":0,"block":1,"trial":113,"stimulus":10,"robot":3,"valence":"lose","action":"go","sham":0,"trial_type":"pit-trial","trial_index":158,"time_elapsed":976331,"internal_node_id":"0.0-120.0","task_version":"battery-v0.2-trt"},{"rune":"N","rune_set":"bacs1","hex":"#3366ff99","correct":-1,"choice":32,"rt":1246.3299999944866,"accuracy":0,"outcome":"+1","keys":[2746.860000072047],"total_keys":1,"block":1,"trial":114,"stimulus":11,"robot":2,"valence":"win","action":"no-go","sham":0,"trial_type":"pit-trial","trial_index":159,"time_elapsed":980289,"internal_node_id":"0.0-121.0","task_version":"battery-v0.2-trt"},{"rune":"I","rune_set":"bacs1","hex":"#f73b6a7A","correct":32,"choice":32,"rt":883.0599999055266,"accuracy":1,"outcome":"-10","keys":[2383.685000007972],"total_keys":1,"block":1,"trial":115,"stimulus":9,"robot":3,"valence":"lose","action":"go","sham":1,"trial_type":"pit-trial","trial_index":160,"time_elapsed":983878,"internal_node_id":"0.0-122.0","task_version":"battery-v0.2-trt"},{"rune":"O","rune_set":"bacs1","hex":"#3366ff99","correct":32,"choice":32,"rt":1143.610000028275,"accuracy":1,"outcome":"+10","keys":[2645.4599999124184],"total_keys":1,"block":1,"trial":116,"stimulus":8,"robot":1,"valence":"win","action":"go","sham":0,"trial_type":"pit-trial","trial_index":161,"time_elapsed":987725,"internal_node_id":"0.0-123.0","task_version":"battery-v0.2-trt"},{"rune":"G","rune_set":"bacs1","hex":"#f73b6a7A","correct":32,"choice":-1,"rt":-1,"accuracy":0,"outcome":"-1","keys":[],"total_keys":0,"block":1,"trial":117,"stimulus":10,"robot":3,"valence":"lose","action":"go","sham":1,"trial_type":"pit-trial","trial_index":162,"time_elapsed":991728,"internal_node_id":"0.0-124.0","task_version":"battery-v0.2-trt"},{"rune":"I","rune_set":"bacs1","hex":"#f73b6a7A","correct":32,"choice":-1,"rt":-1,"accuracy":0,"outcome":"-1","keys":[],"total_keys":0,"block":1,"trial":118,"stimulus":9,"robot":3,"valence":"lose","action":"go","sham":1,"trial_type":"pit-trial","trial_index":163,"time_elapsed":995733,"internal_node_id":"0.0-125.0","task_version":"battery-v0.2-trt"},{"rune":"N","rune_set":"bacs1","hex":"#3366ff99","correct":-1,"choice":32,"rt":205.79999999608845,"accuracy":0,"outcome":"+1","keys":[1705.9000000590459],"total_keys":1,"block":1,"trial":119,"stimulus":11,"robot":2,"valence":"win","action":"no-go","sham":0,"trial_type":"pit-trial","trial_index":164,"time_elapsed":998643,"internal_node_id":"0.0-126.0","task_version":"battery-v0.2-trt"},{"rune":"O","rune_set":"bacs1","hex":"#3366ff99","correct":32,"choice":-1,"rt":-1,"accuracy":0,"outcome":"+1","keys":[],"total_keys":0,"block":1,"trial":120,"stimulus":8,"robot":1,"valence":"win","action":"go","sham":0,"trial_type":"pit-trial","trial_index":165,"time_elapsed":1002646,"internal_node_id":"0.0-127.0","task_version":"battery-v0.2-trt"},{"view_history":"[{\"page_index\":0,\"viewing_time\":4589.189999969676},{\"page_index\":1,\"viewing_time\":1524.100000038743}]","rt":6113.580000004731,"trial_type":"pit-instructions","trial_index":166,"time_elapsed":1008760,"internal_node_id":"0.0-128.0","task_version":"battery-v0.2-trt"},{"rune":"C","rune_set":"bacs1","hex":"#f73b6a7A","correct":-1,"choice":32,"rt":15.420000068843365,"accuracy":0,"outcome":"-10","keys":[1515.5800000065938],"total_keys":1,"block":2,"trial":121,"stimulus":2,"robot":4,"valence":"lose","action":"no-go","sham":0,"trial_type":"pit-trial","trial_index":167,"time_elapsed":1011479,"internal_node_id":"0.0-129.0","task_version":"battery-v0.2-trt"},{"rune":"Q","rune_set":"bacs1","hex":"#3366ff99","correct":-1,"choice":32,"rt":667.8550000069663,"accuracy":0,"outcome":"+10","keys":[2168.140000081621],"total_keys":1,"block":2,"trial":122,"stimulus":0,"robot":2,"valence":"win","action":"no-go","sham":1,"trial_type":"pit-trial","trial_index":168,"time_elapsed":1014850,"internal_node_id":"0.0-130.0","task_version":"battery-v0.2-trt"},{"rune":"A","rune_set":"bacs1","hex":"#3366ff99","correct":32,"choice":32,"rt":626.6400000313297,"accuracy":1,"outcome":"+10","keys":[2126.8050000071526],"total_keys":1,"block":2,"trial":123,"stimulus":3,"robot":1,"valence":"win","action":"go","sham":0,"trial_type":"pit-trial","trial_index":169,"time_elapsed":1018180,"internal_node_id":"0.0-131.0","task_version":"battery-v0.2-trt"},{"rune":"L","rune_set":"bacs1","hex":"#3366ff99","correct":32,"choice":32,"rt":548.86500001885,"accuracy":1,"outcome":"+10","keys":[2049.845000030473],"total_keys":1,"block":2,"trial":124,"stimulus":1,"robot":1,"valence":"win","action":"go","sham":0,"trial_type":"pit-trial","trial_index":170,"time_elapsed":1021435,"internal_node_id":"0.0-132.0","task_version":"battery-v0.2-trt"},{"rune":"C","rune_set":"bacs1","hex":"#f73b6a7A","correct":-1,"choice":-1,"rt":-1,"accuracy":1,"outcome":"-10","keys":[],"total_keys":0,"block":2,"trial":125,"stimulus":2,"robot":4,"valence":"lose","action":"no-go","sham":1,"trial_type":"pit-trial","trial_index":171,"time_elapsed":1025440,"internal_node_id":"0.0-133.0","task_version":"battery-v0.2-trt"},{"rune":"A","rune_set":"bacs1","hex":"#3366ff99","correct":32,"choice":32,"rt":588.4300000034273,"accuracy":1,"outcome":"+1","keys":[2088.960000080988],"total_keys":1,"block":2,"trial":126,"stimulus":3,"robot":1,"valence":"win","action":"go","sham":1,"trial_type":"pit-trial","trial_index":172,"time_elapsed":1028734,"internal_node_id":"0.0-134.0","task_version":"battery-v0.2-trt"},{"rune":"L","rune_set":"bacs1","hex":"#3366ff99","correct":32,"choice":32,"rt":882.6300000073388,"accuracy":1,"outcome":"+1","keys":[2383.674999931827],"total_keys":1,"block":2,"trial":127,"stimulus":1,"robot":1,"valence":"win","action":"go","sham":1,"trial_type":"pit-trial","trial_index":173,"time_elapsed":1032323,"internal_node_id":"0.0-135.0","task_version":"battery-v0.2-trt"},{"rune":"Q","rune_set":"bacs1","hex":"#3366ff99","correct":-1,"choice":-1,"rt":-1,"accuracy":1,"outcome":"+10","keys":[],"total_keys":0,"block":2,"trial":128,"stimulus":0,"robot":2,"valence":"win","action":"no-go","sham":0,"trial_type":"pit-trial","trial_index":174,"time_elapsed":1036329,"internal_node_id":"0.0-136.0","task_version":"battery-v0.2-trt"},{"rune":"A","rune_set":"bacs1","hex":"#3366ff99","correct":32,"choice":32,"rt":566.8200000654906,"accuracy":1,"outcome":"+1","keys":[2067.6900000544265],"total_keys":1,"block":2,"trial":129,"stimulus":3,"robot":1,"valence":"win","action":"go","sham":1,"trial_type":"pit-trial","trial_index":175,"time_elapsed":1039599,"internal_node_id":"0.0-137.0","task_version":"battery-v0.2-trt"},{"rune":"C","rune_set":"bacs1","hex":"#f73b6a7A","correct":-1,"choice":-1,"rt":-1,"accuracy":1,"outcome":"-1","keys":[],"total_keys":0,"block":2,"trial":130,"stimulus":2,"robot":4,"valence":"lose","action":"no-go","sham":0,"trial_type":"pit-trial","trial_index":176,"time_elapsed":1043602,"internal_node_id":"0.0-138.0","task_version":"battery-v0.2-trt"},{"rune":"L","rune_set":"bacs1","hex":"#3366ff99","correct":32,"choice":32,"rt":819.3399999290705,"accuracy":1,"outcome":"+10","keys":[2321.460000006482],"total_keys":1,"block":2,"trial":131,"stimulus":1,"robot":1,"valence":"win","action":"go","sham":0,"trial_type":"pit-trial","trial_index":177,"time_elapsed":1047127,"internal_node_id":"0.0-139.0","task_version":"battery-v0.2-trt"},{"rune":"Q","rune_set":"bacs1","hex":"#3366ff99","correct":-1,"choice":-1,"rt":-1,"accuracy":1,"outcome":"+1","keys":[],"total_keys":0,"block":2,"trial":132,"stimulus":0,"robot":2,"valence":"win","action":"no-go","sham":1,"trial_type":"pit-trial","trial_index":178,"time_elapsed":1051133,"internal_node_id":"0.0-140.0","task_version":"battery-v0.2-trt"},{"rune":"L","rune_set":"bacs1","hex":"#3366ff99","correct":32,"choice":32,"rt":376.2550000101328,"accuracy":1,"outcome":"+10","keys":[1877.284999936819],"total_keys":1,"block":2,"trial":133,"stimulus":1,"robot":1,"valence":"win","action":"go","sham":0,"trial_type":"pit-trial","trial_index":179,"time_elapsed":1054215,"internal_node_id":"0.0-141.0","task_version":"battery-v0.2-trt"},{"rune":"Q","rune_set":"bacs1","hex":"#3366ff99","correct":-1,"choice":32,"rt":1075.2300000749528,"accuracy":0,"outcome":"+1","keys":[2576.200000010431],"total_keys":1,"block":2,"trial":134,"stimulus":0,"robot":2,"valence":"win","action":"no-go","sham":0,"trial_type":"pit-trial","trial_index":180,"time_elapsed":1057995,"internal_node_id":"0.0-142.0","task_version":"battery-v0.2-trt"},{"rune":"C","rune_set":"bacs1","hex":"#f73b6a7A","correct":-1,"choice":-1,"rt":-1,"accuracy":1,"outcome":"-1","keys":[],"total_keys":0,"block":2,"trial":135,"stimulus":2,"robot":4,"valence":"lose","action":"no-go","sham":0,"trial_type":"pit-trial","trial_index":181,"time_elapsed":1061997,"internal_node_id":"0.0-143.0","task_version":"battery-v0.2-trt"},{"rune":"A","rune_set":"bacs1","hex":"#3366ff99","correct":32,"choice":32,"rt":932.2599999140948,"accuracy":1,"outcome":"+10","keys":[2433.8449999922886],"total_keys":1,"block":2,"trial":136,"stimulus":3,"robot":1,"valence":"win","action":"go","sham":0,"trial_type":"pit-trial","trial_index":182,"time_elapsed":1065634,"internal_node_id":"0.0-144.0","task_version":"battery-v0.2-trt"},{"rune":"L","rune_set":"bacs1","hex":"#3366ff99","correct":32,"choice":-1,"rt":-1,"accuracy":0,"outcome":"+10","keys":[],"total_keys":0,"block":2,"trial":137,"stimulus":1,"robot":1,"valence":"win","action":"go","sham":1,"trial_type":"pit-trial","trial_index":183,"time_elapsed":1069639,"internal_node_id":"0.0-145.0","task_version":"battery-v0.2-trt"},{"rune":"C","rune_set":"bacs1","hex":"#f73b6a7A","correct":-1,"choice":-1,"rt":-1,"accuracy":1,"outcome":"-10","keys":[],"total_keys":0,"block":2,"trial":138,"stimulus":2,"robot":4,"valence":"lose","action":"no-go","sham":1,"trial_type":"pit-trial","trial_index":184,"time_elapsed":1073643,"internal_node_id":"0.0-146.0","task_version":"battery-v0.2-trt"},{"rune":"A","rune_set":"bacs1","hex":"#3366ff99","correct":32,"choice":32,"rt":536.1249999841675,"accuracy":1,"outcome":"+10","keys":[2037.3949999921024],"total_keys":1,"block":2,"trial":139,"stimulus":3,"robot":1,"valence":"win","action":"go","sham":0,"trial_type":"pit-trial","trial_index":185,"time_elapsed":1076885,"internal_node_id":"0.0-147.0","task_version":"battery-v0.2-trt"},{"rune":"Q","rune_set":"bacs1","hex":"#3366ff99","correct":-1,"choice":-1,"rt":-1,"accuracy":1,"outcome":"+1","keys":[],"total_keys":0,"block":2,"trial":140,"stimulus":0,"robot":2,"valence":"win","action":"no-go","sham":1,"trial_type":"pit-trial","trial_index":186,"time_elapsed":1080892,"internal_node_id":"0.0-148.0","task_version":"battery-v0.2-trt"},{"rune":"Q","rune_set":"bacs1","hex":"#3366ff99","correct":-1,"choice":32,"rt":1096.129999961704,"accuracy":0,"outcome":"+10","keys":[2597.0499999821186],"total_keys":1,"block":2,"trial":141,"stimulus":0,"robot":2,"valence":"win","action":"no-go","sham":1,"trial_type":"pit-trial","trial_index":187,"time_elapsed":1084694,"internal_node_id":"0.0-149.0","task_version":"battery-v0.2-trt"},{"rune":"A","rune_set":"bacs1","hex":"#3366ff99","correct":32,"choice":-1,"rt":-1,"accuracy":0,"outcome":"+1","keys":[2830.879999906756],"total_keys":1,"block":2,"trial":142,"stimulus":3,"robot":1,"valence":"win","action":"go","sham":0,"trial_type":"pit-trial","trial_index":188,"time_elapsed":1088699,"internal_node_id":"0.0-150.0","task_version":"battery-v0.2-trt"},{"rune":"C","rune_set":"bacs1","hex":"#f73b6a7A","correct":-1,"choice":-1,"rt":-1,"accuracy":1,"outcome":"-1","keys":[],"total_keys":0,"block":2,"trial":143,"stimulus":2,"robot":4,"valence":"lose","action":"no-go","sham":0,"trial_type":"pit-trial","trial_index":189,"time_elapsed":1092702,"internal_node_id":"0.0-151.0","task_version":"battery-v0.2-trt"},{"rune":"L","rune_set":"bacs1","hex":"#3366ff99","correct":32,"choice":32,"rt":698.3599999221042,"accuracy":1,"outcome":"+10","keys":[2199.3700000457466],"total_keys":1,"block":2,"trial":144,"stimulus":1,"robot":1,"valence":"win","action":"go","sham":0,"trial_type":"pit-trial","trial_index":190,"time_elapsed":1096104,"internal_node_id":"0.0-152.0","task_version":"battery-v0.2-trt"},{"rune":"A","rune_set":"bacs1","hex":"#3366ff99","correct":32,"choice":-1,"rt":-1,"accuracy":0,"outcome":"+1","keys":[3007.149999961257],"total_keys":1,"block":2,"trial":145,"stimulus":3,"robot":1,"valence":"win","action":"go","sham":0,"trial_type":"pit-trial","trial_index":191,"time_elapsed":1100108,"internal_node_id":"0.0-153.0","task_version":"battery-v0.2-trt"},{"rune":"L","rune_set":"bacs1","hex":"#3366ff99","correct":32,"choice":32,"rt":833.0700000515208,"accuracy":1,"outcome":"+10","keys":[2334.1350000118837],"total_keys":1,"block":2,"trial":146,"stimulus":1,"robot":1,"valence":"win","action":"go","sham":0,"trial_type":"pit-trial","trial_index":192,"time_elapsed":1103647,"internal_node_id":"0.0-154.0","task_version":"battery-v0.2-trt"},{"rune":"C","rune_set":"bacs1","hex":"#f73b6a7A","correct":-1,"choice":-1,"rt":-1,"accuracy":1,"outcome":"-1","keys":[],"total_keys":0,"block":2,"trial":147,"stimulus":2,"robot":4,"valence":"lose","action":"no-go","sham":0,"trial_type":"pit-trial","trial_index":193,"time_elapsed":1107652,"internal_node_id":"0.0-155.0","task_version":"battery-v0.2-trt"},{"rune":"Q","rune_set":"bacs1","hex":"#3366ff99","correct":-1,"choice":32,"rt":464.98500008601695,"accuracy":0,"outcome":"+1","keys":[1966.0150000127032],"total_keys":1,"block":2,"trial":148,"stimulus":0,"robot":2,"valence":"win","action":"no-go","sham":0,"trial_type":"pit-trial","trial_index":194,"time_elapsed":1110822,"internal_node_id":"0.0-156.0","task_version":"battery-v0.2-trt"},{"rune":"A","rune_set":"bacs1","hex":"#3366ff99","correct":32,"choice":-1,"rt":-1,"accuracy":0,"outcome":"+10","keys":[2870.729999965988],"total_keys":1,"block":2,"trial":149,"stimulus":3,"robot":1,"valence":"win","action":"go","sham":1,"trial_type":"pit-trial","trial_index":195,"time_elapsed":1114827,"internal_node_id":"0.0-157.0","task_version":"battery-v0.2-trt"},{"rune":"C","rune_set":"bacs1","hex":"#f73b6a7A","correct":-1,"choice":-1,"rt":-1,"accuracy":1,"outcome":"-1","keys":[],"total_keys":0,"block":2,"trial":150,"stimulus":2,"robot":4,"valence":"lose","action":"no-go","sham":0,"trial_type":"pit-trial","trial_index":196,"time_elapsed":1118833,"internal_node_id":"0.0-158.0","task_version":"battery-v0.2-trt"},{"rune":"L","rune_set":"bacs1","hex":"#3366ff99","correct":32,"choice":32,"rt":245.3600000590086,"accuracy":1,"outcome":"+1","keys":[1747.2800000105053],"total_keys":1,"block":2,"trial":151,"stimulus":1,"robot":1,"valence":"win","action":"go","sham":1,"trial_type":"pit-trial","trial_index":197,"time_elapsed":1121785,"internal_node_id":"0.0-159.0","task_version":"battery-v0.2-trt"},{"rune":"Q","rune_set":"bacs1","hex":"#3366ff99","correct":-1,"choice":-1,"rt":-1,"accuracy":1,"outcome":"+10","keys":[],"total_keys":0,"block":2,"trial":152,"stimulus":0,"robot":2,"valence":"win","action":"no-go","sham":0,"trial_type":"pit-trial","trial_index":198,"time_elapsed":1125788,"internal_node_id":"0.0-160.0","task_version":"battery-v0.2-trt"},{"rune":"F","rune_set":"bacs1","hex":"#3366ff99","correct":32,"choice":32,"rt":302.22999991383404,"accuracy":1,"outcome":"+1","keys":[1803.6599999759346],"total_keys":1,"block":2,"trial":153,"stimulus":4,"robot":1,"valence":"win","action":"go","sham":1,"trial_type":"pit-trial","trial_index":199,"time_elapsed":1128796,"internal_node_id":"0.0-161.0","task_version":"battery-v0.2-trt"},{"rune":"A","rune_set":"bacs1","hex":"#3366ff99","correct":32,"choice":32,"rt":389.42499994300306,"accuracy":1,"outcome":"+1","keys":[1890.0650000432506],"total_keys":1,"block":2,"trial":154,"stimulus":3,"robot":1,"valence":"win","action":"go","sham":1,"trial_type":"pit-trial","trial_index":200,"time_elapsed":1131891,"internal_node_id":"0.0-162.0","task_version":"battery-v0.2-trt"},{"rune":"Q","rune_set":"bacs1","hex":"#3366ff99","correct":-1,"choice":32,"rt":418.93000004347414,"accuracy":0,"outcome":"+1","keys":[1920.5350000411272],"total_keys":1,"block":2,"trial":155,"stimulus":0,"robot":2,"valence":"win","action":"no-go","sham":0,"trial_type":"pit-trial","trial_index":201,"time_elapsed":1135017,"internal_node_id":"0.0-163.0","task_version":"battery-v0.2-trt"},{"rune":"C","rune_set":"bacs1","hex":"#f73b6a7A","correct":-1,"choice":-1,"rt":-1,"accuracy":1,"outcome":"-1","keys":[],"total_keys":0,"block":2,"trial":156,"stimulus":2,"robot":4,"valence":"lose","action":"no-go","sham":0,"trial_type":"pit-trial","trial_index":202,"time_elapsed":1139024,"internal_node_id":"0.0-164.0","task_version":"battery-v0.2-trt"},{"rune":"F","rune_set":"bacs1","hex":"#3366ff99","correct":32,"choice":32,"rt":725.4950000206009,"accuracy":1,"outcome":"+10","keys":[2226.9349999260157],"total_keys":1,"block":2,"trial":157,"stimulus":4,"robot":1,"valence":"win","action":"go","sham":0,"trial_type":"pit-trial","trial_index":203,"time_elapsed":1142455,"internal_node_id":"0.0-165.0","task_version":"battery-v0.2-trt"},{"rune":"C","rune_set":"bacs1","hex":"#f73b6a7A","correct":-1,"choice":-1,"rt":-1,"accuracy":1,"outcome":"-10","keys":[],"total_keys":0,"block":2,"trial":158,"stimulus":2,"robot":4,"valence":"lose","action":"no-go","sham":1,"trial_type":"pit-trial","trial_index":204,"time_elapsed":1146460,"internal_node_id":"0.0-166.0","task_version":"battery-v0.2-trt"},{"rune":"A","rune_set":"bacs1","hex":"#3366ff99","correct":32,"choice":32,"rt":241.00499995984137,"accuracy":1,"outcome":"+10","keys":[1741.5749999927357],"total_keys":1,"block":2,"trial":159,"stimulus":3,"robot":1,"valence":"win","action":"go","sham":0,"trial_type":"pit-trial","trial_index":205,"time_elapsed":1149404,"internal_node_id":"0.0-167.0","task_version":"battery-v0.2-trt"},{"rune":"Q","rune_set":"bacs1","hex":"#3366ff99","correct":-1,"choice":-1,"rt":-1,"accuracy":1,"outcome":"+10","keys":[2960.5849999934435],"total_keys":1,"block":2,"trial":160,"stimulus":0,"robot":2,"valence":"win","action":"no-go","sham":0,"trial_type":"pit-trial","trial_index":206,"time_elapsed":1153409,"internal_node_id":"0.0-168.0","task_version":"battery-v0.2-trt"},{"rune":"E","rune_set":"bacs1","hex":"#f73b6a7A","correct":-1,"choice":-1,"rt":-1,"accuracy":1,"outcome":"-1","keys":[],"total_keys":0,"block":2,"trial":161,"stimulus":6,"robot":4,"valence":"lose","action":"no-go","sham":0,"trial_type":"pit-trial","trial_index":207,"time_elapsed":1157414,"internal_node_id":"0.0-169.0","task_version":"battery-v0.2-trt"},{"rune":"Q","rune_set":"bacs1","hex":"#3366ff99","correct":-1,"choice":32,"rt":720.6499999156222,"accuracy":0,"outcome":"+1","keys":[2221.5200000209734],"total_keys":1,"block":2,"trial":162,"stimulus":0,"robot":2,"valence":"win","action":"no-go","sham":0,"trial_type":"pit-trial","trial_index":208,"time_elapsed":1160841,"internal_node_id":"0.0-170.0","task_version":"battery-v0.2-trt"},{"rune":"F","rune_set":"bacs1","hex":"#3366ff99","correct":32,"choice":-1,"rt":-1,"accuracy":0,"outcome":"+1","keys":[],"total_keys":0,"block":2,"trial":163,"stimulus":4,"robot":1,"valence":"win","action":"go","sham":0,"trial_type":"pit-trial","trial_index":209,"time_elapsed":1164845,"internal_node_id":"0.0-171.0","task_version":"battery-v0.2-trt"},{"rune":"T","rune_set":"bacs1","hex":"#f73b6a7A","correct":32,"choice":32,"rt":1217.9100000066683,"accuracy":1,"outcome":"-1","keys":[2719.124999945052],"total_keys":1,"block":2,"trial":164,"stimulus":5,"robot":3,"valence":"lose","action":"go","sham":0,"trial_type":"pit-trial","trial_index":210,"time_elapsed":1168769,"internal_node_id":"0.0-172.0","task_version":"battery-v0.2-trt"},{"rune":"Q","rune_set":"bacs1","hex":"#3366ff99","correct":-1,"choice":32,"rt":899.1450000321493,"accuracy":0,"outcome":"+1","keys":[2399.334999965504],"total_keys":1,"block":2,"trial":165,"stimulus":0,"robot":2,"valence":"win","action":"no-go","sham":0,"trial_type":"pit-trial","trial_index":211,"time_elapsed":1172371,"internal_node_id":"0.0-173.0","task_version":"battery-v0.2-trt"},{"rune":"E","rune_set":"bacs1","hex":"#f73b6a7A","correct":-1,"choice":-1,"rt":-1,"accuracy":1,"outcome":"-1","keys":[],"total_keys":0,"block":2,"trial":166,"stimulus":6,"robot":4,"valence":"lose","action":"no-go","sham":0,"trial_type":"pit-trial","trial_index":212,"time_elapsed":1176378,"internal_node_id":"0.0-174.0","task_version":"battery-v0.2-trt"},{"rune":"T","rune_set":"bacs1","hex":"#f73b6a7A","correct":32,"choice":-1,"rt":-1,"accuracy":0,"outcome":"-1","keys":[3222.3399999784306],"total_keys":1,"block":2,"trial":167,"stimulus":5,"robot":3,"valence":"lose","action":"go","sham":1,"trial_type":"pit-trial","trial_index":213,"time_elapsed":1180382,"internal_node_id":"0.0-175.0","task_version":"battery-v0.2-trt"},{"rune":"F","rune_set":"bacs1","hex":"#3366ff99","correct":32,"choice":-1,"rt":-1,"accuracy":0,"outcome":"+1","keys":[],"total_keys":0,"block":2,"trial":168,"stimulus":4,"robot":1,"valence":"win","action":"go","sham":0,"trial_type":"pit-trial","trial_index":214,"time_elapsed":1185252,"internal_node_id":"0.0-176.0","task_version":"battery-v0.2-trt"},{"rune":"F","rune_set":"bacs1","hex":"#3366ff99","correct":32,"choice":-1,"rt":-1,"accuracy":0,"outcome":"+10","keys":[],"total_keys":0,"block":2,"trial":169,"stimulus":4,"robot":1,"valence":"win","action":"go","sham":1,"trial_type":"pit-trial","trial_index":215,"time_elapsed":1189255,"internal_node_id":"0.0-177.0","task_version":"battery-v0.2-trt"},{"rune":"E","rune_set":"bacs1","hex":"#f73b6a7A","correct":-1,"choice":32,"rt":813.0899999523535,"accuracy":0,"outcome":"-10","keys":[2314.460000023246],"total_keys":1,"block":2,"trial":170,"stimulus":6,"robot":4,"valence":"lose","action":"no-go","sham":0,"trial_type":"pit-trial","trial_index":216,"time_elapsed":1192774,"internal_node_id":"0.0-178.0","task_version":"battery-v0.2-trt"},{"rune":"T","rune_set":"bacs1","hex":"#f73b6a7A","correct":32,"choice":-1,"rt":-1,"accuracy":0,"outcome":"-10","keys":[],"total_keys":0,"block":2,"trial":171,"stimulus":5,"robot":3,"valence":"lose","action":"go","sham":0,"trial_type":"pit-trial","trial_index":217,"time_elapsed":1196781,"internal_node_id":"0.0-179.0","task_version":"battery-v0.2-trt"},{"rune":"V","rune_set":"bacs1","hex":"#3366ff99","correct":-1,"choice":32,"rt":1045.2099998947233,"accuracy":0,"outcome":"+1","keys":[2546.5250000124797],"total_keys":1,"block":2,"trial":172,"stimulus":7,"robot":2,"valence":"win","action":"no-go","sham":0,"trial_type":"pit-trial","trial_index":218,"time_elapsed":1200532,"internal_node_id":"0.0-180.0","task_version":"battery-v0.2-trt"},{"rune":"F","rune_set":"bacs1","hex":"#3366ff99","correct":32,"choice":32,"rt":729.9950000597164,"accuracy":1,"outcome":"+10","keys":[2231.419999967329],"total_keys":1,"block":2,"trial":173,"stimulus":4,"robot":1,"valence":"win","action":"go","sham":0,"trial_type":"pit-trial","trial_index":219,"time_elapsed":1203966,"internal_node_id":"0.0-181.0","task_version":"battery-v0.2-trt"},{"rune":"E","rune_set":"bacs1","hex":"#f73b6a7A","correct":-1,"choice":-1,"rt":-1,"accuracy":1,"outcome":"-1","keys":[],"total_keys":0,"block":2,"trial":174,"stimulus":6,"robot":4,"valence":"lose","action":"no-go","sham":0,"trial_type":"pit-trial","trial_index":220,"time_elapsed":1207971,"internal_node_id":"0.0-182.0","task_version":"battery-v0.2-trt"},{"rune":"V","rune_set":"bacs1","hex":"#3366ff99","correct":-1,"choice":32,"rt":492.99499997869134,"accuracy":0,"outcome":"+1","keys":[1993.6000000452623],"total_keys":1,"block":2,"trial":175,"stimulus":7,"robot":2,"valence":"win","action":"no-go","sham":0,"trial_type":"pit-trial","trial_index":221,"time_elapsed":1211168,"internal_node_id":"0.0-183.0","task_version":"battery-v0.2-trt"},{"rune":"T","rune_set":"bacs1","hex":"#f73b6a7A","correct":32,"choice":-1,"rt":-1,"accuracy":0,"outcome":"-10","keys":[],"total_keys":0,"block":2,"trial":176,"stimulus":5,"robot":3,"valence":"lose","action":"go","sham":0,"trial_type":"pit-trial","trial_index":222,"time_elapsed":1215172,"internal_node_id":"0.0-184.0","task_version":"battery-v0.2-trt"},{"rune":"T","rune_set":"bacs1","hex":"#f73b6a7A","correct":32,"choice":32,"rt":376.1149999918416,"accuracy":1,"outcome":"-1","keys":[1877.1900000283495],"total_keys":1,"block":2,"trial":177,"stimulus":5,"robot":3,"valence":"lose","action":"go","sham":0,"trial_type":"pit-trial","trial_index":223,"time_elapsed":1218252,"internal_node_id":"0.0-185.0","task_version":"battery-v0.2-trt"},{"rune":"F","rune_set":"bacs1","hex":"#3366ff99","correct":32,"choice":32,"rt":814.6999999880791,"accuracy":1,"outcome":"+1","keys":[2315.0349999777973],"total_keys":1,"block":2,"trial":178,"stimulus":4,"robot":1,"valence":"win","action":"go","sham":1,"trial_type":"pit-trial","trial_index":224,"time_elapsed":1221771,"internal_node_id":"0.0-186.0","task_version":"battery-v0.2-trt"},{"rune":"V","rune_set":"bacs1","hex":"#3366ff99","correct":-1,"choice":32,"rt":736.0800000606105,"accuracy":0,"outcome":"+1","keys":[2236.765000037849],"total_keys":1,"block":2,"trial":179,"stimulus":7,"robot":2,"valence":"win","action":"no-go","sham":0,"trial_type":"pit-trial","trial_index":225,"time_elapsed":1225210,"internal_node_id":"0.0-187.0","task_version":"battery-v0.2-trt"},{"rune":"E","rune_set":"bacs1","hex":"#f73b6a7A","correct":-1,"choice":32,"rt":664.9100000504404,"accuracy":0,"outcome":"-10","keys":[2166.3500000722706],"total_keys":1,"block":2,"trial":180,"stimulus":6,"robot":4,"valence":"lose","action":"no-go","sham":0,"trial_type":"pit-trial","trial_index":226,"time_elapsed":1228579,"internal_node_id":"0.0-188.0","task_version":"battery-v0.2-trt"},{"rune":"E","rune_set":"bacs1","hex":"#f73b6a7A","correct":-1,"choice":32,"rt":770.5700000515208,"accuracy":0,"outcome":"-10","keys":[2270.729999989271],"total_keys":1,"block":2,"trial":181,"stimulus":6,"robot":4,"valence":"lose","action":"no-go","sham":0,"trial_type":"pit-trial","trial_index":227,"time_elapsed":1232052,"internal_node_id":"0.0-189.0","task_version":"battery-v0.2-trt"},{"rune":"V","rune_set":"bacs1","hex":"#3366ff99","correct":-1,"choice":-1,"rt":-1,"accuracy":1,"outcome":"+10","keys":[],"total_keys":0,"block":2,"trial":182,"stimulus":7,"robot":2,"valence":"win","action":"no-go","sham":0,"trial_type":"pit-trial","trial_index":228,"time_elapsed":1236056,"internal_node_id":"0.0-190.0","task_version":"battery-v0.2-trt"},{"rune":"T","rune_set":"bacs1","hex":"#f73b6a7A","correct":32,"choice":32,"rt":581.0849999543279,"accuracy":1,"outcome":"-10","keys":[2082.804999896325],"total_keys":1,"block":2,"trial":183,"stimulus":5,"robot":3,"valence":"lose","action":"go","sham":1,"trial_type":"pit-trial","trial_index":229,"time_elapsed":1239342,"internal_node_id":"0.0-191.0","task_version":"battery-v0.2-trt"},{"rune":"F","rune_set":"bacs1","hex":"#3366ff99","correct":32,"choice":32,"rt":655.0150000257418,"accuracy":1,"outcome":"+10","keys":[2155.2750000264496],"total_keys":1,"block":2,"trial":184,"stimulus":4,"robot":1,"valence":"win","action":"go","sham":0,"trial_type":"pit-trial","trial_index":230,"time_elapsed":1242700,"internal_node_id":"0.0-192.0","task_version":"battery-v0.2-trt"},{"rune":"F","rune_set":"bacs1","hex":"#3366ff99","correct":32,"choice":32,"rt":708.1000000471249,"accuracy":1,"outcome":"+10","keys":[2209.084999980405],"total_keys":1,"block":2,"trial":185,"stimulus":4,"robot":1,"valence":"win","action":"go","sham":0,"trial_type":"pit-trial","trial_index":231,"time_elapsed":1246111,"internal_node_id":"0.0-193.0","task_version":"battery-v0.2-trt"},{"rune":"E","rune_set":"bacs1","hex":"#f73b6a7A","correct":-1,"choice":-1,"rt":-1,"accuracy":1,"outcome":"-1","keys":[],"total_keys":0,"block":2,"trial":186,"stimulus":6,"robot":4,"valence":"lose","action":"no-go","sham":0,"trial_type":"pit-trial","trial_index":232,"time_elapsed":1250116,"internal_node_id":"0.0-194.0","task_version":"battery-v0.2-trt"},{"rune":"V","rune_set":"bacs1","hex":"#3366ff99","correct":-1,"choice":32,"rt":706.4549999777228,"accuracy":0,"outcome":"+1","keys":[2206.7800000077114],"total_keys":1,"block":2,"trial":187,"stimulus":7,"robot":2,"valence":"win","action":"no-go","sham":0,"trial_type":"pit-trial","trial_index":233,"time_elapsed":1253526,"internal_node_id":"0.0-195.0","task_version":"battery-v0.2-trt"},{"rune":"T","rune_set":"bacs1","hex":"#f73b6a7A","correct":32,"choice":32,"rt":1266.814999980852,"accuracy":1,"outcome":"-1","keys":[2767.06500002183],"total_keys":1,"block":2,"trial":188,"stimulus":5,"robot":3,"valence":"lose","action":"go","sham":0,"trial_type":"pit-trial","trial_index":234,"time_elapsed":1257497,"internal_node_id":"0.0-196.0","task_version":"battery-v0.2-trt"},{"rune":"T","rune_set":"bacs1","hex":"#f73b6a7A","correct":32,"choice":-1,"rt":-1,"accuracy":0,"outcome":"-10","keys":[],"total_keys":0,"block":2,"trial":189,"stimulus":5,"robot":3,"valence":"lose","action":"go","sham":0,"trial_type":"pit-trial","trial_index":235,"time_elapsed":1261501,"internal_node_id":"0.0-197.0","task_version":"battery-v0.2-trt"},{"rune":"F","rune_set":"bacs1","hex":"#3366ff99","correct":32,"choice":-1,"rt":-1,"accuracy":0,"outcome":"+1","keys":[],"total_keys":0,"block":2,"trial":190,"stimulus":4,"robot":1,"valence":"win","action":"go","sham":0,"trial_type":"pit-trial","trial_index":236,"time_elapsed":1265506,"internal_node_id":"0.0-198.0","task_version":"battery-v0.2-trt"},{"rune":"V","rune_set":"bacs1","hex":"#3366ff99","correct":-1,"choice":32,"rt":989.8850000463426,"accuracy":0,"outcome":"+1","keys":[2490.0200000265613],"total_keys":1,"block":2,"trial":191,"stimulus":7,"robot":2,"valence":"win","action":"no-go","sham":0,"trial_type":"pit-trial","trial_index":237,"time_elapsed":1269198,"internal_node_id":"0.0-199.0","task_version":"battery-v0.2-trt"},{"rune":"E","rune_set":"bacs1","hex":"#f73b6a7A","correct":-1,"choice":-1,"rt":-1,"accuracy":1,"outcome":"-1","keys":[],"total_keys":0,"block":2,"trial":192,"stimulus":6,"robot":4,"valence":"lose","action":"no-go","sham":0,"trial_type":"pit-trial","trial_index":238,"time_elapsed":1273201,"internal_node_id":"0.0-200.0","task_version":"battery-v0.2-trt"},{"rune":"V","rune_set":"bacs1","hex":"#3366ff99","correct":-1,"choice":-1,"rt":-1,"accuracy":1,"outcome":"+10","keys":[],"total_keys":0,"block":2,"trial":193,"stimulus":7,"robot":2,"valence":"win","action":"no-go","sham":0,"trial_type":"pit-trial","trial_index":239,"time_elapsed":1277204,"internal_node_id":"0.0-201.0","task_version":"battery-v0.2-trt"},{"rune":"E","rune_set":"bacs1","hex":"#f73b6a7A","correct":-1,"choice":-1,"rt":-1,"accuracy":1,"outcome":"-1","keys":[],"total_keys":0,"block":2,"trial":194,"stimulus":6,"robot":4,"valence":"lose","action":"no-go","sham":0,"trial_type":"pit-trial","trial_index":240,"time_elapsed":1281208,"internal_node_id":"0.0-202.0","task_version":"battery-v0.2-trt"},{"rune":"F","rune_set":"bacs1","hex":"#3366ff99","correct":32,"choice":32,"rt":505.64999994821846,"accuracy":1,"outcome":"+10","keys":[2006.0649999650195],"total_keys":1,"block":2,"trial":195,"stimulus":4,"robot":1,"valence":"win","action":"go","sham":0,"trial_type":"pit-trial","trial_index":241,"time_elapsed":1284417,"internal_node_id":"0.0-203.0","task_version":"battery-v0.2-trt"},{"rune":"R","rune_set":"bacs1","hex":"#f73b6a7A","correct":32,"choice":-1,"rt":-1,"accuracy":0,"outcome":"-10","keys":[],"total_keys":0,"block":2,"trial":196,"stimulus":8,"robot":3,"valence":"lose","action":"go","sham":0,"trial_type":"pit-trial","trial_index":242,"time_elapsed":1288421,"internal_node_id":"0.0-204.0","task_version":"battery-v0.2-trt"},{"rune":"F","rune_set":"bacs1","hex":"#3366ff99","correct":32,"choice":32,"rt":561.1700000008568,"accuracy":1,"outcome":"+10","keys":[2062.8900000592694],"total_keys":1,"block":2,"trial":197,"stimulus":4,"robot":1,"valence":"win","action":"go","sham":0,"trial_type":"pit-trial","trial_index":243,"time_elapsed":1291686,"internal_node_id":"0.0-205.0","task_version":"battery-v0.2-trt"},{"rune":"V","rune_set":"bacs1","hex":"#3366ff99","correct":-1,"choice":32,"rt":643.3999999426305,"accuracy":0,"outcome":"+10","keys":[2145.299999974668],"total_keys":1,"block":2,"trial":198,"stimulus":7,"robot":2,"valence":"win","action":"no-go","sham":1,"trial_type":"pit-trial","trial_index":244,"time_elapsed":1295035,"internal_node_id":"0.0-206.0","task_version":"battery-v0.2-trt"},{"rune":"E","rune_set":"bacs1","hex":"#f73b6a7A","correct":-1,"choice":-1,"rt":-1,"accuracy":1,"outcome":"-1","keys":[],"total_keys":0,"block":2,"trial":199,"stimulus":6,"robot":4,"valence":"lose","action":"no-go","sham":0,"trial_type":"pit-trial","trial_index":245,"time_elapsed":1299040,"internal_node_id":"0.0-207.0","task_version":"battery-v0.2-trt"},{"rune":"R","rune_set":"bacs1","hex":"#f73b6a7A","correct":32,"choice":32,"rt":862.7400000113994,"accuracy":1,"outcome":"-1","keys":[2363.7450000969693],"total_keys":1,"block":2,"trial":200,"stimulus":8,"robot":3,"valence":"lose","action":"go","sham":0,"trial_type":"pit-trial","trial_index":246,"time_elapsed":1302608,"internal_node_id":"0.0-208.0","task_version":"battery-v0.2-trt"},{"rune":"R","rune_set":"bacs1","hex":"#f73b6a7A","correct":32,"choice":32,"rt":592.4949999898672,"accuracy":1,"outcome":"-1","keys":[2093.2449999963865],"total_keys":1,"block":2,"trial":201,"stimulus":8,"robot":3,"valence":"lose","action":"go","sham":0,"trial_type":"pit-trial","trial_index":247,"time_elapsed":1305903,"internal_node_id":"0.0-209.0","task_version":"battery-v0.2-trt"},{"rune":"E","rune_set":"bacs1","hex":"#f73b6a7A","correct":-1,"choice":32,"rt":595.534999971278,"accuracy":0,"outcome":"-1","keys":[2096.0950000444427],"total_keys":1,"block":2,"trial":202,"stimulus":6,"robot":4,"valence":"lose","action":"no-go","sham":1,"trial_type":"pit-trial","trial_index":248,"time_elapsed":1309203,"internal_node_id":"0.0-210.0","task_version":"battery-v0.2-trt"},{"rune":"V","rune_set":"bacs1","hex":"#3366ff99","correct":-1,"choice":32,"rt":1048.1350000482053,"accuracy":0,"outcome":"+10","keys":[2548.689999966882],"total_keys":1,"block":2,"trial":203,"stimulus":7,"robot":2,"valence":"win","action":"no-go","sham":1,"trial_type":"pit-trial","trial_index":249,"time_elapsed":1312957,"internal_node_id":"0.0-211.0","task_version":"battery-v0.2-trt"},{"rune":"J","rune_set":"bacs1","hex":"#f73b6a7A","correct":32,"choice":-1,"rt":-1,"accuracy":0,"outcome":"-10","keys":[],"total_keys":0,"block":2,"trial":204,"stimulus":9,"robot":3,"valence":"lose","action":"go","sham":0,"trial_type":"pit-trial","trial_index":250,"time_elapsed":1316961,"internal_node_id":"0.0-212.0","task_version":"battery-v0.2-trt"},{"rune":"E","rune_set":"bacs1","hex":"#f73b6a7A","correct":-1,"choice":32,"rt":686.1100000096485,"accuracy":0,"outcome":"-10","keys":[2188.540000002831],"total_keys":1,"block":2,"trial":205,"stimulus":6,"robot":4,"valence":"lose","action":"no-go","sham":0,"trial_type":"pit-trial","trial_index":251,"time_elapsed":1320354,"internal_node_id":"0.0-213.0","task_version":"battery-v0.2-trt"},{"rune":"J","rune_set":"bacs1","hex":"#f73b6a7A","correct":32,"choice":32,"rt":1175.2400000113994,"accuracy":1,"outcome":"-1","keys":[2675.9999999776483],"total_keys":1,"block":2,"trial":206,"stimulus":9,"robot":3,"valence":"lose","action":"go","sham":0,"trial_type":"pit-trial","trial_index":252,"time_elapsed":1324233,"internal_node_id":"0.0-214.0","task_version":"battery-v0.2-trt"},{"rune":"R","rune_set":"bacs1","hex":"#f73b6a7A","correct":32,"choice":-1,"rt":-1,"accuracy":0,"outcome":"-10","keys":[],"total_keys":0,"block":2,"trial":207,"stimulus":8,"robot":3,"valence":"lose","action":"go","sham":0,"trial_type":"pit-trial","trial_index":253,"time_elapsed":1328238,"internal_node_id":"0.0-215.0","task_version":"battery-v0.2-trt"},{"rune":"V","rune_set":"bacs1","hex":"#3366ff99","correct":-1,"choice":32,"rt":827.4499999824911,"accuracy":0,"outcome":"+1","keys":[2328.8800000445917],"total_keys":1,"block":2,"trial":208,"stimulus":7,"robot":2,"valence":"win","action":"no-go","sham":0,"trial_type":"pit-trial","trial_index":254,"time_elapsed":1331770,"internal_node_id":"0.0-216.0","task_version":"battery-v0.2-trt"},{"rune":"Z","rune_set":"bacs1","hex":"#f73b6a7A","correct":-1,"choice":32,"rt":858.2649999298155,"accuracy":0,"outcome":"-10","keys":[2358.6649999488145],"total_keys":1,"block":2,"trial":209,"stimulus":10,"robot":4,"valence":"lose","action":"no-go","sham":0,"trial_type":"pit-trial","trial_index":255,"time_elapsed":1335332,"internal_node_id":"0.0-217.0","task_version":"battery-v0.2-trt"},{"rune":"R","rune_set":"bacs1","hex":"#f73b6a7A","correct":32,"choice":-1,"rt":-1,"accuracy":0,"outcome":"-10","keys":[],"total_keys":0,"block":2,"trial":210,"stimulus":8,"robot":3,"valence":"lose","action":"go","sham":0,"trial_type":"pit-trial","trial_index":256,"time_elapsed":1339338,"internal_node_id":"0.0-218.0","task_version":"battery-v0.2-trt"},{"rune":"J","rune_set":"bacs1","hex":"#f73b6a7A","correct":32,"choice":32,"rt":431.34999996982515,"accuracy":1,"outcome":"-1","keys":[1932.9900000011548],"total_keys":1,"block":2,"trial":211,"stimulus":9,"robot":3,"valence":"lose","action":"go","sham":0,"trial_type":"pit-trial","trial_index":257,"time_elapsed":1342472,"internal_node_id":"0.0-219.0","task_version":"battery-v0.2-trt"},{"rune":"B","rune_set":"bacs1","hex":"#3366ff99","correct":-1,"choice":32,"rt":842.9849999956787,"accuracy":0,"outcome":"+1","keys":[2344.000000040978],"total_keys":1,"block":2,"trial":212,"stimulus":11,"robot":2,"valence":"win","action":"no-go","sham":0,"trial_type":"pit-trial","trial_index":258,"time_elapsed":1346020,"internal_node_id":"0.0-220.0","task_version":"battery-v0.2-trt"},{"rune":"B","rune_set":"bacs1","hex":"#3366ff99","correct":-1,"choice":32,"rt":1195.2849999070168,"accuracy":0,"outcome":"+1","keys":[2696.4350000489503],"total_keys":1,"block":2,"trial":213,"stimulus":11,"robot":2,"valence":"win","action":"no-go","sham":0,"trial_type":"pit-trial","trial_index":259,"time_elapsed":1349919,"internal_node_id":"0.0-221.0","task_version":"battery-v0.2-trt"},{"rune":"Z","rune_set":"bacs1","hex":"#f73b6a7A","correct":-1,"choice":32,"rt":629.4350000098348,"accuracy":0,"outcome":"-10","keys":[2130.4800000507385],"total_keys":1,"block":2,"trial":214,"stimulus":10,"robot":4,"valence":"lose","action":"no-go","sham":0,"trial_type":"pit-trial","trial_index":260,"time_elapsed":1353254,"internal_node_id":"0.0-222.0","task_version":"battery-v0.2-trt"},{"rune":"R","rune_set":"bacs1","hex":"#f73b6a7A","correct":32,"choice":-1,"rt":-1,"accuracy":0,"outcome":"-1","keys":[2853.8500000722706],"total_keys":1,"block":2,"trial":215,"stimulus":8,"robot":3,"valence":"lose","action":"go","sham":1,"trial_type":"pit-trial","trial_index":261,"time_elapsed":1357257,"internal_node_id":"0.0-223.0","task_version":"battery-v0.2-trt"},{"rune":"J","rune_set":"bacs1","hex":"#f73b6a7A","correct":32,"choice":-1,"rt":-1,"accuracy":0,"outcome":"-10","keys":[],"total_keys":0,"block":2,"trial":216,"stimulus":9,"robot":3,"valence":"lose","action":"go","sham":0,"trial_type":"pit-trial","trial_index":262,"time_elapsed":1361261,"internal_node_id":"0.0-224.0","task_version":"battery-v0.2-trt"},{"rune":"B","rune_set":"bacs1","hex":"#3366ff99","correct":-1,"choice":32,"rt":481.1599999666214,"accuracy":0,"outcome":"+1","keys":[1982.2649999987334],"total_keys":1,"block":2,"trial":217,"stimulus":11,"robot":2,"valence":"win","action":"no-go","sham":0,"trial_type":"pit-trial","trial_index":263,"time_elapsed":1364446,"internal_node_id":"0.0-225.0","task_version":"battery-v0.2-trt"},{"rune":"J","rune_set":"bacs1","hex":"#f73b6a7A","correct":32,"choice":32,"rt":744.0799999749288,"accuracy":1,"outcome":"-1","keys":[2244.870000053197],"total_keys":1,"block":2,"trial":218,"stimulus":9,"robot":3,"valence":"lose","action":"go","sham":0,"trial_type":"pit-trial","trial_index":264,"time_elapsed":1367894,"internal_node_id":"0.0-226.0","task_version":"battery-v0.2-trt"},{"rune":"Z","rune_set":"bacs1","hex":"#f73b6a7A","correct":-1,"choice":32,"rt":867.824999964796,"accuracy":0,"outcome":"-10","keys":[2369.5000000298023],"total_keys":1,"block":2,"trial":219,"stimulus":10,"robot":4,"valence":"lose","action":"no-go","sham":0,"trial_type":"pit-trial","trial_index":265,"time_elapsed":1371469,"internal_node_id":"0.0-227.0","task_version":"battery-v0.2-trt"},{"rune":"R","rune_set":"bacs1","hex":"#f73b6a7A","correct":32,"choice":-1,"rt":-1,"accuracy":0,"outcome":"-10","keys":[3236.685000010766],"total_keys":1,"block":2,"trial":220,"stimulus":8,"robot":3,"valence":"lose","action":"go","sham":0,"trial_type":"pit-trial","trial_index":266,"time_elapsed":1375474,"internal_node_id":"0.0-228.0","task_version":"battery-v0.2-trt"},{"rune":"Z","rune_set":"bacs1","hex":"#f73b6a7A","correct":-1,"choice":32,"rt":939.2099999822676,"accuracy":0,"outcome":"-10","keys":[2440.5099999858066],"total_keys":1,"block":2,"trial":221,"stimulus":10,"robot":4,"valence":"lose","action":"no-go","sham":0,"trial_type":"pit-trial","trial_index":267,"time_elapsed":1379119,"internal_node_id":"0.0-229.0","task_version":"battery-v0.2-trt"},{"rune":"J","rune_set":"bacs1","hex":"#f73b6a7A","correct":32,"choice":-1,"rt":-1,"accuracy":0,"outcome":"-10","keys":[],"total_keys":0,"block":2,"trial":222,"stimulus":9,"robot":3,"valence":"lose","action":"go","sham":0,"trial_type":"pit-trial","trial_index":268,"time_elapsed":1383125,"internal_node_id":"0.0-230.0","task_version":"battery-v0.2-trt"},{"rune":"B","rune_set":"bacs1","hex":"#3366ff99","correct":-1,"choice":32,"rt":473.5499999951571,"accuracy":0,"outcome":"+1","keys":[1974.460000055842],"total_keys":1,"block":2,"trial":223,"stimulus":11,"robot":2,"valence":"win","action":"no-go","sham":0,"trial_type":"pit-trial","trial_index":269,"time_elapsed":1386304,"internal_node_id":"0.0-231.0","task_version":"battery-v0.2-trt"},{"rune":"R","rune_set":"bacs1","hex":"#f73b6a7A","correct":32,"choice":-1,"rt":-1,"accuracy":0,"outcome":"-10","keys":[],"total_keys":0,"block":2,"trial":224,"stimulus":8,"robot":3,"valence":"lose","action":"go","sham":0,"trial_type":"pit-trial","trial_index":270,"time_elapsed":1390309,"internal_node_id":"0.0-232.0","task_version":"battery-v0.2-trt"},{"rune":"R","rune_set":"bacs1","hex":"#f73b6a7A","correct":32,"choice":32,"rt":691.7600000742823,"accuracy":1,"outcome":"-1","keys":[2192.064999951981],"total_keys":1,"block":2,"trial":225,"stimulus":8,"robot":3,"valence":"lose","action":"go","sham":0,"trial_type":"pit-trial","trial_index":271,"time_elapsed":1393704,"internal_node_id":"0.0-233.0","task_version":"battery-v0.2-trt"},{"rune":"Z","rune_set":"bacs1","hex":"#f73b6a7A","correct":-1,"choice":32,"rt":749.4250000454485,"accuracy":0,"outcome":"-10","keys":[2250.2250000834465],"total_keys":1,"block":2,"trial":226,"stimulus":10,"robot":4,"valence":"lose","action":"no-go","sham":0,"trial_type":"pit-trial","trial_index":272,"time_elapsed":1397156,"internal_node_id":"0.0-234.0","task_version":"battery-v0.2-trt"},{"rune":"J","rune_set":"bacs1","hex":"#f73