[{"view_history":"[{\"page_index\":0,\"viewing_time\":3853.7900000810623}]","rt":3855.2700001746416,"trial_type":"instructions","trial_index":0,"time_elapsed":3868,"internal_node_id":"0.0-0.0","task_version":"battery-v0.2-trt"},{"slider_type":"valence","raw_loc":683.5,"loc":0.867,"trial_type":"affective-slider","trial_index":1,"time_elapsed":10529,"internal_node_id":"0.0-1.0","task_version":"battery-v0.2-trt"},{"responses":{"Q03":"0","Q02":"0","Q04":"0","Q05":"0","Q08":"0","Q06":"0","Q07":"0","Q01":"0"},"rt":17302.87000001408,"item_order":[2,1,3,4,7,5,6,0],"radio_events":[3280.125000048429,6588.045000098646,7451.425000093877,8367.679999908432,9351.735000032932,11111.7249999661,12883.410000009462,14079.695000080392],"key_events":[],"mouse_events":[3280.125000048429,4431.815000018105,5595.495000015944,6588.045000098646,7451.425000093877,8367.679999908432,9351.735000032932,11111.7249999661,12883.410000009462,14079.695000080392,17299.929999979213],"straightlining":1,"zigzagging":0,"survey":"dass_d","trial_type":"survey-template","trial_index":2,"time_elapsed":27841,"internal_node_id":"0.0-2.0","task_version":"battery-v0.2-trt","infrequency":1},{"responses":{"Q01":"2","Q03":"2","Q08":"3","Q10":"2","Q04":"2","Q11":"1","Q06":"3","Q09":"1","Q02":"1","Q07":"2","Q12":"0","Q13":"0","Q05":"2"},"rt":52075.88000013493,"item_order":[0,2,7,9,3,10,5,8,1,6,11,12,4],"radio_events":[3416.080000111833,6444.039999973029,9536.474999971688,13024.100000038743,15444.060000125319,24768.030000152066,27644.18000006117,33095.80500004813,37072.51000008546,38360.34999997355,41708.0399999395,45779.80999997817,50908.23499998078],"key_events":[],"mouse_events":[3416.080000111833,6444.039999973029,9536.474999971688,13024.100000038743,15444.060000125319,24768.030000152066,26512.210000073537,27644.18000006117,32448.180000064895,33095.80500004813,37072.51000008546,38360.34999997355,41708.0399999395,45779.80999997817,50908.23499998078,52072.10500002839],"straightlining":0.46153846153846156,"zigzagging":0.3333333333333333,"survey":"bisbas","trial_type":"survey-template","trial_index":3,"time_elapsed":79933,"internal_node_id":"0.0-3.0","task_version":"battery-v0.2-trt","infrequency":0},{"responses":{"Q01":"0","Q03":"1","Q05":"0","Q02":"0","Q06":"0","Q08":"0","Q04":"1","Q07":"0"},"rt":26559.739999938756,"item_order":[0,2,4,1,5,7,3,6],"radio_events":[6057.654999895021,9797.654999885708,12777.705000014976,14013.744999887422,15733.689999906346,18129.349999828264,22977.944999933243,23857.559999916703],"key_events":[],"mouse_events":[5329.754999838769,6057.654999895021,9797.654999885708,12777.705000014976,14013.744999887422,15733.689999906346,18129.349999828264,22977.944999933243,23857.559999916703,26557.449999963865],"straightlining":0.75,"zigzagging":0.5714285714285714,"survey":"gad7","trial_type":"survey-template","trial_index":4,"time_elapsed":106512,"internal_node_id":"0.0-4.0","task_version":"battery-v0.2-trt","infrequency":0},{"value":[1,2.2115384615384617,0.9047619047619047],"trial_type":"call-function","trial_index":5,"time_elapsed":106525,"internal_node_id":"0.0-5.0","task_version":"battery-v0.2-trt"},{"view_history":"[{\"page_index\":0,\"viewing_time\":3988.120000110939},{\"page_index\":1,\"viewing_time\":5827.920000068843},{\"page_index\":2,\"viewing_time\":3787.614999804646},{\"page_index\":3,\"viewing_time\":3688.160000136122},{\"page_index\":4,\"viewing_time\":6944.184999912977},{\"page_index\":5,\"viewing_time\":2968.235000036657},{\"page_index\":6,\"viewing_time\":4263.82500003092},{\"page_index\":7,\"viewing_time\":6300.4499999806285},{\"page_index\":8,\"viewing_time\":6399.719999870285},{\"page_index\":9,\"viewing_time\":2915.7800001557916}]","rt":47085.355000104755,"trial_type":"pit-instructions","trial_index":6,"time_elapsed":153615,"internal_node_id":"0.0-6.0-0.0","task_version":"battery-v0.2-trt"},{"rune":"1","rune_set":"elianto","hex":"#3366ff99","correct":32,"choice":-1,"rt":-1,"accuracy":0,"outcome":"+1","keys":[],"total_keys":0,"block":0,"practice":1,"trial_type":"pit-trial","trial_index":7,"time_elapsed":157629,"internal_node_id":"0.0-6.0-1.0-0.0","task_version":"battery-v0.2-trt"},{"rune":"1","rune_set":"elianto","hex":"#3366ff99","correct":32,"choice":32,"rt":613.7149999849498,"accuracy":1,"outcome":"+10","keys":[2115.2999999467283],"total_keys":1,"block":0,"practice":1,"trial_type":"pit-trial","trial_index":8,"time_elapsed":160962,"internal_node_id":"0.0-6.0-1.1-0.1","task_version":"battery-v0.2-trt"},{"rune":"1","rune_set":"elianto","hex":"#3366ff99","correct":32,"choice":32,"rt":511.91999996080995,"accuracy":1,"outcome":"+10","keys":[2013.0699998699129],"total_keys":1,"block":0,"practice":1,"trial_type":"pit-trial","trial_index":9,"time_elapsed":164189,"internal_node_id":"0.0-6.0-1.2-0.2","task_version":"battery-v0.2-trt"},{"rune":"1","rune_set":"elianto","hex":"#3366ff99","correct":32,"choice":32,"rt":417.85999992862344,"accuracy":1,"outcome":"+10","keys":[1919.6899998933077],"total_keys":1,"block":0,"practice":1,"trial_type":"pit-trial","trial_index":10,"time_elapsed":167328,"internal_node_id":"0.0-6.0-1.3-0.3","task_version":"battery-v0.2-trt"},{"trial_type":"call-function","trial_index":11,"time_elapsed":167339,"internal_node_id":"0.0-6.0-2.0","task_version":"battery-v0.2-trt"},{"view_history":"[{\"page_index\":0,\"viewing_time\":3997.8350000455976},{\"page_index\":1,\"viewing_time\":3108.2450000103563}]","rt":7107.055000029504,"trial_type":"pit-instructions","trial_index":12,"time_elapsed":174447,"internal_node_id":"0.0-6.0-3.0","task_version":"battery-v0.2-trt"},{"rune":"2","rune_set":"elianto","hex":"#3366ff99","correct":-1,"choice":32,"rt":708.4399999585003,"accuracy":0,"outcome":"+1","keys":[2208.9300001971424],"total_keys":1,"block":0,"practice":2,"trial_type":"pit-trial","trial_index":13,"time_elapsed":177875,"internal_node_id":"0.0-6.0-4.0-0.0","task_version":"battery-v0.2-trt"},{"rune":"2","rune_set":"elianto","hex":"#3366ff99","correct":-1,"choice":-1,"rt":-1,"accuracy":1,"outcome":"+10","keys":[],"total_keys":0,"block":0,"practice":2,"trial_type":"pit-trial","trial_index":14,"time_elapsed":181892,"internal_node_id":"0.0-6.0-4.1-0.1","task_version":"battery-v0.2-trt"},{"rune":"2","rune_set":"elianto","hex":"#3366ff99","correct":-1,"choice":-1,"rt":-1,"accuracy":1,"outcome":"+10","keys":[],"total_keys":0,"block":0,"practice":2,"trial_type":"pit-trial","trial_index":15,"time_elapsed":185906,"internal_node_id":"0.0-6.0-4.2-0.2","task_version":"battery-v0.2-trt"},{"rune":"2","rune_set":"elianto","hex":"#3366ff99","correct":-1,"choice":-1,"rt":-1,"accuracy":1,"outcome":"+10","keys":[],"total_keys":0,"block":0,"practice":2,"trial_type":"pit-trial","trial_index":16,"time_elapsed":189921,"internal_node_id":"0.0-6.0-4.3-0.3","task_version":"battery-v0.2-trt"},{"trial_type":"call-function","trial_index":17,"time_elapsed":189930,"internal_node_id":"0.0-6.0-5.0","task_version":"battery-v0.2-trt"},{"view_history":"[{\"page_index\":0,\"viewing_time\":13370.265000034124},{\"page_index\":1,\"viewing_time\":1476.109999930486}]","rt":14847.555000102147,"trial_type":"pit-instructions","trial_index":18,"time_elapsed":204779,"internal_node_id":"0.0-6.0-6.0","task_version":"battery-v0.2-trt"},{"rune":"3","rune_set":"elianto","hex":"#f73b6a7A","correct":-1,"choice":-1,"rt":-1,"accuracy":1,"outcome":"-1","keys":[2863.8150000479072],"total_keys":1,"block":0,"practice":3,"trial_type":"pit-trial","trial_index":19,"time_elapsed":208798,"internal_node_id":"0.0-6.0-7.0-0.0","task_version":"battery-v0.2-trt"},{"rune":"3","rune_set":"elianto","hex":"#f73b6a7A","correct":-1,"choice":-1,"rt":-1,"accuracy":1,"outcome":"-1","keys":[],"total_keys":0,"block":0,"practice":3,"trial_type":"pit-trial","trial_index":20,"time_elapsed":212817,"internal_node_id":"0.0-6.0-7.1-0.1","task_version":"battery-v0.2-trt"},{"rune":"3","rune_set":"elianto","hex":"#f73b6a7A","correct":-1,"choice":-1,"rt":-1,"accuracy":1,"outcome":"-1","keys":[],"total_keys":0,"block":0,"practice":3,"trial_type":"pit-trial","trial_index":21,"time_elapsed":216835,"internal_node_id":"0.0-6.0-7.2-0.2","task_version":"battery-v0.2-trt"},{"rune":"3","rune_set":"elianto","hex":"#f73b6a7A","correct":-1,"choice":-1,"rt":-1,"accuracy":1,"outcome":"-1","keys":[],"total_keys":0,"block":0,"practice":3,"trial_type":"pit-trial","trial_index":22,"time_elapsed":220848,"internal_node_id":"0.0-6.0-7.3-0.3","task_version":"battery-v0.2-trt"},{"trial_type":"call-function","trial_index":23,"time_elapsed":220858,"internal_node_id":"0.0-6.0-8.0","task_version":"battery-v0.2-trt"},{"view_history":"[{\"page_index\":0,\"viewing_time\":2678.4949998836964},{\"page_index\":1,\"viewing_time\":3640.140000032261}]","rt":6319.840000011027,"trial_type":"pit-instructions","trial_index":24,"time_elapsed":227179,"internal_node_id":"0.0-6.0-9.0","task_version":"battery-v0.2-trt"},{"rune":"4","rune_set":"elianto","hex":"#f73b6a7A","correct":32,"choice":32,"rt":432.7399998437613,"accuracy":1,"outcome":"-1","keys":[1932.8950000926852],"total_keys":1,"block":0,"practice":4,"trial_type":"pit-trial","trial_index":25,"time_elapsed":230328,"internal_node_id":"0.0-6.0-10.0-0.0","task_version":"battery-v0.2-trt"},{"rune":"4","rune_set":"elianto","hex":"#f73b6a7A","correct":32,"choice":32,"rt":257.10500008426607,"accuracy":1,"outcome":"-1","keys":[1757.41000007838],"total_keys":1,"block":0,"practice":4,"trial_type":"pit-trial","trial_index":26,"time_elapsed":233304,"internal_node_id":"0.0-6.0-10.1-0.1","task_version":"battery-v0.2-trt"},{"rune":"4","rune_set":"elianto","hex":"#f73b6a7A","correct":32,"choice":-1,"rt":-1,"accuracy":0,"outcome":"-10","keys":[],"total_keys":0,"block":0,"practice":4,"trial_type":"pit-trial","trial_index":27,"time_elapsed":237321,"internal_node_id":"0.0-6.0-10.2-0.2","task_version":"battery-v0.2-trt"},{"rune":"4","rune_set":"elianto","hex":"#f73b6a7A","correct":32,"choice":32,"rt":259.3350000679493,"accuracy":1,"outcome":"-1","keys":[1759.479999775067],"total_keys":1,"block":0,"practice":4,"trial_type":"pit-trial","trial_index":28,"time_elapsed":240293,"internal_node_id":"0.0-6.0-10.3-0.3","task_version":"battery-v0.2-trt"},{"rune":"4","rune_set":"elianto","hex":"#f73b6a7A","correct":32,"choice":32,"rt":277.2649999242276,"accuracy":1,"outcome":"-1","keys":[1778.2550000119954],"total_keys":1,"block":0,"practice":4,"trial_type":"pit-trial","trial_index":29,"time_elapsed":243291,"internal_node_id":"0.0-6.0-10.4-0.4","task_version":"battery-v0.2-trt"},{"rune":"4","rune_set":"elianto","hex":"#f73b6a7A","correct":32,"choice":32,"rt":439.9950001388788,"accuracy":1,"outcome":"-1","keys":[1941.1600001621991],"total_keys":1,"block":0,"practice":4,"trial_type":"pit-trial","trial_index":30,"time_elapsed":246448,"internal_node_id":"0.0-6.0-10.5-0.5","task_version":"battery-v0.2-trt"},{"trial_type":"call-function","trial_index":31,"time_elapsed":246463,"internal_node_id":"0.0-6.0-11.0","task_version":"battery-v0.2-trt"},{"view_history":"[{\"page_index\":0,\"viewing_time\":10333.05999985896},{\"page_index\":1,\"viewing_time\":2172.1950001083314},{\"page_index\":2,\"viewing_time\":4175.634999992326},{\"page_index\":3,\"viewing_time\":1476.1449999641627},{\"page_index\":4,\"viewing_time\":1808.2799999974668},{\"page_index\":5,\"viewing_time\":1747.7649999782443}]","rt":21714.075000025332,"trial_type":"pit-instructions","trial_index":32,"time_elapsed":268178,"internal_node_id":"0.0-6.0-12.0","task_version":"battery-v0.2-trt"},{"responses":["Press SPACE","+10","-1","True","True"],"num_errors":0,"rt":16279.11000000313,"trial_type":"pit-comprehension","trial_index":33,"time_elapsed":284477,"internal_node_id":"0.0-6.0-13.0","task_version":"battery-v0.2-trt"},{"view_history":"[{\"page_index\":0,\"viewing_time\":6633.924999972805},{\"page_index\":1,\"viewing_time\":3216.3949999958277}]","rt":9851.58500005491,"trial_type":"pit-instructions","trial_index":34,"time_elapsed":294366,"internal_node_id":"0.0-7.0","task_version":"battery-v0.2-trt"},{"rune":"H","rune_set":"elianto","hex":"#3366ff99","correct":32,"choice":32,"rt":898.1000001076609,"accuracy":1,"outcome":"+10","keys":[2398.384999949485],"total_keys":1,"block":1,"trial":1,"stimulus":3,"robot":1,"valence":"win","action":"go","sham":0,"trial_type":"pit-trial","trial_index":35,"time_elapsed":297986,"internal_node_id":"0.0-8.0","task_version":"battery-v0.2-trt"},{"rune":"R","rune_set":"elianto","hex":"#3366ff99","correct":32,"choice":32,"rt":722.6799998898059,"accuracy":1,"outcome":"+10","keys":[2223.6800000537187],"total_keys":1,"block":1,"trial":2,"stimulus":1,"robot":1,"valence":"win","action":"go","sham":0,"trial_type":"pit-trial","trial_index":36,"time_elapsed":301423,"internal_node_id":"0.0-9.0","task_version":"battery-v0.2-trt"},{"rune":"M","rune_set":"elianto","hex":"#3366ff99","correct":-1,"choice":32,"rt":672.715000109747,"accuracy":0,"outcome":"+1","keys":[2172.999999951571],"total_keys":1,"block":1,"trial":3,"stimulus":0,"robot":2,"valence":"win","action":"no-go","sham":0,"trial_type":"pit-trial","trial_index":37,"time_elapsed":304807,"internal_node_id":"0.0-10.0","task_version":"battery-v0.2-trt"},{"rune":"Y","rune_set":"elianto","hex":"#f73b6a7A","correct":-1,"choice":32,"rt":789.7049998864532,"accuracy":0,"outcome":"-10","keys":[2290.6150000635535],"total_keys":1,"block":1,"trial":4,"stimulus":2,"robot":4,"valence":"lose","action":"no-go","sham":0,"trial_type":"pit-trial","trial_index":38,"time_elapsed":308310,"internal_node_id":"0.0-11.0","task_version":"battery-v0.2-trt"},{"rune":"Y","rune_set":"elianto","hex":"#f73b6a7A","correct":-1,"choice":-1,"rt":-1,"accuracy":1,"outcome":"-1","keys":[],"total_keys":0,"block":1,"trial":5,"stimulus":2,"robot":4,"valence":"lose","action":"no-go","sham":0,"trial_type":"pit-trial","trial_index":39,"time_elapsed":312323,"internal_node_id":"0.0-12.0","task_version":"battery-v0.2-trt"},{"rune":"H","rune_set":"elianto","hex":"#3366ff99","correct":32,"choice":32,"rt":855.3049999754876,"accuracy":1,"outcome":"+10","keys":[2355.9049998875707],"total_keys":1,"block":1,"trial":6,"stimulus":3,"robot":1,"valence":"win","action":"go","sham":0,"trial_type":"pit-trial","trial_index":40,"time_elapsed":315895,"internal_node_id":"0.0-13.0","task_version":"battery-v0.2-trt"},{"rune":"R","rune_set":"elianto","hex":"#3366ff99","correct":32,"choice":32,"rt":420.4100000206381,"accuracy":1,"outcome":"+10","keys":[1920.559999998659],"total_keys":1,"block":1,"trial":7,"stimulus":1,"robot":1,"valence":"win","action":"go","sham":0,"trial_type":"pit-trial","trial_index":41,"time_elapsed":319029,"internal_node_id":"0.0-14.0","task_version":"battery-v0.2-trt"},{"rune":"M","rune_set":"elianto","hex":"#3366ff99","correct":-1,"choice":-1,"rt":-1,"accuracy":1,"outcome":"+10","keys":[],"total_keys":0,"block":1,"trial":8,"stimulus":0,"robot":2,"valence":"win","action":"no-go","sham":0,"trial_type":"pit-trial","trial_index":42,"time_elapsed":323043,"internal_node_id":"0.0-15.0","task_version":"battery-v0.2-trt"},{"rune":"R","rune_set":"elianto","hex":"#3366ff99","correct":32,"choice":32,"rt":833.1899999175221,"accuracy":1,"outcome":"+10","keys":[2334.620000096038],"total_keys":1,"block":1,"trial":9,"stimulus":1,"robot":1,"valence":"win","action":"go","sham":0,"trial_type":"pit-trial","trial_index":43,"time_elapsed":326598,"internal_node_id":"0.0-16.0","task_version":"battery-v0.2-trt"},{"rune":"Y","rune_set":"elianto","hex":"#f73b6a7A","correct":-1,"choice":-1,"rt":-1,"accuracy":1,"outcome":"-1","keys":[],"total_keys":0,"block":1,"trial":10,"stimulus":2,"robot":4,"valence":"lose","action":"no-go","sham":0,"trial_type":"pit-trial","trial_index":44,"time_elapsed":330611,"internal_node_id":"0.0-17.0","task_version":"battery-v0.2-trt"},{"rune":"H","rune_set":"elianto","hex":"#3366ff99","correct":32,"choice":32,"rt":682.7899999916553,"accuracy":1,"outcome":"+10","keys":[2183.7349999696016],"total_keys":1,"block":1,"trial":11,"stimulus":3,"robot":1,"valence":"win","action":"go","sham":0,"trial_type":"pit-trial","trial_index":45,"time_elapsed":334015,"internal_node_id":"0.0-18.0","task_version":"battery-v0.2-trt"},{"rune":"M","rune_set":"elianto","hex":"#3366ff99","correct":-1,"choice":-1,"rt":-1,"accuracy":1,"outcome":"+10","keys":[],"total_keys":0,"block":1,"trial":12,"stimulus":0,"robot":2,"valence":"win","action":"no-go","sham":0,"trial_type":"pit-trial","trial_index":46,"time_elapsed":338033,"internal_node_id":"0.0-19.0","task_version":"battery-v0.2-trt"},{"rune":"H","rune_set":"elianto","hex":"#3366ff99","correct":32,"choice":32,"rt":559.415000025183,"accuracy":1,"outcome":"+1","keys":[2059.6849999856204],"total_keys":1,"block":1,"trial":13,"stimulus":3,"robot":1,"valence":"win","action":"go","sham":1,"trial_type":"pit-trial","trial_index":47,"time_elapsed":341305,"internal_node_id":"0.0-20.0","task_version":"battery-v0.2-trt"},{"rune":"R","rune_set":"elianto","hex":"#3366ff99","correct":32,"choice":32,"rt":942.2450000420213,"accuracy":1,"outcome":"+10","keys":[2442.825000034645],"total_keys":1,"block":1,"trial":14,"stimulus":1,"robot":1,"valence":"win","action":"go","sham":0,"trial_type":"pit-trial","trial_index":48,"time_elapsed":344961,"internal_node_id":"0.0-21.0","task_version":"battery-v0.2-trt"},{"rune":"M","rune_set":"elianto","hex":"#3366ff99","correct":-1,"choice":-1,"rt":-1,"accuracy":1,"outcome":"+1","keys":[],"total_keys":0,"block":1,"trial":15,"stimulus":0,"robot":2,"valence":"win","action":"no-go","sham":1,"trial_type":"pit-trial","trial_index":49,"time_elapsed":348981,"internal_node_id":"0.0-22.0","task_version":"battery-v0.2-trt"},{"rune":"Y","rune_set":"elianto","hex":"#f73b6a7A","correct":-1,"choice":-1,"rt":-1,"accuracy":1,"outcome":"-1","keys":[],"total_keys":0,"block":1,"trial":16,"stimulus":2,"robot":4,"valence":"lose","action":"no-go","sham":0,"trial_type":"pit-trial","trial_index":50,"time_elapsed":352997,"internal_node_id":"0.0-23.0","task_version":"battery-v0.2-trt"},{"rune":"M","rune_set":"elianto","hex":"#3366ff99","correct":-1,"choice":32,"rt":656.0400000307709,"accuracy":0,"outcome":"+1","keys":[2156.375000020489],"total_keys":1,"block":1,"trial":17,"stimulus":0,"robot":2,"valence":"win","action":"no-go","sham":0,"trial_type":"pit-trial","trial_index":51,"time_elapsed":356374,"internal_node_id":"0.0-24.0","task_version":"battery-v0.2-trt"},{"rune":"R","rune_set":"elianto","hex":"#3366ff99","correct":32,"choice":32,"rt":629.9950000829995,"accuracy":1,"outcome":"+10","keys":[2131.6550001502037],"total_keys":1,"block":1,"trial":18,"stimulus":1,"robot":1,"valence":"win","action":"go","sham":0,"trial_type":"pit-trial","trial_index":52,"time_elapsed":359719,"internal_node_id":"0.0-25.0","task_version":"battery-v0.2-trt"},{"rune":"Y","rune_set":"elianto","hex":"#f73b6a7A","correct":-1,"choice":-1,"rt":-1,"accuracy":1,"outcome":"-1","keys":[],"total_keys":0,"block":1,"trial":19,"stimulus":2,"robot":4,"valence":"lose","action":"no-go","sham":0,"trial_type":"pit-trial","trial_index":53,"time_elapsed":363736,"internal_node_id":"0.0-26.0","task_version":"battery-v0.2-trt"},{"rune":"H","rune_set":"elianto","hex":"#3366ff99","correct":32,"choice":32,"rt":401.81499999016523,"accuracy":1,"outcome":"+10","keys":[1901.9000001717359],"total_keys":1,"block":1,"trial":20,"stimulus":3,"robot":1,"valence":"win","action":"go","sham":0,"trial_type":"pit-trial","trial_index":54,"time_elapsed":366852,"internal_node_id":"0.0-27.0","task_version":"battery-v0.2-trt"},{"rune":"H","rune_set":"elianto","hex":"#3366ff99","correct":32,"choice":32,"rt":592.3899998888373,"accuracy":1,"outcome":"+10","keys":[2093.404999934137],"total_keys":1,"block":1,"trial":21,"stimulus":3,"robot":1,"valence":"win","action":"go","sham":0,"trial_type":"pit-trial","trial_index":55,"time_elapsed":370164,"internal_node_id":"0.0-28.0","task_version":"battery-v0.2-trt"},{"rune":"Y","rune_set":"elianto","hex":"#f73b6a7A","correct":-1,"choice":-1,"rt":-1,"accuracy":1,"outcome":"-1","keys":[],"total_keys":0,"block":1,"trial":22,"stimulus":2,"robot":4,"valence":"lose","action":"no-go","sham":0,"trial_type":"pit-trial","trial_index":56,"time_elapsed":374180,"internal_node_id":"0.0-29.0","task_version":"battery-v0.2-trt"},{"rune":"M","rune_set":"elianto","hex":"#3366ff99","correct":-1,"choice":-1,"rt":-1,"accuracy":1,"outcome":"+10","keys":[],"total_keys":0,"block":1,"trial":23,"stimulus":0,"robot":2,"valence":"win","action":"no-go","sham":0,"trial_type":"pit-trial","trial_index":57,"time_elapsed":378197,"internal_node_id":"0.0-30.0","task_version":"battery-v0.2-trt"},{"rune":"R","rune_set":"elianto","hex":"#3366ff99","correct":32,"choice":32,"rt":602.2600000724196,"accuracy":1,"outcome":"+10","keys":[2102.3850000929087],"total_keys":1,"block":1,"trial":24,"stimulus":1,"robot":1,"valence":"win","action":"go","sham":0,"trial_type":"pit-trial","trial_index":58,"time_elapsed":381511,"internal_node_id":"0.0-31.0","task_version":"battery-v0.2-trt"},{"rune":"Y","rune_set":"elianto","hex":"#f73b6a7A","correct":-1,"choice":-1,"rt":-1,"accuracy":1,"outcome":"-1","keys":[],"total_keys":0,"block":1,"trial":25,"stimulus":2,"robot":4,"valence":"lose","action":"no-go","sham":0,"trial_type":"pit-trial","trial_index":59,"time_elapsed":385527,"internal_node_id":"0.0-32.0","task_version":"battery-v0.2-trt"},{"rune":"R","rune_set":"elianto","hex":"#3366ff99","correct":32,"choice":32,"rt":550.4499999806285,"accuracy":1,"outcome":"+10","keys":[2050.499999895692],"total_keys":1,"block":1,"trial":26,"stimulus":1,"robot":1,"valence":"win","action":"go","sham":0,"trial_type":"pit-trial","trial_index":60,"time_elapsed":388799,"internal_node_id":"0.0-33.0","task_version":"battery-v0.2-trt"},{"rune":"H","rune_set":"elianto","hex":"#3366ff99","correct":32,"choice":32,"rt":355.0149998627603,"accuracy":1,"outcome":"+1","keys":[1856.7599998787045],"total_keys":1,"block":1,"trial":27,"stimulus":3,"robot":1,"valence":"win","action":"go","sham":1,"trial_type":"pit-trial","trial_index":61,"time_elapsed":391869,"internal_node_id":"0.0-34.0","task_version":"battery-v0.2-trt"},{"rune":"M","rune_set":"elianto","hex":"#3366ff99","correct":-1,"choice":-1,"rt":-1,"accuracy":1,"outcome":"+10","keys":[],"total_keys":0,"block":1,"trial":28,"stimulus":0,"robot":2,"valence":"win","action":"no-go","sham":0,"trial_type":"pit-trial","trial_index":62,"time_elapsed":395883,"internal_node_id":"0.0-35.0","task_version":"battery-v0.2-trt"},{"rune":"H","rune_set":"elianto","hex":"#3366ff99","correct":32,"choice":32,"rt":617.5949999596924,"accuracy":1,"outcome":"+10","keys":[2118.155000032857],"total_keys":1,"block":1,"trial":29,"stimulus":3,"robot":1,"valence":"win","action":"go","sham":0,"trial_type":"pit-trial","trial_index":63,"time_elapsed":399214,"internal_node_id":"0.0-36.0","task_version":"battery-v0.2-trt"},{"rune":"Y","rune_set":"elianto","hex":"#f73b6a7A","correct":-1,"choice":-1,"rt":-1,"accuracy":1,"outcome":"-1","keys":[],"total_keys":0,"block":1,"trial":30,"stimulus":2,"robot":4,"valence":"lose","action":"no-go","sham":0,"trial_type":"pit-trial","trial_index":64,"time_elapsed":403290,"internal_node_id":"0.0-37.0","task_version":"battery-v0.2-trt"},{"rune":"M","rune_set":"elianto","hex":"#3366ff99","correct":-1,"choice":32,"rt":659.5199999865144,"accuracy":0,"outcome":"+1","keys":[2160.274999914691],"total_keys":1,"block":1,"trial":31,"stimulus":0,"robot":2,"valence":"win","action":"no-go","sham":0,"trial_type":"pit-trial","trial_index":65,"time_elapsed":406664,"internal_node_id":"0.0-38.0","task_version":"battery-v0.2-trt"},{"rune":"R","rune_set":"elianto","hex":"#3366ff99","correct":32,"choice":32,"rt":692.6849998999387,"accuracy":1,"outcome":"+10","keys":[2193.1599997915328],"total_keys":1,"block":1,"trial":32,"stimulus":1,"robot":1,"valence":"win","action":"go","sham":0,"trial_type":"pit-trial","trial_index":66,"time_elapsed":410071,"internal_node_id":"0.0-39.0","task_version":"battery-v0.2-trt"},{"rune":"Y","rune_set":"elianto","hex":"#f73b6a7A","correct":-1,"choice":-1,"rt":-1,"accuracy":1,"outcome":"-1","keys":[],"total_keys":0,"block":1,"trial":33,"stimulus":2,"robot":4,"valence":"lose","action":"no-go","sham":0,"trial_type":"pit-trial","trial_index":67,"time_elapsed":414085,"internal_node_id":"0.0-40.0","task_version":"battery-v0.2-trt"},{"rune":"H","rune_set":"elianto","hex":"#3366ff99","correct":32,"choice":32,"rt":392.51000015065074,"accuracy":1,"outcome":"+10","keys":[1893.5399998445064],"total_keys":1,"block":1,"trial":34,"stimulus":3,"robot":1,"valence":"win","action":"go","sham":0,"trial_type":"pit-trial","trial_index":68,"time_elapsed":417196,"internal_node_id":"0.0-41.0","task_version":"battery-v0.2-trt"},{"rune":"M","rune_set":"elianto","hex":"#3366ff99","correct":-1,"choice":-1,"rt":-1,"accuracy":1,"outcome":"+10","keys":[],"total_keys":0,"block":1,"trial":35,"stimulus":0,"robot":2,"valence":"win","action":"no-go","sham":0,"trial_type":"pit-trial","trial_index":69,"time_elapsed":421215,"internal_node_id":"0.0-42.0","task_version":"battery-v0.2-trt"},{"rune":"Z","rune_set":"elianto","hex":"#3366ff99","correct":32,"choice":32,"rt":979.8650001175702,"accuracy":1,"outcome":"+10","keys":[2480.485000181943],"total_keys":1,"block":1,"trial":36,"stimulus":4,"robot":1,"valence":"win","action":"go","sham":0,"trial_type":"pit-trial","trial_index":70,"time_elapsed":424915,"internal_node_id":"0.0-43.0","task_version":"battery-v0.2-trt"},{"rune":"H","rune_set":"elianto","hex":"#3366ff99","correct":32,"choice":32,"rt":543.8549998216331,"accuracy":1,"outcome":"+10","keys":[2044.5600000675768],"total_keys":1,"block":1,"trial":37,"stimulus":3,"robot":1,"valence":"win","action":"go","sham":0,"trial_type":"pit-trial","trial_index":71,"time_elapsed":428172,"internal_node_id":"0.0-44.0","task_version":"battery-v0.2-trt"},{"rune":"Y","rune_set":"elianto","hex":"#f73b6a7A","correct":-1,"choice":-1,"rt":-1,"accuracy":1,"outcome":"-10","keys":[],"total_keys":0,"block":1,"trial":38,"stimulus":2,"robot":4,"valence":"lose","action":"no-go","sham":1,"trial_type":"pit-trial","trial_index":72,"time_elapsed":432194,"internal_node_id":"0.0-45.0","task_version":"battery-v0.2-trt"},{"rune":"M","rune_set":"elianto","hex":"#3366ff99","correct":-1,"choice":-1,"rt":-1,"accuracy":1,"outcome":"+10","keys":[],"total_keys":0,"block":1,"trial":39,"stimulus":0,"robot":2,"valence":"win","action":"no-go","sham":0,"trial_type":"pit-trial","trial_index":73,"time_elapsed":436212,"internal_node_id":"0.0-46.0","task_version":"battery-v0.2-trt"},{"rune":"Z","rune_set":"elianto","hex":"#3366ff99","correct":32,"choice":32,"rt":345.79500020481646,"accuracy":1,"outcome":"+1","keys":[1846.3800000026822],"total_keys":1,"block":1,"trial":40,"stimulus":4,"robot":1,"valence":"win","action":"go","sham":1,"trial_type":"pit-trial","trial_index":74,"time_elapsed":439274,"internal_node_id":"0.0-47.0","task_version":"battery-v0.2-trt"},{"rune":"C","rune_set":"elianto","hex":"#f73b6a7A","correct":32,"choice":32,"rt":864.2150000669062,"accuracy":1,"outcome":"-10","keys":[2364.8950001224875],"total_keys":1,"block":1,"trial":41,"stimulus":5,"robot":3,"valence":"lose","action":"go","sham":1,"trial_type":"pit-trial","trial_index":75,"time_elapsed":442854,"internal_node_id":"0.0-48.0","task_version":"battery-v0.2-trt"},{"rune":"Z","rune_set":"elianto","hex":"#3366ff99","correct":32,"choice":32,"rt":1148.3499999158084,"accuracy":1,"outcome":"+10","keys":[2649.2049999069422],"total_keys":1,"block":1,"trial":42,"stimulus":4,"robot":1,"valence":"win","action":"go","sham":0,"trial_type":"pit-trial","trial_index":76,"time_elapsed":446731,"internal_node_id":"0.0-49.0","task_version":"battery-v0.2-trt"},{"rune":"B","rune_set":"elianto","hex":"#f73b6a7A","correct":-1,"choice":32,"rt":1098.7549999263138,"accuracy":0,"outcome":"-10","keys":[2599.6749999467283],"total_keys":1,"block":1,"trial":43,"stimulus":6,"robot":4,"valence":"lose","action":"no-go","sham":0,"trial_type":"pit-trial","trial_index":77,"time_elapsed":450561,"internal_node_id":"0.0-50.0","task_version":"battery-v0.2-trt"},{"rune":"M","rune_set":"elianto","hex":"#3366ff99","correct":-1,"choice":32,"rt":742.409999947995,"accuracy":0,"outcome":"+1","keys":[2242.8599998820573],"total_keys":1,"block":1,"trial":44,"stimulus":0,"robot":2,"valence":"win","action":"no-go","sham":0,"trial_type":"pit-trial","trial_index":78,"time_elapsed":454039,"internal_node_id":"0.0-51.0","task_version":"battery-v0.2-trt"},{"rune":"M","rune_set":"elianto","hex":"#3366ff99","correct":-1,"choice":32,"rt":1119.4799998775125,"accuracy":0,"outcome":"+1","keys":[2619.979999959469],"total_keys":1,"block":1,"trial":45,"stimulus":0,"robot":2,"valence":"win","action":"no-go","sham":0,"trial_type":"pit-trial","trial_index":79,"time_elapsed":457874,"internal_node_id":"0.0-52.0","task_version":"battery-v0.2-trt"},{"rune":"B","rune_set":"elianto","hex":"#f73b6a7A","correct":-1,"choice":32,"rt":1130.0899998750538,"accuracy":0,"outcome":"-10","keys":[2631.535000167787],"total_keys":1,"block":1,"trial":46,"stimulus":6,"robot":4,"valence":"lose","action":"no-go","sham":0,"trial_type":"pit-trial","trial_index":80,"time_elapsed":461720,"internal_node_id":"0.0-53.0","task_version":"battery-v0.2-trt"},{"rune":"Z","rune_set":"elianto","hex":"#3366ff99","correct":32,"choice":32,"rt":830.3849999792874,"accuracy":1,"outcome":"+10","keys":[2330.4050001315773],"total_keys":1,"block":1,"trial":47,"stimulus":4,"robot":1,"valence":"win","action":"go","sham":0,"trial_type":"pit-trial","trial_index":81,"time_elapsed":465266,"internal_node_id":"0.0-54.0","task_version":"battery-v0.2-trt"},{"rune":"C","rune_set":"elianto","hex":"#f73b6a7A","correct":32,"choice":-1,"rt":-1,"accuracy":0,"outcome":"-10","keys":[],"total_keys":0,"block":1,"trial":48,"stimulus":5,"robot":3,"valence":"lose","action":"go","sham":0,"trial_type":"pit-trial","trial_index":82,"time_elapsed":469282,"internal_node_id":"0.0-55.0","task_version":"battery-v0.2-trt"},{"rune":"B","rune_set":"elianto","hex":"#f73b6a7A","correct":-1,"choice":-1,"rt":-1,"accuracy":1,"outcome":"-1","keys":[],"total_keys":0,"block":1,"trial":49,"stimulus":6,"robot":4,"valence":"lose","action":"no-go","sham":0,"trial_type":"pit-trial","trial_index":83,"time_elapsed":473294,"internal_node_id":"0.0-56.0","task_version":"battery-v0.2-trt"},{"rune":"Z","rune_set":"elianto","hex":"#3366ff99","correct":32,"choice":32,"rt":685.7399998698384,"accuracy":1,"outcome":"+10","keys":[2186.489999992773],"total_keys":1,"block":1,"trial":50,"stimulus":4,"robot":1,"valence":"win","action":"go","sham":0,"trial_type":"pit-trial","trial_index":84,"time_elapsed":476692,"internal_node_id":"0.0-57.0","task_version":"battery-v0.2-trt"},{"rune":"T","rune_set":"elianto","hex":"#3366ff99","correct":-1,"choice":32,"rt":850.1599999144673,"accuracy":0,"outcome":"+1","keys":[2350.8500000461936],"total_keys":1,"block":1,"trial":51,"stimulus":7,"robot":2,"valence":"win","action":"no-go","sham":0,"trial_type":"pit-trial","trial_index":85,"time_elapsed":480259,"internal_node_id":"0.0-58.0","task_version":"battery-v0.2-trt"},{"rune":"C","rune_set":"elianto","hex":"#f73b6a7A","correct":32,"choice":-1,"rt":-1,"accuracy":0,"outcome":"-10","keys":[],"total_keys":0,"block":1,"trial":52,"stimulus":5,"robot":3,"valence":"lose","action":"go","sham":0,"trial_type":"pit-trial","trial_index":86,"time_elapsed":484274,"internal_node_id":"0.0-59.0","task_version":"battery-v0.2-trt"},{"rune":"T","rune_set":"elianto","hex":"#3366ff99","correct":-1,"choice":32,"rt":656.9799999706447,"accuracy":0,"outcome":"+1","keys":[2157.9299999866635],"total_keys":1,"block":1,"trial":53,"stimulus":7,"robot":2,"valence":"win","action":"no-go","sham":0,"trial_type":"pit-trial","trial_index":87,"time_elapsed":487650,"internal_node_id":"0.0-60.0","task_version":"battery-v0.2-trt"},{"rune":"Z","rune_set":"elianto","hex":"#3366ff99","correct":32,"choice":32,"rt":863.0849998444319,"accuracy":1,"outcome":"+10","keys":[2364.079999970272],"total_keys":1,"block":1,"trial":54,"stimulus":4,"robot":1,"valence":"win","action":"go","sham":0,"trial_type":"pit-trial","trial_index":88,"time_elapsed":491231,"internal_node_id":"0.0-61.0","task_version":"battery-v0.2-trt"},{"rune":"B","rune_set":"elianto","hex":"#f73b6a7A","correct":-1,"choice":-1,"rt":-1,"accuracy":1,"outcome":"-1","keys":[],"total_keys":0,"block":1,"trial":55,"stimulus":6,"robot":4,"valence":"lose","action":"no-go","sham":0,"trial_type":"pit-trial","trial_index":89,"time_elapsed":495243,"internal_node_id":"0.0-62.0","task_version":"battery-v0.2-trt"},{"rune":"C","rune_set":"elianto","hex":"#f73b6a7A","correct":32,"choice":32,"rt":432.194999884814,"accuracy":1,"outcome":"-1","keys":[1933.2300000824034],"total_keys":1,"block":1,"trial":56,"stimulus":5,"robot":3,"valence":"lose","action":"go","sham":0,"trial_type":"pit-trial","trial_index":90,"time_elapsed":498393,"internal_node_id":"0.0-63.0","task_version":"battery-v0.2-trt"},{"rune":"Z","rune_set":"elianto","hex":"#3366ff99","correct":32,"choice":32,"rt":1072.724999859929,"accuracy":1,"outcome":"+10","keys":[2572.859999956563],"total_keys":1,"block":1,"trial":57,"stimulus":4,"robot":1,"valence":"win","action":"go","sham":0,"trial_type":"pit-trial","trial_index":91,"time_elapsed":502179,"internal_node_id":"0.0-64.0","task_version":"battery-v0.2-trt"},{"rune":"T","rune_set":"elianto","hex":"#3366ff99","correct":-1,"choice":32,"rt":967.780000064522,"accuracy":0,"outcome":"+10","keys":[2469.0050000790507],"total_keys":1,"block":1,"trial":58,"stimulus":7,"robot":2,"valence":"win","action":"no-go","sham":1,"trial_type":"pit-trial","trial_index":92,"time_elapsed":505860,"internal_node_id":"0.0-65.0","task_version":"battery-v0.2-trt"},{"rune":"B","rune_set":"elianto","hex":"#f73b6a7A","correct":-1,"choice":-1,"rt":-1,"accuracy":1,"outcome":"-1","keys":[],"total_keys":0,"block":1,"trial":59,"stimulus":6,"robot":4,"valence":"lose","action":"no-go","sham":0,"trial_type":"pit-trial","trial_index":93,"time_elapsed":509879,"internal_node_id":"0.0-66.0","task_version":"battery-v0.2-trt"},{"rune":"C","rune_set":"elianto","hex":"#f73b6a7A","correct":32,"choice":32,"rt":553.2599999569356,"accuracy":1,"outcome":"-10","keys":[2054.505000123754],"total_keys":1,"block":1,"trial":60,"stimulus":5,"robot":3,"valence":"lose","action":"go","sham":1,"trial_type":"pit-trial","trial_index":94,"time_elapsed":513146,"internal_node_id":"0.0-67.0","task_version":"battery-v0.2-trt"},{"rune":"C","rune_set":"elianto","hex":"#f73b6a7A","correct":32,"choice":-1,"rt":-1,"accuracy":0,"outcome":"-10","keys":[],"total_keys":0,"block":1,"trial":61,"stimulus":5,"robot":3,"valence":"lose","action":"go","sham":0,"trial_type":"pit-trial","trial_index":95,"time_elapsed":517158,"internal_node_id":"0.0-68.0","task_version":"battery-v0.2-trt"},{"rune":"Z","rune_set":"elianto","hex":"#3366ff99","correct":32,"choice":32,"rt":928.9200000930578,"accuracy":1,"outcome":"+1","keys":[2429.2800000403076],"total_keys":1,"block":1,"trial":62,"stimulus":4,"robot":1,"valence":"win","action":"go","sham":1,"trial_type":"pit-trial","trial_index":96,"time_elapsed":520801,"internal_node_id":"0.0-69.0","task_version":"battery-v0.2-trt"},{"rune":"T","rune_set":"elianto","hex":"#3366ff99","correct":-1,"choice":32,"rt":666.2749999668449,"accuracy":0,"outcome":"+10","keys":[2166.8750001117587],"total_keys":1,"block":1,"trial":63,"stimulus":7,"robot":2,"valence":"win","action":"no-go","sham":1,"trial_type":"pit-trial","trial_index":97,"time_elapsed":524184,"internal_node_id":"0.0-70.0","task_version":"battery-v0.2-trt"},{"rune":"B","rune_set":"elianto","hex":"#f73b6a7A","correct":-1,"choice":-1,"rt":-1,"accuracy":1,"outcome":"-1","keys":[],"total_keys":0,"block":1,"trial":64,"stimulus":6,"robot":4,"valence":"lose","action":"no-go","sham":0,"trial_type":"pit-trial","trial_index":98,"time_elapsed":528197,"internal_node_id":"0.0-71.0","task_version":"battery-v0.2-trt"},{"rune":"Z","rune_set":"elianto","hex":"#3366ff99","correct":32,"choice":32,"rt":749.9449998140335,"accuracy":1,"outcome":"+10","keys":[2250.420000171289],"total_keys":1,"block":1,"trial":65,"stimulus":4,"robot":1,"valence":"win","action":"go","sham":0,"trial_type":"pit-trial","trial_index":99,"time_elapsed":531664,"internal_node_id":"0.0-72.0","task_version":"battery-v0.2-trt"},{"rune":"T","rune_set":"elianto","hex":"#3366ff99","correct":-1,"choice":32,"rt":672.6400000043213,"accuracy":0,"outcome":"+1","keys":[2172.7500001434237],"total_keys":1,"block":1,"trial":66,"stimulus":7,"robot":2,"valence":"win","action":"no-go","sham":0,"trial_type":"pit-trial","trial_index":100,"time_elapsed":535055,"internal_node_id":"0.0-73.0","task_version":"battery-v0.2-trt"},{"rune":"C","rune_set":"elianto","hex":"#f73b6a7A","correct":32,"choice":32,"rt":985.344999935478,"accuracy":1,"outcome":"-1","keys":[2485.785000026226],"total_keys":1,"block":1,"trial":67,"stimulus":5,"robot":3,"valence":"lose","action":"go","sham":0,"trial_type":"pit-trial","trial_index":101,"time_elapsed":538753,"internal_node_id":"0.0-74.0","task_version":"battery-v0.2-trt"},{"rune":"B","rune_set":"elianto","hex":"#f73b6a7A","correct":-1,"choice":-1,"rt":-1,"accuracy":1,"outcome":"-1","keys":[],"total_keys":0,"block":1,"trial":68,"stimulus":6,"robot":4,"valence":"lose","action":"no-go","sham":0,"trial_type":"pit-trial","trial_index":102,"time_elapsed":542778,"internal_node_id":"0.0-75.0","task_version":"battery-v0.2-trt"},{"rune":"B","rune_set":"elianto","hex":"#f73b6a7A","correct":-1,"choice":-1,"rt":-1,"accuracy":1,"outcome":"-1","keys":[],"total_keys":0,"block":1,"trial":69,"stimulus":6,"robot":4,"valence":"lose","action":"no-go","sham":0,"trial_type":"pit-trial","trial_index":103,"time_elapsed":546794,"internal_node_id":"0.0-76.0","task_version":"battery-v0.2-trt"},{"rune":"C","rune_set":"elianto","hex":"#f73b6a7A","correct":32,"choice":-1,"rt":-1,"accuracy":0,"outcome":"-10","keys":[],"total_keys":0,"block":1,"trial":70,"stimulus":5,"robot":3,"valence":"lose","action":"go","sham":0,"trial_type":"pit-trial","trial_index":104,"time_elapsed":550809,"internal_node_id":"0.0-77.0","task_version":"battery-v0.2-trt"},{"rune":"Z","rune_set":"elianto","hex":"#3366ff99","correct":32,"choice":32,"rt":764.6449999883771,"accuracy":1,"outcome":"+1","keys":[2265.5750000849366],"total_keys":1,"block":1,"trial":71,"stimulus":4,"robot":1,"valence":"win","action":"go","sham":1,"trial_type":"pit-trial","trial_index":105,"time_elapsed":554287,"internal_node_id":"0.0-78.0","task_version":"battery-v0.2-trt"},{"rune":"T","rune_set":"elianto","hex":"#3366ff99","correct":-1,"choice":32,"rt":544.6999999694526,"accuracy":0,"outcome":"+1","keys":[2045.5650000367314],"total_keys":1,"block":1,"trial":72,"stimulus":7,"robot":2,"valence":"win","action":"no-go","sham":0,"trial_type":"pit-trial","trial_index":106,"time_elapsed":557545,"internal_node_id":"0.0-79.0","task_version":"battery-v0.2-trt"},{"rune":"X","rune_set":"elianto","hex":"#f73b6a7A","correct":32,"choice":32,"rt":809.2249999754131,"accuracy":1,"outcome":"-1","keys":[2310.414999956265],"total_keys":1,"block":1,"trial":73,"stimulus":8,"robot":3,"valence":"lose","action":"go","sham":0,"trial_type":"pit-trial","trial_index":107,"time_elapsed":561076,"internal_node_id":"0.0-80.0","task_version":"battery-v0.2-trt"},{"rune":"B","rune_set":"elianto","hex":"#f73b6a7A","correct":-1,"choice":-1,"rt":-1,"accuracy":1,"outcome":"-1","keys":[],"total_keys":0,"block":1,"trial":74,"stimulus":6,"robot":4,"valence":"lose","action":"no-go","sham":0,"trial_type":"pit-trial","trial_index":108,"time_elapsed":565091,"internal_node_id":"0.0-81.0","task_version":"battery-v0.2-trt"},{"rune":"Z","rune_set":"elianto","hex":"#3366ff99","correct":32,"choice":32,"rt":680.7200000621378,"accuracy":1,"outcome":"+1","keys":[2180.970000103116],"total_keys":1,"block":1,"trial":75,"stimulus":4,"robot":1,"valence":"win","action":"go","sham":1,"trial_type":"pit-trial","trial_index":109,"time_elapsed":568488,"internal_node_id":"0.0-82.0","task_version":"battery-v0.2-trt"},{"rune":"T","rune_set":"elianto","hex":"#3366ff99","correct":-1,"choice":32,"rt":735.480000032112,"accuracy":0,"outcome":"+10","keys":[2236.06999986805],"total_keys":1,"block":1,"trial":76,"stimulus":7,"robot":2,"valence":"win","action":"no-go","sham":1,"trial_type":"pit-trial","trial_index":110,"time_elapsed":571941,"internal_node_id":"0.0-83.0","task_version":"battery-v0.2-trt"},{"rune":"T","rune_set":"elianto","hex":"#3366ff99","correct":-1,"choice":32,"rt":623.8999997731298,"accuracy":0,"outcome":"+1","keys":[2124.0399999078363],"total_keys":1,"block":1,"trial":77,"stimulus":7,"robot":2,"valence":"win","action":"no-go","sham":0,"trial_type":"pit-trial","trial_index":111,"time_elapsed":575282,"internal_node_id":"0.0-84.0","task_version":"battery-v0.2-trt"},{"rune":"X","rune_set":"elianto","hex":"#f73b6a7A","correct":32,"choice":32,"rt":870.8850000984967,"accuracy":1,"outcome":"-1","keys":[2371.705000055954],"total_keys":1,"block":1,"trial":78,"stimulus":8,"robot":3,"valence":"lose","action":"go","sham":0,"trial_type":"pit-trial","trial_index":112,"time_elapsed":578867,"internal_node_id":"0.0-85.0","task_version":"battery-v0.2-trt"},{"rune":"Z","rune_set":"elianto","hex":"#3366ff99","correct":32,"choice":32,"rt":1101.9550000783056,"accuracy":1,"outcome":"+10","keys":[2602.6000001002103],"total_keys":1,"block":1,"trial":79,"stimulus":4,"robot":1,"valence":"win","action":"go","sham":0,"trial_type":"pit-trial","trial_index":113,"time_elapsed":582682,"internal_node_id":"0.0-86.0","task_version":"battery-v0.2-trt"},{"rune":"B","rune_set":"elianto","hex":"#f73b6a7A","correct":-1,"choice":-1,"rt":-1,"accuracy":1,"outcome":"-1","keys":[],"total_keys":0,"block":1,"trial":80,"stimulus":6,"robot":4,"valence":"lose","action":"no-go","sham":0,"trial_type":"pit-trial","trial_index":114,"time_elapsed":586698,"internal_node_id":"0.0-87.0","task_version":"battery-v0.2-trt"},{"rune":"X","rune_set":"elianto","hex":"#f73b6a7A","correct":32,"choice":32,"rt":643.9150001388043,"accuracy":1,"outcome":"-10","keys":[2144.845000002533],"total_keys":1,"block":1,"trial":81,"stimulus":8,"robot":3,"valence":"lose","action":"go","sham":1,"trial_type":"pit-trial","trial_index":115,"time_elapsed":590055,"internal_node_id":"0.0-88.0","task_version":"battery-v0.2-trt"},{"rune":"F","rune_set":"elianto","hex":"#f73b6a7A","correct":32,"choice":32,"rt":827.504999935627,"accuracy":1,"outcome":"-1","keys":[2328.599999891594],"total_keys":1,"block":1,"trial":82,"stimulus":9,"robot":3,"valence":"lose","action":"go","sham":0,"trial_type":"pit-trial","trial_index":116,"time_elapsed":593604,"internal_node_id":"0.0-89.0","task_version":"battery-v0.2-trt"},{"rune":"B","rune_set":"elianto","hex":"#f73b6a7A","correct":-1,"choice":-1,"rt":-1,"accuracy":1,"outcome":"-1","keys":[],"total_keys":0,"block":1,"trial":83,"stimulus":6,"robot":4,"valence":"lose","action":"no-go","sham":0,"trial_type":"pit-trial","trial_index":117,"time_elapsed":597618,"internal_node_id":"0.0-90.0","task_version":"battery-v0.2-trt"},{"rune":"T","rune_set":"elianto","hex":"#3366ff99","correct":-1,"choice":32,"rt":679.5999999158084,"accuracy":0,"outcome":"+1","keys":[2180.835000006482],"total_keys":1,"block":1,"trial":84,"stimulus":7,"robot":2,"valence":"win","action":"no-go","sham":0,"trial_type":"pit-trial","trial_index":118,"time_elapsed":601021,"internal_node_id":"0.0-91.0","task_version":"battery-v0.2-trt"},{"rune":"F","rune_set":"elianto","hex":"#f73b6a7A","correct":32,"choice":32,"rt":1021.4749998413026,"accuracy":1,"outcome":"-1","keys":[2521.9550000038],"total_keys":1,"block":1,"trial":85,"stimulus":9,"robot":3,"valence":"lose","action":"go","sham":0,"trial_type":"pit-trial","trial_index":119,"time_elapsed":604792,"internal_node_id":"0.0-92.0","task_version":"battery-v0.2-trt"},{"rune":"B","rune_set":"elianto","hex":"#f73b6a7A","correct":-1,"choice":-1,"rt":-1,"accuracy":1,"outcome":"-1","keys":[],"total_keys":0,"block":1,"trial":86,"stimulus":6,"robot":4,"valence":"lose","action":"no-go","sham":0,"trial_type":"pit-trial","trial_index":120,"time_elapsed":608806,"internal_node_id":"0.0-93.0","task_version":"battery-v0.2-trt"},{"rune":"T","rune_set":"elianto","hex":"#3366ff99","correct":-1,"choice":32,"rt":709.6349999774247,"accuracy":0,"outcome":"+1","keys":[2209.830000065267],"total_keys":1,"block":1,"trial":87,"stimulus":7,"robot":2,"valence":"win","action":"no-go","sham":0,"trial_type":"pit-trial","trial_index":121,"time_elapsed":612228,"internal_node_id":"0.0-94.0","task_version":"battery-v0.2-trt"},{"rune":"X","rune_set":"elianto","hex":"#f73b6a7A","correct":32,"choice":32,"rt":785.8700000215322,"accuracy":1,"outcome":"-1","keys":[2287.1850000228733],"total_keys":1,"block":1,"trial":88,"stimulus":8,"robot":3,"valence":"lose","action":"go","sham":0,"trial_type":"pit-trial","trial_index":122,"time_elapsed":615728,"internal_node_id":"0.0-95.0","task_version":"battery-v0.2-trt"},{"rune":"Q","rune_set":"elianto","hex":"#3366ff99","correct":-1,"choice":32,"rt":761.56000001356,"accuracy":0,"outcome":"+1","keys":[2262.2100000735372],"total_keys":1,"block":1,"trial":89,"stimulus":11,"robot":2,"valence":"win","action":"no-go","sham":0,"trial_type":"pit-trial","trial_index":123,"time_elapsed":619209,"internal_node_id":"0.0-96.0","task_version":"battery-v0.2-trt"},{"rune":"N","rune_set":"elianto","hex":"#f73b6a7A","correct":-1,"choice":32,"rt":1001.4849998988211,"accuracy":0,"outcome":"-10","keys":[2501.7100002150983],"total_keys":1,"block":1,"trial":90,"stimulus":10,"robot":4,"valence":"lose","action":"no-go","sham":0,"trial_type":"pit-trial","trial_index":124,"time_elapsed":622932,"internal_node_id":"0.0-97.0","task_version":"battery-v0.2-trt"},{"rune":"F","rune_set":"elianto","hex":"#f73b6a7A","correct":32,"choice":32,"rt":745.6099998671561,"accuracy":1,"outcome":"-10","keys":[2246.8550000339746],"total_keys":1,"block":1,"trial":91,"stimulus":9,"robot":3,"valence":"lose","action":"go","sham":1,"trial_type":"pit-trial","trial_index":125,"time_elapsed":626394,"internal_node_id":"0.0-98.0","task_version":"battery-v0.2-trt"},{"rune":"X","rune_set":"elianto","hex":"#f73b6a7A","correct":32,"choice":-1,"rt":-1,"accuracy":0,"outcome":"-10","keys":[],"total_keys":0,"block":1,"trial":92,"stimulus":8,"robot":3,"valence":"lose","action":"go","sham":0,"trial_type":"pit-trial","trial_index":126,"time_elapsed":630408,"internal_node_id":"0.0-99.0","task_version":"battery-v0.2-trt"},{"rune":"X","rune_set":"elianto","hex":"#f73b6a7A","correct":32,"choice":32,"rt":536.1000001430511,"accuracy":1,"outcome":"-10","keys":[2036.314999917522],"total_keys":1,"block":1,"trial":93,"stimulus":8,"robot":3,"valence":"lose","action":"go","sham":1,"trial_type":"pit-trial","trial_index":127,"time_elapsed":633664,"internal_node_id":"0.0-100.0","task_version":"battery-v0.2-trt"},{"rune":"Q","rune_set":"elianto","hex":"#3366ff99","correct":-1,"choice":32,"rt":694.9450001120567,"accuracy":0,"outcome":"+1","keys":[2196.430000010878],"total_keys":1,"block":1,"trial":94,"stimulus":11,"robot":2,"valence":"win","action":"no-go","sham":0,"trial_type":"pit-trial","trial_index":128,"time_elapsed":637072,"internal_node_id":"0.0-101.0","task_version":"battery-v0.2-trt"},{"rune":"F","rune_set":"elianto","hex":"#f73b6a7A","correct":32,"choice":32,"rt":885.7950000092387,"accuracy":1,"outcome":"-1","keys":[2387.2599999886006],"total_keys":1,"block":1,"trial":95,"stimulus":9,"robot":3,"valence":"lose","action":"go","sham":0,"trial_type":"pit-trial","trial_index":129,"time_elapsed":640673,"internal_node_id":"0.0-102.0","task_version":"battery-v0.2-trt"},{"rune":"N","rune_set":"elianto","hex":"#f73b6a7A","correct":-1,"choice":32,"rt":1004.4150000903755,"accuracy":0,"outcome":"-10","keys":[2505.3749999497086],"total_keys":1,"block":1,"trial":96,"stimulus":10,"robot":4,"valence":"lose","action":"no-go","sham":0,"trial_type":"pit-trial","trial_index":130,"time_elapsed":644396,"internal_node_id":"0.0-103.0","task_version":"battery-v0.2-trt"},{"rune":"N","rune_set":"elianto","hex":"#f73b6a7A","correct":-1,"choice":-1,"rt":-1,"accuracy":1,"outcome":"-1","keys":[],"total_keys":0,"block":1,"trial":97,"stimulus":10,"robot":4,"valence":"lose","action":"no-go","sham":0,"trial_type":"pit-trial","trial_index":131,"time_elapsed":648413,"internal_node_id":"0.0-104.0","task_version":"battery-v0.2-trt"},{"rune":"X","rune_set":"elianto","hex":"#f73b6a7A","correct":32,"choice":-1,"rt":-1,"accuracy":0,"outcome":"-1","keys":[],"total_keys":0,"block":1,"trial":98,"stimulus":8,"robot":3,"valence":"lose","action":"go","sham":1,"trial_type":"pit-trial","trial_index":132,"time_elapsed":652430,"internal_node_id":"0.0-105.0","task_version":"battery-v0.2-trt"},{"rune":"F","rune_set":"elianto","hex":"#f73b6a7A","correct":32,"choice":-1,"rt":-1,"accuracy":0,"outcome":"-10","keys":[],"total_keys":0,"block":1,"trial":99,"stimulus":9,"robot":3,"valence":"lose","action":"go","sham":0,"trial_type":"pit-trial","trial_index":133,"time_elapsed":656445,"internal_node_id":"0.0-106.0","task_version":"battery-v0.2-trt"},{"rune":"Q","rune_set":"elianto","hex":"#3366ff99","correct":-1,"choice":32,"rt":643.184999935329,"accuracy":0,"outcome":"+10","keys":[2144.700000062585],"total_keys":1,"block":1,"trial":100,"stimulus":11,"robot":2,"valence":"win","action":"no-go","sham":1,"trial_type":"pit-trial","trial_index":134,"time_elapsed":659802,"internal_node_id":"0.0-107.0","task_version":"battery-v0.2-trt"},{"rune":"N","rune_set":"elianto","hex":"#f73b6a7A","correct":-1,"choice":-1,"rt":-1,"accuracy":1,"outcome":"-1","keys":[2841.584999812767],"total_keys":1,"block":1,"trial":101,"stimulus":10,"robot":4,"valence":"lose","action":"no-go","sham":0,"trial_type":"pit-trial","trial_index":135,"time_elapsed":663820,"internal_node_id":"0.0-108.0","task_version":"battery-v0.2-trt"},{"rune":"Q","rune_set":"elianto","hex":"#3366ff99","correct":-1,"choice":32,"rt":538.704999955371,"accuracy":0,"outcome":"+1","keys":[2038.8050000183284],"total_keys":1,"block":1,"trial":102,"stimulus":11,"robot":2,"valence":"win","action":"no-go","sham":0,"trial_type":"pit-trial","trial_index":136,"time_elapsed":667071,"internal_node_id":"0.0-109.0","task_version":"battery-v0.2-trt"},{"rune":"F","rune_set":"elianto","hex":"#f73b6a7A","correct":32,"choice":-1,"rt":-1,"accuracy":0,"outcome":"-10","keys":[],"total_keys":0,"block":1,"trial":103,"stimulus":9,"robot":3,"valence":"lose","action":"go","sham":0,"trial_type":"pit-trial","trial_index":137,"time_elapsed":671089,"internal_node_id":"0.0-110.0","task_version":"battery-v0.2-trt"},{"rune":"X","rune_set":"elianto","hex":"#f73b6a7A","correct":32,"choice":32,"rt":743.0049998220056,"accuracy":1,"outcome":"-1","keys":[2244.24000014551],"total_keys":1,"block":1,"trial":104,"stimulus":8,"robot":3,"valence":"lose","action":"go","sham":0,"trial_type":"pit-trial","trial_index":138,"time_elapsed":674548,"internal_node_id":"0.0-111.0","task_version":"battery-v0.2-trt"},{"rune":"Q","rune_set":"elianto","hex":"#3366ff99","correct":-1,"choice":32,"rt":991.8150000739843,"accuracy":0,"outcome":"+10","keys":[2492.809999966994],"total_keys":1,"block":1,"trial":105,"stimulus":11,"robot":2,"valence":"win","action":"no-go","sham":1,"trial_type":"pit-trial","trial_index":139,"time_elapsed":678264,"internal_node_id":"0.0-112.0","task_version":"battery-v0.2-trt"},{"rune":"X","rune_set":"elianto","hex":"#f73b6a7A","correct":32,"choice":32,"rt":1297.1200000029057,"accuracy":1,"outcome":"-1","keys":[2798.1350000482053],"total_keys":1,"block":1,"trial":106,"stimulus":8,"robot":3,"valence":"lose","action":"go","sham":0,"trial_type":"pit-trial","trial_index":140,"time_elapsed":682275,"internal_node_id":"0.0-113.0","task_version":"battery-v0.2-trt"},{"rune":"N","rune_set":"elianto","hex":"#f73b6a7A","correct":-1,"choice":32,"rt":812.16000020504,"accuracy":0,"outcome":"-10","keys":[2312.709999969229],"total_keys":1,"block":1,"trial":107,"stimulus":10,"robot":4,"valence":"lose","action":"no-go","sham":0,"trial_type":"pit-trial","trial_index":141,"time_elapsed":685801,"internal_node_id":"0.0-114.0","task_version":"battery-v0.2-trt"},{"rune":"F","rune_set":"elianto","hex":"#f73b6a7A","correct":32,"choice":32,"rt":915.1050001382828,"accuracy":1,"outcome":"-1","keys":[2415.5949999112636],"total_keys":1,"block":1,"trial":108,"stimulus":9,"robot":3,"valence":"lose","action":"go","sham":0,"trial_type":"pit-trial","trial_index":142,"time_elapsed":689429,"internal_node_id":"0.0-115.0","task_version":"battery-v0.2-trt"},{"rune":"N","rune_set":"elianto","hex":"#f73b6a7A","correct":-1,"choice":-1,"rt":-1,"accuracy":1,"outcome":"-10","keys":[],"total_keys":0,"block":1,"trial":109,"stimulus":10,"robot":4,"valence":"lose","action":"no-go","sham":1,"trial_type":"pit-trial","trial_index":143,"time_elapsed":693446,"internal_node_id":"0.0-116.0","task_version":"battery-v0.2-trt"},{"rune":"X","rune_set":"elianto","hex":"#f73b6a7A","correct":32,"choice":32,"rt":932.859999826178,"accuracy":1,"outcome":"-10","keys":[2433.994999853894],"total_keys":1,"block":1,"trial":110,"stimulus":8,"robot":3,"valence":"lose","action":"go","sham":1,"trial_type":"pit-trial","trial_index":144,"time_elapsed":697095,"internal_node_id":"0.0-117.0","task_version":"battery-v0.2-trt"},{"rune":"Q","rune_set":"elianto","hex":"#3366ff99","correct":-1,"choice":32,"rt":1131.675000069663,"accuracy":0,"outcome":"+10","keys":[2632.149999961257],"total_keys":1,"block":1,"trial":111,"stimulus":11,"robot":2,"valence":"win","action":"no-go","sham":1,"trial_type":"pit-trial","trial_index":145,"time_elapsed":700943,"internal_node_id":"0.0-118.0","task_version":"battery-v0.2-trt"},{"rune":"F","rune_set":"elianto","hex":"#f73b6a7A","correct":32,"choice":-1,"rt":-1,"accuracy":0,"outcome":"-10","keys":[],"total_keys":0,"block":1,"trial":112,"stimulus":9,"robot":3,"valence":"lose","action":"go","sham":0,"trial_type":"pit-trial","trial_index":146,"time_elapsed":704955,"internal_node_id":"0.0-119.0","task_version":"battery-v0.2-trt"},{"rune":"F","rune_set":"elianto","hex":"#f73b6a7A","correct":32,"choice":32,"rt":659.6649999264628,"accuracy":1,"outcome":"-1","keys":[2161.575000034645],"total_keys":1,"block":1,"trial":113,"stimulus":9,"robot":3,"valence":"lose","action":"go","sham":0,"trial_type":"pit-trial","trial_index":147,"time_elapsed":708331,"internal_node_id":"0.0-120.0","task_version":"battery-v0.2-trt"},{"rune":"N","rune_set":"elianto","hex":"#f73b6a7A","correct":-1,"choice":32,"rt":982.2800001129508,"accuracy":0,"outcome":"-10","keys":[2482.9899999313056],"total_keys":1,"block":1,"trial":114,"stimulus":10,"robot":4,"valence":"lose","action":"no-go","sham":0,"trial_type":"pit-trial","trial_index":148,"time_elapsed":712027,"internal_node_id":"0.0-121.0","task_version":"battery-v0.2-trt"},{"rune":"X","rune_set":"elianto","hex":"#f73b6a7A","correct":32,"choice":32,"rt":667.4099999945611,"accuracy":1,"outcome":"-1","keys":[2167.7749999798834],"total_keys":1,"block":1,"trial":115,"stimulus":8,"robot":3,"valence":"lose","action":"go","sham":0,"trial_type":"pit-trial","trial_index":149,"time_elapsed":715409,"internal_node_id":"0.0-122.0","task_version":"battery-v0.2-trt"},{"rune":"Q","rune_set":"elianto","hex":"#3366ff99","correct":-1,"choice":32,"rt":531.8899999838322,"accuracy":0,"outcome":"+1","keys":[2032.3499999940395],"total_keys":1,"block":1,"trial":116,"stimulus":11,"robot":2,"valence":"win","action":"no-go","sham":0,"trial_type":"pit-trial","trial_index":150,"time_elapsed":718656,"internal_node_id":"0.0-123.0","task_version":"battery-v0.2-trt"},{"rune":"X","rune_set":"elianto","hex":"#f73b6a7A","correct":32,"choice":-1,"rt":-1,"accuracy":0,"outcome":"-10","keys":[],"total_keys":0,"block":1,"trial":117,"stimulus":8,"robot":3,"valence":"lose","action":"go","sham":0,"trial_type":"pit-trial","trial_index":151,"time_elapsed":722676,"internal_node_id":"0.0-124.0","task_version":"battery-v0.2-trt"},{"rune":"F","rune_set":"elianto","hex":"#f73b6a7A","correct":32,"choice":32,"rt":487.62999987229705,"accuracy":1,"outcome":"-1","keys":[1989.5849998574704],"total_keys":1,"block":1,"trial":118,"stimulus":9,"robot":3,"valence":"lose","action":"go","sham":0,"trial_type":"pit-trial","trial_index":152,"time_elapsed":725885,"internal_node_id":"0.0-125.0","task_version":"battery-v0.2-trt"},{"rune":"Q","rune_set":"elianto","hex":"#3366ff99","correct":-1,"choice":32,"rt":1127.8650001622736,"accuracy":0,"outcome":"+1","keys":[2629.1800001636147],"total_keys":1,"block":1,"trial":119,"stimulus":11,"robot":2,"valence":"win","action":"no-go","sham":0,"trial_type":"pit-trial","trial_index":153,"time_elapsed":729727,"internal_node_id":"0.0-126.0","task_version":"battery-v0.2-trt"},{"rune":"N","rune_set":"elianto","hex":"#f73b6a7A","correct":-1,"choice":32,"rt":947.8650002274662,"accuracy":0,"outcome":"-10","keys":[2448.6950000282377],"total_keys":1,"block":1,"trial":120,"stimulus":10,"robot":4,"valence":"lose","action":"no-go","sham":0,"trial_type":"pit-trial","trial_index":154,"time_elapsed":733394,"internal_node_id":"0.0-127.0","task_version":"battery-v0.2-trt"},{"view_history":"[{\"page_index\":0,\"viewing_time\":64501.50000001304},{\"page_index\":1,\"viewing_time\":2303.2400000374764}]","rt":66806.07499997132,"trial_type":"pit-instructions","trial_index":155,"time_elapsed":800214,"internal_node_id":"0.0-128.0","task_version":"battery-v0.2-trt"},{"rune":"L","rune_set":"elianto","hex":"#f73b6a7A","correct":-1,"choice":32,"rt":584.8000000696629,"accuracy":0,"outcome":"-10","keys":[2085.759999928996],"total_keys":1,"block":2,"trial":121,"stimulus":1,"robot":4,"valence":"lose","action":"no-go","sham":0,"trial_type":"pit-trial","trial_index":156,"time_elapsed":803527,"internal_node_id":"0.0-129.0","task_version":"battery-v0.2-trt"},{"rune":"A","rune_set":"elianto","hex":"#3366ff99","correct":32,"choice":32,"rt":520.9250000771135,"accuracy":1,"outcome":"+1","keys":[2022.8650001809],"total_keys":1,"block":2,"trial":122,"stimulus":2,"robot":1,"valence":"win","action":"go","sham":1,"trial_type":"pit-trial","trial_index":157,"time_elapsed":806768,"internal_node_id":"0.0-130.0","task_version":"battery-v0.2-trt"},{"rune":"U","rune_set":"elianto","hex":"#f73b6a7A","correct":-1,"choice":32,"rt":918.8549998216331,"accuracy":0,"outcome":"-10","keys":[2419.945000205189],"total_keys":1,"block":2,"trial":123,"stimulus":0,"robot":4,"valence":"lose","action":"no-go","sham":0,"trial_type":"pit-trial","trial_index":158,"time_elapsed":810421,"internal_node_id":"0.0-131.0","task_version":"battery-v0.2-trt"},{"rune":"G","rune_set":"elianto","hex":"#3366ff99","correct":-1,"choice":32,"rt":934.6749999094754,"accuracy":0,"outcome":"+10","keys":[2435.1150000002235],"total_keys":1,"block":2,"trial":124,"stimulus":3,"robot":2,"valence":"win","action":"no-go","sham":1,"trial_type":"pit-trial","trial_index":159,"time_elapsed":814075,"internal_node_id":"0.0-132.0","task_version":"battery-v0.2-trt"},{"rune":"A","rune_set":"elianto","hex":"#3366ff99","correct":32,"choice":-1,"rt":-1,"accuracy":0,"outcome":"+1","keys":[],"total_keys":0,"block":2,"trial":125,"stimulus":2,"robot":1,"valence":"win","action":"go","sham":0,"trial_type":"pit-trial","trial_index":160,"time_elapsed":818098,"internal_node_id":"0.0-133.0","task_version":"battery-v0.2-trt"},{"rune":"L","rune_set":"elianto","hex":"#f73b6a7A","correct":-1,"choice":-1,"rt":-1,"accuracy":1,"outcome":"-1","keys":[],"total_keys":0,"block":2,"trial":126,"stimulus":1,"robot":4,"valence":"lose","action":"no-go","sham":0,"trial_type":"pit-trial","trial_index":161,"time_elapsed":822116,"internal_node_id":"0.0-134.0","task_version":"battery-v0.2-trt"},{"rune":"U","rune_set":"elianto","hex":"#f73b6a7A","correct":-1,"choice":-1,"rt":-1,"accuracy":1,"outcome":"-1","keys":[],"total_keys":0,"block":2,"trial":127,"stimulus":0,"robot":4,"valence":"lose","action":"no-go","sham":0,"trial_type":"pit-trial","trial_index":162,"time_elapsed":826129,"internal_node_id":"0.0-135.0","task_version":"battery-v0.2-trt"},{"rune":"G","rune_set":"elianto","hex":"#3366ff99","correct":-1,"choice":32,"rt":641.2849999032915,"accuracy":0,"outcome":"+1","keys":[2141.8850000482053],"total_keys":1,"block":2,"trial":128,"stimulus":3,"robot":2,"valence":"win","action":"no-go","sham":0,"trial_type":"pit-trial","trial_index":163,"time_elapsed":829484,"internal_node_id":"0.0-136.0","task_version":"battery-v0.2-trt"},{"rune":"U","rune_set":"elianto","hex":"#f73b6a7A","correct":-1,"choice":-1,"rt":-1,"accuracy":1,"outcome":"-1","keys":[],"total_keys":0,"block":2,"trial":129,"stimulus":0,"robot":4,"valence":"lose","action":"no-go","sham":0,"trial_type":"pit-trial","trial_index":164,"time_elapsed":833504,"internal_node_id":"0.0-137.0","task_version":"battery-v0.2-trt"},{"rune":"G","rune_set":"elianto","hex":"#3366ff99","correct":-1,"choice":32,"rt":375.88499998673797,"accuracy":0,"outcome":"+1","keys":[1876.5699998475611],"total_keys":1,"block":2,"trial":130,"stimulus":3,"robot":2,"valence":"win","action":"no-go","sham":0,"trial_type":"pit-trial","trial_index":165,"time_elapsed":836595,"internal_node_id":"0.0-138.0","task_version":"battery-v0.2-trt"},{"rune":"L","rune_set":"elianto","hex":"#f73b6a7A","correct":-1,"choice":-1,"rt":-1,"accuracy":1,"outcome":"-1","keys":[],"total_keys":0,"block":2,"trial":131,"stimulus":1,"robot":4,"valence":"lose","action":"no-go","sham":0,"trial_type":"pit-trial","trial_index":166,"time_elapsed":840607,"internal_node_id":"0.0-139.0","task_version":"battery-v0.2-trt"},{"rune":"A","rune_set":"elianto","hex":"#3366ff99","correct":32,"choice":32,"rt":649.8750001192093,"accuracy":1,"outcome":"+1","keys":[2150.6650000810623],"total_keys":1,"block":2,"trial":132,"stimulus":2,"robot":1,"valence":"win","action":"go","sham":1,"trial_type":"pit-trial","trial_index":167,"time_elapsed":843974,"internal_node_id":"0.0-140.0","task_version":"battery-v0.2-trt"},{"rune":"L","rune_set":"elianto","hex":"#f73b6a7A","correct":-1,"choice":-1,"rt":-1,"accuracy":1,"outcome":"-1","keys":[],"total_keys":0,"block":2,"trial":133,"stimulus":1,"robot":4,"valence":"lose","action":"no-go","sham":0,"trial_type":"pit-trial","trial_index":168,"time_elapsed":847986,"internal_node_id":"0.0-141.0","task_version":"battery-v0.2-trt"},{"rune":"G","rune_set":"elianto","hex":"#3366ff99","correct":-1,"choice":32,"rt":993.4600000269711,"accuracy":0,"outcome":"+1","keys":[2494.010000023991],"total_keys":1,"block":2,"trial":134,"stimulus":3,"robot":2,"valence":"win","action":"no-go","sham":0,"trial_type":"pit-trial","trial_index":169,"time_elapsed":851699,"internal_node_id":"0.0-142.0","task_version":"battery-v0.2-trt"},{"rune":"A","rune_set":"elianto","hex":"#3366ff99","correct":32,"choice":-1,"rt":-1,"accuracy":0,"outcome":"+1","keys":[],"total_keys":0,"block":2,"trial":135,"stimulus":2,"robot":1,"valence":"win","action":"go","sham":0,"trial_type":"pit-trial","trial_index":170,"time_elapsed":855713,"internal_node_id":"0.0-143.0","task_version":"battery-v0.2-trt"},{"rune":"U","rune_set":"elianto","hex":"#f73b6a7A","correct":-1,"choice":-1,"rt":-1,"accuracy":1,"outcome":"-1","keys":[],"total_keys":0,"block":2,"trial":136,"stimulus":0,"robot":4,"valence":"lose","action":"no-go","sham":0,"trial_type":"pit-trial","trial_index":171,"time_elapsed":859739,"internal_node_id":"0.0-144.0","task_version":"battery-v0.2-trt"},{"rune":"G","rune_set":"elianto","hex":"#3366ff99","correct":-1,"choice":-1,"rt":-1,"accuracy":1,"outcome":"+10","keys":[],"total_keys":0,"block":2,"trial":137,"stimulus":3,"robot":2,"valence":"win","action":"no-go","sham":0,"trial_type":"pit-trial","trial_index":172,"time_elapsed":863757,"internal_node_id":"0.0-145.0","task_version":"battery-v0.2-trt"},{"rune":"L","rune_set":"elianto","hex":"#f73b6a7A","correct":-1,"choice":-1,"rt":-1,"accuracy":1,"outcome":"-1","keys":[],"total_keys":0,"block":2,"trial":138,"stimulus":1,"robot":4,"valence":"lose","action":"no-go","sham":0,"trial_type":"pit-trial","trial_index":173,"time_elapsed":867772,"internal_node_id":"0.0-146.0","task_version":"battery-v0.2-trt"},{"rune":"U","rune_set":"elianto","hex":"#f73b6a7A","correct":-1,"choice":-1,"rt":-1,"accuracy":1,"outcome":"-1","keys":[],"total_keys":0,"block":2,"trial":139,"stimulus":0,"robot":4,"valence":"lose","action":"no-go","sham":0,"trial_type":"pit-trial","trial_index":174,"time_elapsed":871792,"internal_node_id":"0.0-147.0","task_version":"battery-v0.2-trt"},{"rune":"A","rune_set":"elianto","hex":"#3366ff99","correct":32,"choice":-1,"rt":-1,"accuracy":0,"outcome":"+1","keys":[],"total_keys":0,"block":2,"trial":140,"stimulus":2,"robot":1,"valence":"win","action":"go","sham":0,"trial_type":"pit-trial","trial_index":175,"time_elapsed":875808,"internal_node_id":"0.0-148.0","task_version":"battery-v0.2-trt"},{"rune":"A","rune_set":"elianto","hex":"#3366ff99","correct":32,"choice":32,"rt":719.5899998769164,"accuracy":1,"outcome":"+10","keys":[492.0550000388175,2221.2600000202656],"total_keys":2,"block":2,"trial":141,"stimulus":2,"robot":1,"valence":"win","action":"go","sham":0,"trial_type":"pit-trial","trial_index":176,"time_elapsed":879243,"internal_node_id":"0.0-149.0","task_version":"battery-v0.2-trt"},{"rune":"L","rune_set":"elianto","hex":"#f73b6a7A","correct":-1,"choice":-1,"rt":-1,"accuracy":1,"outcome":"-1","keys":[],"total_keys":0,"block":2,"trial":142,"stimulus":1,"robot":4,"valence":"lose","action":"no-go","sham":0,"trial_type":"pit-trial","trial_index":177,"time_elapsed":883263,"internal_node_id":"0.0-150.0","task_version":"battery-v0.2-trt"},{"rune":"G","rune_set":"elianto","hex":"#3366ff99","correct":-1,"choice":-1,"rt":-1,"accuracy":1,"outcome":"+10","keys":[],"total_keys":0,"block":2,"trial":143,"stimulus":3,"robot":2,"valence":"win","action":"no-go","sham":0,"trial_type":"pit-trial","trial_index":178,"time_elapsed":887276,"internal_node_id":"0.0-151.0","task_version":"battery-v0.2-trt"},{"rune":"U","rune_set":"elianto","hex":"#f73b6a7A","correct":-1,"choice":-1,"rt":-1,"accuracy":1,"outcome":"-1","keys":[],"total_keys":0,"block":2,"trial":144,"stimulus":0,"robot":4,"valence":"lose","action":"no-go","sham":0,"trial_type":"pit-trial","trial_index":179,"time_elapsed":891288,"internal_node_id":"0.0-152.0","task_version":"battery-v0.2-trt"},{"rune":"G","rune_set":"elianto","hex":"#3366ff99","correct":-1,"choice":-1,"rt":-1,"accuracy":1,"outcome":"+10","keys":[],"total_keys":0,"block":2,"trial":145,"stimulus":3,"robot":2,"valence":"win","action":"no-go","sham":0,"trial_type":"pit-trial","trial_index":180,"time_elapsed":895302,"internal_node_id":"0.0-153.0","task_version":"battery-v0.2-trt"},{"rune":"L","rune_set":"elianto","hex":"#f73b6a7A","correct":-1,"choice":-1,"rt":-1,"accuracy":1,"outcome":"-1","keys":[],"total_keys":0,"block":2,"trial":146,"stimulus":1,"robot":4,"valence":"lose","action":"no-go","sham":0,"trial_type":"pit-trial","trial_index":181,"time_elapsed":899322,"internal_node_id":"0.0-154.0","task_version":"battery-v0.2-trt"},{"rune":"A","rune_set":"elianto","hex":"#3366ff99","correct":32,"choice":32,"rt":480.16000003553927,"accuracy":1,"outcome":"+10","keys":[1980.6900001130998],"total_keys":1,"block":2,"trial":147,"stimulus":2,"robot":1,"valence":"win","action":"go","sham":0,"trial_type":"pit-trial","trial_index":182,"time_elapsed":902518,"internal_node_id":"0.0-155.0","task_version":"battery-v0.2-trt"},{"rune":"U","rune_set":"elianto","hex":"#f73b6a7A","correct":-1,"choice":-1,"rt":-1,"accuracy":1,"outcome":"-10","keys":[],"total_keys":0,"block":2,"trial":148,"stimulus":0,"robot":4,"valence":"lose","action":"no-go","sham":1,"trial_type":"pit-trial","trial_index":183,"time_elapsed":906538,"internal_node_id":"0.0-156.0","task_version":"battery-v0.2-trt"},{"rune":"L","rune_set":"elianto","hex":"#f73b6a7A","correct":-1,"choice":-1,"rt":-1,"accuracy":1,"outcome":"-1","keys":[],"total_keys":0,"block":2,"trial":149,"stimulus":1,"robot":4,"valence":"lose","action":"no-go","sham":0,"trial_type":"pit-trial","trial_index":184,"time_elapsed":910557,"internal_node_id":"0.0-157.0","task_version":"battery-v0.2-trt"},{"rune":"U","rune_set":"elianto","hex":"#f73b6a7A","correct":-1,"choice":-1,"rt":-1,"accuracy":1,"outcome":"-1","keys":[],"total_keys":0,"block":2,"trial":150,"stimulus":0,"robot":4,"valence":"lose","action":"no-go","sham":0,"trial_type":"pit-trial","trial_index":185,"time_elapsed":914577,"internal_node_id":"0.0-158.0","task_version":"battery-v0.2-trt"},{"rune":"A","rune_set":"elianto","hex":"#3366ff99","correct":32,"choice":32,"rt":513.1999999284744,"accuracy":1,"outcome":"+10","keys":[2014.7450000513345],"total_keys":1,"block":2,"trial":151,"stimulus":2,"robot":1,"valence":"win","action":"go","sham":0,"trial_type":"pit-trial","trial_index":186,"time_elapsed":917804,"internal_node_id":"0.0-159.0","task_version":"battery-v0.2-trt"},{"rune":"G","rune_set":"elianto","hex":"#3366ff99","correct":-1,"choice":-1,"rt":-1,"accuracy":1,"outcome":"+10","keys":[],"total_keys":0,"block":2,"trial":152,"stimulus":3,"robot":2,"valence":"win","action":"no-go","sham":0,"trial_type":"pit-trial","trial_index":187,"time_elapsed":921827,"internal_node_id":"0.0-160.0","task_version":"battery-v0.2-trt"},{"rune":"A","rune_set":"elianto","hex":"#3366ff99","correct":32,"choice":32,"rt":755.3699999116361,"accuracy":1,"outcome":"+1","keys":[2256.1950001399964],"total_keys":1,"block":2,"trial":153,"stimulus":2,"robot":1,"valence":"win","action":"go","sham":1,"trial_type":"pit-trial","trial_index":188,"time_elapsed":925303,"internal_node_id":"0.0-161.0","task_version":"battery-v0.2-trt"},{"rune":"U","rune_set":"elianto","hex":"#f73b6a7A","correct":-1,"choice":-1,"rt":-1,"accuracy":1,"outcome":"-1","keys":[],"total_keys":0,"block":2,"trial":154,"stimulus":0,"robot":4,"valence":"lose","action":"no-go","sham":0,"trial_type":"pit-trial","trial_index":189,"time_elapsed":929318,"internal_node_id":"0.0-162.0","task_version":"battery-v0.2-trt"},{"rune":"G","rune_set":"elianto","hex":"#3366ff99","correct":-1,"choice":-1,"rt":-1,"accuracy":1,"outcome":"+10","keys":[],"total_keys":0,"block":2,"trial":155,"stimulus":3,"robot":2,"valence":"win","action":"no-go","sham":0,"trial_type":"pit-trial","trial_index":190,"time_elapsed":933336,"internal_node_id":"0.0-163.0","task_version":"battery-v0.2-trt"},{"rune":"P","rune_set":"elianto","hex":"#f73b6a7A","correct":32,"choice":-1,"rt":-1,"accuracy":0,"outcome":"-10","keys":[],"total_keys":0,"block":2,"trial":156,"stimulus":4,"robot":3,"valence":"lose","action":"go","sham":0,"trial_type":"pit-trial","trial_index":191,"time_elapsed":937353,"internal_node_id":"0.0-164.0","task_version":"battery-v0.2-trt"},{"rune":"U","rune_set":"elianto","hex":"#f73b6a7A","correct":-1,"choice":-1,"rt":-1,"accuracy":1,"outcome":"-1","keys":[],"total_keys":0,"block":2,"trial":157,"stimulus":0,"robot":4,"valence":"lose","action":"no-go","sham":0,"trial_type":"pit-trial","trial_index":192,"time_elapsed":941368,"internal_node_id":"0.0-165.0","task_version":"battery-v0.2-trt"},{"rune":"G","rune_set":"elianto","hex":"#3366ff99","correct":-1,"choice":-1,"rt":-1,"accuracy":1,"outcome":"+10","keys":[],"total_keys":0,"block":2,"trial":158,"stimulus":3,"robot":2,"valence":"win","action":"no-go","sham":0,"trial_type":"pit-trial","trial_index":193,"time_elapsed":945389,"internal_node_id":"0.0-166.0","task_version":"battery-v0.2-trt"},{"rune":"A","rune_set":"elianto","hex":"#3366ff99","correct":32,"choice":32,"rt":567.2999999951571,"accuracy":1,"outcome":"+1","keys":[2068.534999853],"total_keys":1,"block":2,"trial":159,"stimulus":2,"robot":1,"valence":"win","action":"go","sham":1,"trial_type":"pit-trial","trial_index":194,"time_elapsed":948676,"internal_node_id":"0.0-167.0","task_version":"battery-v0.2-trt"},{"rune":"P","rune_set":"elianto","hex":"#f73b6a7A","correct":32,"choice":32,"rt":729.7499999403954,"accuracy":1,"outcome":"-1","keys":[2230.144999921322],"total_keys":1,"block":2,"trial":160,"stimulus":4,"robot":3,"valence":"lose","action":"go","sham":0,"trial_type":"pit-trial","trial_index":195,"time_elapsed":952123,"internal_node_id":"0.0-168.0","task_version":"battery-v0.2-trt"},{"rune":"W","rune_set":"elianto","hex":"#3366ff99","correct":32,"choice":-1,"rt":-1,"accuracy":0,"outcome":"+1","keys":[2925.83499988541],"total_keys":1,"block":2,"trial":161,"stimulus":6,"robot":1,"valence":"win","action":"go","sham":0,"trial_type":"pit-trial","trial_index":196,"time_elapsed":956146,"internal_node_id":"0.0-169.0","task_version":"battery-v0.2-trt"},{"rune":"S","rune_set":"elianto","hex":"#3366ff99","correct":-1,"choice":32,"rt":734.4049999956042,"accuracy":0,"outcome":"+1","keys":[2234.4850001391023],"total_keys":1,"block":2,"trial":162,"stimulus":5,"robot":2,"valence":"win","action":"no-go","sham":0,"trial_type":"pit-trial","trial_index":197,"time_elapsed":959596,"internal_node_id":"0.0-170.0","task_version":"battery-v0.2-trt"},{"rune":"P","rune_set":"elianto","hex":"#f73b6a7A","correct":32,"choice":32,"rt":1017.3800000920892,"accuracy":1,"outcome":"-1","keys":[2518.279999960214],"total_keys":1,"block":2,"trial":163,"stimulus":4,"robot":3,"valence":"lose","action":"go","sham":0,"trial_type":"pit-trial","trial_index":198,"time_elapsed":963329,"internal_node_id":"0.0-171.0","task_version":"battery-v0.2-trt"},{"rune":"U","rune_set":"elianto","hex":"#f73b6a7A","correct":-1,"choice":-1,"rt":-1,"accuracy":1,"outcome":"-1","keys":[],"total_keys":0,"block":2,"trial":164,"stimulus":0,"robot":4,"valence":"lose","action":"no-go","sham":0,"trial_type":"pit-trial","trial_index":199,"time_elapsed":967349,"internal_node_id":"0.0-172.0","task_version":"battery-v0.2-trt"},{"rune":"W","rune_set":"elianto","hex":"#3366ff99","correct":32,"choice":32,"rt":851.8150001764297,"accuracy":1,"outcome":"+10","keys":[2353.3799999859184],"total_keys":1,"block":2,"trial":165,"stimulus":6,"robot":1,"valence":"win","action":"go","sham":0,"trial_type":"pit-trial","trial_index":200,"time_elapsed":970916,"internal_node_id":"0.0-173.0","task_version":"battery-v0.2-trt"},{"rune":"S","rune_set":"elianto","hex":"#3366ff99","correct":-1,"choice":-1,"rt":-1,"accuracy":1,"outcome":"+10","keys":[],"total_keys":0,"block":2,"trial":166,"stimulus":5,"robot":2,"valence":"win","action":"no-go","sham":0,"trial_type":"pit-trial","trial_index":201,"time_elapsed":974930,"internal_node_id":"0.0-174.0","task_version":"battery-v0.2-trt"},{"rune":"P","rune_set":"elianto","hex":"#f73b6a7A","correct":32,"choice":32,"rt":804.8449999187142,"accuracy":1,"outcome":"-1","keys":[2306.6000000108033],"total_keys":1,"block":2,"trial":167,"stimulus":4,"robot":3,"valence":"lose","action":"go","sham":0,"trial_type":"pit-trial","trial_index":202,"time_elapsed":978456,"internal_node_id":"0.0-175.0","task_version":"battery-v0.2-trt"},{"rune":"U","rune_set":"elianto","hex":"#f73b6a7A","correct":-1,"choice":-1,"rt":-1,"accuracy":1,"outcome":"-1","keys":[],"total_keys":0,"block":2,"trial":168,"stimulus":0,"robot":4,"valence":"lose","action":"no-go","sham":0,"trial_type":"pit-trial","trial_index":203,"time_elapsed":982475,"internal_node_id":"0.0-176.0","task_version":"battery-v0.2-trt"},{"rune":"S","rune_set":"elianto","hex":"#3366ff99","correct":-1,"choice":-1,"rt":-1,"accuracy":1,"outcome":"+1","keys":[],"total_keys":0,"block":2,"trial":169,"stimulus":5,"robot":2,"valence":"win","action":"no-go","sham":1,"trial_type":"pit-trial","trial_index":204,"time_elapsed":986491,"internal_node_id":"0.0-177.0","task_version":"battery-v0.2-trt"},{"rune":"E","rune_set":"elianto","hex":"#f73b6a7A","correct":-1,"choice":32,"rt":783.9399999938905,"accuracy":0,"outcome":"-10","keys":[2284.0249999426305],"total_keys":1,"block":2,"trial":170,"stimulus":7,"robot":4,"valence":"lose","action":"no-go","sham":0,"trial_type":"pit-trial","trial_index":205,"time_elapsed":989994,"internal_node_id":"0.0-178.0","task_version":"battery-v0.2-trt"},{"rune":"W","rune_set":"elianto","hex":"#3366ff99","correct":32,"choice":32,"rt":806.4100001938641,"accuracy":1,"outcome":"+10","keys":[2307.370000053197],"total_keys":1,"block":2,"trial":171,"stimulus":6,"robot":1,"valence":"win","action":"go","sham":0,"trial_type":"pit-trial","trial_index":206,"time_elapsed":993513,"internal_node_id":"0.0-179.0","task_version":"battery-v0.2-trt"},{"rune":"P","rune_set":"elianto","hex":"#f73b6a7A","correct":32,"choice":32,"rt":410.4949999600649,"accuracy":1,"outcome":"-1","keys":[1911.9949999731034],"total_keys":1,"block":2,"trial":172,"stimulus":4,"robot":3,"valence":"lose","action":"go","sham":0,"trial_type":"pit-trial","trial_index":207,"time_elapsed":996637,"internal_node_id":"0.0-180.0","task_version":"battery-v0.2-trt"},{"rune":"W","rune_set":"elianto","hex":"#3366ff99","correct":32,"choice":32,"rt":868.0750001221895,"accuracy":1,"outcome":"+10","keys":[2369.334999937564],"total_keys":1,"block":2,"trial":173,"stimulus":6,"robot":1,"valence":"win","action":"go","sham":0,"trial_type":"pit-trial","trial_index":208,"time_elapsed":1000220,"internal_node_id":"0.0-181.0","task_version":"battery-v0.2-trt"},{"rune":"P","rune_set":"elianto","hex":"#f73b6a7A","correct":32,"choice":32,"rt":691.0900000948459,"accuracy":1,"outcome":"-1","keys":[2191.2999998312443],"total_keys":1,"block":2,"trial":174,"stimulus":4,"robot":3,"valence":"lose","action":"go","sham":0,"trial_type":"pit-trial","trial_index":209,"time_elapsed":1003628,"internal_node_id":"0.0-182.0","task_version":"battery-v0.2-trt"},{"rune":"S","rune_set":"elianto","hex":"#3366ff99","correct":-1,"choice":32,"rt":592.3850000835955,"accuracy":0,"outcome":"+1","keys":[2093.0250000674278],"total_keys":1,"block":2,"trial":175,"stimulus":5,"robot":2,"valence":"win","action":"no-go","sham":0,"trial_type":"pit-trial","trial_index":210,"time_elapsed":1006934,"internal_node_id":"0.0-183.0","task_version":"battery-v0.2-trt"},{"rune":"E","rune_set":"elianto","hex":"#f73b6a7A","correct":-1,"choice":-1,"rt":-1,"accuracy":1,"outcome":"-1","keys":[],"total_keys":0,"block":2,"trial":176,"stimulus":7,"robot":4,"valence":"lose","action":"no-go","sham":0,"trial_type":"pit-trial","trial_index":211,"time_elapsed":1010949,"internal_node_id":"0.0-184.0","task_version":"battery-v0.2-trt"},{"rune":"P","rune_set":"elianto","hex":"#f73b6a7A","correct":32,"choice":32,"rt":779.3150001671165,"accuracy":1,"outcome":"-10","keys":[2280.2200000733137],"total_keys":1,"block":2,"trial":177,"stimulus":4,"robot":3,"valence":"lose","action":"go","sham":1,"trial_type":"pit-trial","trial_index":212,"time_elapsed":1014444,"internal_node_id":"0.0-185.0","task_version":"battery-v0.2-trt"},{"rune":"W","rune_set":"elianto","hex":"#3366ff99","correct":32,"choice":32,"rt":912.2800000477582,"accuracy":1,"outcome":"+10","keys":[2412.7950000111014],"total_keys":1,"block":2,"trial":178,"stimulus":6,"robot":1,"valence":"win","action":"go","sham":0,"trial_type":"pit-trial","trial_index":213,"time_elapsed":1018071,"internal_node_id":"0.0-186.0","task_version":"battery-v0.2-trt"},{"rune":"S","rune_set":"elianto","hex":"#3366ff99","correct":-1,"choice":32,"rt":445.25999994948506,"accuracy":0,"outcome":"+10","keys":[1946.500000078231],"total_keys":1,"block":2,"trial":179,"stimulus":5,"robot":2,"valence":"win","action":"no-go","sham":1,"trial_type":"pit-trial","trial_index":214,"time_elapsed":1021230,"internal_node_id":"0.0-187.0","task_version":"battery-v0.2-trt"},{"rune":"E","rune_set":"elianto","hex":"#f73b6a7A","correct":-1,"choice":-1,"rt":-1,"accuracy":1,"outcome":"-1","keys":[],"total_keys":0,"block":2,"trial":180,"stimulus":7,"robot":4,"valence":"lose","action":"no-go","sham":0,"trial_type":"pit-trial","trial_index":215,"time_elapsed":1025249,"internal_node_id":"0.0-188.0","task_version":"battery-v0.2-trt"},{"rune":"S","rune_set":"elianto","hex":"#3366ff99","correct":-1,"choice":32,"rt":1032.0850000716746,"accuracy":0,"outcome":"+1","keys":[2532.565000001341],"total_keys":1,"block":2,"trial":181,"stimulus":5,"robot":2,"valence":"win","action":"no-go","sham":0,"trial_type":"pit-trial","trial_index":216,"time_elapsed":1029001,"internal_node_id":"0.0-189.0","task_version":"battery-v0.2-trt"},{"rune":"P","rune_set":"elianto","hex":"#f73b6a7A","correct":32,"choice":32,"rt":779.6500001568347,"accuracy":1,"outcome":"-1","keys":[2280.799999833107],"total_keys":1,"block":2,"trial":182,"stimulus":4,"robot":3,"valence":"lose","action":"go","sham":0,"trial_type":"pit-trial","trial_index":217,"time_elapsed":1032497,"internal_node_id":"0.0-190.0","task_version":"battery-v0.2-trt"},{"rune":"W","rune_set":"elianto","hex":"#3366ff99","correct":32,"choice":32,"rt":769.4949998985976,"accuracy":1,"outcome":"+1","keys":[2270.744999870658],"total_keys":1,"block":2,"trial":183,"stimulus":6,"robot":1,"valence":"win","action":"go","sham":1,"trial_type":"pit-trial","trial_index":218,"time_elapsed":1035986,"internal_node_id":"0.0-191.0","task_version":"battery-v0.2-trt"},{"rune":"E","rune_set":"elianto","hex":"#f73b6a7A","correct":-1,"choice":-1,"rt":-1,"accuracy":1,"outcome":"-10","keys":[],"total_keys":0,"block":2,"trial":184,"stimulus":7,"robot":4,"valence":"lose","action":"no-go","sham":1,"trial_type":"pit-trial","trial_index":219,"time_elapsed":1040008,"internal_node_id":"0.0-192.0","task_version":"battery-v0.2-trt"},{"rune":"E","rune_set":"elianto","hex":"#f73b6a7A","correct":-1,"choice":32,"rt":606.364999897778,"accuracy":0,"outcome":"-10","keys":[2106.7049999255687],"total_keys":1,"block":2,"trial":185,"stimulus":7,"robot":4,"valence":"lose","action":"no-go","sham":0,"trial_type":"pit-trial","trial_index":220,"time_elapsed":1043329,"internal_node_id":"0.0-193.0","task_version":"battery-v0.2-trt"},{"rune":"P","rune_set":"elianto","hex":"#f73b6a7A","correct":32,"choice":32,"rt":789.0899998601526,"accuracy":1,"outcome":"-10","keys":[2290.4499999713153],"total_keys":1,"block":2,"trial":186,"stimulus":4,"robot":3,"valence":"lose","action":"go","sham":1,"trial_type":"pit-trial","trial_index":221,"time_elapsed":1046834,"internal_node_id":"0.0-194.0","task_version":"battery-v0.2-trt"},{"rune":"S","rune_set":"elianto","hex":"#3366ff99","correct":-1,"choice":32,"rt":847.4900000728667,"accuracy":0,"outcome":"+1","keys":[2348.9599998574704],"total_keys":1,"block":2,"trial":187,"stimulus":5,"robot":2,"valence":"win","action":"no-go","sham":0,"trial_type":"pit-trial","trial_index":222,"time_elapsed":1050395,"internal_node_id":"0.0-195.0","task_version":"battery-v0.2-trt"},{"rune":"W","rune_set":"elianto","hex":"#3366ff99","correct":32,"choice":32,"rt":514.299999922514,"accuracy":1,"outcome":"+10","keys":[2015.1799998711795],"total_keys":1,"block":2,"trial":188,"stimulus":6,"robot":1,"valence":"win","action":"go","sham":0,"trial_type":"pit-trial","trial_index":223,"time_elapsed":1053623,"internal_node_id":"0.0-196.0","task_version":"battery-v0.2-trt"},{"rune":"E","rune_set":"elianto","hex":"#f73b6a7A","correct":-1,"choice":-1,"rt":-1,"accuracy":1,"outcome":"-1","keys":[],"total_keys":0,"block":2,"trial":189,"stimulus":7,"robot":4,"valence":"lose","action":"no-go","sham":0,"trial_type":"pit-trial","trial_index":224,"time_elapsed":1057640,"internal_node_id":"0.0-197.0","task_version":"battery-v0.2-trt"},{"rune":"P","rune_set":"elianto","hex":"#f73b6a7A","correct":32,"choice":32,"rt":858.185000019148,"accuracy":1,"outcome":"-10","keys":[2358.6949999444187],"total_keys":1,"block":2,"trial":190,"stimulus":4,"robot":3,"valence":"lose","action":"go","sham":1,"trial_type":"pit-trial","trial_index":225,"time_elapsed":1061217,"internal_node_id":"0.0-198.0","task_version":"battery-v0.2-trt"},{"rune":"W","rune_set":"elianto","hex":"#3366ff99","correct":32,"choice":32,"rt":721.9450001139194,"accuracy":1,"outcome":"+1","keys":[2222.804999910295],"total_keys":1,"block":2,"trial":191,"stimulus":6,"robot":1,"valence":"win","action":"go","sham":1,"trial_type":"pit-trial","trial_index":226,"time_elapsed":1064669,"internal_node_id":"0.0-199.0","task_version":"battery-v0.2-trt"},{"rune":"S","rune_set":"elianto","hex":"#3366ff99","correct":-1,"choice":32,"rt":968.7400001566857,"accuracy":0,"outcome":"+1","keys":[2469.340000068769],"total_keys":1,"block":2,"trial":192,"stimulus":5,"robot":2,"valence":"win","action":"no-go","sham":0,"trial_type":"pit-trial","trial_index":227,"time_elapsed":1068354,"internal_node_id":"0.0-200.0","task_version":"battery-v0.2-trt"},{"rune":"S","rune_set":"elianto","hex":"#3366ff99","correct":-1,"choice":32,"rt":1046.2299999780953,"accuracy":0,"outcome":"+10","keys":[2547.610000008717],"total_keys":1,"block":2,"trial":193,"stimulus":5,"robot":2,"valence":"win","action":"no-go","sham":1,"trial_type":"pit-trial","trial_index":228,"time_elapsed":1072124,"internal_node_id":"0.0-201.0","task_version":"battery-v0.2-trt"},{"rune":"D","rune_set":"elianto","hex":"#f73b6a7A","correct":32,"choice":32,"rt":792.7149999886751,"accuracy":1,"outcome":"-1","keys":[2293.044999940321],"total_keys":1,"block":2,"trial":194,"stimulus":9,"robot":3,"valence":"lose","action":"go","sham":0,"trial_type":"pit-trial","trial_index":229,"time_elapsed":1075628,"internal_node_id":"0.0-202.0","task_version":"battery-v0.2-trt"},{"rune":"K","rune_set":"elianto","hex":"#3366ff99","correct":32,"choice":-1,"rt":-1,"accuracy":0,"outcome":"+1","keys":[3221.7550000641495],"total_keys":1,"block":2,"trial":195,"stimulus":8,"robot":1,"valence":"win","action":"go","sham":0,"trial_type":"pit-trial","trial_index":230,"time_elapsed":1079643,"internal_node_id":"0.0-203.0","task_version":"battery-v0.2-trt"},{"rune":"E","rune_set":"elianto","hex":"#f73b6a7A","correct":-1,"choice":32,"rt":722.150000045076,"accuracy":0,"outcome":"-10","keys":[2222.92000008747],"total_keys":1,"block":2,"trial":196,"stimulus":7,"robot":4,"valence":"lose","action":"no-go","sham":0,"trial_type":"pit-trial","trial_index":231,"time_elapsed":1083084,"internal_node_id":"0.0-204.0","task_version":"battery-v0.2-trt"},{"rune":"E","rune_set":"elianto","hex":"#f73b6a7A","correct":-1,"choice":-1,"rt":-1,"accuracy":1,"outcome":"-10","keys":[3755.200000014156],"total_keys":1,"block":2,"trial":197,"stimulus":7,"robot":4,"valence":"lose","action":"no-go","sham":1,"trial_type":"pit-trial","trial_index":232,"time_elapsed":1087098,"internal_node_id":"0.0-205.0","task_version":"battery-v0.2-trt"},{"rune":"K","rune_set":"elianto","hex":"#3366ff99","correct":32,"choice":32,"rt":541.9550000224262,"accuracy":1,"outcome":"+1","keys":[2042.7550000604242],"total_keys":1,"block":2,"trial":198,"stimulus":8,"robot":1,"valence":"win","action":"go","sham":1,"trial_type":"pit-trial","trial_index":233,"time_elapsed":1090353,"internal_node_id":"0.0-206.0","task_version":"battery-v0.2-trt"},{"rune":"S","rune_set":"elianto","hex":"#3366ff99","correct":-1,"choice":-1,"rt":-1,"accuracy":1,"outcome":"+10","keys":[],"total_keys":0,"block":2,"trial":199,"stimulus":5,"robot":2,"valence":"win","action":"no-go","sham":0,"trial_type":"pit-trial","trial_index":234,"time_elapsed":1094374,"internal_node_id":"0.0-207.0","task_version":"battery-v0.2-trt"},{"rune":"D","rune_set":"elianto","hex":"#f73b6a7A","correct":32,"choice":32,"rt":799.1349999792874,"accuracy":1,"outcome":"-1","keys":[2299.824999878183],"total_keys":1,"block":2,"trial":200,"stimulus":9,"robot":3,"valence":"lose","action":"go","sham":0,"trial_type":"pit-trial","trial_index":235,"time_elapsed":1097896,"internal_node_id":"0.0-208.0","task_version":"battery-v0.2-trt"},{"rune":"E","rune_set":"elianto","hex":"#f73b6a7A","correct":-1,"choice":32,"rt":649.985000025481,"accuracy":0,"outcome":"-10","keys":[2151.0650001000613],"total_keys":1,"block":2,"trial":201,"stimulus":7,"robot":4,"valence":"lose","action":"no-go","sham":0,"trial_type":"pit-trial","trial_index":236,"time_elapsed":1101263,"internal_node_id":"0.0-209.0","task_version":"battery-v0.2-trt"},{"rune":"K","rune_set":"elianto","hex":"#3366ff99","correct":32,"choice":-1,"rt":-1,"accuracy":0,"outcome":"+1","keys":[3584.6900001633912],"total_keys":1,"block":2,"trial":202,"stimulus":8,"robot":1,"valence":"win","action":"go","sham":0,"trial_type":"pit-trial","trial_index":237,"time_elapsed":1105285,"internal_node_id":"0.0-210.0","task_version":"battery-v0.2-trt"},{"rune":"S","rune_set":"elianto","hex":"#3366ff99","correct":-1,"choice":32,"rt":554.4499999377877,"accuracy":0,"outcome":"+1","keys":[2055.064999964088],"total_keys":1,"block":2,"trial":203,"stimulus":5,"robot":2,"valence":"win","action":"no-go","sham":0,"trial_type":"pit-trial","trial_index":238,"time_elapsed":1108564,"internal_node_id":"0.0-211.0","task_version":"battery-v0.2-trt"},{"rune":"D","rune_set":"elianto","hex":"#f73b6a7A","correct":32,"choice":-1,"rt":-1,"accuracy":0,"outcome":"-10","keys":[3738.5499998927116],"total_keys":1,"block":2,"trial":204,"stimulus":9,"robot":3,"valence":"lose","action":"go","sham":0,"trial_type":"pit-trial","trial_index":239,"time_elapsed":1112579,"internal_node_id":"0.0-212.0","task_version":"battery-v0.2-trt"},{"rune":"E","rune_set":"elianto","hex":"#f73b6a7A","correct":-1,"choice":32,"rt":25.575000094249845,"accuracy":0,"outcome":"-10","keys":[1525.6749999243766],"total_keys":1,"block":2,"trial":205,"stimulus":7,"robot":4,"valence":"lose","action":"no-go","sham":0,"trial_type":"pit-trial","trial_index":240,"time_elapsed":1115316,"internal_node_id":"0.0-213.0","task_version":"battery-v0.2-trt"},{"rune":"D","rune_set":"elianto","hex":"#f73b6a7A","correct":32,"choice":32,"rt":446.61500002257526,"accuracy":1,"outcome":"-10","keys":[1947.9449999053031],"total_keys":1,"block":2,"trial":206,"stimulus":9,"robot":3,"valence":"lose","action":"go","sham":1,"trial_type":"pit-trial","trial_index":241,"time_elapsed":1118480,"internal_node_id":"0.0-214.0","task_version":"battery-v0.2-trt"},{"rune":"K","rune_set":"elianto","hex":"#3366ff99","correct":32,"choice":32,"rt":563.2599999662489,"accuracy":1,"outcome":"+10","keys":[2064.02499997057],"total_keys":1,"block":2,"trial":207,"stimulus":8,"robot":1,"valence":"win","action":"go","sham":0,"trial_type":"pit-trial","trial_index":242,"time_elapsed":1121766,"internal_node_id":"0.0-215.0","task_version":"battery-v0.2-trt"},{"rune":"S","rune_set":"elianto","hex":"#3366ff99","correct":-1,"choice":32,"rt":589.3600000999868,"accuracy":0,"outcome":"+1","keys":[2090.739999897778],"total_keys":1,"block":2,"trial":208,"stimulus":5,"robot":2,"valence":"win","action":"no-go","sham":0,"trial_type":"pit-trial","trial_index":243,"time_elapsed":1125072,"internal_node_id":"0.0-216.0","task_version":"battery-v0.2-trt"},{"rune":"K","rune_set":"elianto","hex":"#3366ff99","correct":32,"choice":32,"rt":977.5700001046062,"accuracy":1,"outcome":"+10","keys":[2479.2100000195205],"total_keys":1,"block":2,"trial":209,"stimulus":8,"robot":1,"valence":"win","action":"go","sham":0,"trial_type":"pit-trial","trial_index":244,"time_elapsed":1128769,"internal_node_id":"0.0-217.0","task_version":"battery-v0.2-trt"},{"rune":"D","rune_set":"elianto","hex":"#f73b6a7A","correct":32,"choice":-1,"rt":-1,"accuracy":0,"outcome":"-10","keys":[],"total_keys":0,"block":2,"trial":210,"stimulus":9,"robot":3,"valence":"lose","action":"go","sham":0,"trial_type":"pit-trial","trial_index":245,"time_elapsed":1132782,"internal_node_id":"0.0-218.0","task_version":"battery-v0.2-trt"},{"rune":"J","rune_set":"elianto","hex":"#f73b6a7A","correct":32,"choice":32,"rt":539.9599999655038,"accuracy":1,"outcome":"-1","keys":[2040.7950000371784],"total_keys":1,"block":2,"trial":211,"stimulus":10,"robot":3,"valence":"lose","action":"go","sham":0,"trial_type":"pit-trial","trial_index":246,"time_elapsed":1136035,"internal_node_id":"0.0-219.0","task_version":"battery-v0.2-trt"},{"rune":"V","rune_set":"elianto","hex":"#3366ff99","correct":-1,"choice":32,"rt":518.4349999763072,"accuracy":0,"outcome":"+1","keys":[2019.0050001256168],"total_keys":1,"block":2,"trial":212,"stimulus":11,"robot":2,"valence":"win","action":"no-go","sham":0,"trial_type":"pit-trial","trial_index":247,"time_elapsed":1139265,"internal_node_id":"0.0-220.0","task_version":"battery-v0.2-trt"},{"rune":"D","rune_set":"elianto","hex":"#f73b6a7A","correct":32,"choice":32,"rt":940.8900002017617,"accuracy":1,"outcome":"-1","keys":[2441.8099999893457],"total_keys":1,"block":2,"trial":213,"stimulus":9,"robot":3,"valence":"lose","action":"go","sham":0,"trial_type":"pit-trial","trial_index":248,"time_elapsed":1142925,"internal_node_id":"0.0-221.0","task_version":"battery-v0.2-trt"},{"rune":"K","rune_set":"elianto","hex":"#3366ff99","correct":32,"choice":-1,"rt":-1,"accuracy":0,"outcome":"+10","keys":[],"total_keys":0,"block":2,"trial":214,"stimulus":8,"robot":1,"valence":"win","action":"go","sham":1,"trial_type":"pit-trial","trial_index":249,"time_elapsed":1146937,"internal_node_id":"0.0-222.0","task_version":"battery-v0.2-trt"},{"rune":"J","rune_set":"elianto","hex":"#f73b6a7A","correct":32,"choice":-1,"rt":-1,"accuracy":0,"outcome":"-10","keys":[3302.3449999745935],"total_keys":1,"block":2,"trial":215,"stimulus":10,"robot":3,"valence":"lose","action":"go","sham":0,"trial_type":"pit-trial","trial_index":250,"time_elapsed":1150955,"internal_node_id":"0.0-223.0","task_version":"battery-v0.2-trt"},{"rune":"V","rune_set":"elianto","hex":"#3366ff99","correct":-1,"choice":32,"rt":652.5799999944866,"accuracy":0,"outcome":"+10","keys":[2152.9800000134856],"total_keys":1,"block":2,"trial":216,"stimulus":11,"robot":2,"valence":"win","action":"no-go","sham":1,"trial_type":"pit-trial","trial_index":251,"time_elapsed":1154320,"internal_node_id":"0.0-224.0","task_version":"battery-v0.2-trt"},{"rune":"K","rune_set":"elianto","hex":"#3366ff99","correct":32,"choice":32,"rt":643.5599999967963,"accuracy":1,"outcome":"+10","keys":[2144.1349999513477],"total_keys":1,"block":2,"trial":217,"stimulus":8,"robot":1,"valence":"win","action":"go","sham":0,"trial_type":"pit-trial","trial_index":252,"time_elapsed":1157680,"internal_node_id":"0.0-225.0","task_version":"battery-v0.2-trt"},{"rune":"V","rune_set":"elianto","hex":"#3366ff99","correct":-1,"choice":32,"rt":614.1300001181662,"accuracy":0,"outcome":"+1","keys":[2114.195000147447],"total_keys":1,"block":2,"trial":218,"stimulus":11,"robot":2,"valence":"win","action":"no-go","sham":0,"trial_type":"pit-trial","trial_index":253,"time_elapsed":1161006,"internal_node_id":"0.0-226.0","task_version":"battery-v0.2-trt"},{"rune":"D","rune_set":"elianto","hex":"#f73b6a7A","correct":32,"choice":32,"rt":284.34500005096197,"accuracy":1,"outcome":"-1","keys":[1785.0899999029934],"total_keys":1,"block":2,"trial":219,"stimulus":9,"robot":3,"valence":"lose","action":"go","sham":0,"trial_type":"pit-trial","trial_index":254,"time_elapsed":1164008,"internal_node_id":"0.0-227.0","task_version":"battery-v0.2-trt"},{"rune":"J","rune_set":"elianto","hex":"#f73b6a7A","correct":32,"choice":32,"rt":531.7400000058115,"accuracy":1,"outcome":"-1","keys":[2032.6050000730902],"total_keys":1,"block":2,"trial":220,"stimulus":10,"robot":3,"valence":"lose","action":"go","sham":0,"trial_type":"pit-trial","trial_index":255,"time_elapsed":1167258,"internal_node_id":"0.0-228.0","task_version":"battery-v0.2-trt"},{"rune":"J","rune_set":"elianto","hex":"#f73b6a7A","correct":32,"choice":32,"rt":446.13500009290874,"accuracy":1,"outcome":"-1","keys":[1946.7100000474602],"total_keys":1,"block":2,"trial":221,"stimulus":10,"robot":3,"valence":"lose","action":"go","sham":0,"trial_type":"pit-trial","trial_index":256,"time_elapsed":1170420,"internal_node_id":"0.0-229.0","task_version":"battery-v0.2-trt"},{"rune":"V","rune_set":"elianto","hex":"#3366ff99","correct":-1,"choice":32,"rt":595.6500000320375,"accuracy":0,"outcome":"+1","keys":[2095.990000059828],"total_keys":1,"block":2,"trial":222,"stimulus":11,"robot":2,"valence":"win","action":"no-go","sham":0,"trial_type":"pit-trial","trial_index":257,"time_elapsed":1173734,"internal_node_id":"0.0-230.0","task_version":"battery-v0.2-trt"},{"rune":"D","rune_set":"elianto","hex":"#f73b6a7A","correct":32,"choice":32,"rt":722.5250001065433,"accuracy":1,"outcome":"-10","keys":[2222.9750000406057],"total_keys":1,"block":2,"trial":223,"stimulus":9,"robot":3,"valence":"lose","action":"go","sham":1,"trial_type":"pit-trial","trial_index":258,"time_elapsed":1177174,"internal_node_id":"0.0-231.0","task_version":"battery-v0.2-trt"},{"rune":"K","rune_set":"elianto","hex":"#3366ff99","correct":32,"choice":-1,"rt":-1,"accuracy":0,"outcome":"+1","keys":[1426.0700000450015],"total_keys":1,"block":2,"trial":224,"stimulus":8,"robot":1,"valence":"win","action":"go","sham":0,"trial_type":"pit-trial","trial_index":259,"time_elapsed":1181189,"internal_node_id":"0.0-232.0","task_version":"battery-v0.2-trt"},{"rune":"K","rune_set":"elianto","hex":"#3366ff99","correct":32,"choice":-1,"rt":-1,"accuracy":0,"outcome":"+1","keys":[1462.9049999639392],"total_keys":1,"block":2,"trial":225,"stimulus":8,"robot":1,"valence":"win","action":"go","sham":0,"trial_type":"pit-trial","trial_index":260,"time_elapsed":1185201,"internal_node_id":"0.0-233.0","task_version":"battery-v0.2-trt"},{"rune":"V","rune_set":"elianto","hex":"#3366ff99","correct":-1,"choice":32,"rt":197.3399999551475,"accuracy":0,"outcome":"+10","keys":[1698.6899999901652],"total_keys":1,"block":2,"trial":226,"stimulus":11,"robot":2,"valence":"win","action":"no-go","sham":1,"trial_type":"pit-trial","trial_index":261,"time_elapsed":1188113,"internal_node_id":"0.0-234.0","task_version":"battery-v0.2-trt"},{"rune":"D","rune_set":"elianto","hex":"#f73b6a7A","correct":32,"choice":32,"rt":598.2749999966472,"accuracy":1,"outcome":"-1","keys":[2099.2500002030283],"total_keys":1,"block":2,"trial":227,"stimulus":9,"robot":3,"valence":"lose","action":"go","sham":0,"trial_type":"pit-trial","trial_index":262,"time_elapsed":1191431,"internal_node_id":"0.0-235.0","task_version":"battery-v0.2-trt"},{"rune":"J","rune_set":"elianto","hex":"#f73b6a7A","correct":32,"choice":32,"rt":1039.7600000724196,"accuracy":1,"outcome":"-1","keys":[2540.98999989219],"total_keys":1,"block":2,"trial":228,"stimulus":10,"robot":3,"valence":"lose","action":"go","sham":0,"trial_type":"pit-trial","trial_index":263,"time_elapsed":1195194,"internal_node_id":"0.0-236.0","task_version":"battery-v0.2-trt"},{"rune":"K","rune_set":"elianto","hex":"#3366ff99","correct":32,"choice":32,"rt":619.9300000444055,"accuracy":1,"outcome":"+10","keys":[2121.545000001788],"total_keys":1,"block":2,"trial":229,"stimulus":8,"robot":1,"valence":"win","action":"go","sham":0,"trial_type":"pit-trial","trial_index":264,"time_elapsed":1198529,"internal_node_id":"0.0-237.0","task_version":"battery-v0.2-trt"},{"rune":"V","rune_set":"elianto","hex":"#3366ff99","correct":-1,"choice":32,"rt":325.73499996215105,"accuracy":0,"outcome":"+1","keys":[1825.7600001525134],"total_keys":1,"block":2,"trial":230,"stimulus":11,"robot":2,"valence":"win","action":"no-go","sham":0,"trial_type":"pit-trial","trial_index":265,"time_elapsed":1201566,"internal_node_id":"0.0-238.0","task_version":"battery-v0.2-trt"},{"rune":"D","rune_set":"elianto","hex":"#f73b6a7A","correct":32,"choice":32,"rt":353.9999998174608,"accuracy":1,"outcome":"-1","keys":[1855.940000154078],"total_keys":1,"block":2,"trial":231,"stimulus":9,"robot":3,"valence":"lose","action":"go","sham":0,"trial_type":"pit-trial","trial_index":266,"time_elapsed":1204638,"internal_node_id":"0.0-239.0","task_version":"battery-v0.2-trt"},{"rune":"J","rune_set":"elianto","hex":"#f73b6a7A","correct":32,"choice":32,"rt":374.1450000088662,"accuracy":1,"outcome":"-1","keys":[1875.4549999721348],"total_keys":1,"block":2,"trial":232,"stimulus":10,"robot":3,"valence":"lose","action":"go","sham":0,"trial_type":"pit-trial","trial_index":267,"time_elapsed":1207738,"internal_node_id":"0.0-240.0","task_version":"battery-v0.2-trt"},{"rune":"V","rune_set":"elianto","hex":"#3366ff99","correct":-1,"choice":32,"rt":855.83999985829,"accuracy":0,"outcome":"+1","keys":[2356.8749998230487],"total_keys":1,"block":2,"trial":233,"stimulus":11,"robot":2,"valence":"win","action":"no-go","sham":0,"trial_type":"pit-trial","trial_index":268,"time_elapsed":1211309,"internal_node_id":"0.0-241.0","task_version":"battery-v0.2-trt"},{"rune":"K","rune_set":"elianto","hex":"#3366ff99","correct":32,"choice":32,"rt":427.29500005953014,"accuracy":1,"outcome":"+1","keys":[1927.73999995552],"total_keys":1,"block":2,"trial":234,"stimulus":8,"robot":1,"valence":"win","action":"go","sham":1,"trial_type":"pit-trial","trial_index":269,"time_elapsed":1214461,