[{"view_history":"[{\"page_index\":0,\"viewing_time\":3838.529999999082}]","rt":3839.8600000000442,"trial_type":"instructions","trial_index":0,"time_elapsed":3854,"internal_node_id":"0.0-0.0","task_version":"battery-v0.2-trt"},{"slider_type":"valence","raw_loc":562,"loc":0.624,"trial_type":"affective-slider","trial_index":1,"time_elapsed":10211,"internal_node_id":"0.0-1.0","task_version":"battery-v0.2-trt"},{"responses":{"Q02":"0","Q08":"3","Q07":"0","Q03":"0","Q04":"0","Q06":"0","Q01":"0","Q05":"0"},"rt":25300.930000001244,"item_order":[1,7,6,2,3,5,0,4],"radio_events":[4234.780000000683,8801.790000001347,11930.295000000115,13394.275000000562,15498.225000001185,16970.264999999927,18714.21999999984,21538.140000000567],"key_events":[],"mouse_events":[4234.780000000683,8282.360000001063,8801.790000001347,11346.15500000109,11930.295000000115,13394.275000000562,15498.225000001185,16970.264999999927,18714.21999999984,20362.420000001293,20930.309999999736,21538.140000000567,25298.35500000081],"straightlining":0.875,"zigzagging":0.2857142857142857,"survey":"dass_d","trial_type":"survey-template","trial_index":2,"time_elapsed":35521,"internal_node_id":"0.0-2.0","task_version":"battery-v0.2-trt","infrequency":0.5},{"responses":{"Q02":"0","Q08":"0","Q05":"0","Q03":"0","Q01":"0","Q06":"1","Q04":"0","Q07":"0"},"rt":17375.210000000152,"item_order":[1,7,4,2,0,5,3,6],"radio_events":[4372.849999999744,6077.189999999973,7797.16499999995,9277.025000001231,10829.069999999774,13389.329999999973,15101.894999999786,16013.119999999617],"key_events":[],"mouse_events":[4372.849999999744,6077.189999999973,7797.16499999995,9277.025000001231,10829.069999999774,13389.329999999973,15101.894999999786,16013.119999999617,17373.015000001033],"straightlining":0.875,"zigzagging":0.2857142857142857,"survey":"gad7","trial_type":"survey-template","trial_index":3,"time_elapsed":52904,"internal_node_id":"0.0-3.0","task_version":"battery-v0.2-trt","infrequency":0},{"responses":{"Q12":"1","Q04":"2","Q09":"1","Q01":"1","Q03":"0","Q05":"2","Q10":"1","Q02":"0","Q13":"0","Q06":"2","Q07":"2","Q08":"1","Q11":"1"},"rt":49578.144999999495,"item_order":[11,3,8,0,2,4,9,1,12,5,6,7,10],"radio_events":[8374.644999999873,13125.959999999395,15494.085000000268,19254.09000000036,22662.379999999757,26910.185000000638,29494.940000000497,33078.794999999445,35982.50000000007,40726.18499999953,42830.314999999246,45622.269999999844,48254.965000000084],"key_events":[],"mouse_events":[8374.644999999873,13125.959999999395,15494.085000000268,18630.755000000136,19254.09000000036,22662.379999999757,26910.185000000638,29494.940000000497,33078.794999999445,35982.50000000007,40726.18499999953,42830.314999999246,45622.269999999844,48254.965000000084,49574.774999999136],"straightlining":0.46153846153846156,"zigzagging":0.5,"survey":"bisbas","trial_type":"survey-template","trial_index":4,"time_elapsed":102489,"internal_node_id":"0.0-4.0","task_version":"battery-v0.2-trt","infrequency":0},{"value":[0.5,2.2115384615384617,1.0714285714285714],"trial_type":"call-function","trial_index":5,"time_elapsed":102494,"internal_node_id":"0.0-5.0","task_version":"battery-v0.2-trt"},{"view_history":"[{\"page_index\":0,\"viewing_time\":2479.52499999883},{\"page_index\":1,\"viewing_time\":22936.695000000327},{\"page_index\":2,\"viewing_time\":5014.93500000106},{\"page_index\":3,\"viewing_time\":5640.159999999014},{\"page_index\":4,\"viewing_time\":6367.765000000858},{\"page_index\":5,\"viewing_time\":71808.56499999936},{\"page_index\":6,\"viewing_time\":5143.505000000005},{\"page_index\":7,\"viewing_time\":8367.959999999614},{\"page_index\":8,\"viewing_time\":7592.1200000011595},{\"page_index\":9,\"viewing_time\":4072.215000000142}]","rt":139425.0699999993,"trial_type":"pit-instructions","trial_index":6,"time_elapsed":241926,"internal_node_id":"0.0-6.0-0.0","task_version":"battery-v0.2-trt"},{"rune":"1","rune_set":"elianto","hex":"#3366ff99","correct":32,"choice":32,"rt":1239.7399999990885,"accuracy":1,"outcome":"+10","keys":[2739.7799999998824],"total_keys":1,"block":0,"practice":1,"trial_type":"pit-trial","trial_index":7,"time_elapsed":245871,"internal_node_id":"0.0-6.0-1.0-0.0","task_version":"battery-v0.2-trt"},{"rune":"1","rune_set":"elianto","hex":"#3366ff99","correct":32,"choice":32,"rt":902.0350000009639,"accuracy":1,"outcome":"+10","keys":[2402.1350000003004],"total_keys":1,"block":0,"practice":1,"trial_type":"pit-trial","trial_index":8,"time_elapsed":249478,"internal_node_id":"0.0-6.0-1.1-0.1","task_version":"battery-v0.2-trt"},{"rune":"1","rune_set":"elianto","hex":"#3366ff99","correct":32,"choice":32,"rt":614.4450000010838,"accuracy":1,"outcome":"+10","keys":[2114.6149999985937],"total_keys":1,"block":0,"practice":1,"trial_type":"pit-trial","trial_index":9,"time_elapsed":252797,"internal_node_id":"0.0-6.0-1.2-0.2","task_version":"battery-v0.2-trt"},{"rune":"1","rune_set":"elianto","hex":"#3366ff99","correct":32,"choice":32,"rt":537.5249999997322,"accuracy":1,"outcome":"+10","keys":[2037.6449999985343],"total_keys":1,"block":0,"practice":1,"trial_type":"pit-trial","trial_index":10,"time_elapsed":256038,"internal_node_id":"0.0-6.0-1.3-0.3","task_version":"battery-v0.2-trt"},{"trial_type":"call-function","trial_index":11,"time_elapsed":256041,"internal_node_id":"0.0-6.0-2.0","task_version":"battery-v0.2-trt"},{"view_history":"[{\"page_index\":0,\"viewing_time\":4265.100000000501},{\"page_index\":1,\"viewing_time\":2959.974999999802}]","rt":7226.324999999604,"trial_type":"pit-instructions","trial_index":12,"time_elapsed":263269,"internal_node_id":"0.0-6.0-3.0","task_version":"battery-v0.2-trt"},{"rune":"2","rune_set":"elianto","hex":"#3366ff99","correct":-1,"choice":-1,"rt":-1,"accuracy":1,"outcome":"+10","keys":[],"total_keys":0,"block":0,"practice":2,"trial_type":"pit-trial","trial_index":13,"time_elapsed":267273,"internal_node_id":"0.0-6.0-4.0-0.0","task_version":"battery-v0.2-trt"},{"rune":"2","rune_set":"elianto","hex":"#3366ff99","correct":-1,"choice":-1,"rt":-1,"accuracy":1,"outcome":"+10","keys":[],"total_keys":0,"block":0,"practice":2,"trial_type":"pit-trial","trial_index":14,"time_elapsed":271280,"internal_node_id":"0.0-6.0-4.1-0.1","task_version":"battery-v0.2-trt"},{"rune":"2","rune_set":"elianto","hex":"#3366ff99","correct":-1,"choice":-1,"rt":-1,"accuracy":1,"outcome":"+10","keys":[],"total_keys":0,"block":0,"practice":2,"trial_type":"pit-trial","trial_index":15,"time_elapsed":275284,"internal_node_id":"0.0-6.0-4.2-0.2","task_version":"battery-v0.2-trt"},{"rune":"2","rune_set":"elianto","hex":"#3366ff99","correct":-1,"choice":-1,"rt":-1,"accuracy":1,"outcome":"+10","keys":[],"total_keys":0,"block":0,"practice":2,"trial_type":"pit-trial","trial_index":16,"time_elapsed":279289,"internal_node_id":"0.0-6.0-4.3-0.3","task_version":"battery-v0.2-trt"},{"trial_type":"call-function","trial_index":17,"time_elapsed":279291,"internal_node_id":"0.0-6.0-5.0","task_version":"battery-v0.2-trt"},{"view_history":"[{\"page_index\":0,\"viewing_time\":4735.819999999891},{\"page_index\":1,\"viewing_time\":3423.8299999997253}]","rt":8160.799999999639,"trial_type":"pit-instructions","trial_index":18,"time_elapsed":287453,"internal_node_id":"0.0-6.0-6.0","task_version":"battery-v0.2-trt"},{"rune":"3","rune_set":"elianto","hex":"#f73b6a7A","correct":-1,"choice":-1,"rt":-1,"accuracy":1,"outcome":"-1","keys":[],"total_keys":0,"block":0,"practice":3,"trial_type":"pit-trial","trial_index":19,"time_elapsed":291457,"internal_node_id":"0.0-6.0-7.0-0.0","task_version":"battery-v0.2-trt"},{"rune":"3","rune_set":"elianto","hex":"#f73b6a7A","correct":-1,"choice":-1,"rt":-1,"accuracy":1,"outcome":"-1","keys":[2856.734999999404],"total_keys":1,"block":0,"practice":3,"trial_type":"pit-trial","trial_index":20,"time_elapsed":295462,"internal_node_id":"0.0-6.0-7.1-0.1","task_version":"battery-v0.2-trt"},{"rune":"3","rune_set":"elianto","hex":"#f73b6a7A","correct":-1,"choice":32,"rt":743.399999999383,"accuracy":0,"outcome":"-10","keys":[2243.5249999998487],"total_keys":1,"block":0,"practice":3,"trial_type":"pit-trial","trial_index":21,"time_elapsed":298909,"internal_node_id":"0.0-6.0-7.2-0.2","task_version":"battery-v0.2-trt"},{"rune":"3","rune_set":"elianto","hex":"#f73b6a7A","correct":-1,"choice":-1,"rt":-1,"accuracy":1,"outcome":"-1","keys":[],"total_keys":0,"block":0,"practice":3,"trial_type":"pit-trial","trial_index":22,"time_elapsed":302913,"internal_node_id":"0.0-6.0-7.3-0.3","task_version":"battery-v0.2-trt"},{"rune":"3","rune_set":"elianto","hex":"#f73b6a7A","correct":-1,"choice":-1,"rt":-1,"accuracy":1,"outcome":"-1","keys":[],"total_keys":0,"block":0,"practice":3,"trial_type":"pit-trial","trial_index":23,"time_elapsed":306918,"internal_node_id":"0.0-6.0-7.4-0.4","task_version":"battery-v0.2-trt"},{"rune":"3","rune_set":"elianto","hex":"#f73b6a7A","correct":-1,"choice":-1,"rt":-1,"accuracy":1,"outcome":"-1","keys":[],"total_keys":0,"block":0,"practice":3,"trial_type":"pit-trial","trial_index":24,"time_elapsed":310922,"internal_node_id":"0.0-6.0-7.5-0.5","task_version":"battery-v0.2-trt"},{"trial_type":"call-function","trial_index":25,"time_elapsed":310924,"internal_node_id":"0.0-6.0-8.0","task_version":"battery-v0.2-trt"},{"view_history":"[{\"page_index\":0,\"viewing_time\":2991.229999999632},{\"page_index\":1,\"viewing_time\":5239.884999999078}]","rt":8232.12999999855,"trial_type":"pit-instructions","trial_index":26,"time_elapsed":319157,"internal_node_id":"0.0-6.0-9.0","task_version":"battery-v0.2-trt"},{"rune":"4","rune_set":"elianto","hex":"#f73b6a7A","correct":32,"choice":32,"rt":392.3100000011036,"accuracy":1,"outcome":"-1","keys":[1892.460000000894],"total_keys":1,"block":0,"practice":4,"trial_type":"pit-trial","trial_index":27,"time_elapsed":322253,"internal_node_id":"0.0-6.0-10.0-0.0","task_version":"battery-v0.2-trt"},{"rune":"4","rune_set":"elianto","hex":"#f73b6a7A","correct":32,"choice":32,"rt":343.84499999939,"accuracy":1,"outcome":"-1","keys":[1844.0799999989686],"total_keys":1,"block":0,"practice":4,"trial_type":"pit-trial","trial_index":28,"time_elapsed":325302,"internal_node_id":"0.0-6.0-10.1-0.1","task_version":"battery-v0.2-trt"},{"rune":"4","rune_set":"elianto","hex":"#f73b6a7A","correct":32,"choice":32,"rt":423.15000000054715,"accuracy":1,"outcome":"-1","keys":[1923.3449999992736],"total_keys":1,"block":0,"practice":4,"trial_type":"pit-trial","trial_index":29,"time_elapsed":328429,"internal_node_id":"0.0-6.0-10.2-0.2","task_version":"battery-v0.2-trt"},{"rune":"4","rune_set":"elianto","hex":"#f73b6a7A","correct":32,"choice":32,"rt":261.8500000007916,"accuracy":1,"outcome":"-1","keys":[1763.704999999376],"total_keys":1,"block":0,"practice":4,"trial_type":"pit-trial","trial_index":30,"time_elapsed":331397,"internal_node_id":"0.0-6.0-10.3-0.3","task_version":"battery-v0.2-trt"},{"trial_type":"call-function","trial_index":31,"time_elapsed":331399,"internal_node_id":"0.0-6.0-11.0","task_version":"battery-v0.2-trt"},{"view_history":"[{\"page_index\":0,\"viewing_time\":2484.4950000006356},{\"page_index\":1,\"viewing_time\":4263.360000000801},{\"page_index\":2,\"viewing_time\":4472.014999999374},{\"page_index\":3,\"viewing_time\":2111.885000000242},{\"page_index\":4,\"viewing_time\":2416.1700000004494},{\"page_index\":5,\"viewing_time\":1480.7349999991711}]","rt":17229.35500000132,"trial_type":"pit-instructions","trial_index":32,"time_elapsed":348629,"internal_node_id":"0.0-6.0-12.0","task_version":"battery-v0.2-trt"},{"responses":["Press SPACE","+10","-1","True","True"],"num_errors":0,"rt":22004.59500000038,"trial_type":"pit-comprehension","trial_index":33,"time_elapsed":370639,"internal_node_id":"0.0-6.0-13.0","task_version":"battery-v0.2-trt"},{"view_history":"[{\"page_index\":0,\"viewing_time\":2148.4049999999115},{\"page_index\":1,\"viewing_time\":3047.790000000503}]","rt":5197.290000000037,"trial_type":"pit-instructions","trial_index":34,"time_elapsed":375845,"internal_node_id":"0.0-7.0","task_version":"battery-v0.2-trt"},{"rune":"H","rune_set":"bacs2","hex":"#3366ff99","correct":-1,"choice":32,"rt":733.9400000000605,"accuracy":0,"outcome":"+1","keys":[2234.039999999397],"total_keys":1,"block":1,"trial":1,"stimulus":3,"robot":2,"valence":"win","action":"no-go","sham":0,"trial_type":"pit-trial","trial_index":35,"time_elapsed":379285,"internal_node_id":"0.0-8.0","task_version":"battery-v0.2-trt"},{"rune":"Q","rune_set":"bacs2","hex":"#3366ff99","correct":32,"choice":-1,"rt":-1,"accuracy":0,"outcome":"+1","keys":[],"total_keys":0,"block":1,"trial":2,"stimulus":2,"robot":1,"valence":"win","action":"go","sham":0,"trial_type":"pit-trial","trial_index":36,"time_elapsed":383290,"internal_node_id":"0.0-9.0","task_version":"battery-v0.2-trt"},{"rune":"Y","rune_set":"bacs2","hex":"#f73b6a7A","correct":-1,"choice":-1,"rt":-1,"accuracy":1,"outcome":"-1","keys":[2848.200000000361],"total_keys":1,"block":1,"trial":3,"stimulus":0,"robot":4,"valence":"lose","action":"no-go","sham":0,"trial_type":"pit-trial","trial_index":37,"time_elapsed":387294,"internal_node_id":"0.0-10.0","task_version":"battery-v0.2-trt"},{"rune":"T","rune_set":"bacs2","hex":"#f73b6a7A","correct":-1,"choice":-1,"rt":-1,"accuracy":1,"outcome":"-1","keys":[],"total_keys":0,"block":1,"trial":4,"stimulus":1,"robot":4,"valence":"lose","action":"no-go","sham":0,"trial_type":"pit-trial","trial_index":38,"time_elapsed":391298,"internal_node_id":"0.0-11.0","task_version":"battery-v0.2-trt"},{"rune":"T","rune_set":"bacs2","hex":"#f73b6a7A","correct":-1,"choice":32,"rt":916.349999999511,"accuracy":0,"outcome":"-10","keys":[2416.4599999985076],"total_keys":1,"block":1,"trial":5,"stimulus":1,"robot":4,"valence":"lose","action":"no-go","sham":0,"trial_type":"pit-trial","trial_index":39,"time_elapsed":394918,"internal_node_id":"0.0-12.0","task_version":"battery-v0.2-trt"},{"rune":"Y","rune_set":"bacs2","hex":"#f73b6a7A","correct":-1,"choice":32,"rt":726.9799999994575,"accuracy":0,"outcome":"-10","keys":[2227.1550000004936],"total_keys":1,"block":1,"trial":6,"stimulus":0,"robot":4,"valence":"lose","action":"no-go","sham":0,"trial_type":"pit-trial","trial_index":40,"time_elapsed":398350,"internal_node_id":"0.0-13.0","task_version":"battery-v0.2-trt"},{"rune":"Q","rune_set":"bacs2","hex":"#3366ff99","correct":32,"choice":-1,"rt":-1,"accuracy":0,"outcome":"+1","keys":[],"total_keys":0,"block":1,"trial":7,"stimulus":2,"robot":1,"valence":"win","action":"go","sham":0,"trial_type":"pit-trial","trial_index":41,"time_elapsed":402354,"internal_node_id":"0.0-14.0","task_version":"battery-v0.2-trt"},{"rune":"H","rune_set":"bacs2","hex":"#3366ff99","correct":-1,"choice":-1,"rt":-1,"accuracy":1,"outcome":"+10","keys":[],"total_keys":0,"block":1,"trial":8,"stimulus":3,"robot":2,"valence":"win","action":"no-go","sham":0,"trial_type":"pit-trial","trial_index":42,"time_elapsed":406359,"internal_node_id":"0.0-15.0","task_version":"battery-v0.2-trt"},{"rune":"H","rune_set":"bacs2","hex":"#3366ff99","correct":-1,"choice":-1,"rt":-1,"accuracy":1,"outcome":"+1","keys":[3778.7100000004866],"total_keys":1,"block":1,"trial":9,"stimulus":3,"robot":2,"valence":"win","action":"no-go","sham":1,"trial_type":"pit-trial","trial_index":43,"time_elapsed":410363,"internal_node_id":"0.0-16.0","task_version":"battery-v0.2-trt"},{"rune":"Q","rune_set":"bacs2","hex":"#3366ff99","correct":32,"choice":32,"rt":881.5649999997113,"accuracy":1,"outcome":"+10","keys":[2382.02000000095],"total_keys":1,"block":1,"trial":10,"stimulus":2,"robot":1,"valence":"win","action":"go","sham":0,"trial_type":"pit-trial","trial_index":44,"time_elapsed":413949,"internal_node_id":"0.0-17.0","task_version":"battery-v0.2-trt"},{"rune":"Y","rune_set":"bacs2","hex":"#f73b6a7A","correct":-1,"choice":32,"rt":696.2199999998556,"accuracy":0,"outcome":"-10","keys":[2196.329999998852],"total_keys":1,"block":1,"trial":11,"stimulus":0,"robot":4,"valence":"lose","action":"no-go","sham":0,"trial_type":"pit-trial","trial_index":45,"time_elapsed":417349,"internal_node_id":"0.0-18.0","task_version":"battery-v0.2-trt"},{"rune":"T","rune_set":"bacs2","hex":"#f73b6a7A","correct":-1,"choice":32,"rt":647.74500000017,"accuracy":0,"outcome":"-10","keys":[2147.680000000051],"total_keys":1,"block":1,"trial":12,"stimulus":1,"robot":4,"valence":"lose","action":"no-go","sham":0,"trial_type":"pit-trial","trial_index":46,"time_elapsed":420702,"internal_node_id":"0.0-19.0","task_version":"battery-v0.2-trt"},{"rune":"Q","rune_set":"bacs2","hex":"#3366ff99","correct":32,"choice":32,"rt":734.9549999999581,"accuracy":1,"outcome":"+1","keys":[2235.9550000001327],"total_keys":1,"block":1,"trial":13,"stimulus":2,"robot":1,"valence":"win","action":"go","sham":1,"trial_type":"pit-trial","trial_index":47,"time_elapsed":424141,"internal_node_id":"0.0-20.0","task_version":"battery-v0.2-trt"},{"rune":"T","rune_set":"bacs2","hex":"#f73b6a7A","correct":-1,"choice":-1,"rt":-1,"accuracy":1,"outcome":"-1","keys":[],"total_keys":0,"block":1,"trial":14,"stimulus":1,"robot":4,"valence":"lose","action":"no-go","sham":0,"trial_type":"pit-trial","trial_index":48,"time_elapsed":428146,"internal_node_id":"0.0-21.0","task_version":"battery-v0.2-trt"},{"rune":"H","rune_set":"bacs2","hex":"#3366ff99","correct":-1,"choice":32,"rt":762.8349999995553,"accuracy":0,"outcome":"+1","keys":[2262.9799999995157],"total_keys":1,"block":1,"trial":15,"stimulus":3,"robot":2,"valence":"win","action":"no-go","sham":0,"trial_type":"pit-trial","trial_index":49,"time_elapsed":431613,"internal_node_id":"0.0-22.0","task_version":"battery-v0.2-trt"},{"rune":"Y","rune_set":"bacs2","hex":"#f73b6a7A","correct":-1,"choice":-1,"rt":-1,"accuracy":1,"outcome":"-10","keys":[],"total_keys":0,"block":1,"trial":16,"stimulus":0,"robot":4,"valence":"lose","action":"no-go","sham":1,"trial_type":"pit-trial","trial_index":50,"time_elapsed":435617,"internal_node_id":"0.0-23.0","task_version":"battery-v0.2-trt"},{"rune":"H","rune_set":"bacs2","hex":"#3366ff99","correct":-1,"choice":32,"rt":1003.510000000475,"accuracy":0,"outcome":"+1","keys":[2503.685000001453],"total_keys":1,"block":1,"trial":17,"stimulus":3,"robot":2,"valence":"win","action":"no-go","sham":0,"trial_type":"pit-trial","trial_index":51,"time_elapsed":439325,"internal_node_id":"0.0-24.0","task_version":"battery-v0.2-trt"},{"rune":"Y","rune_set":"bacs2","hex":"#f73b6a7A","correct":-1,"choice":32,"rt":943.0099999990198,"accuracy":0,"outcome":"-10","keys":[2443.1500000009546],"total_keys":1,"block":1,"trial":18,"stimulus":0,"robot":4,"valence":"lose","action":"no-go","sham":0,"trial_type":"pit-trial","trial_index":52,"time_elapsed":442972,"internal_node_id":"0.0-25.0","task_version":"battery-v0.2-trt"},{"rune":"Q","rune_set":"bacs2","hex":"#3366ff99","correct":32,"choice":32,"rt":752.7499999996508,"accuracy":1,"outcome":"+1","keys":[2252.894999999611],"total_keys":1,"block":1,"trial":19,"stimulus":2,"robot":1,"valence":"win","action":"go","sham":1,"trial_type":"pit-trial","trial_index":53,"time_elapsed":446430,"internal_node_id":"0.0-26.0","task_version":"battery-v0.2-trt"},{"rune":"T","rune_set":"bacs2","hex":"#f73b6a7A","correct":-1,"choice":-1,"rt":-1,"accuracy":1,"outcome":"-1","keys":[],"total_keys":0,"block":1,"trial":20,"stimulus":1,"robot":4,"valence":"lose","action":"no-go","sham":0,"trial_type":"pit-trial","trial_index":54,"time_elapsed":450434,"internal_node_id":"0.0-27.0","task_version":"battery-v0.2-trt"},{"rune":"T","rune_set":"bacs2","hex":"#f73b6a7A","correct":-1,"choice":-1,"rt":-1,"accuracy":1,"outcome":"-10","keys":[],"total_keys":0,"block":1,"trial":21,"stimulus":1,"robot":4,"valence":"lose","action":"no-go","sham":1,"trial_type":"pit-trial","trial_index":55,"time_elapsed":454438,"internal_node_id":"0.0-28.0","task_version":"battery-v0.2-trt"},{"rune":"H","rune_set":"bacs2","hex":"#3366ff99","correct":-1,"choice":-1,"rt":-1,"accuracy":1,"outcome":"+10","keys":[],"total_keys":0,"block":1,"trial":22,"stimulus":3,"robot":2,"valence":"win","action":"no-go","sham":0,"trial_type":"pit-trial","trial_index":56,"time_elapsed":458442,"internal_node_id":"0.0-29.0","task_version":"battery-v0.2-trt"},{"rune":"Y","rune_set":"bacs2","hex":"#f73b6a7A","correct":-1,"choice":32,"rt":819.154999999213,"accuracy":0,"outcome":"-10","keys":[2319.260000000242],"total_keys":1,"block":1,"trial":23,"stimulus":0,"robot":4,"valence":"lose","action":"no-go","sham":0,"trial_type":"pit-trial","trial_index":57,"time_elapsed":461966,"internal_node_id":"0.0-30.0","task_version":"battery-v0.2-trt"},{"rune":"Q","rune_set":"bacs2","hex":"#3366ff99","correct":32,"choice":32,"rt":796.449999999837,"accuracy":1,"outcome":"+10","keys":[2297.305000000051],"total_keys":1,"block":1,"trial":24,"stimulus":2,"robot":1,"valence":"win","action":"go","sham":0,"trial_type":"pit-trial","trial_index":58,"time_elapsed":465469,"internal_node_id":"0.0-31.0","task_version":"battery-v0.2-trt"},{"rune":"Q","rune_set":"bacs2","hex":"#3366ff99","correct":32,"choice":32,"rt":815.5900000002002,"accuracy":1,"outcome":"+1","keys":[2315.785000000731],"total_keys":1,"block":1,"trial":25,"stimulus":2,"robot":1,"valence":"win","action":"go","sham":1,"trial_type":"pit-trial","trial_index":59,"time_elapsed":468989,"internal_node_id":"0.0-32.0","task_version":"battery-v0.2-trt"},{"rune":"T","rune_set":"bacs2","hex":"#f73b6a7A","correct":-1,"choice":-1,"rt":-1,"accuracy":1,"outcome":"-1","keys":[],"total_keys":0,"block":1,"trial":26,"stimulus":1,"robot":4,"valence":"lose","action":"no-go","sham":0,"trial_type":"pit-trial","trial_index":60,"time_elapsed":472993,"internal_node_id":"0.0-33.0","task_version":"battery-v0.2-trt"},{"rune":"H","rune_set":"bacs2","hex":"#3366ff99","correct":-1,"choice":32,"rt":804.4050000007264,"accuracy":0,"outcome":"+1","keys":[2304.505000000063],"total_keys":1,"block":1,"trial":27,"stimulus":3,"robot":2,"valence":"win","action":"no-go","sham":0,"trial_type":"pit-trial","trial_index":61,"time_elapsed":476502,"internal_node_id":"0.0-34.0","task_version":"battery-v0.2-trt"},{"rune":"Y","rune_set":"bacs2","hex":"#f73b6a7A","correct":-1,"choice":-1,"rt":-1,"accuracy":1,"outcome":"-1","keys":[],"total_keys":0,"block":1,"trial":28,"stimulus":0,"robot":4,"valence":"lose","action":"no-go","sham":0,"trial_type":"pit-trial","trial_index":62,"time_elapsed":480506,"internal_node_id":"0.0-35.0","task_version":"battery-v0.2-trt"},{"rune":"Q","rune_set":"bacs2","hex":"#3366ff99","correct":32,"choice":-1,"rt":-1,"accuracy":0,"outcome":"+1","keys":[],"total_keys":0,"block":1,"trial":29,"stimulus":2,"robot":1,"valence":"win","action":"go","sham":0,"trial_type":"pit-trial","trial_index":63,"time_elapsed":484510,"internal_node_id":"0.0-36.0","task_version":"battery-v0.2-trt"},{"rune":"T","rune_set":"bacs2","hex":"#f73b6a7A","correct":-1,"choice":-1,"rt":-1,"accuracy":1,"outcome":"-1","keys":[],"total_keys":0,"block":1,"trial":30,"stimulus":1,"robot":4,"valence":"lose","action":"no-go","sham":0,"trial_type":"pit-trial","trial_index":64,"time_elapsed":488517,"internal_node_id":"0.0-37.0","task_version":"battery-v0.2-trt"},{"rune":"H","rune_set":"bacs2","hex":"#3366ff99","correct":-1,"choice":32,"rt":845.1900000000023,"accuracy":0,"outcome":"+1","keys":[2348.3200000009965],"total_keys":1,"block":1,"trial":31,"stimulus":3,"robot":2,"valence":"win","action":"no-go","sham":0,"trial_type":"pit-trial","trial_index":65,"time_elapsed":492070,"internal_node_id":"0.0-38.0","task_version":"battery-v0.2-trt"},{"rune":"Y","rune_set":"bacs2","hex":"#f73b6a7A","correct":-1,"choice":-1,"rt":-1,"accuracy":1,"outcome":"-1","keys":[],"total_keys":0,"block":1,"trial":32,"stimulus":0,"robot":4,"valence":"lose","action":"no-go","sham":0,"trial_type":"pit-trial","trial_index":66,"time_elapsed":496074,"internal_node_id":"0.0-39.0","task_version":"battery-v0.2-trt"},{"rune":"Y","rune_set":"bacs2","hex":"#f73b6a7A","correct":-1,"choice":-1,"rt":-1,"accuracy":1,"outcome":"-10","keys":[],"total_keys":0,"block":1,"trial":33,"stimulus":0,"robot":4,"valence":"lose","action":"no-go","sham":1,"trial_type":"pit-trial","trial_index":67,"time_elapsed":500076,"internal_node_id":"0.0-40.0","task_version":"battery-v0.2-trt"},{"rune":"H","rune_set":"bacs2","hex":"#3366ff99","correct":-1,"choice":-1,"rt":-1,"accuracy":1,"outcome":"+10","keys":[],"total_keys":0,"block":1,"trial":34,"stimulus":3,"robot":2,"valence":"win","action":"no-go","sham":0,"trial_type":"pit-trial","trial_index":68,"time_elapsed":504080,"internal_node_id":"0.0-41.0","task_version":"battery-v0.2-trt"},{"rune":"E","rune_set":"bacs2","hex":"#f73b6a7A","correct":32,"choice":32,"rt":918.1300000000047,"accuracy":1,"outcome":"-10","keys":[2418.2799999998533],"total_keys":1,"block":1,"trial":35,"stimulus":4,"robot":3,"valence":"lose","action":"go","sham":1,"trial_type":"pit-trial","trial_index":69,"time_elapsed":507703,"internal_node_id":"0.0-42.0","task_version":"battery-v0.2-trt"},{"rune":"Q","rune_set":"bacs2","hex":"#3366ff99","correct":32,"choice":32,"rt":950.0449999995762,"accuracy":1,"outcome":"+10","keys":[2450.1550000004354],"total_keys":1,"block":1,"trial":36,"stimulus":2,"robot":1,"valence":"win","action":"go","sham":0,"trial_type":"pit-trial","trial_index":70,"time_elapsed":511357,"internal_node_id":"0.0-43.0","task_version":"battery-v0.2-trt"},{"rune":"H","rune_set":"bacs2","hex":"#3366ff99","correct":-1,"choice":-1,"rt":-1,"accuracy":1,"outcome":"+10","keys":[],"total_keys":0,"block":1,"trial":37,"stimulus":3,"robot":2,"valence":"win","action":"no-go","sham":0,"trial_type":"pit-trial","trial_index":71,"time_elapsed":515361,"internal_node_id":"0.0-44.0","task_version":"battery-v0.2-trt"},{"rune":"Y","rune_set":"bacs2","hex":"#f73b6a7A","correct":-1,"choice":-1,"rt":-1,"accuracy":1,"outcome":"-1","keys":[],"total_keys":0,"block":1,"trial":38,"stimulus":0,"robot":4,"valence":"lose","action":"no-go","sham":0,"trial_type":"pit-trial","trial_index":72,"time_elapsed":519365,"internal_node_id":"0.0-45.0","task_version":"battery-v0.2-trt"},{"rune":"Q","rune_set":"bacs2","hex":"#3366ff99","correct":32,"choice":32,"rt":824.3700000002864,"accuracy":1,"outcome":"+10","keys":[2324.3050000001094],"total_keys":1,"block":1,"trial":39,"stimulus":2,"robot":1,"valence":"win","action":"go","sham":0,"trial_type":"pit-trial","trial_index":73,"time_elapsed":522894,"internal_node_id":"0.0-46.0","task_version":"battery-v0.2-trt"},{"rune":"E","rune_set":"bacs2","hex":"#f73b6a7A","correct":32,"choice":32,"rt":895.0800000001909,"accuracy":1,"outcome":"-1","keys":[2395.1749999996973],"total_keys":1,"block":1,"trial":40,"stimulus":4,"robot":3,"valence":"lose","action":"go","sham":0,"trial_type":"pit-trial","trial_index":74,"time_elapsed":526493,"internal_node_id":"0.0-47.0","task_version":"battery-v0.2-trt"},{"rune":"C","rune_set":"bacs2","hex":"#3366ff99","correct":-1,"choice":-1,"rt":-1,"accuracy":1,"outcome":"+10","keys":[],"total_keys":0,"block":1,"trial":41,"stimulus":5,"robot":2,"valence":"win","action":"no-go","sham":0,"trial_type":"pit-trial","trial_index":75,"time_elapsed":530497,"internal_node_id":"0.0-48.0","task_version":"battery-v0.2-trt"},{"rune":"E","rune_set":"bacs2","hex":"#f73b6a7A","correct":32,"choice":32,"rt":956.930000000284,"accuracy":1,"outcome":"-1","keys":[2457.1099999992875],"total_keys":1,"block":1,"trial":42,"stimulus":4,"robot":3,"valence":"lose","action":"go","sham":0,"trial_type":"pit-trial","trial_index":76,"time_elapsed":534158,"internal_node_id":"0.0-49.0","task_version":"battery-v0.2-trt"},{"rune":"Y","rune_set":"bacs2","hex":"#f73b6a7A","correct":-1,"choice":-1,"rt":-1,"accuracy":1,"outcome":"-1","keys":[],"total_keys":0,"block":1,"trial":43,"stimulus":0,"robot":4,"valence":"lose","action":"no-go","sham":0,"trial_type":"pit-trial","trial_index":77,"time_elapsed":538161,"internal_node_id":"0.0-50.0","task_version":"battery-v0.2-trt"},{"rune":"O","rune_set":"bacs2","hex":"#3366ff99","correct":32,"choice":32,"rt":827.8549999995157,"accuracy":1,"outcome":"+10","keys":[2327.949999999022],"total_keys":1,"block":1,"trial":44,"stimulus":6,"robot":1,"valence":"win","action":"go","sham":0,"trial_type":"pit-trial","trial_index":78,"time_elapsed":541693,"internal_node_id":"0.0-51.0","task_version":"battery-v0.2-trt"},{"rune":"O","rune_set":"bacs2","hex":"#3366ff99","correct":32,"choice":32,"rt":695.1350000000093,"accuracy":1,"outcome":"+10","keys":[2195.8900000009453],"total_keys":1,"block":1,"trial":45,"stimulus":6,"robot":1,"valence":"win","action":"go","sham":0,"trial_type":"pit-trial","trial_index":79,"time_elapsed":545093,"internal_node_id":"0.0-52.0","task_version":"battery-v0.2-trt"},{"rune":"C","rune_set":"bacs2","hex":"#3366ff99","correct":-1,"choice":-1,"rt":-1,"accuracy":1,"outcome":"+10","keys":[],"total_keys":0,"block":1,"trial":46,"stimulus":5,"robot":2,"valence":"win","action":"no-go","sham":0,"trial_type":"pit-trial","trial_index":80,"time_elapsed":549097,"internal_node_id":"0.0-53.0","task_version":"battery-v0.2-trt"},{"rune":"E","rune_set":"bacs2","hex":"#f73b6a7A","correct":32,"choice":-1,"rt":-1,"accuracy":0,"outcome":"-10","keys":[],"total_keys":0,"block":1,"trial":47,"stimulus":4,"robot":3,"valence":"lose","action":"go","sham":0,"trial_type":"pit-trial","trial_index":81,"time_elapsed":553101,"internal_node_id":"0.0-54.0","task_version":"battery-v0.2-trt"},{"rune":"Y","rune_set":"bacs2","hex":"#f73b6a7A","correct":-1,"choice":-1,"rt":-1,"accuracy":1,"outcome":"-1","keys":[],"total_keys":0,"block":1,"trial":48,"stimulus":0,"robot":4,"valence":"lose","action":"no-go","sham":0,"trial_type":"pit-trial","trial_index":82,"time_elapsed":557105,"internal_node_id":"0.0-55.0","task_version":"battery-v0.2-trt"},{"rune":"E","rune_set":"bacs2","hex":"#f73b6a7A","correct":32,"choice":32,"rt":1004.1899999997113,"accuracy":1,"outcome":"-1","keys":[2504.3400000013644],"total_keys":1,"block":1,"trial":49,"stimulus":4,"robot":3,"valence":"lose","action":"go","sham":0,"trial_type":"pit-trial","trial_index":83,"time_elapsed":560813,"internal_node_id":"0.0-56.0","task_version":"battery-v0.2-trt"},{"rune":"C","rune_set":"bacs2","hex":"#3366ff99","correct":-1,"choice":32,"rt":887.2399999999907,"accuracy":0,"outcome":"+1","keys":[2387.3000000002794],"total_keys":1,"block":1,"trial":50,"stimulus":5,"robot":2,"valence":"win","action":"no-go","sham":0,"trial_type":"pit-trial","trial_index":84,"time_elapsed":564405,"internal_node_id":"0.0-57.0","task_version":"battery-v0.2-trt"},{"rune":"O","rune_set":"bacs2","hex":"#3366ff99","correct":32,"choice":32,"rt":1040.9099999996834,"accuracy":1,"outcome":"+10","keys":[2540.999999999185],"total_keys":1,"block":1,"trial":51,"stimulus":6,"robot":1,"valence":"win","action":"go","sham":0,"trial_type":"pit-trial","trial_index":85,"time_elapsed":568149,"internal_node_id":"0.0-58.0","task_version":"battery-v0.2-trt"},{"rune":"G","rune_set":"bacs2","hex":"#f73b6a7A","correct":-1,"choice":32,"rt":984.0949999998556,"accuracy":0,"outcome":"-1","keys":[2484.244999999646],"total_keys":1,"block":1,"trial":52,"stimulus":7,"robot":4,"valence":"lose","action":"no-go","sham":1,"trial_type":"pit-trial","trial_index":86,"time_elapsed":571837,"internal_node_id":"0.0-59.0","task_version":"battery-v0.2-trt"},{"rune":"E","rune_set":"bacs2","hex":"#f73b6a7A","correct":32,"choice":32,"rt":1111.5800000006566,"accuracy":1,"outcome":"-10","keys":[2611.809999998426],"total_keys":1,"block":1,"trial":53,"stimulus":4,"robot":3,"valence":"lose","action":"go","sham":1,"trial_type":"pit-trial","trial_index":87,"time_elapsed":575653,"internal_node_id":"0.0-60.0","task_version":"battery-v0.2-trt"},{"rune":"G","rune_set":"bacs2","hex":"#f73b6a7A","correct":-1,"choice":-1,"rt":-1,"accuracy":1,"outcome":"-1","keys":[],"total_keys":0,"block":1,"trial":54,"stimulus":7,"robot":4,"valence":"lose","action":"no-go","sham":0,"trial_type":"pit-trial","trial_index":88,"time_elapsed":579657,"internal_node_id":"0.0-61.0","task_version":"battery-v0.2-trt"},{"rune":"C","rune_set":"bacs2","hex":"#3366ff99","correct":-1,"choice":32,"rt":924.6999999996042,"accuracy":0,"outcome":"+10","keys":[2424.809999998659],"total_keys":1,"block":1,"trial":55,"stimulus":5,"robot":2,"valence":"win","action":"no-go","sham":1,"trial_type":"pit-trial","trial_index":89,"time_elapsed":583285,"internal_node_id":"0.0-62.0","task_version":"battery-v0.2-trt"},{"rune":"O","rune_set":"bacs2","hex":"#3366ff99","correct":32,"choice":-1,"rt":-1,"accuracy":0,"outcome":"+1","keys":[],"total_keys":0,"block":1,"trial":56,"stimulus":6,"robot":1,"valence":"win","action":"go","sham":0,"trial_type":"pit-trial","trial_index":90,"time_elapsed":587289,"internal_node_id":"0.0-63.0","task_version":"battery-v0.2-trt"},{"rune":"E","rune_set":"bacs2","hex":"#f73b6a7A","correct":32,"choice":-1,"rt":-1,"accuracy":0,"outcome":"-10","keys":[],"total_keys":0,"block":1,"trial":57,"stimulus":4,"robot":3,"valence":"lose","action":"go","sham":0,"trial_type":"pit-trial","trial_index":91,"time_elapsed":591293,"internal_node_id":"0.0-64.0","task_version":"battery-v0.2-trt"},{"rune":"O","rune_set":"bacs2","hex":"#3366ff99","correct":32,"choice":32,"rt":807.6450000007171,"accuracy":1,"outcome":"+10","keys":[2308.5849999987986],"total_keys":1,"block":1,"trial":58,"stimulus":6,"robot":1,"valence":"win","action":"go","sham":0,"trial_type":"pit-trial","trial_index":92,"time_elapsed":594806,"internal_node_id":"0.0-65.0","task_version":"battery-v0.2-trt"},{"rune":"C","rune_set":"bacs2","hex":"#3366ff99","correct":-1,"choice":-1,"rt":-1,"accuracy":1,"outcome":"+1","keys":[],"total_keys":0,"block":1,"trial":59,"stimulus":5,"robot":2,"valence":"win","action":"no-go","sham":1,"trial_type":"pit-trial","trial_index":93,"time_elapsed":598810,"internal_node_id":"0.0-66.0","task_version":"battery-v0.2-trt"},{"rune":"G","rune_set":"bacs2","hex":"#f73b6a7A","correct":-1,"choice":-1,"rt":-1,"accuracy":1,"outcome":"-1","keys":[],"total_keys":0,"block":1,"trial":60,"stimulus":7,"robot":4,"valence":"lose","action":"no-go","sham":0,"trial_type":"pit-trial","trial_index":94,"time_elapsed":602813,"internal_node_id":"0.0-67.0","task_version":"battery-v0.2-trt"},{"rune":"O","rune_set":"bacs2","hex":"#3366ff99","correct":32,"choice":32,"rt":832.089999999851,"accuracy":1,"outcome":"+1","keys":[2332.1749999994645],"total_keys":1,"block":1,"trial":61,"stimulus":6,"robot":1,"valence":"win","action":"go","sham":1,"trial_type":"pit-trial","trial_index":95,"time_elapsed":606349,"internal_node_id":"0.0-68.0","task_version":"battery-v0.2-trt"},{"rune":"C","rune_set":"bacs2","hex":"#3366ff99","correct":-1,"choice":32,"rt":983.7349999998696,"accuracy":0,"outcome":"+1","keys":[2483.8250000011176],"total_keys":1,"block":1,"trial":62,"stimulus":5,"robot":2,"valence":"win","action":"no-go","sham":0,"trial_type":"pit-trial","trial_index":96,"time_elapsed":610037,"internal_node_id":"0.0-69.0","task_version":"battery-v0.2-trt"},{"rune":"G","rune_set":"bacs2","hex":"#f73b6a7A","correct":-1,"choice":-1,"rt":-1,"accuracy":1,"outcome":"-1","keys":[],"total_keys":0,"block":1,"trial":63,"stimulus":7,"robot":4,"valence":"lose","action":"no-go","sham":0,"trial_type":"pit-trial","trial_index":97,"time_elapsed":614040,"internal_node_id":"0.0-70.0","task_version":"battery-v0.2-trt"},{"rune":"E","rune_set":"bacs2","hex":"#f73b6a7A","correct":32,"choice":-1,"rt":-1,"accuracy":0,"outcome":"-10","keys":[],"total_keys":0,"block":1,"trial":64,"stimulus":4,"robot":3,"valence":"lose","action":"go","sham":0,"trial_type":"pit-trial","trial_index":98,"time_elapsed":618044,"internal_node_id":"0.0-71.0","task_version":"battery-v0.2-trt"},{"rune":"C","rune_set":"bacs2","hex":"#3366ff99","correct":-1,"choice":-1,"rt":-1,"accuracy":1,"outcome":"+10","keys":[],"total_keys":0,"block":1,"trial":65,"stimulus":5,"robot":2,"valence":"win","action":"no-go","sham":0,"trial_type":"pit-trial","trial_index":99,"time_elapsed":622049,"internal_node_id":"0.0-72.0","task_version":"battery-v0.2-trt"},{"rune":"O","rune_set":"bacs2","hex":"#3366ff99","correct":32,"choice":-1,"rt":-1,"accuracy":0,"outcome":"+1","keys":[],"total_keys":0,"block":1,"trial":66,"stimulus":6,"robot":1,"valence":"win","action":"go","sham":0,"trial_type":"pit-trial","trial_index":100,"time_elapsed":626053,"internal_node_id":"0.0-73.0","task_version":"battery-v0.2-trt"},{"rune":"G","rune_set":"bacs2","hex":"#f73b6a7A","correct":-1,"choice":32,"rt":816.7200000006706,"accuracy":0,"outcome":"-1","keys":[2316.8400000013644],"total_keys":1,"block":1,"trial":67,"stimulus":7,"robot":4,"valence":"lose","action":"no-go","sham":1,"trial_type":"pit-trial","trial_index":101,"time_elapsed":629574,"internal_node_id":"0.0-74.0","task_version":"battery-v0.2-trt"},{"rune":"E","rune_set":"bacs2","hex":"#f73b6a7A","correct":32,"choice":32,"rt":991.0149999996647,"accuracy":1,"outcome":"-1","keys":[2491.289999999921],"total_keys":1,"block":1,"trial":68,"stimulus":4,"robot":3,"valence":"lose","action":"go","sham":0,"trial_type":"pit-trial","trial_index":102,"time_elapsed":633269,"internal_node_id":"0.0-75.0","task_version":"battery-v0.2-trt"},{"rune":"O","rune_set":"bacs2","hex":"#3366ff99","correct":32,"choice":-1,"rt":-1,"accuracy":0,"outcome":"+1","keys":[],"total_keys":0,"block":1,"trial":69,"stimulus":6,"robot":1,"valence":"win","action":"go","sham":0,"trial_type":"pit-trial","trial_index":103,"time_elapsed":637273,"internal_node_id":"0.0-76.0","task_version":"battery-v0.2-trt"},{"rune":"E","rune_set":"bacs2","hex":"#f73b6a7A","correct":32,"choice":32,"rt":900.1700000007404,"accuracy":1,"outcome":"-1","keys":[2400.299999999348],"total_keys":1,"block":1,"trial":70,"stimulus":4,"robot":3,"valence":"lose","action":"go","sham":0,"trial_type":"pit-trial","trial_index":104,"time_elapsed":640878,"internal_node_id":"0.0-77.0","task_version":"battery-v0.2-trt"},{"rune":"G","rune_set":"bacs2","hex":"#f73b6a7A","correct":-1,"choice":32,"rt":983.1500000000233,"accuracy":0,"outcome":"-10","keys":[2483.2399999996414],"total_keys":1,"block":1,"trial":71,"stimulus":7,"robot":4,"valence":"lose","action":"no-go","sham":0,"trial_type":"pit-trial","trial_index":105,"time_elapsed":644565,"internal_node_id":"0.0-78.0","task_version":"battery-v0.2-trt"},{"rune":"C","rune_set":"bacs2","hex":"#3366ff99","correct":-1,"choice":32,"rt":887.4049999994459,"accuracy":0,"outcome":"+1","keys":[2387.445000000298],"total_keys":1,"block":1,"trial":72,"stimulus":5,"robot":2,"valence":"win","action":"no-go","sham":0,"trial_type":"pit-trial","trial_index":106,"time_elapsed":648157,"internal_node_id":"0.0-79.0","task_version":"battery-v0.2-trt"},{"rune":"G","rune_set":"bacs2","hex":"#f73b6a7A","correct":-1,"choice":-1,"rt":-1,"accuracy":1,"outcome":"-1","keys":[],"total_keys":0,"block":1,"trial":73,"stimulus":7,"robot":4,"valence":"lose","action":"no-go","sham":0,"trial_type":"pit-trial","trial_index":107,"time_elapsed":652161,"internal_node_id":"0.0-80.0","task_version":"battery-v0.2-trt"},{"rune":"X","rune_set":"bacs2","hex":"#f73b6a7A","correct":32,"choice":32,"rt":940.945000000298,"accuracy":1,"outcome":"-1","keys":[2441.555000001332],"total_keys":1,"block":1,"trial":74,"stimulus":9,"robot":3,"valence":"lose","action":"go","sham":0,"trial_type":"pit-trial","trial_index":108,"time_elapsed":655806,"internal_node_id":"0.0-81.0","task_version":"battery-v0.2-trt"},{"rune":"C","rune_set":"bacs2","hex":"#3366ff99","correct":-1,"choice":32,"rt":950.799999998766,"accuracy":0,"outcome":"+1","keys":[2450.960000000079],"total_keys":1,"block":1,"trial":75,"stimulus":5,"robot":2,"valence":"win","action":"no-go","sham":0,"trial_type":"pit-trial","trial_index":109,"time_elapsed":659461,"internal_node_id":"0.0-82.0","task_version":"battery-v0.2-trt"},{"rune":"Z","rune_set":"bacs2","hex":"#3366ff99","correct":32,"choice":32,"rt":888.1149999997579,"accuracy":1,"outcome":"+10","keys":[2388.2450000001118],"total_keys":1,"block":1,"trial":76,"stimulus":8,"robot":1,"valence":"win","action":"go","sham":0,"trial_type":"pit-trial","trial_index":110,"time_elapsed":663053,"internal_node_id":"0.0-83.0","task_version":"battery-v0.2-trt"},{"rune":"C","rune_set":"bacs2","hex":"#3366ff99","correct":-1,"choice":32,"rt":1160.1150000005728,"accuracy":0,"outcome":"+10","keys":[2660.284999999916],"total_keys":1,"block":1,"trial":77,"stimulus":5,"robot":2,"valence":"win","action":"no-go","sham":1,"trial_type":"pit-trial","trial_index":111,"time_elapsed":666917,"internal_node_id":"0.0-84.0","task_version":"battery-v0.2-trt"},{"rune":"X","rune_set":"bacs2","hex":"#f73b6a7A","correct":32,"choice":32,"rt":927.8450000002049,"accuracy":1,"outcome":"-1","keys":[2427.6150000004563],"total_keys":1,"block":1,"trial":78,"stimulus":9,"robot":3,"valence":"lose","action":"go","sham":0,"trial_type":"pit-trial","trial_index":112,"time_elapsed":670549,"internal_node_id":"0.0-85.0","task_version":"battery-v0.2-trt"},{"rune":"Z","rune_set":"bacs2","hex":"#3366ff99","correct":32,"choice":32,"rt":1031.65500000061,"accuracy":1,"outcome":"+10","keys":[2531.73000000068],"total_keys":1,"block":1,"trial":79,"stimulus":8,"robot":1,"valence":"win","action":"go","sham":0,"trial_type":"pit-trial","trial_index":113,"time_elapsed":674285,"internal_node_id":"0.0-86.0","task_version":"battery-v0.2-trt"},{"rune":"G","rune_set":"bacs2","hex":"#f73b6a7A","correct":-1,"choice":32,"rt":1144.155000000028,"accuracy":0,"outcome":"-10","keys":[2644.335000000894],"total_keys":1,"block":1,"trial":80,"stimulus":7,"robot":4,"valence":"lose","action":"no-go","sham":0,"trial_type":"pit-trial","trial_index":114,"time_elapsed":678134,"internal_node_id":"0.0-87.0","task_version":"battery-v0.2-trt"},{"rune":"X","rune_set":"bacs2","hex":"#f73b6a7A","correct":32,"choice":-1,"rt":-1,"accuracy":0,"outcome":"-10","keys":[],"total_keys":0,"block":1,"trial":81,"stimulus":9,"robot":3,"valence":"lose","action":"go","sham":0,"trial_type":"pit-trial","trial_index":115,"time_elapsed":682138,"internal_node_id":"0.0-88.0","task_version":"battery-v0.2-trt"},{"rune":"Z","rune_set":"bacs2","hex":"#3366ff99","correct":32,"choice":32,"rt":868.1700000015553,"accuracy":1,"outcome":"+10","keys":[2368.234999999986],"total_keys":1,"block":1,"trial":82,"stimulus":8,"robot":1,"valence":"win","action":"go","sham":0,"trial_type":"pit-trial","trial_index":116,"time_elapsed":685709,"internal_node_id":"0.0-89.0","task_version":"battery-v0.2-trt"},{"rune":"C","rune_set":"bacs2","hex":"#3366ff99","correct":-1,"choice":-1,"rt":-1,"accuracy":1,"outcome":"+10","keys":[],"total_keys":0,"block":1,"trial":83,"stimulus":5,"robot":2,"valence":"win","action":"no-go","sham":0,"trial_type":"pit-trial","trial_index":117,"time_elapsed":689713,"internal_node_id":"0.0-90.0","task_version":"battery-v0.2-trt"},{"rune":"G","rune_set":"bacs2","hex":"#f73b6a7A","correct":-1,"choice":-1,"rt":-1,"accuracy":1,"outcome":"-1","keys":[],"total_keys":0,"block":1,"trial":84,"stimulus":7,"robot":4,"valence":"lose","action":"no-go","sham":0,"trial_type":"pit-trial","trial_index":118,"time_elapsed":693717,"internal_node_id":"0.0-91.0","task_version":"battery-v0.2-trt"},{"rune":"X","rune_set":"bacs2","hex":"#f73b6a7A","correct":32,"choice":32,"rt":887.7249999986961,"accuracy":1,"outcome":"-1","keys":[2389.8499999996275],"total_keys":1,"block":1,"trial":85,"stimulus":9,"robot":3,"valence":"lose","action":"go","sham":0,"trial_type":"pit-trial","trial_index":119,"time_elapsed":697310,"internal_node_id":"0.0-92.0","task_version":"battery-v0.2-trt"},{"rune":"G","rune_set":"bacs2","hex":"#f73b6a7A","correct":-1,"choice":-1,"rt":-1,"accuracy":1,"outcome":"-1","keys":[],"total_keys":0,"block":1,"trial":86,"stimulus":7,"robot":4,"valence":"lose","action":"no-go","sham":0,"trial_type":"pit-trial","trial_index":120,"time_elapsed":701315,"internal_node_id":"0.0-93.0","task_version":"battery-v0.2-trt"},{"rune":"C","rune_set":"bacs2","hex":"#3366ff99","correct":-1,"choice":-1,"rt":-1,"accuracy":1,"outcome":"+10","keys":[],"total_keys":0,"block":1,"trial":87,"stimulus":5,"robot":2,"valence":"win","action":"no-go","sham":0,"trial_type":"pit-trial","trial_index":121,"time_elapsed":705319,"internal_node_id":"0.0-94.0","task_version":"battery-v0.2-trt"},{"rune":"Z","rune_set":"bacs2","hex":"#3366ff99","correct":32,"choice":32,"rt":774.910000000149,"accuracy":1,"outcome":"+10","keys":[2274.984999999986],"total_keys":1,"block":1,"trial":88,"stimulus":8,"robot":1,"valence":"win","action":"go","sham":0,"trial_type":"pit-trial","trial_index":122,"time_elapsed":708798,"internal_node_id":"0.0-95.0","task_version":"battery-v0.2-trt"},{"rune":"W","rune_set":"bacs2","hex":"#f73b6a7A","correct":32,"choice":32,"rt":989.0550000000512,"accuracy":1,"outcome":"-1","keys":[2491.254999998957],"total_keys":1,"block":1,"trial":89,"stimulus":10,"robot":3,"valence":"lose","action":"go","sham":0,"trial_type":"pit-trial","trial_index":123,"time_elapsed":712493,"internal_node_id":"0.0-96.0","task_version":"battery-v0.2-trt"},{"rune":"Z","rune_set":"bacs2","hex":"#3366ff99","correct":32,"choice":32,"rt":920.2399999994086,"accuracy":1,"outcome":"+1","keys":[2420.060000000405],"total_keys":1,"block":1,"trial":90,"stimulus":8,"robot":1,"valence":"win","action":"go","sham":1,"trial_type":"pit-trial","trial_index":124,"time_elapsed":716117,"internal_node_id":"0.0-97.0","task_version":"battery-v0.2-trt"},{"rune":"J","rune_set":"bacs2","hex":"#3366ff99","correct":-1,"choice":32,"rt":1111.5700000009965,"accuracy":0,"outcome":"+10","keys":[2611.904999999795],"total_keys":1,"block":1,"trial":91,"stimulus":11,"robot":2,"valence":"win","action":"no-go","sham":1,"trial_type":"pit-trial","trial_index":125,"time_elapsed":719933,"internal_node_id":"0.0-98.0","task_version":"battery-v0.2-trt"},{"rune":"X","rune_set":"bacs2","hex":"#f73b6a7A","correct":32,"choice":32,"rt":1023.4749999999767,"accuracy":1,"outcome":"-10","keys":[2523.6499999992084],"total_keys":1,"block":1,"trial":92,"stimulus":9,"robot":3,"valence":"lose","action":"go","sham":1,"trial_type":"pit-trial","trial_index":126,"time_elapsed":723661,"internal_node_id":"0.0-99.0","task_version":"battery-v0.2-trt"},{"rune":"Z","rune_set":"bacs2","hex":"#3366ff99","correct":32,"choice":-1,"rt":-1,"accuracy":0,"outcome":"+10","keys":[],"total_keys":0,"block":1,"trial":93,"stimulus":8,"robot":1,"valence":"win","action":"go","sham":1,"trial_type":"pit-trial","trial_index":127,"time_elapsed":727665,"internal_node_id":"0.0-100.0","task_version":"battery-v0.2-trt"},{"rune":"X","rune_set":"bacs2","hex":"#f73b6a7A","correct":32,"choice":32,"rt":861.3400000013644,"accuracy":1,"outcome":"-1","keys":[2361.4299999990035],"total_keys":1,"block":1,"trial":94,"stimulus":9,"robot":3,"valence":"lose","action":"go","sham":0,"trial_type":"pit-trial","trial_index":128,"time_elapsed":731230,"internal_node_id":"0.0-101.0","task_version":"battery-v0.2-trt"},{"rune":"W","rune_set":"bacs2","hex":"#f73b6a7A","correct":32,"choice":32,"rt":918.2450000006938,"accuracy":1,"outcome":"-10","keys":[2418.3749999993015],"total_keys":1,"block":1,"trial":95,"stimulus":10,"robot":3,"valence":"lose","action":"go","sham":1,"trial_type":"pit-trial","trial_index":129,"time_elapsed":734852,"internal_node_id":"0.0-102.0","task_version":"battery-v0.2-trt"},{"rune":"J","rune_set":"bacs2","hex":"#3366ff99","correct":-1,"choice":32,"rt":920.8900000012945,"accuracy":0,"outcome":"+10","keys":[2420.7000000005355],"total_keys":1,"block":1,"trial":96,"stimulus":11,"robot":2,"valence":"win","action":"no-go","sham":1,"trial_type":"pit-trial","trial_index":130,"time_elapsed":738477,"internal_node_id":"0.0-103.0","task_version":"battery-v0.2-trt"},{"rune":"X","rune_set":"bacs2","hex":"#f73b6a7A","correct":32,"choice":32,"rt":936.3000000012107,"accuracy":1,"outcome":"-10","keys":[2436.4150000001537],"total_keys":1,"block":1,"trial":97,"stimulus":9,"robot":3,"valence":"lose","action":"go","sham":1,"trial_type":"pit-trial","trial_index":131,"time_elapsed":742117,"internal_node_id":"0.0-104.0","task_version":"battery-v0.2-trt"},{"rune":"Z","rune_set":"bacs2","hex":"#3366ff99","correct":32,"choice":-1,"rt":-1,"accuracy":0,"outcome":"+1","keys":[],"total_keys":0,"block":1,"trial":98,"stimulus":8,"robot":1,"valence":"win","action":"go","sham":0,"trial_type":"pit-trial","trial_index":132,"time_elapsed":746122,"internal_node_id":"0.0-105.0","task_version":"battery-v0.2-trt"},{"rune":"W","rune_set":"bacs2","hex":"#f73b6a7A","correct":32,"choice":32,"rt":975.5899999999674,"accuracy":1,"outcome":"-1","keys":[2478.7250000007916],"total_keys":1,"block":1,"trial":99,"stimulus":10,"robot":3,"valence":"lose","action":"go","sham":0,"trial_type":"pit-trial","trial_index":133,"time_elapsed":749805,"internal_node_id":"0.0-106.0","task_version":"battery-v0.2-trt"},{"rune":"J","rune_set":"bacs2","hex":"#3366ff99","correct":-1,"choice":-1,"rt":-1,"accuracy":1,"outcome":"+10","keys":[],"total_keys":0,"block":1,"trial":100,"stimulus":11,"robot":2,"valence":"win","action":"no-go","sham":0,"trial_type":"pit-trial","trial_index":134,"time_elapsed":753809,"internal_node_id":"0.0-107.0","task_version":"battery-v0.2-trt"},{"rune":"Z","rune_set":"bacs2","hex":"#3366ff99","correct":32,"choice":-1,"rt":-1,"accuracy":0,"outcome":"+1","keys":[],"total_keys":0,"block":1,"trial":101,"stimulus":8,"robot":1,"valence":"win","action":"go","sham":0,"trial_type":"pit-trial","trial_index":135,"time_elapsed":757813,"internal_node_id":"0.0-108.0","task_version":"battery-v0.2-trt"},{"rune":"J","rune_set":"bacs2","hex":"#3366ff99","correct":-1,"choice":-1,"rt":-1,"accuracy":1,"outcome":"+10","keys":[],"total_keys":0,"block":1,"trial":102,"stimulus":11,"robot":2,"valence":"win","action":"no-go","sham":0,"trial_type":"pit-trial","trial_index":136,"time_elapsed":761817,"internal_node_id":"0.0-109.0","task_version":"battery-v0.2-trt"},{"rune":"X","rune_set":"bacs2","hex":"#f73b6a7A","correct":32,"choice":32,"rt":884.5200000014156,"accuracy":1,"outcome":"-10","keys":[2384.640000000247],"total_keys":1,"block":1,"trial":103,"stimulus":9,"robot":3,"valence":"lose","action":"go","sham":1,"trial_type":"pit-trial","trial_index":137,"time_elapsed":765405,"internal_node_id":"0.0-110.0","task_version":"battery-v0.2-trt"},{"rune":"W","rune_set":"bacs2","hex":"#f73b6a7A","correct":32,"choice":32,"rt":1048.1849999997066,"accuracy":1,"outcome":"-1","keys":[2548.730000000447],"total_keys":1,"block":1,"trial":104,"stimulus":10,"robot":3,"valence":"lose","action":"go","sham":0,"trial_type":"pit-trial","trial_index":138,"time_elapsed":769157,"internal_node_id":"0.0-111.0","task_version":"battery-v0.2-trt"},{"rune":"Z","rune_set":"bacs2","hex":"#3366ff99","correct":32,"choice":32,"rt":1160.3749999995343,"accuracy":1,"outcome":"+10","keys":[2660.4099999986356],"total_keys":1,"block":1,"trial":105,"stimulus":8,"robot":1,"valence":"win","action":"go","sham":0,"trial_type":"pit-trial","trial_index":139,"time_elapsed":773021,"internal_node_id":"0.0-112.0","task_version":"battery-v0.2-trt"},{"rune":"J","rune_set":"bacs2","hex":"#3366ff99","correct":-1,"choice":-1,"rt":-1,"accuracy":1,"outcome":"+10","keys":[],"total_keys":0,"block":1,"trial":106,"stimulus":11,"robot":2,"valence":"win","action":"no-go","sham":0,"trial_type":"pit-trial","trial_index":140,"time_elapsed":777025,"internal_node_id":"0.0-113.0","task_version":"battery-v0.2-trt"},{"rune":"W","rune_set":"bacs2","hex":"#f73b6a7A","correct":32,"choice":32,"rt":940.5500000012107,"accuracy":1,"outcome":"-1","keys":[2440.590000000084],"total_keys":1,"block":1,"trial":107,"stimulus":10,"robot":3,"valence":"lose","action":"go","sham":0,"trial_type":"pit-trial","trial_index":141,"time_elapsed":780669,"internal_node_id":"0.0-114.0","task_version":"battery-v0.2-trt"},{"rune":"X","rune_set":"bacs2","hex":"#f73b6a7A","correct":32,"choice":-1,"rt":-1,"accuracy":0,"outcome":"-10","keys":[],"total_keys":0,"block":1,"trial":108,"stimulus":9,"robot":3,"valence":"lose","action":"go","sham":0,"trial_type":"pit-trial","trial_index":142,"time_elapsed":784672,"internal_node_id":"0.0-115.0","task_version":"battery-v0.2-trt"},{"rune":"X","rune_set":"bacs2","hex":"#f73b6a7A","correct":32,"choice":-1,"rt":-1,"accuracy":0,"outcome":"-10","keys":[],"total_keys":0,"block":1,"trial":109,"stimulus":9,"robot":3,"valence":"lose","action":"go","sham":0,"trial_type":"pit-trial","trial_index":143,"time_elapsed":788677,"internal_node_id":"0.0-116.0","task_version":"battery-v0.2-trt"},{"rune":"Z","rune_set":"bacs2","hex":"#3366ff99","correct":32,"choice":32,"rt":1129.6699999985285,"accuracy":1,"outcome":"+10","keys":[2629.8050000004005],"total_keys":1,"block":1,"trial":110,"stimulus":8,"robot":1,"valence":"win","action":"go","sham":0,"trial_type":"pit-trial","trial_index":144,"time_elapsed":792510,"internal_node_id":"0.0-117.0","task_version":"battery-v0.2-trt"},{"rune":"W","rune_set":"bacs2","hex":"#f73b6a7A","correct":32,"choice":32,"rt":1262.0699999987846,"accuracy":1,"outcome":"-1","keys":[2762.415000001085],"total_keys":1,"block":1,"trial":111,"stimulus":10,"robot":3,"valence":"lose","action":"go","sham":0,"trial_type":"pit-trial","trial_index":145,"time_elapsed":796477,"internal_node_id":"0.0-118.0","task_version":"battery-v0.2-trt"},{"rune":"J","rune_set":"bacs2","hex":"#3366ff99","correct":-1,"choice":-1,"rt":-1,"accuracy":1,"outcome":"+10","keys":[],"total_keys":0,"block":1,"trial":112,"stimulus":11,"robot":2,"valence":"win","action":"no-go","sham":0,"trial_type":"pit-trial","trial_index":146,"time_elapsed":800480,"internal_node_id":"0.0-119.0","task_version":"battery-v0.2-trt"},{"rune":"W","rune_set":"bacs2","hex":"#f73b6a7A","correct":32,"choice":32,"rt":829.7600000005914,"accuracy":1,"outcome":"-10","keys":[2329.854999999865],"total_keys":1,"block":1,"trial":113,"stimulus":10,"robot":3,"valence":"lose","action":"go","sham":1,"trial_type":"pit-trial","trial_index":147,"time_elapsed":804014,"internal_node_id":"0.0-120.0","task_version":"battery-v0.2-trt"},{"rune":"Z","rune_set":"bacs2","hex":"#3366ff99","correct":32,"choice":-1,"rt":-1,"accuracy":0,"outcome":"+10","keys":[],"total_keys":0,"block":1,"trial":114,"stimulus":8,"robot":1,"valence":"win","action":"go","sham":1,"trial_type":"pit-trial","trial_index":148,"time_elapsed":808018,"internal_node_id":"0.0-121.0","task_version":"battery-v0.2-trt"},{"rune":"X","rune_set":"bacs2","hex":"#f73b6a7A","correct":32,"choice":32,"rt":754.0150000003632,"accuracy":1,"outcome":"-1","keys":[2254.1349999991944],"total_keys":1,"block":1,"trial":115,"stimulus":9,"robot":3,"valence":"lose","action":"go","sham":0,"trial_type":"pit-trial","trial_index":149,"time_elapsed":811477,"internal_node_id":"0.0-122.0","task_version":"battery-v0.2-trt"},{"rune":"J","rune_set":"bacs2","hex":"#3366ff99","correct":-1,"choice":-1,"rt":-1,"accuracy":1,"outcome":"+10","keys":[],"total_keys":0,"block":1,"trial":116,"stimulus":11,"robot":2,"valence":"win","action":"no-go","sham":0,"trial_type":"pit-trial","trial_index":150,"time_elapsed":815480,"internal_node_id":"0.0-123.0","task_version":"battery-v0.2-trt"},{"rune":"J","rune_set":"bacs2","hex":"#3366ff99","correct":-1,"choice":-1,"rt":-1,"accuracy":1,"outcome":"+1","keys":[],"total_keys":0,"block":1,"trial":117,"stimulus":11,"robot":2,"valence":"win","action":"no-go","sham":1,"trial_type":"pit-trial","trial_index":151,"time_elapsed":819484,"internal_node_id":"0.0-124.0","task_version":"battery-v0.2-trt"},{"rune":"X","rune_set":"bacs2","hex":"#f73b6a7A","correct":32,"choice":32,"rt":785.4450000014622,"accuracy":1,"outcome":"-1","keys":[2285.480000000447],"total_keys":1,"block":1,"trial":118,"stimulus":9,"robot":3,"valence":"lose","action":"go","sham":0,"trial_type":"pit-trial","trial_index":152,"time_elapsed":822974,"internal_node_id":"0.0-125.0","task_version":"battery-v0.2-trt"},{"rune":"Z","rune_set":"bacs2","hex":"#3366ff99","correct":32,"choice":-1,"rt":-1,"accuracy":0,"outcome":"+1","keys":[],"total_keys":0,"block":1,"trial":119,"stimulus":8,"robot":1,"valence":"win","action":"go","sham":0,"trial_type":"pit-trial","trial_index":153,"time_elapsed":826978,"internal_node_id":"0.0-126.0","task_version":"battery-v0.2-trt"},{"rune":"W","rune_set":"bacs2","hex":"#f73b6a7A","correct":32,"choice":32,"rt":699.7100000007777,"accuracy":1,"outcome":"-1","keys":[2199.7649999993155],"total_keys":1,"block":1,"trial":120,"stimulus":10,"robot":3,"valence":"lose","action":"go","sham":0,"trial_type":"pit-trial","trial_index":154,"time_elapsed":830381,"internal_node_id":"0.0-127.0","task_version":"battery-v0.2-trt"},{"view_history":"[{\"page_index\":0,\"viewing_time\":50188.53500000108},{\"page_index\":1,\"viewing_time\":3535.384999999311}]","rt":53724.76000000094,"trial_type":"pit-instructions","trial_index":155,"time_elapsed":884109,"internal_node_id":"0.0-128.0","task_version":"battery-v0.2-trt"},{"rune":"F","rune_set":"bacs2","hex":"#3366ff99","correct":32,"choice":-1,"rt":-1,"accuracy":0,"outcome":"+10","keys":[],"total_keys":0,"block":2,"trial":121,"stimulus":1,"robot":1,"valence":"win","action":"go","sham":1,"trial_type":"pit-trial","trial_index":156,"time_elapsed":888115,"internal_node_id":"0.0-129.0","task_version":"battery-v0.2-trt"},{"rune":"N","rune_set":"bacs2","hex":"#3366ff99","correct":-1,"choice":-1,"rt":-1,"accuracy":1,"outcome":"+10","keys":[],"total_keys":0,"block":2,"trial":122,"stimulus":0,"robot":2,"valence":"win","action":"no-go","sham":0,"trial_type":"pit-trial","trial_index":157,"time_elapsed":892119,"internal_node_id":"0.0-130.0","task_version":"battery-v0.2-trt"},{"rune":"A","rune_set":"bacs2","hex":"#f73b6a7A","correct":-1,"choice":32,"rt":759.4100000006147,"accuracy":0,"outcome":"-10","keys":[2259.460000001127],"total_keys":1,"block":2,"trial":123,"stimulus":2,"robot":4,"valence":"lose","action":"no-go","sham":0,"trial_type":"pit-trial","trial_index":158,"time_elapsed":895581,"internal_node_id":"0.0-131.0","task_version":"battery-v0.2-trt"},{"rune":"U","rune_set":"bacs2","hex":"#3366ff99","correct":32,"choice":32,"rt":943.650000001071,"accuracy":1,"outcome":"+10","keys":[2443.425000001327],"total_keys":1,"block":2,"trial":124,"stimulus":3,"robot":1,"valence":"win","action":"go","sham":0,"trial_type":"pit-trial","trial_index":159,"time_elapsed":899229,"internal_node_id":"0.0-132.0","task_version":"battery-v0.2-trt"},{"rune":"U","rune_set":"bacs2","hex":"#3366ff99","correct":32,"choice":32,"rt":591.7499999996508,"accuracy":1,"outcome":"+10","keys":[2091.8450000009034],"total_keys":1,"block":2,"trial":125,"stimulus":3,"robot":1,"valence":"win","action":"go","sham":0,"trial_type":"pit-trial","trial_index":160,"time_elapsed":902525,"internal_node_id":"0.0-133.0","task_version":"battery-v0.2-trt"},{"rune":"F","rune_set":"bacs2","hex":"#3366ff99","correct":32,"choice":-1,"rt":-1,"accuracy":0,"outcome":"+10","keys":[],"total_keys":0,"block":2,"trial":126,"stimulus":1,"robot":1,"valence":"win","action":"go","sham":1,"trial_type":"pit-trial","trial_index":161,"time_elapsed":906529,"internal_node_id":"0.0-134.0","task_version":"battery-v0.2-trt"},{"rune":"N","rune_set":"bacs2","hex":"#3366ff99","correct":-1,"choice":-1,"rt":-1,"accuracy":1,"outcome":"+10","keys":[],"total_keys":0,"block":2,"trial":127,"stimulus":0,"robot":2,"valence":"win","action":"no-go","sham":0,"trial_type":"pit-trial","trial_index":162,"time_elapsed":910533,"internal_node_id":"0.0-135.0","task_version":"battery-v0.2-trt"},{"rune":"A","rune_set":"bacs2","hex":"#f73b6a7A","correct":-1,"choice":32,"rt":920.4000000009546,"accuracy":0,"outcome":"-10","keys":[2420.509999999893],"total_keys":1,"block":2,"trial":128,"stimulus":2,"robot":4,"valence":"lose","action":"no-go","sham":0,"trial_type":"pit-trial","trial_index":163,"time_elapsed":914158,"internal_node_id":"0.0-136.0","task_version":"battery-v0.2-trt"},{"rune":"N","rune_set":"bacs2","hex":"#3366ff99","correct":-1,"choice":-1,"rt":-1,"accuracy":1,"outcome":"+10","keys":[],"total_keys":0,"block":2,"trial":129,"stimulus":0,"robot":2,"valence":"win","action":"no-go","sham":0,"trial_type":"pit-trial","trial_index":164,"time_elapsed":918162,"internal_node_id":"0.0-137.0","task_version":"battery-v0.2-trt"},{"rune":"A","rune_set":"bacs2","hex":"#f73b6a7A","correct":-1,"choice":32,"rt":874.0950000010198,"accuracy":0,"outcome":"-1","keys":[2374.395000000717],"total_keys":1,"block":2,"trial":130,"stimulus":2,"robot":4,"valence":"lose","action":"no-go","sham":1,"trial_type":"pit-trial","trial_index":165,"time_elapsed":921741,"internal_node_id":"0.0-138.0","task_version":"battery-v0.2-trt"},{"rune":"U","rune_set":"bacs2","hex":"#3366ff99","correct":32,"choice":32,"rt":1272.619999999646,"accuracy":1,"outcome":"+10","keys":[2772.7099999992643],"total_keys":1,"block":2,"trial":131,"stimulus":3,"robot":1,"valence":"win","action":"go","sham":0,"trial_type":"pit-trial","trial_index":166,"time_elapsed":925718,"internal_node_id":"0.0-139.0","task_version":"battery-v0.2-trt"},{"rune":"F","rune_set":"bacs2","hex":"#3366ff99","correct":32,"choice":-1,"rt":-1,"accuracy":0,"outcome":"+1","keys":[],"total_keys":0,"block":2,"trial":132,"stimulus":1,"robot":1,"valence":"win","action":"go","sham":0,"trial_type":"pit-trial","trial_index":167,"time_elapsed":929721,"internal_node_id":"0.0-140.0","task_version":"battery-v0.2-trt"},{"rune":"F","rune_set":"bacs2","hex":"#3366ff99","correct":32,"choice":32,"rt":725.8649999984773,"accuracy":1,"outcome":"+1","keys":[2225.9250000006286],"total_keys":1,"block":2,"trial":133,"stimulus":1,"robot":1,"valence":"win","action":"go","sham":1,"trial_type":"pit-trial","trial_index":168,"time_elapsed":933151,"internal_node_id":"0.0-141.0","task_version":"battery-v0.2-trt"},{"rune":"N","rune_set":"bacs2","hex":"#3366ff99","correct":-1,"choice":-1,"rt":-1,"accuracy":1,"outcome":"+10","keys":[],"total_keys":0,"block":2,"trial":134,"stimulus":0,"robot":2,"valence":"win","action":"no-go","sham":0,"trial_type":"pit-trial","trial_index":169,"time_elapsed":937155,"internal_node_id":"0.0-142.0","task_version":"battery-v0.2-trt"},{"rune":"U","rune_set":"bacs2","hex":"#3366ff99","correct":32,"choice":32,"rt":915.3299999998417,"accuracy":1,"outcome":"+10","keys":[2415.465000000084],"total_keys":1,"block":2,"trial":135,"stimulus":3,"robot":1,"valence":"win","action":"go","sham":0,"trial_type":"pit-trial","trial_index":170,"time_elapsed":940774,"internal_node_id":"0.0-143.0","task_version":"battery-v0.2-trt"},{"rune":"A","rune_set":"bacs2","hex":"#f73b6a7A","correct":-1,"choice":32,"rt":831.0199999996694,"accuracy":0,"outcome":"-10","keys":[2331.1500000000233],"total_keys":1,"block":2,"trial":136,"stimulus":2,"robot":4,"valence":"lose","action":"no-go","sham":0,"trial_type":"pit-trial","trial_index":171,"time_elapsed":944309,"internal_node_id":"0.0-144.0","task_version":"battery-v0.2-trt"},{"rune":"U","rune_set":"bacs2","hex":"#3366ff99","correct":32,"choice":32,"rt":671.7150000004331,"accuracy":1,"outcome":"+1","keys":[2171.5700000004144],"total_keys":1,"block":2,"trial":137,"stimulus":3,"robot":1,"valence":"win","action":"go","sham":1,"trial_type":"pit-trial","trial_index":172,"time_elapsed":947685,"internal_node_id":"0.0-145.0","task_version":"battery-v0.2-trt"},{"rune":"N","rune_set":"bacs2","hex":"#3366ff99","correct":-1,"choice":32,"rt":944.3850000007078,"accuracy":0,"outcome":"+1","keys":[2444.480000000214],"total_keys":1,"block":2,"trial":138,"stimulus":0,"robot":2,"valence":"win","action":"no-go","sham":0,"trial_type":"pit-trial","trial_index":173,"time_elapsed":951334,"internal_node_id":"0.0-146.0","task_version":"battery-v0.2-trt"},{"rune":"A","rune_set":"bacs2","hex":"#f73b6a7A","correct":-1,"choice":32,"rt":887.3299999994924,"accuracy":0,"outcome":"-10","keys":[2387.3949999996694],"total_keys":1,"block":2,"trial":139,"stimulus":2,"robot":4,"valence":"lose","action":"no-go","sham":0,"trial_type":"pit-trial","trial_index":174,"time_elapsed":954925,"internal_node_id":"0.0-147.0","task_version":"battery-v0.2-trt"},{"rune":"F","rune_set":"bacs2","hex":"#3366ff99","correct":32,"choice":32,"rt":983.3099999995902,"accuracy":1,"outcome":"+10","keys":[2483.4049999990966],"total_keys":1,"block":2,"trial":140,"stimulus":1,"robot":1,"valence":"win","action":"go","sham":0,"trial_type":"pit-trial","trial_index":175,"time_elapsed":958613,"internal_node_id":"0.0-148.0","task_version":"battery-v0.2-trt"},{"rune":"A","rune_set":"bacs2","hex":"#f73b6a7A","correct":-1,"choice":-1,"rt":-1,"accuracy":1,"outcome":"-1","keys":[],"total_keys":0,"block":2,"trial":141,"stimulus":2,"robot":4,"valence":"lose","action":"no-go","sham":0,"trial_type":"pit-trial","trial_index":176,"time_elapsed":962618,"internal_node_id":"0.0-149.0","task_version":"battery-v0.2-trt"},{"rune":"U","rune_set":"bacs2","hex":"#3366ff99","correct":32,"choice":32,"rt":844.8649999990594,"accuracy":1,"outcome":"+10","keys":[2344.9600000004284],"total_keys":1,"block":2,"trial":142,"stimulus":3,"robot":1,"valence":"win","action":"go","sham":0,"trial_type":"pit-trial","trial_index":177,"time_elapsed":966166,"internal_node_id":"0.0-150.0","task_version":"battery-v0.2-trt"},{"rune":"F","rune_set":"bacs2","hex":"#3366ff99","correct":32,"choice":32,"rt":951.4450000005309,"accuracy":1,"outcome":"+10","keys":[2451.51499999885],"total_keys":1,"block":2,"trial":143,"stimulus":1,"robot":1,"valence":"win","action":"go","sham":0,"trial_type":"pit-trial","trial_index":178,"time_elapsed":969822,"internal_node_id":"0.0-151.0","task_version":"battery-v0.2-trt"},{"rune":"N","rune_set":"bacs2","hex":"#3366ff99","correct":-1,"choice":-1,"rt":-1,"accuracy":1,"outcome":"+10","keys":[],"total_keys":0,"block":2,"trial":144,"stimulus":0,"robot":2,"valence":"win","action":"no-go","sham":0,"trial_type":"pit-trial","trial_index":179,"time_elapsed":973827,"internal_node_id":"0.0-152.0","task_version":"battery-v0.2-trt"},{"rune":"F","rune_set":"bacs2","hex":"#3366ff99","correct":32,"choice":-1,"rt":-1,"accuracy":0,"outcome":"+1","keys":[],"total_keys":0,"block":2,"trial":145,"stimulus":1,"robot":1,"valence":"win","action":"go","sham":0,"trial_type":"pit-trial","trial_index":180,"time_elapsed":977831,"internal_node_id":"0.0-153.0","task_version":"battery-v0.2-trt"},{"rune":"N","rune_set":"bacs2","hex":"#3366ff99","correct":-1,"choice":32,"rt":942.8299999999581,"accuracy":0,"outcome":"+1","keys":[2442.930000001099],"total_keys":1,"block":2,"trial":146,"stimulus":0,"robot":2,"valence":"win","action":"no-go","sham":0,"trial_type":"pit-trial","trial_index":181,"time_elapsed":981478,"internal_node_id":"0.0-154.0","task_version":"battery-v0.2-trt"},{"rune":"U","rune_set":"bacs2","hex":"#3366ff99","correct":32,"choice":32,"rt":750.7449999994133,"accuracy":1,"outcome":"+10","keys":[2250.855000000214],"total_keys":1,"block":2,"trial":147,"stimulus":3,"robot":1,"valence":"win","action":"go","sham":0,"trial_type":"pit-trial","trial_index":182,"time_elapsed":984933,"internal_node_id":"0.0-155.0","task_version":"battery-v0.2-trt"},{"rune":"A","rune_set":"bacs2","hex":"#f73b6a7A","correct":-1,"choice":32,"rt":783.9149999999208,"accuracy":0,"outcome":"-10","keys":[2284.0249999989755],"total_keys":1,"block":2,"trial":148,"stimulus":2,"robot":4,"valence":"lose","action":"no-go","sham":0,"trial_type":"pit-trial","trial_index":183,"time_elapsed":988422,"internal_node_id":"0.0-156.0","task_version":"battery-v0.2-trt"},{"rune":"F","rune_set":"bacs2","hex":"#3366ff99","correct":32,"choice":32,"rt":1095.9700000003213,"accuracy":1,"outcome":"+10","keys":[2596.0500000000466],"total_keys":1,"block":2,"trial":149,"stimulus":1,"robot":1,"valence":"win","action":"go","sham":0,"trial_type":"pit-trial","trial_index":184,"time_elapsed":992221,"internal_node_id":"0.0-157.0","task_version":"battery-v0.2-trt"},{"rune":"U","rune_set":"bacs2","hex":"#3366ff99","correct":32,"choice":32,"rt":819.1650000007357,"accuracy":1,"outcome":"+10","keys":[2324.110000001383],"total_keys":1,"block":2,"trial":150,"stimulus":3,"robot":1,"valence":"win","action":"go","sham":0,"trial_type":"pit-trial","trial_index":185,"time_elapsed":995749,"internal_node_id":"0.0-158.0","task_version":"battery-v0.2-trt"},{"rune":"N","rune_set":"bacs2","hex":"#3366ff99","correct":-1,"choice":-1,"rt":-1,"accuracy":1,"outcome":"+10","keys":[],"total_keys":0,"block":2,"trial":151,"stimulus":0,"robot":2,"valence":"win","action":"no-go","sham":0,"trial_type":"pit-trial","trial_index":186,"time_elapsed":999753,"internal_node_id":"0.0-159.0","task_version":"battery-v0.2-trt"},{"rune":"A","rune_set":"bacs2","hex":"#f73b6a7A","correct":-1,"choice":-1,"rt":-1,"accuracy":1,"outcome":"-1","keys":[],"total_keys":0,"block":2,"trial":152,"stimulus":2,"robot":4,"valence":"lose","action":"no-go","sham":0,"trial_type":"pit-trial","trial_index":187,"time_elapsed":1003758,"internal_node_id":"0.0-160.0","task_version":"battery-v0.2-trt"},{"rune":"A","rune_set":"bacs2","hex":"#f73b6a7A","correct":-1,"choice":-1,"rt":-1,"accuracy":1,"outcome":"-1","keys":[],"total_keys":0,"block":2,"trial":153,"stimulus":2,"robot":4,"valence":"lose","action":"no-go","sham":0,"trial_type":"pit-trial","trial_index":188,"time_elapsed":1007764,"internal_node_id":"0.0-161.0","task_version":"battery-v0.2-trt"},{"rune":"U","rune_set":"bacs2","hex":"#3366ff99","correct":32,"choice":32,"rt":760.0349999993341,"accuracy":1,"outcome":"+10","keys":[2261.415000000852],"total_keys":1,"block":2,"trial":154,"stimulus":3,"robot":1,"valence":"win","action":"go","sham":0,"trial_type":"pit-trial","trial_index":189,"time_elapsed":1011230,"internal_node_id":"0.0-162.0","task_version":"battery-v0.2-trt"},{"rune":"N","rune_set":"bacs2","hex":"#3366ff99","correct":-1,"choice":32,"rt":1150.960000000894,"accuracy":0,"outcome":"+10","keys":[2651.0450000005076],"total_keys":1,"block":2,"trial":155,"stimulus":0,"robot":2,"valence":"win","action":"no-go","sham":1,"trial_type":"pit-trial","trial_index":190,"time_elapsed":1015085,"internal_node_id":"0.0-163.0","task_version":"battery-v0.2-trt"},{"rune":"S","rune_set":"bacs2","hex":"#3366ff99","correct":32,"choice":-1,"rt":-1,"accuracy":0,"outcome":"+10","keys":[],"total_keys":0,"block":2,"trial":156,"stimulus":4,"robot":1,"valence":"win","action":"go","sham":1,"trial_type":"pit-trial","trial_index":191,"time_elapsed":1019089,"internal_node_id":"0.0-164.0","task_version":"battery-v0.2-trt"},{"rune":"N","rune_set":"bacs2","hex":"#3366ff99","correct":-1,"choice":-1,"rt":-1,"accuracy":1,"outcome":"+1","keys":[],"total_keys":0,"block":2,"trial":157,"stimulus":0,"robot":2,"valence":"win","action":"no-go","sham":1,"trial_type":"pit-trial","trial_index":192,"time_elapsed":1023093,"internal_node_id":"0.0-165.0","task_version":"battery-v0.2-trt"},{"rune":"S","rune_set":"bacs2","hex":"#3366ff99","correct":32,"choice":-1,"rt":-1,"accuracy":0,"outcome":"+1","keys":[],"total_keys":0,"block":2,"trial":158,"stimulus":4,"robot":1,"valence":"win","action":"go","sham":0,"trial_type":"pit-trial","trial_index":193,"time_elapsed":1027098,"internal_node_id":"0.0-166.0","task_version":"battery-v0.2-trt"},{"rune":"A","rune_set":"bacs2","hex":"#f73b6a7A","correct":-1,"choice":-1,"rt":-1,"accuracy":1,"outcome":"-1","keys":[],"total_keys":0,"block":2,"trial":159,"stimulus":2,"robot":4,"valence":"lose","action":"no-go","sham":0,"trial_type":"pit-trial","trial_index":194,"time_elapsed":1031101,"internal_node_id":"0.0-167.0","task_version":"battery-v0.2-trt"},{"rune":"U","rune_set":"bacs2","hex":"#3366ff99","correct":32,"choice":32,"rt":752.8399999991525,"accuracy":1,"outcome":"+1","keys":[2252.905000001192],"total_keys":1,"block":2,"trial":160,"stimulus":3,"robot":1,"valence":"win","action":"go","sham":1,"trial_type":"pit-trial","trial_index":195,"time_elapsed":1034558,"internal_node_id":"0.0-168.0","task_version":"battery-v0.2-trt"},{"rune":"N","rune_set":"bacs2","hex":"#3366ff99","correct":-1,"choice":32,"rt":910.4649999990361,"accuracy":0,"outcome":"+1","keys":[2410.545000000624],"total_keys":1,"block":2,"trial":161,"stimulus":0,"robot":2,"valence":"win","action":"no-go","sham":0,"trial_type":"pit-trial","trial_index":196,"time_elapsed":1038173,"internal_node_id":"0.0-169.0","task_version":"battery-v0.2-trt"},{"rune":"S","rune_set":"bacs2","hex":"#3366ff99","correct":32,"choice":32,"rt":975.449999999837,"accuracy":1,"outcome":"+10","keys":[2475.399999999325],"total_keys":1,"block":2,"trial":162,"stimulus":4,"robot":1,"valence":"win","action":"go","sham":0,"trial_type":"pit-trial","trial_index":197,"time_elapsed":1041853,"internal_node_id":"0.0-170.0","task_version":"battery-v0.2-trt"},{"rune":"L","rune_set":"bacs2","hex":"#f73b6a7A","correct":32,"choice":32,"rt":912.6750000014435,"accuracy":1,"outcome":"-1","keys":[2412.785000000382],"total_keys":1,"block":2,"trial":163,"stimulus":5,"robot":3,"valence":"lose","action":"go","sham":0,"trial_type":"pit-trial","trial_index":198,"time_elapsed":1045470,"internal_node_id":"0.0-171.0","task_version":"battery-v0.2-trt"},{"rune":"P","rune_set":"bacs2","hex":"#f73b6a7A","correct":-1,"choice":-1,"rt":-1,"accuracy":1,"outcome":"-10","keys":[],"total_keys":0,"block":2,"trial":164,"stimulus":6,"robot":4,"valence":"lose","action":"no-go","sham":1,"trial_type":"pit-trial","trial_index":199,"time_elapsed":1049474,"internal_node_id":"0.0-172.0","task_version":"battery-v0.2-trt"},{"rune":"P","rune_set":"bacs2","hex":"#f73b6a7A","correct":-1,"choice":32,"rt":1035.1799999990035,"accuracy":0,"outcome":"-10","keys":[2535.305000001099],"total_keys":1,"block":2,"trial":165,"stimulus":6,"robot":4,"valence":"lose","action":"no-go","sham":0,"trial_type":"pit-trial","trial_index":200,"time_elapsed":1053214,"internal_node_id":"0.0-173.0","task_version":"battery-v0.2-trt"},{"rune":"L","rune_set":"bacs2","hex":"#f73b6a7A","correct":32,"choice":-1,"rt":-1,"accuracy":0,"outcome":"-10","keys":[],"total_keys":0,"block":2,"trial":166,"stimulus":5,"robot":3,"valence":"lose","action":"go","sham":0,"trial_type":"pit-trial","trial_index":201,"time_elapsed":1057218,"internal_node_id":"0.0-174.0","task_version":"battery-v0.2-trt"},{"rune":"N","rune_set":"bacs2","hex":"#3366ff99","correct":-1,"choice":32,"rt":947.7200000002049,"accuracy":0,"outcome":"+10","keys":[2447.8799999998882],"total_keys":1,"block":2,"trial":167,"stimulus":0,"robot":2,"valence":"win","action":"no-go","sham":1,"trial_type":"pit-trial","trial_index":202,"time_elapsed":1060870,"internal_node_id":"0.0-175.0","task_version":"battery-v0.2-trt"},{"rune":"S","rune_set":"bacs2","hex":"#3366ff99","correct":32,"choice":32,"rt":1023.0649999994785,"accuracy":1,"outcome":"+1","keys":[2522.9099999996834],"total_keys":1,"block":2,"trial":168,"stimulus":4,"robot":1,"valence":"win","action":"go","sham":1,"trial_type":"pit-trial","trial_index":203,"time_elapsed":1064598,"internal_node_id":"0.0-176.0","task_version":"battery-v0.2-trt"},{"rune":"L","rune_set":"bacs2","hex":"#f73b6a7A","correct":32,"choice":32,"rt":967.6300000010524,"accuracy":1,"outcome":"-10","keys":[2467.730000000447],"total_keys":1,"block":2,"trial":169,"stimulus":5,"robot":3,"valence":"lose","action":"go","sham":1,"trial_type":"pit-trial","trial_index":204,"time_elapsed":1068269,"internal_node_id":"0.0-177.0","task_version":"battery-v0.2-trt"},{"rune":"S","rune_set":"bacs2","hex":"#3366ff99","correct":32,"choice":-1,"rt":-1,"accuracy":0,"outcome":"+1","keys":[],"total_keys":0,"block":2,"trial":170,"stimulus":4,"robot":1,"valence":"win","action":"go","sham":0,"trial_type":"pit-trial","trial_index":205,"time_elapsed":1072274,"internal_node_id":"0.0-178.0","task_version":"battery-v0.2-trt"},{"rune":"R","rune_set":"bacs2","hex":"#3366ff99","correct":-1,"choice":32,"rt":859.4999999988358,"accuracy":0,"outcome":"+1","keys":[2359.590000000084],"total_keys":1,"block":2,"trial":171,"stimulus":7,"robot":2,"valence":"win","action":"no-go","sham":0,"trial_type":"pit-trial","trial_index":206,"time_elapsed":1075837,"internal_node_id":"0.0-179.0","task_version":"battery-v0.2-trt"},{"rune":"P","rune_set":"bacs2","hex":"#f73b6a7A","correct":-1,"choice":32,"rt":1023.7199999992736,"accuracy":0,"outcome":"-10","keys":[2523.839999999851],"total_keys":1,"block":2,"trial":172,"stimulus":6,"robot":4,"valence":"lose","action":"no-go","sham":0,"trial_type":"pit-trial","trial_index":207,"time_elapsed":1079565,"internal_node_id":"0.0-180.0","task_version":"battery-v0.2-trt"},{"rune":"L","rune_set":"bacs2","hex":"#f73b6a7A","correct":32,"choice":32,"rt":872.2550000001211,"accuracy":1,"outcome":"-1","keys":[2372.2450000005774],"total_keys":1,"block":2,"trial":173,"stimulus":5,"robot":3,"valence":"lose","action":"go","sham":0,"trial_type":"pit-trial","trial_index":208,"time_elapsed":1083141,"internal_node_id":"0.0-181.0","task_version":"battery-v0.2-trt"},{"rune":"S","rune_set":"bacs2","hex":"#3366ff99","correct":32,"choice":32,"rt":904.1350000007078,"accuracy":1,"outcome":"+10","keys":[2404.230000000214],"total_keys":1,"block":2,"trial":174,"stimulus":4,"robot":1,"valence":"win","action":"go","sham":0,"trial_type":"pit-trial","trial_index":209,"time_elapsed":1086750,"internal_node_id":"0.0-182.0","task_version":"battery-v0.2-trt"},{"rune":"R","rune_set":"bacs2","hex":"#3366ff99","correct":-1,"choice":-1,"rt":-1,"accuracy":1,"outcome":"+10","keys":[],"total_keys":0,"block":2,"trial":175,"stimulus":7,"robot":2,"valence":"win","action":"no-go","sham":0,"trial_type":"pit-trial","trial_index":210,"time_elapsed":1090754,"internal_node_id":"0.0-183.0","task_version":"battery-v0.2-trt"},{"rune":"P","rune_set":"bacs2","hex":"#f73b6a7A","correct":-1,"choice":32,"rt":1042.8150000006426,"accuracy":0,"outcome":"-10","keys":[2542.9150000000373],"total_keys":1,"block":2,"trial":176,"stimulus":6,"robot":4,"valence":"lose","action":"no-go","sham":0,"trial_type":"pit-trial","trial_index":211,"time_elapsed":1094502,"internal_node_id":"0.0-184.0","task_version":"battery-v0.2-trt"},{"rune":"R","rune_set":"bacs2","hex":"#3366ff99","correct":-1,"choice":-1,"rt":-1,"accuracy":1,"outcome":"+10","keys":[],"total_keys":0,"block":2,"trial":177,"stimulus":7,"robot":2,"valence":"win","action":"no-go","sham":0,"trial_type":"pit-trial","trial_index":212,"time_elapsed":1098506,"internal_node_id":"0.0-185.0","task_version":"battery-v0.2-trt"},{"rune":"P","rune_set":"bacs2","hex":"#f73b6a7A","correct":-1,"choice":32,"rt":853.600000000326,"accuracy":0,"outcome":"-10","keys":[2360.530000000028],"total_keys":1,"block":2,"trial":178,"stimulus":6,"robot":4,"valence":"lose","action":"no-go","sham":0,"trial_type":"pit-trial","trial_index":213,"time_elapsed":1102071,"internal_node_id":"0.0-186.0","task_version":"battery-v0.2-trt"},{"rune":"S","rune_set":"bacs2","hex":"#3366ff99","correct":32,"choice":32,"rt":774.6649999991059,"accuracy":1,"outcome":"+10","keys":[2274.7550000005867],"total_keys":1,"block":2,"trial":179,"stimulus":4,"robot":1,"valence":"win","action":"go","sham":0,"trial_type":"pit-trial","trial_index":214,"time_elapsed":1105549,"internal_node_id":"0.0-187.0","task_version":"battery-v0.2-trt"},{"rune":"L","rune_set":"bacs2","hex":"#f73b6a7A","correct":32,"choice":32,"rt":879.0349999999162,"accuracy":1,"outcome":"-1","keys":[2378.6699999999255],"total_keys":1,"block":2,"trial":180,"stimulus":5,"robot":3,"valence":"lose","action":"go","sham":0,"trial_type":"pit-trial","trial_index":215,"time_elapsed":1109134,"internal_node_id":"0.0-188.0","task_version":"battery-v0.2-trt"},{"rune":"S","rune_set":"bacs2","hex":"#3366ff99","correct":32,"choice":32,"rt":783.7550000003539,"accuracy":1,"outcome":"+10","keys":[2283.859999999637],"total_keys":1,"block":2,"trial":181,"stimulus":4,"robot":1,"valence":"win","action":"go","sham":0,"trial_type":"pit-trial","trial_index":216,"time_elapsed":1112622,"internal_node_id":"0.0-189.0","task_version":"battery-v0.2-trt"},{"rune":"R","rune_set":"bacs2","hex":"#3366ff99","correct":-1,"choice":32,"rt":821.7499999993015,"accuracy":0,"outcome":"+1","keys":[2322.954999999609],"total_keys":1,"block":2,"trial":182,"stimulus":7,"robot":2,"valence":"win","action":"no-go","sham":0,"trial_type":"pit-trial","trial_index":217,"time_elapsed":1116149,"internal_node_id":"0.0-190.0","task_version":"battery-v0.2-trt"},{"rune":"L","rune_set":"bacs2","hex":"#f73b6a7A","correct":32,"choice":32,"rt":1247.70999999973,"accuracy":1,"outcome":"-10","keys":[2747.8300000003073],"total_keys":1,"block":2,"trial":183,"stimulus":5,"robot":3,"valence":"lose","action":"go","sham":1,"trial_type":"pit-trial","trial_index":218,"time_elapsed":1120101,"internal_node_id":"0.0-191.0","task_version":"battery-v0.2-trt"},{"rune":"P","rune_set":"bacs2","hex":"#f73b6a7A","correct":-1,"choice":32,"rt":888.8599999991711,"accuracy":0,"outcome":"-1","keys":[2388.9450000007637],"total_keys":1,"block":2,"trial":184,"stimulus":6,"robot":4,"valence":"lose","action":"no-go","sham":1,"trial_type":"pit-trial","trial_index":219,"time_elapsed":1123694,"internal_node_id":"0.0-192.0","task_version":"battery-v0.2-trt"},{"rune":"L","rune_set":"bacs2","hex":"#f73b6a7A","correct":32,"choice":-1,"rt":-1,"accuracy":0,"outcome":"-10","keys":[],"total_keys":0,"block":2,"trial":185,"stimulus":5,"robot":3,"valence":"lose","action":"go","sham":0,"trial_type":"pit-trial","trial_index":220,"time_elapsed":1127699,"internal_node_id":"0.0-193.0","task_version":"battery-v0.2-trt"},{"rune":"S","rune_set":"bacs2","hex":"#3366ff99","correct":32,"choice":32,"rt":786.6799999992363,"accuracy":1,"outcome":"+10","keys":[2286.7500000009313],"total_keys":1,"block":2,"trial":186,"stimulus":4,"robot":1,"valence":"win","action":"go","sham":0,"trial_type":"pit-trial","trial_index":221,"time_elapsed":1131189,"internal_node_id":"0.0-194.0","task_version":"battery-v0.2-trt"},{"rune":"P","rune_set":"bacs2","hex":"#f73b6a7A","correct":-1,"choice":32,"rt":1008.0049999996554,"accuracy":0,"outcome":"-10","keys":[2508.4849999984726],"total_keys":1,"block":2,"trial":187,"stimulus":6,"robot":4,"valence":"lose","action":"no-go","sham":0,"trial_type":"pit-trial","trial_index":222,"time_elapsed":1134902,"internal_node_id":"0.0-195.0","task_version":"battery-v0.2-trt"},{"rune":"R","rune_set":"bacs2","hex":"#3366ff99","correct":-1,"choice":32,"rt":719.5449999999255,"accuracy":0,"outcome":"+10","keys":[2219.670000000391],"total_keys":1,"block":2,"trial":188,"stimulus":7,"robot":2,"valence":"win","action":"no-go","sham":1,"trial_type":"pit-trial","trial_index":223,"time_elapsed":1138326,"internal_node_id":"0.0-196.0","task_version":"battery-v0.2-trt"},{"rune":"S","rune_set":"bacs2","hex":"#3366ff99","correct":32,"choice":32,"rt":767.5550000004005,"accuracy":1,"outcome":"+10","keys":[2267.6700000010896],"total_keys":1,"block":2,"trial":189,"stimulus":4,"robot":1,"valence":"win","action":"go","sham":0,"trial_type":"pit-trial","trial_index":224,"time_elapsed":1141797,"internal_node_id":"0.0-197.0","task_version":"battery-v0.2-trt"},{"rune":"L","rune_set":"bacs2","hex":"#f73b6a7A","correct":32,"choice":32,"rt":969.3349999997299,"accuracy":1,"outcome":"-1","keys":[2468.9249999991152],"total_keys":1,"block":2,"trial":190,"stimulus":5,"robot":3,"valence":"lose","action":"go","sham":0,"trial_type":"pit-trial","trial_index":225,"time_elapsed":1145470,"internal_node_id":"0.0-198.0","task_version":"battery-v0.2-trt"},{"rune":"R","rune_set":"bacs2","hex":"#3366ff99","correct":-1,"choice":32,"rt":959.0200000002515,"accuracy":0,"outcome":"+1","keys":[2459.134999999311],"total_keys":1,"block":2,"trial":191,"stimulus":7,"robot":2,"valence":"win","action":"no-go","sham":0,"trial_type":"pit-trial","trial_index":226,"time_elapsed":1149133,"internal_node_id":"0.0-199.0","task_version":"battery-v0.2-trt"},{"rune":"P","rune_set":"bacs2","hex":"#f73b6a7A","correct":-1,"choice":32,"rt":993.4399999983143,"accuracy":0,"outcome":"-10","keys":[2493.510000000242],"total_keys":1,"block":2,"trial":192,"stimulus":6,"robot":4,"valence":"lose","action":"no-go","sham":0,"trial_type":"pit-trial","trial_index":227,"time_elapsed":1152831,"internal_node_id":"0.0-200.0","task_version":"battery-v0.2-trt"},{"rune":"V","rune_set":"bacs2","hex":"#f73b6a7A","correct":32,"choice":-1,"rt":-1,"accuracy":0,"outcome":"-1","keys":[],"total_keys":0,"block":2,"trial":193,"stimulus":8,"robot":3,"valence":"lose","action":"go","sham":1,"trial_type":"pit-trial","trial_index":228,"time_elapsed":1156834,"internal_node_id":"0.0-201.0","task_version":"battery-v0.2-trt"},{"rune":"S","rune_set":"bacs2","hex":"#3366ff99","correct":32,"choice":32,"rt":675.9600000004284,"accuracy":1,"outcome":"+1","keys":[2176.0500000000466],"total_keys":1,"block":2,"trial":194,"stimulus":4,"robot":1,"valence":"win","action":"go","sham":1,"trial_type":"pit-trial","trial_index":229,"time_elapsed":1160215,"internal_node_id":"0.0-202.0","task_version":"battery-v0.2-trt"},{"rune":"R","rune_set":"bacs2","hex":"#3366ff99","correct":-1,"choice":32,"rt":758.3749999993015,"accuracy":0,"outcome":"+10","keys":[2258.4649999989197],"total_keys":1,"block":2,"trial":195,"stimulus":7,"robot":2,"valence":"win","action":"no-go","sham":1,"trial_type":"pit-trial","trial_index":230,"time_elapsed":1163677,"internal_node_id":"0.0-203.0","task_version":"battery-v0.2-trt"},{"rune":"P","rune_set":"bacs2","hex":"#f73b6a7A","correct":-1,"choice":-1,"rt":-1,"accuracy":1,"outcome":"-1","keys":[],"total_keys":0,"block":2,"trial":196,"stimulus":6,"robot":4,"valence":"lose","action":"no-go","sham":0,"trial_type":"pit-trial","trial_index":231,"time_elapsed":1167681,"internal_node_id":"0.0-204.0","task_version":"battery-v0.2-trt"},{"rune":"P","rune_set":"bacs2","hex":"#f73b6a7A","correct":-1,"choice":-1,"rt":-1,"accuracy":1,"outcome":"-1","keys":[],"total_keys":0,"block":2,"trial":197,"stimulus":6,"robot":4,"valence":"lose","action":"no-go","sham":0,"trial_type":"pit-trial","trial_index":232,"time_elapsed":1171685,"internal_node_id":"0.0-205.0","task_version":"battery-v0.2-trt"},{"rune":"R","rune_set":"bacs2","hex":"#3366ff99","correct":-1,"choice":32,"rt":672.4699999995064,"accuracy":0,"outcome":"+10","keys":[2172.590000000084],"total_keys":1,"block":2,"trial":198,"stimulus":7,"robot":2,"valence":"win","action":"no-go","sham":1,"trial_type":"pit-trial","trial_index":233,"time_elapsed":1175062,"internal_node_id":"0.0-206.0","task_version":"battery-v0.2-trt"},{"rune":"V","rune_set":"bacs2","hex":"#f73b6a7A","correct":32,"choice":32,"rt":831.3500000005588,"accuracy":1,"outcome":"-1","keys":[2331.4499999994878],"total_keys":1,"block":2,"trial":199,"stimulus":8,"robot":3,"valence":"lose","action":"go","sham":0,"trial_type":"pit-trial","trial_index":234,"time_elapsed":1178597,"internal_node_id":"0.0-207.0","task_version":"battery-v0.2-trt"},{"rune":"S","rune_set":"bacs2","hex":"#3366ff99","correct":32,"choice":32,"rt":808.3249999999534,"accuracy":1,"outcome":"+10","keys":[2308.424999999348],"total_keys":1,"block":2,"trial":200,"stimulus":4,"robot":1,"valence":"win","action":"go","sham":0,"trial_type":"pit-trial","trial_index":235,"time_elapsed":1182110,"internal_node_id":"0.0-208.0","task_version":"battery-v0.2-trt"},{"rune":"P","rune_set":"bacs2","hex":"#f73b6a7A","correct":-1,"choice":-1,"rt":-1,"accuracy":1,"outcome":"-1","keys":[],"total_keys":0,"block":2,"trial":201,"stimulus":6,"robot":4,"valence":"lose","action":"no-go","sham":0,"trial_type":"pit-trial","trial_index":236,"time_elapsed":1186114,"internal_node_id":"0.0-209.0","task_version":"battery-v0.2-trt"},{"rune":"V","rune_set":"bacs2","hex":"#f73b6a7A","correct":32,"choice":32,"rt":924.1949999995995,"accuracy":1,"outcome":"-10","keys":[2424.1500000006054],"total_keys":1,"block":2,"trial":202,"stimulus":8,"robot":3,"valence":"lose","action":"go","sham":1,"trial_type":"pit-trial","trial_index":237,"time_elapsed":1189742,"internal_node_id":"0.0-210.0","task_version":"battery-v0.2-trt"},{"rune":"R","rune_set":"bacs2","hex":"#3366ff99","correct":-1,"choice":32,"rt":862.9499999987893,"accuracy":0,"outcome":"+1","keys":[2363.0450000001583],"total_keys":1,"block":2,"trial":203,"stimulus":7,"robot":2,"valence":"win","action":"no-go","sham":0,"trial_type":"pit-trial","trial_index":238,"time_elapsed":1193309,"internal_node_id":"0.0-211.0","task_version":"battery-v0.2-trt"},{"rune":"K","rune_set":"bacs2","hex":"#f73b6a7A","correct":32,"choice":-1,"rt":-1,"accuracy":0,"outcome":"-10","keys":[],"total_keys":0,"block":2,"trial":204,"stimulus":9,"robot":3,"valence":"lose","action":"go","sham":0,"trial_type":"pit-trial","trial_index":239,"time_elapsed":1197313,"internal_node_id":"0.0-212.0","task_version":"battery-v0.2-trt"},{"rune":"P","rune_set":"bacs2","hex":"#f73b6a7A","correct":-1,"choice":-1,"rt":-1,"accuracy":1,"outcome":"-10","keys":[],"total_keys":0,"block":2,"trial":205,"stimulus":6,"robot":4,"valence":"lose","action":"no-go","sham":1,"trial_type":"pit-trial","trial_index":240,"time_elapsed":1201317,"internal_node_id":"0.0-213.0","task_version":"battery-v0.2-trt"},{"rune":"K","rune_set":"bacs2","hex":"#f73b6a7A","correct":32,"choice":32,"rt":760.7749999987427,"accuracy":1,"outcome":"-1","keys":[2261.1950000009965],"total_keys":1,"block":2,"trial":206,"stimulus":9,"robot":3,"valence":"lose","action":"go","sham":0,"trial_type":"pit-trial","trial_index":241,"time_elapsed":1204782,"internal_node_id":"0.0-214.0","task_version":"battery-v0.2-trt"},{"rune":"R","rune_set":"bacs2","hex":"#3366ff99","correct":-1,"choice":32,"rt":799.2149999991525,"accuracy":0,"outcome":"+10","keys":[2299.349999999162],"total_keys":1,"block":2,"trial":207,"stimulus":7,"robot":2,"valence":"win","action":"no-go","sham":1,"trial_type":"pit-trial","trial_index":242,"time_elapsed":1208285,"internal_node_id":"0.0-215.0","task_version":"battery-v0.2-trt"},{"rune":"V","rune_set":"bacs2","hex":"#f73b6a7A","correct":32,"choice":32,"rt":951.885000000475,"accuracy":1,"outcome":"-1","keys":[2452.0449999999255],"total_keys":1,"block":2,"trial":208,"stimulus":8,"robot":3,"valence":"lose","action":"go","sham":0,"trial_type":"pit-trial","trial_index":243,"time_elapsed":1211942,"internal_node_id":"0.0-216.0","task_version":"battery-v0.2-trt"},{"rune":"M","rune_set":"bacs2","hex":"#3366ff99","correct":-1,"choice":32,"rt":800.0400000000373,"accuracy":0,"outcome":"+10","keys":[2300.1150000002235],"total_keys":1,"block":2,"trial":209,"stimulus":11,"robot":2,"valence":"win","action":"no-go","sham":1,"trial_type":"pit-trial","trial_index":244,"time_elapsed":1215446,"internal_node_id":"0.0-217.0","task_version":"battery-v0.2-trt"},{"rune":"K","rune_set":"bacs2","hex":"#f73b6a7A","correct":32,"choice":32,"rt":804.6500000001397,"accuracy":1,"outcome":"-1","keys":[2306.95999999973],"total_keys":1,"block":2,"trial":210,"stimulus":9,"robot":3,"valence":"lose","action":"go","sham":0,"trial_type":"pit-trial","trial_index":245,"time_elapsed":1218957,"internal_node_id":"0.0-218.0","task_version":"battery-v0.2-trt"},{"rune":"V","rune_set":"bacs2","hex":"#f73b6a7A","correct":32,"choice":-1,"rt":-1,"accuracy":0,"outcome":"-10","keys":[],"total_keys":0,"block":2,"trial":211,"stimulus":8,"robot":3,"valence":"lose","action":"go","sham":0,"trial_type":"pit-trial","trial_index":246,"time_elapsed":1222961,"internal_node_id":"0.0-219.0","task_version":"battery-v0.2-trt"},{"rune":"B","rune_set":"bacs2","hex":"#f73b6a7A","correct":-1,"choice":32,"rt":805.4049999990966,"accuracy":0,"outcome":"-10","keys":[2305.5399999993388],"total_keys":1,"block":2,"trial":212,"stimulus":10,"robot":4,"valence":"lose","action":"no-go","sham":0,"trial_type":"pit-trial","trial_index":247,"time_elapsed":1226470,"internal_node_id":"0.0-220.0","task_version":"battery-v0.2-trt"},{"rune":"M","rune_set":"bacs2","hex":"#3366ff99","correct":-1,"choice":32,"rt":758.5799999998417,"accuracy":0,"outcome":"+1","keys":[2258.7550000005867],"total_keys":1,"block":2,"trial":213,"stimulus":11,"robot":2,"valence":"win","action":"no-go","sham":0,"trial_type":"pit-trial","trial_index":248,"time_elapsed":1229933,"internal_node_id":"0.0-221.0","task_version":"battery-v0.2-trt"},{"rune":"K","rune_set":"bacs2","hex":"#f73b6a7A","correct":32,"choice":32,"rt":687.980000000447,"accuracy":1,"outcome":"-1","keys":[2188.0549999987707],"total_keys":1,"block":2,"trial":214,"stimulus":9,"robot":3,"valence":"lose","action":"go","sham":0,"trial_type":"pit-trial","trial_index":249,"time_elapsed":1233325,"internal_node_id":"0.0-222.0","task_version":"battery-v0.2-trt"},{"rune":"V","rune_set":"bacs2","hex":"#f73b6a7A","correct":32,"choice":32,"rt":944.0200000007171,"accuracy":1,"outcome":"-1","keys":[2444.1299999998882],"total_keys":1,"block":2,"trial":215,"stimulus":8,"robot":3,"valence":"lose","action":"go","sham":0,"trial_type":"pit-trial","trial_index":250,"time_elapsed":1236973,"internal_node_id":"0.0-223.0","task_version":"battery-v0.2-trt"},{"rune":"B","rune_set":"bacs2","hex":"#f73b6a7A","correct":-1,"choice":32,"rt":895.2850000006147,"accuracy":0,"outcome":"-10","keys":[2396.399999999674],"total_keys":1,"block":2,"trial":216,"stimulus":10,"robot":4,"valence":"lose","action":"no-go","sham":0,"trial_type":"pit-trial","trial_index":251,"time_elapsed":1240575,"internal_node_id":"0.0-224.0","task_version":"battery-v0.2-trt"},{"rune":"M","rune_set":"bacs2","hex":"#3366ff99","correct":-1,"choice":32,"rt":1158.5350000003818,"accuracy":0,"outcome":"+1","keys":[2658.599999998929],"total_keys":1,"block":2,"trial":217,"stimulus":11,"robot":2,"valence":"win","action":"no-go","sham":0,"trial_type":"pit-trial","trial_index":252,"time_elapsed":1244437,"internal_node_id":"0.0-225.0","task_version":"battery-v0.2-trt"},{"rune":"K","rune_set":"bacs2","hex":"#f73b6a7A","correct":32,"choice":32,"rt":657.3600000010338,"accuracy":1,"outcome":"-1","keys":[2157.4749999998603],"total_keys":1,"block":2,"trial":218,"stimulus":9,"robot":3,"valence":"lose","action":"go","sham":0,"trial_type":"pit-trial","trial_index":253,"time_elapsed":1247799,"internal_node_id":"0.0-226.0","task_version":"battery-v0.2-trt"},{"rune":"B","rune_set":"bacs2","hex":"#f73b6a7A","correct":-1,"choice":-1,"rt":-1,"accuracy":1,"outcome":"-1","keys":[],"total_keys":0,"block":2,"trial":219,"stimulus":10,"robot":4,"valence":"lose","action":"no-go","sham":0,"trial_type":"pit-trial","trial_index":254,"time_elapsed":1251803,"internal_node_id":"0.0-227.0","task_version":"battery-v0.2-trt"},{"rune":"V","rune_set":"bacs2","hex":"#f73b6a7A","correct":32,"choice":32,"rt":738.6000000005588,"accuracy":1,"outcome":"-1","keys":[2238.7199999992736],"total_keys":1,"block":2,"trial":220,"stimulus":8,"robot":3,"valence":"lose","action":"go","sham":0,"trial_type":"pit-trial","trial_index":255,"time_elapsed":1255246,"internal_node_id":"0.0-228.0","task_version":"battery-v0.2-trt"},{"rune":"B","rune_set":"bacs2","hex":"#f73b6a7A","correct":-1,"choice":32,"rt":1248.2300000009127,"accuracy":0,"outcome":"-10","keys":[2748.344999999972],"total_keys":1,"block":2,"trial":221,"stimulus":10,"robot":4,"valence":"lose","action":"no-go","sham":0,"trial_type":"pit-trial","trial_index":256,"time_elapsed":1259198,"internal_node_id":"0.0-229.0","task_version":"battery-v0.2-trt"},{"rune":"M","rune_set":"bacs2","hex":"#3366ff99","correct":-1,"choice":32,"rt":767.6050000009127,"accuracy":0,"outcome":"+10","keys":[2267.934999999823],"total_keys":1,"block":2,"trial":222,"stimulus":11,"robot":2,"valence":"win","action":"no-go","sham":1,"trial_type":"pit-trial","trial_index":257,"time_elapsed":1262670,"internal_node_id":"0.0-230.0","task_version":"battery-v0.2-trt"},{"rune":"K","rune_set":"bacs2","hex":"#f73b6a7A","correct":32,"choice":32,"rt":862.9249999993481,"accuracy":1,"outcome":"-1","keys":[2363.009999999078],"total_keys":1,"block":2,"trial":223,"stimulus":9,"robot":3,"valence":"lose","action":"go","sham":0,"trial_type":"pit-trial","trial_index":258,"time_elapsed":1266237,"internal_node_id":"0.0-231.0","task_version":"battery-v0.2-trt"},{"rune":"V","rune_set":"bacs2","hex":"#f73b6a7A","correct":32,"choice":32,"rt":769.5299999997951,"accuracy":1,"outcome":"-1","keys":[2269.6349999986123],"total_keys":1,"block":2,"trial":224,"stimulus":8,"robot":3,"valence":"lose","action":"go","sham":0,"trial_type":"pit-trial","trial_index":259,"time_elapsed":1269711,"internal_node_id":"0.0-232.0","task_version":"battery-v0.2-trt"},{"rune":"M","rune_set":"bacs2","hex":"#3366ff99","correct":-1,"choice":32,"rt":717.3500000007916,"accuracy":0,"outcome":"+1","keys":[2218.2649999996647],"total_keys":1,"block":2,"trial":225,"stimulus":11,"robot":2,"valence":"win","action":"no-go","sham":0,"trial_type":"pit-trial","trial_index":260,"time_elapsed":1273133,"internal_node_id":"0.0-233.0","task_version":"battery-v0.2-trt"},{"rune":"B","rune_set":"bacs2","hex":"#f73b6a7A","correct":-1,"choice":32,"rt":864.6750000005122,"accuracy":0,"outcome":"-10","keys":[2364.260000000242],"total_keys":1,"block":2,"trial":226,"stimulus":10,"robot":4,"valence":"lose","action":"no-go","sham":0,"trial_type":"pit-trial","trial_index":261,"time_elapsed":1276701,"internal_node_id":"0.0-234.0","task_version":"battery-v0.2-trt"},{"rune":"V","rune_set":"bacs2","hex":"#f73b6a7A","correct":32,"choice":32,"rt":929.4350000000559,"accuracy":1,"outcome":"-1","keys":[2429.550000000745],"total_keys":1,"block":2,"trial":227,"stimulus":8,"robot":3,"valence":"lose","action":"go","sham":0,"trial_type":"pit-trial","trial_index":262,"time_elapsed":1280334,"internal_node_id":"0.0-235.0","task_version":"battery-v0.2-trt"},{"rune":"K","rune_set":"bacs2","hex":"#f73b6a7A","correct":32,"choice":32,"rt":903.1299999989569,"accuracy":1,"outcome":"-1","keys":[2403.174999999348],"total_keys":1,"block":2,"trial":228,"stimulus":9,"robot":3,"valence":"lose","action":"go","sham":0,"trial_type":"pit-trial","trial_index":263,"time_elapsed":1283941,"internal_node_id":"0.0-236.0","task_version":"battery-v0.2-trt"},{"rune":"K","rune_set":"bacs2","hex":"#f73b6a7A","correct":32,"choice":32,"rt":679.4499999997206,"accuracy":1,"outcome":"-1","keys":[2179.5400000009686],"total_keys":1,"block":2,"trial":229,"stimulus":9,"robot":3,"valence":"lose","action":"go","sham":0,"trial_type":"pit-trial","trial_index":264,"time_elapsed":1287325,"internal_node_id":"0.0-237.0","task_version":"battery-v0.2-trt"},{"rune":"M","rune_set":"bacs2","hex":"#3366ff99","correct":-1,"choice":32,"rt":936.4499999992549,"accuracy":0,"outcome":"+10","keys":[2436.5699999998324],"total_keys":1,"block":2,"trial":230,"stimulus":11,"robot":2,"valence":"win","action":"no-go","sham":1,"trial_type":"pit-trial","trial_index":265,"time_elapsed":1290966,"internal_node_id":"0.0-238.0","task_version":"battery-v0.2-trt"},{"rune":"B","rune_set":"bacs2","hex":"#f73b6a7A","correct":-1,"choice":32,"rt":903.6799999992363,"accuracy":0,"outcome":"-10","keys":[2403.7750000006054],"total_keys":1,"block":2,"trial":231,"stimulus":10,"robot":4,"valence":"lose","action":"no-go","sham":0,"trial_type":"pit-trial","trial_index":266,"time_elapsed":1294573,"internal_node_id":"0.0-239.0","task_version":"battery-v0.2-trt"},{"rune":"V","rune_set":"bacs2","hex":"#f73b6a7A","correct":32,"choice":32,"rt":832.7299999999814,"accuracy":1,"outcome":"-1","keys":[2332.7850000006147],"total_keys":1,"block":2,"trial":232,"stimulus":8,"robot":3,"valence":"lose","action":"go","sham":0,"trial_type":"pit-trial","trial_index":267,"time_elapsed":1298110,"internal_node_id":"0.0-240.0","task_version":"battery-v0.2-trt"},{"rune":"B","rune_set":"bacs2","hex":"#f73b6a7A","correct":-1,"choice":-1,"rt":-1,"accuracy":1,"outcome":"-1","keys":[],"total_keys":0,"block":2,"trial":233,"stimulus":10,"robot":4,"valence":"lose","action":"no-go","sham":0,"trial_type":"pit-trial","trial_index":268,"time_elapsed":1302114,"internal_node_id":"0.0-241.0","task_version":"battery-v0.2-trt"},{"rune":"V","rune_set":"bacs2","hex":"#f73b6a7A","correct":32,"choice":32,"rt":762.4499999983236,"accuracy":1,"outcome":"-1","keys":[2263.9550000003073],"total_keys":1,"block":2,"trial":234,"stimulus":8,"robot":3,"valence":"lose","action":"go","sham":0,"trial_type":"pit-trial","trial_index":269,"time_elapsed":1305582,"internal_node_id":"0.0-242.0","task_version":"battery-v0.2-trt"},{"rune":"M","rune_set":"bacs2","hex":"#3366ff99","correct":-1,"choice":-1,"rt":-1,"accuracy":1,"outcome":"+10","keys":[],"total_keys":0,"block":2,"trial":235,"stimulus":11,"robot":2,"valence":"win","action":"no-go","sham":0,"trial_type":"pit-trial","trial_index":270,"time_elapsed":1309586,"internal_node_id":"0.0-243.0","task_version":"battery-v0.2-trt"},{"rune":"K","rune_set":"bacs2","hex":"#f73b6a7A","correct":32,"choice":32,"rt":803.0399999988731,"accuracy":1,"outcome":"-1","keys":[2303.1850000007544],"total_keys":1,"block":2,"trial":236,"stimulus":9,"robot":