[{"view_history":"[{\"page_index\":0,\"viewing_time\":9882.910000043921}]","rt":9883.335000020452,"trial_type":"instructions","trial_index":0,"time_elapsed":9896,"internal_node_id":"0.0-0.0","task_version":"battery-v0.2-trt"},{"slider_type":"valence","raw_loc":637,"loc":0.774,"trial_type":"affective-slider","trial_index":1,"time_elapsed":18298,"internal_node_id":"0.0-1.0","task_version":"battery-v0.2-trt"},{"responses":{"Q06":"0","Q03":"1","Q02":"1","Q07":"0","Q04":"1","Q01":"1","Q08":"3","Q05":"1"},"rt":44380.750000011176,"item_order":[5,2,1,6,3,0,7,4],"radio_events":[10704.069999977946,13749.094999977387,19043.754999991506,22734.064999967813,25696.334999985993,32334.574999986216,36954.80499998666,43546.79499997292],"key_events":[],"mouse_events":[10704.069999977946,13749.094999977387,19043.754999991506,22734.064999967813,25696.334999985993,32334.574999986216,36954.80499998666,43546.79499997292,44379.69500001054],"straightlining":0.625,"zigzagging":0.42857142857142855,"survey":"dass_d","trial_type":"survey-template","trial_index":2,"time_elapsed":62681,"internal_node_id":"0.0-2.0","task_version":"battery-v0.2-trt","infrequency":0},{"responses":{"Q06":"0","Q08":"0","Q03":"1","Q04":"1","Q01":"0","Q05":"0","Q07":"0","Q02":"1"},"rt":41936.88999989536,"item_order":[5,7,2,3,0,4,6,1],"radio_events":[6364.33999997098,10863.539999932982,15349.159999983385,17883.734999923036,21371.69499997981,23861.904999939725,28871.064999955706,34803.954999893904,41201.61999994889],"key_events":[],"mouse_events":[6364.33999997098,10863.539999932982,15349.159999983385,17883.734999923036,21371.69499997981,23861.904999939725,28871.064999955706,34803.954999893904,41201.61999994889,41936.14000000525],"straightlining":0.625,"zigzagging":0.42857142857142855,"survey":"gad7","trial_type":"survey-template","trial_index":3,"time_elapsed":104620,"internal_node_id":"0.0-3.0","task_version":"battery-v0.2-trt","infrequency":0},{"responses":{"Q10":"2","Q13":"0","Q04":"3","Q09":"1","Q11":"1","Q01":"2","Q03":"2","Q02":"1","Q08":"3","Q12":"1","Q05":"3","Q06":"2","Q07":"3"},"rt":112597.22500003409,"item_order":[9,12,3,8,10,0,2,1,7,11,4,5,6],"radio_events":[22843.39000005275,29308.130000019446,34723.41000009328,41120.56000006851,48875.960000092164,54388.18500004709,65960.69000009447,67258.46500007901,72665.92000005767,77443.15499998629,79153.73500005808,85325.7300000405,89915.40500009432,97100.70000006817,102650.9650000371,105388.29999999143,111823.74500005972],"key_events":[],"mouse_events":[21290.849999990314,22843.39000005275,28633.43500008341,29308.130000019446,34723.41000009328,41120.56000006851,48875.960000092164,54388.18500004709,64835.38000006229,65960.69000009447,67258.46500007901,72665.92000005767,77443.15499998629,79153.73500005808,84651.25500003342,85325.7300000405,89473.48500008229,89915.40500009432,97100.70000006817,102650.9650000371,105388.29999999143,111823.74500005972,112595.94999998808],"straightlining":0.3076923076923077,"zigzagging":0.4166666666666667,"survey":"bisbas","trial_type":"survey-template","trial_index":4,"time_elapsed":217220,"internal_node_id":"0.0-4.0","task_version":"battery-v0.2-trt","infrequency":0},{"value":[0,1.5576923076923077,1.2738095238095237],"trial_type":"call-function","trial_index":5,"time_elapsed":217221,"internal_node_id":"0.0-5.0","task_version":"battery-v0.2-trt"},{"view_history":"[{\"page_index\":0,\"viewing_time\":3159.7550000296906},{\"page_index\":1,\"viewing_time\":5489.300000015646},{\"page_index\":2,\"viewing_time\":6105.014999979176},{\"page_index\":3,\"viewing_time\":7830.584999988787},{\"page_index\":4,\"viewing_time\":6734.780000057071},{\"page_index\":5,\"viewing_time\":6329.829999944195},{\"page_index\":6,\"viewing_time\":10350.315000046976},{\"page_index\":7,\"viewing_time\":19619.759999914095},{\"page_index\":8,\"viewing_time\":13357.69000009168},{\"page_index\":9,\"viewing_time\":5302.38000000827}]","rt":84279.80000001844,"trial_type":"pit-instructions","trial_index":6,"time_elapsed":301503,"internal_node_id":"0.0-6.0-0.0","task_version":"battery-v0.2-trt"},{"rune":"1","rune_set":"elianto","hex":"#3366ff99","correct":32,"choice":-1,"rt":-1,"accuracy":0,"outcome":"+1","keys":[],"total_keys":0,"block":0,"practice":1,"trial_type":"pit-trial","trial_index":7,"time_elapsed":305508,"internal_node_id":"0.0-6.0-1.0-0.0","task_version":"battery-v0.2-trt"},{"rune":"1","rune_set":"elianto","hex":"#3366ff99","correct":32,"choice":-1,"rt":-1,"accuracy":0,"outcome":"+1","keys":[],"total_keys":0,"block":0,"practice":1,"trial_type":"pit-trial","trial_index":8,"time_elapsed":309511,"internal_node_id":"0.0-6.0-1.1-0.1","task_version":"battery-v0.2-trt"},{"rune":"1","rune_set":"elianto","hex":"#3366ff99","correct":32,"choice":-1,"rt":-1,"accuracy":0,"outcome":"+1","keys":[],"total_keys":0,"block":0,"practice":1,"trial_type":"pit-trial","trial_index":9,"time_elapsed":313515,"internal_node_id":"0.0-6.0-1.2-0.2","task_version":"battery-v0.2-trt"},{"rune":"1","rune_set":"elianto","hex":"#3366ff99","correct":32,"choice":-1,"rt":-1,"accuracy":0,"outcome":"+1","keys":[],"total_keys":0,"block":0,"practice":1,"trial_type":"pit-trial","trial_index":10,"time_elapsed":317518,"internal_node_id":"0.0-6.0-1.3-0.3","task_version":"battery-v0.2-trt"},{"rune":"1","rune_set":"elianto","hex":"#3366ff99","correct":32,"choice":-1,"rt":-1,"accuracy":0,"outcome":"+1","keys":[],"total_keys":0,"block":0,"practice":1,"trial_type":"pit-trial","trial_index":11,"time_elapsed":321521,"internal_node_id":"0.0-6.0-1.4-0.4","task_version":"battery-v0.2-trt"},{"rune":"1","rune_set":"elianto","hex":"#3366ff99","correct":32,"choice":-1,"rt":-1,"accuracy":0,"outcome":"+1","keys":[],"total_keys":0,"block":0,"practice":1,"trial_type":"pit-trial","trial_index":12,"time_elapsed":325526,"internal_node_id":"0.0-6.0-1.5-0.5","task_version":"battery-v0.2-trt"},{"rune":"1","rune_set":"elianto","hex":"#3366ff99","correct":32,"choice":-1,"rt":-1,"accuracy":0,"outcome":"+1","keys":[],"total_keys":0,"block":0,"practice":1,"trial_type":"pit-trial","trial_index":13,"time_elapsed":329530,"internal_node_id":"0.0-6.0-1.6-0.6","task_version":"battery-v0.2-trt"},{"rune":"1","rune_set":"elianto","hex":"#3366ff99","correct":32,"choice":-1,"rt":-1,"accuracy":0,"outcome":"+1","keys":[],"total_keys":0,"block":0,"practice":1,"trial_type":"pit-trial","trial_index":14,"time_elapsed":333532,"internal_node_id":"0.0-6.0-1.7-0.7","task_version":"battery-v0.2-trt"},{"rune":"1","rune_set":"elianto","hex":"#3366ff99","correct":32,"choice":-1,"rt":-1,"accuracy":0,"outcome":"+1","keys":[],"total_keys":0,"block":0,"practice":1,"trial_type":"pit-trial","trial_index":15,"time_elapsed":337536,"internal_node_id":"0.0-6.0-1.8-0.8","task_version":"battery-v0.2-trt"},{"rune":"1","rune_set":"elianto","hex":"#3366ff99","correct":32,"choice":-1,"rt":-1,"accuracy":0,"outcome":"+1","keys":[],"total_keys":0,"block":0,"practice":1,"trial_type":"pit-trial","trial_index":16,"time_elapsed":341540,"internal_node_id":"0.0-6.0-1.9-0.9","task_version":"battery-v0.2-trt"},{"rune":"1","rune_set":"elianto","hex":"#3366ff99","correct":32,"choice":-1,"rt":-1,"accuracy":0,"outcome":"+1","keys":[],"total_keys":0,"block":0,"practice":1,"trial_type":"pit-trial","trial_index":17,"time_elapsed":345544,"internal_node_id":"0.0-6.0-1.10-0.10","task_version":"battery-v0.2-trt"},{"rune":"1","rune_set":"elianto","hex":"#3366ff99","correct":32,"choice":-1,"rt":-1,"accuracy":0,"outcome":"+1","keys":[],"total_keys":0,"block":0,"practice":1,"trial_type":"pit-trial","trial_index":18,"time_elapsed":349548,"internal_node_id":"0.0-6.0-1.11-0.11","task_version":"battery-v0.2-trt"},{"rune":"1","rune_set":"elianto","hex":"#3366ff99","correct":32,"choice":-1,"rt":-1,"accuracy":0,"outcome":"+1","keys":[],"total_keys":0,"block":0,"practice":1,"trial_type":"pit-trial","trial_index":19,"time_elapsed":353552,"internal_node_id":"0.0-6.0-1.12-0.12","task_version":"battery-v0.2-trt"},{"rune":"1","rune_set":"elianto","hex":"#3366ff99","correct":32,"choice":-1,"rt":-1,"accuracy":0,"outcome":"+1","keys":[],"total_keys":0,"block":0,"practice":1,"trial_type":"pit-trial","trial_index":20,"time_elapsed":357555,"internal_node_id":"0.0-6.0-1.13-0.13","task_version":"battery-v0.2-trt"},{"rune":"1","rune_set":"elianto","hex":"#3366ff99","correct":32,"choice":-1,"rt":-1,"accuracy":0,"outcome":"+1","keys":[],"total_keys":0,"block":0,"practice":1,"trial_type":"pit-trial","trial_index":21,"time_elapsed":361560,"internal_node_id":"0.0-6.0-1.14-0.14","task_version":"battery-v0.2-trt"},{"rune":"1","rune_set":"elianto","hex":"#3366ff99","correct":32,"choice":-1,"rt":-1,"accuracy":0,"outcome":"+1","keys":[],"total_keys":0,"block":0,"practice":1,"trial_type":"pit-trial","trial_index":22,"time_elapsed":365563,"internal_node_id":"0.0-6.0-1.15-0.15","task_version":"battery-v0.2-trt"},{"rune":"1","rune_set":"elianto","hex":"#3366ff99","correct":32,"choice":-1,"rt":-1,"accuracy":0,"outcome":"+1","keys":[],"total_keys":0,"block":0,"practice":1,"trial_type":"pit-trial","trial_index":23,"time_elapsed":369567,"internal_node_id":"0.0-6.0-1.16-0.16","task_version":"battery-v0.2-trt"},{"rune":"1","rune_set":"elianto","hex":"#3366ff99","correct":32,"choice":-1,"rt":-1,"accuracy":0,"outcome":"+1","keys":[],"total_keys":0,"block":0,"practice":1,"trial_type":"pit-trial","trial_index":24,"time_elapsed":373570,"internal_node_id":"0.0-6.0-1.17-0.17","task_version":"battery-v0.2-trt"},{"rune":"1","rune_set":"elianto","hex":"#3366ff99","correct":32,"choice":-1,"rt":-1,"accuracy":0,"outcome":"+1","keys":[469.64999998454005],"total_keys":1,"block":0,"practice":1,"trial_type":"pit-trial","trial_index":25,"time_elapsed":377575,"internal_node_id":"0.0-6.0-1.18-0.18","task_version":"battery-v0.2-trt"},{"rune":"1","rune_set":"elianto","hex":"#3366ff99","correct":32,"choice":-1,"rt":-1,"accuracy":0,"outcome":"+1","keys":[],"total_keys":0,"block":0,"practice":1,"trial_type":"pit-trial","trial_index":26,"time_elapsed":381579,"internal_node_id":"0.0-6.0-1.19-0.19","task_version":"battery-v0.2-trt"},{"rune":"1","rune_set":"elianto","hex":"#3366ff99","correct":32,"choice":32,"rt":265.92999999411404,"accuracy":1,"outcome":"+10","keys":[1767.4600000027567],"total_keys":1,"block":0,"practice":1,"trial_type":"pit-trial","trial_index":27,"time_elapsed":384549,"internal_node_id":"0.0-6.0-1.20-0.20","task_version":"battery-v0.2-trt"},{"rune":"1","rune_set":"elianto","hex":"#3366ff99","correct":32,"choice":32,"rt":584.4600000418723,"accuracy":1,"outcome":"+10","keys":[2085.4350000154227],"total_keys":1,"block":0,"practice":1,"trial_type":"pit-trial","trial_index":28,"time_elapsed":387837,"internal_node_id":"0.0-6.0-1.21-0.21","task_version":"battery-v0.2-trt"},{"rune":"1","rune_set":"elianto","hex":"#3366ff99","correct":32,"choice":32,"rt":1000.0100000761449,"accuracy":1,"outcome":"+10","keys":[2500.8600000292063],"total_keys":1,"block":0,"practice":1,"trial_type":"pit-trial","trial_index":29,"time_elapsed":391540,"internal_node_id":"0.0-6.0-1.22-0.22","task_version":"battery-v0.2-trt"},{"trial_type":"call-function","trial_index":30,"time_elapsed":391541,"internal_node_id":"0.0-6.0-2.0","task_version":"battery-v0.2-trt"},{"view_history":"[{\"page_index\":0,\"viewing_time\":13838.534999988042},{\"page_index\":1,\"viewing_time\":6847.799999988638}]","rt":20686.784999910742,"trial_type":"pit-instructions","trial_index":31,"time_elapsed":412228,"internal_node_id":"0.0-6.0-3.0","task_version":"battery-v0.2-trt"},{"rune":"2","rune_set":"elianto","hex":"#3366ff99","correct":-1,"choice":-1,"rt":-1,"accuracy":1,"outcome":"+10","keys":[],"total_keys":0,"block":0,"practice":2,"trial_type":"pit-trial","trial_index":32,"time_elapsed":416231,"internal_node_id":"0.0-6.0-4.0-0.0","task_version":"battery-v0.2-trt"},{"rune":"2","rune_set":"elianto","hex":"#3366ff99","correct":-1,"choice":-1,"rt":-1,"accuracy":1,"outcome":"+10","keys":[],"total_keys":0,"block":0,"practice":2,"trial_type":"pit-trial","trial_index":33,"time_elapsed":420236,"internal_node_id":"0.0-6.0-4.1-0.1","task_version":"battery-v0.2-trt"},{"rune":"2","rune_set":"elianto","hex":"#3366ff99","correct":-1,"choice":-1,"rt":-1,"accuracy":1,"outcome":"+10","keys":[],"total_keys":0,"block":0,"practice":2,"trial_type":"pit-trial","trial_index":34,"time_elapsed":424240,"internal_node_id":"0.0-6.0-4.2-0.2","task_version":"battery-v0.2-trt"},{"rune":"2","rune_set":"elianto","hex":"#3366ff99","correct":-1,"choice":-1,"rt":-1,"accuracy":1,"outcome":"+10","keys":[],"total_keys":0,"block":0,"practice":2,"trial_type":"pit-trial","trial_index":35,"time_elapsed":428244,"internal_node_id":"0.0-6.0-4.3-0.3","task_version":"battery-v0.2-trt"},{"trial_type":"call-function","trial_index":36,"time_elapsed":428245,"internal_node_id":"0.0-6.0-5.0","task_version":"battery-v0.2-trt"},{"view_history":"[{\"page_index\":0,\"viewing_time\":22575.07500005886},{\"page_index\":1,\"viewing_time\":10990.824999986216}]","rt":33566.36499997694,"trial_type":"pit-instructions","trial_index":37,"time_elapsed":461812,"internal_node_id":"0.0-6.0-6.0","task_version":"battery-v0.2-trt"},{"rune":"3","rune_set":"elianto","hex":"#f73b6a7A","correct":-1,"choice":32,"rt":1028.675000066869,"accuracy":0,"outcome":"-10","keys":[2529.655000078492],"total_keys":1,"block":0,"practice":3,"trial_type":"pit-trial","trial_index":38,"time_elapsed":465545,"internal_node_id":"0.0-6.0-7.0-0.0","task_version":"battery-v0.2-trt"},{"rune":"3","rune_set":"elianto","hex":"#f73b6a7A","correct":-1,"choice":-1,"rt":-1,"accuracy":1,"outcome":"-1","keys":[],"total_keys":0,"block":0,"practice":3,"trial_type":"pit-trial","trial_index":39,"time_elapsed":469550,"internal_node_id":"0.0-6.0-7.1-0.1","task_version":"battery-v0.2-trt"},{"rune":"3","rune_set":"elianto","hex":"#f73b6a7A","correct":-1,"choice":-1,"rt":-1,"accuracy":1,"outcome":"-1","keys":[],"total_keys":0,"block":0,"practice":3,"trial_type":"pit-trial","trial_index":40,"time_elapsed":473554,"internal_node_id":"0.0-6.0-7.2-0.2","task_version":"battery-v0.2-trt"},{"rune":"3","rune_set":"elianto","hex":"#f73b6a7A","correct":-1,"choice":-1,"rt":-1,"accuracy":1,"outcome":"-1","keys":[],"total_keys":0,"block":0,"practice":3,"trial_type":"pit-trial","trial_index":41,"time_elapsed":477558,"internal_node_id":"0.0-6.0-7.3-0.3","task_version":"battery-v0.2-trt"},{"trial_type":"call-function","trial_index":42,"time_elapsed":477558,"internal_node_id":"0.0-6.0-8.0","task_version":"battery-v0.2-trt"},{"view_history":"[{\"page_index\":0,\"viewing_time\":8478.389999945648},{\"page_index\":1,\"viewing_time\":7462.14499999769}]","rt":15940.914999926463,"trial_type":"pit-instructions","trial_index":43,"time_elapsed":493500,"internal_node_id":"0.0-6.0-9.0","task_version":"battery-v0.2-trt"},{"rune":"4","rune_set":"elianto","hex":"#f73b6a7A","correct":32,"choice":-1,"rt":-1,"accuracy":0,"outcome":"-10","keys":[],"total_keys":0,"block":0,"practice":4,"trial_type":"pit-trial","trial_index":44,"time_elapsed":497503,"internal_node_id":"0.0-6.0-10.0-0.0","task_version":"battery-v0.2-trt"},{"rune":"4","rune_set":"elianto","hex":"#f73b6a7A","correct":32,"choice":32,"rt":847.1900000004098,"accuracy":1,"outcome":"-1","keys":[2347.8399999439716],"total_keys":1,"block":0,"practice":4,"trial_type":"pit-trial","trial_index":45,"time_elapsed":501055,"internal_node_id":"0.0-6.0-10.1-0.1","task_version":"battery-v0.2-trt"},{"rune":"4","rune_set":"elianto","hex":"#f73b6a7A","correct":32,"choice":32,"rt":943.28000000678,"accuracy":1,"outcome":"-1","keys":[2444.7250000666827],"total_keys":1,"block":0,"practice":4,"trial_type":"pit-trial","trial_index":46,"time_elapsed":504703,"internal_node_id":"0.0-6.0-10.2-0.2","task_version":"battery-v0.2-trt"},{"rune":"4","rune_set":"elianto","hex":"#f73b6a7A","correct":32,"choice":32,"rt":992.0850000344217,"accuracy":1,"outcome":"-1","keys":[2492.755000013858],"total_keys":1,"block":0,"practice":4,"trial_type":"pit-trial","trial_index":47,"time_elapsed":508397,"internal_node_id":"0.0-6.0-10.3-0.3","task_version":"battery-v0.2-trt"},{"trial_type":"call-function","trial_index":48,"time_elapsed":508397,"internal_node_id":"0.0-6.0-11.0","task_version":"battery-v0.2-trt"},{"view_history":"[{\"page_index\":0,\"viewing_time\":3288.929999922402},{\"page_index\":1,\"viewing_time\":6817.84500007052},{\"page_index\":2,\"viewing_time\":6750.044999993406},{\"page_index\":3,\"viewing_time\":5092.434999998659},{\"page_index\":4,\"viewing_time\":5550.064999959432},{\"page_index\":5,\"viewing_time\":3276.655000052415}]","rt":30776.349999941885,"trial_type":"pit-instructions","trial_index":49,"time_elapsed":539174,"internal_node_id":"0.0-6.0-12.0","task_version":"battery-v0.2-trt"},{"responses":["Press SPACE","+10","-1","True","True"],"num_errors":0,"rt":28311.80000002496,"trial_type":"pit-comprehension","trial_index":50,"time_elapsed":567488,"internal_node_id":"0.0-6.0-13.0","task_version":"battery-v0.2-trt"},{"view_history":"[{\"page_index\":0,\"viewing_time\":2697.1400000620633},{\"page_index\":1,\"viewing_time\":10245.159999933094}]","rt":12942.694999976084,"trial_type":"pit-instructions","trial_index":51,"time_elapsed":580433,"internal_node_id":"0.0-7.0","task_version":"battery-v0.2-trt"},{"rune":"T","rune_set":"bacs2","hex":"#3366ff99","correct":32,"choice":32,"rt":896.1800000397488,"accuracy":1,"outcome":"+10","keys":[2396.59500005655],"total_keys":1,"block":1,"trial":1,"stimulus":1,"robot":1,"valence":"win","action":"go","sham":0,"trial_type":"pit-trial","trial_index":52,"time_elapsed":584033,"internal_node_id":"0.0-8.0","task_version":"battery-v0.2-trt"},{"rune":"H","rune_set":"bacs2","hex":"#3366ff99","correct":32,"choice":-1,"rt":-1,"accuracy":0,"outcome":"+1","keys":[],"total_keys":0,"block":1,"trial":2,"stimulus":3,"robot":1,"valence":"win","action":"go","sham":0,"trial_type":"pit-trial","trial_index":53,"time_elapsed":588037,"internal_node_id":"0.0-9.0","task_version":"battery-v0.2-trt"},{"rune":"Y","rune_set":"bacs2","hex":"#3366ff99","correct":-1,"choice":32,"rt":628.7599999923259,"accuracy":0,"outcome":"+1","keys":[2130.1799999782816],"total_keys":1,"block":1,"trial":3,"stimulus":0,"robot":2,"valence":"win","action":"no-go","sham":0,"trial_type":"pit-trial","trial_index":54,"time_elapsed":591370,"internal_node_id":"0.0-10.0","task_version":"battery-v0.2-trt"},{"rune":"Q","rune_set":"bacs2","hex":"#f73b6a7A","correct":-1,"choice":32,"rt":702.7699999744073,"accuracy":0,"outcome":"-10","keys":[2205.0550000276417],"total_keys":1,"block":1,"trial":4,"stimulus":2,"robot":4,"valence":"lose","action":"no-go","sham":0,"trial_type":"pit-trial","trial_index":55,"time_elapsed":594778,"internal_node_id":"0.0-11.0","task_version":"battery-v0.2-trt"},{"rune":"H","rune_set":"bacs2","hex":"#3366ff99","correct":32,"choice":32,"rt":929.619999951683,"accuracy":1,"outcome":"+1","keys":[2429.854999994859],"total_keys":1,"block":1,"trial":5,"stimulus":3,"robot":1,"valence":"win","action":"go","sham":1,"trial_type":"pit-trial","trial_index":56,"time_elapsed":598410,"internal_node_id":"0.0-12.0","task_version":"battery-v0.2-trt"},{"rune":"Q","rune_set":"bacs2","hex":"#f73b6a7A","correct":-1,"choice":32,"rt":1257.0000000996515,"accuracy":0,"outcome":"-1","keys":[2758.5350000299513],"total_keys":1,"block":1,"trial":6,"stimulus":2,"robot":4,"valence":"lose","action":"no-go","sham":1,"trial_type":"pit-trial","trial_index":57,"time_elapsed":602371,"internal_node_id":"0.0-13.0","task_version":"battery-v0.2-trt"},{"rune":"Y","rune_set":"bacs2","hex":"#3366ff99","correct":-1,"choice":-1,"rt":-1,"accuracy":1,"outcome":"+10","keys":[],"total_keys":0,"block":1,"trial":7,"stimulus":0,"robot":2,"valence":"win","action":"no-go","sham":0,"trial_type":"pit-trial","trial_index":58,"time_elapsed":606375,"internal_node_id":"0.0-14.0","task_version":"battery-v0.2-trt"},{"rune":"T","rune_set":"bacs2","hex":"#3366ff99","correct":32,"choice":32,"rt":614.7900000214577,"accuracy":1,"outcome":"+10","keys":[2115.609999978915],"total_keys":1,"block":1,"trial":8,"stimulus":1,"robot":1,"valence":"win","action":"go","sham":0,"trial_type":"pit-trial","trial_index":59,"time_elapsed":609692,"internal_node_id":"0.0-15.0","task_version":"battery-v0.2-trt"},{"rune":"Q","rune_set":"bacs2","hex":"#f73b6a7A","correct":-1,"choice":32,"rt":1281.8399999523535,"accuracy":0,"outcome":"-10","keys":[2782.2000000160187],"total_keys":1,"block":1,"trial":9,"stimulus":2,"robot":4,"valence":"lose","action":"no-go","sham":0,"trial_type":"pit-trial","trial_index":60,"time_elapsed":613677,"internal_node_id":"0.0-16.0","task_version":"battery-v0.2-trt"},{"rune":"H","rune_set":"bacs2","hex":"#3366ff99","correct":32,"choice":-1,"rt":-1,"accuracy":0,"outcome":"+10","keys":[],"total_keys":0,"block":1,"trial":10,"stimulus":3,"robot":1,"valence":"win","action":"go","sham":1,"trial_type":"pit-trial","trial_index":61,"time_elapsed":617680,"internal_node_id":"0.0-17.0","task_version":"battery-v0.2-trt"},{"rune":"T","rune_set":"bacs2","hex":"#3366ff99","correct":32,"choice":32,"rt":614.9849999928847,"accuracy":1,"outcome":"+10","keys":[2115.7149999635294],"total_keys":1,"block":1,"trial":11,"stimulus":1,"robot":1,"valence":"win","action":"go","sham":0,"trial_type":"pit-trial","trial_index":62,"time_elapsed":620998,"internal_node_id":"0.0-18.0","task_version":"battery-v0.2-trt"},{"rune":"Y","rune_set":"bacs2","hex":"#3366ff99","correct":-1,"choice":-1,"rt":-1,"accuracy":1,"outcome":"+10","keys":[],"total_keys":0,"block":1,"trial":12,"stimulus":0,"robot":2,"valence":"win","action":"no-go","sham":0,"trial_type":"pit-trial","trial_index":63,"time_elapsed":625001,"internal_node_id":"0.0-19.0","task_version":"battery-v0.2-trt"},{"rune":"T","rune_set":"bacs2","hex":"#3366ff99","correct":32,"choice":32,"rt":583.295000018552,"accuracy":1,"outcome":"+10","keys":[2083.669999963604],"total_keys":1,"block":1,"trial":13,"stimulus":1,"robot":1,"valence":"win","action":"go","sham":0,"trial_type":"pit-trial","trial_index":64,"time_elapsed":628286,"internal_node_id":"0.0-20.0","task_version":"battery-v0.2-trt"},{"rune":"Q","rune_set":"bacs2","hex":"#f73b6a7A","correct":-1,"choice":-1,"rt":-1,"accuracy":1,"outcome":"-10","keys":[],"total_keys":0,"block":1,"trial":14,"stimulus":2,"robot":4,"valence":"lose","action":"no-go","sham":1,"trial_type":"pit-trial","trial_index":65,"time_elapsed":632291,"internal_node_id":"0.0-21.0","task_version":"battery-v0.2-trt"},{"rune":"H","rune_set":"bacs2","hex":"#3366ff99","correct":32,"choice":-1,"rt":-1,"accuracy":0,"outcome":"+1","keys":[],"total_keys":0,"block":1,"trial":15,"stimulus":3,"robot":1,"valence":"win","action":"go","sham":0,"trial_type":"pit-trial","trial_index":66,"time_elapsed":636295,"internal_node_id":"0.0-22.0","task_version":"battery-v0.2-trt"},{"rune":"Y","rune_set":"bacs2","hex":"#3366ff99","correct":-1,"choice":-1,"rt":-1,"accuracy":1,"outcome":"+10","keys":[],"total_keys":0,"block":1,"trial":16,"stimulus":0,"robot":2,"valence":"win","action":"no-go","sham":0,"trial_type":"pit-trial","trial_index":67,"time_elapsed":640297,"internal_node_id":"0.0-23.0","task_version":"battery-v0.2-trt"},{"rune":"H","rune_set":"bacs2","hex":"#3366ff99","correct":32,"choice":32,"rt":1016.6350000072271,"accuracy":1,"outcome":"+10","keys":[2517.9650000063702],"total_keys":1,"block":1,"trial":17,"stimulus":3,"robot":1,"valence":"win","action":"go","sham":0,"trial_type":"pit-trial","trial_index":68,"time_elapsed":644018,"internal_node_id":"0.0-24.0","task_version":"battery-v0.2-trt"},{"rune":"Y","rune_set":"bacs2","hex":"#3366ff99","correct":-1,"choice":-1,"rt":-1,"accuracy":1,"outcome":"+10","keys":[],"total_keys":0,"block":1,"trial":18,"stimulus":0,"robot":2,"valence":"win","action":"no-go","sham":0,"trial_type":"pit-trial","trial_index":69,"time_elapsed":648021,"internal_node_id":"0.0-25.0","task_version":"battery-v0.2-trt"},{"rune":"T","rune_set":"bacs2","hex":"#3366ff99","correct":32,"choice":32,"rt":590.4900000896305,"accuracy":1,"outcome":"+10","keys":[2091.175000066869],"total_keys":1,"block":1,"trial":19,"stimulus":1,"robot":1,"valence":"win","action":"go","sham":0,"trial_type":"pit-trial","trial_index":70,"time_elapsed":651315,"internal_node_id":"0.0-26.0","task_version":"battery-v0.2-trt"},{"rune":"Q","rune_set":"bacs2","hex":"#f73b6a7A","correct":-1,"choice":32,"rt":776.1999999638647,"accuracy":0,"outcome":"-10","keys":[2277.684999979101],"total_keys":1,"block":1,"trial":20,"stimulus":2,"robot":4,"valence":"lose","action":"no-go","sham":0,"trial_type":"pit-trial","trial_index":71,"time_elapsed":654795,"internal_node_id":"0.0-27.0","task_version":"battery-v0.2-trt"},{"rune":"Q","rune_set":"bacs2","hex":"#f73b6a7A","correct":-1,"choice":-1,"rt":-1,"accuracy":1,"outcome":"-1","keys":[],"total_keys":0,"block":1,"trial":21,"stimulus":2,"robot":4,"valence":"lose","action":"no-go","sham":0,"trial_type":"pit-trial","trial_index":72,"time_elapsed":658798,"internal_node_id":"0.0-28.0","task_version":"battery-v0.2-trt"},{"rune":"T","rune_set":"bacs2","hex":"#3366ff99","correct":32,"choice":32,"rt":510.95500006340444,"accuracy":1,"outcome":"+10","keys":[2011.2850000150502],"total_keys":1,"block":1,"trial":22,"stimulus":1,"robot":1,"valence":"win","action":"go","sham":0,"trial_type":"pit-trial","trial_index":73,"time_elapsed":662012,"internal_node_id":"0.0-29.0","task_version":"battery-v0.2-trt"},{"rune":"Y","rune_set":"bacs2","hex":"#3366ff99","correct":-1,"choice":-1,"rt":-1,"accuracy":1,"outcome":"+10","keys":[],"total_keys":0,"block":1,"trial":23,"stimulus":0,"robot":2,"valence":"win","action":"no-go","sham":0,"trial_type":"pit-trial","trial_index":74,"time_elapsed":666016,"internal_node_id":"0.0-30.0","task_version":"battery-v0.2-trt"},{"rune":"H","rune_set":"bacs2","hex":"#3366ff99","correct":32,"choice":32,"rt":452.7150000212714,"accuracy":1,"outcome":"+10","keys":[1954.1399999288842],"total_keys":1,"block":1,"trial":24,"stimulus":3,"robot":1,"valence":"win","action":"go","sham":0,"trial_type":"pit-trial","trial_index":75,"time_elapsed":669173,"internal_node_id":"0.0-31.0","task_version":"battery-v0.2-trt"},{"rune":"H","rune_set":"bacs2","hex":"#3366ff99","correct":32,"choice":32,"rt":521.3049999438226,"accuracy":1,"outcome":"+10","keys":[2022.0399999525398],"total_keys":1,"block":1,"trial":25,"stimulus":3,"robot":1,"valence":"win","action":"go","sham":0,"trial_type":"pit-trial","trial_index":76,"time_elapsed":672399,"internal_node_id":"0.0-32.0","task_version":"battery-v0.2-trt"},{"rune":"Q","rune_set":"bacs2","hex":"#f73b6a7A","correct":-1,"choice":-1,"rt":-1,"accuracy":1,"outcome":"-1","keys":[],"total_keys":0,"block":1,"trial":26,"stimulus":2,"robot":4,"valence":"lose","action":"no-go","sham":0,"trial_type":"pit-trial","trial_index":77,"time_elapsed":676401,"internal_node_id":"0.0-33.0","task_version":"battery-v0.2-trt"},{"rune":"Y","rune_set":"bacs2","hex":"#3366ff99","correct":-1,"choice":-1,"rt":-1,"accuracy":1,"outcome":"+10","keys":[],"total_keys":0,"block":1,"trial":27,"stimulus":0,"robot":2,"valence":"win","action":"no-go","sham":0,"trial_type":"pit-trial","trial_index":78,"time_elapsed":680405,"internal_node_id":"0.0-34.0","task_version":"battery-v0.2-trt"},{"rune":"T","rune_set":"bacs2","hex":"#3366ff99","correct":32,"choice":32,"rt":475.22000002209097,"accuracy":1,"outcome":"+10","keys":[1975.9850000264123],"total_keys":1,"block":1,"trial":28,"stimulus":1,"robot":1,"valence":"win","action":"go","sham":0,"trial_type":"pit-trial","trial_index":79,"time_elapsed":683583,"internal_node_id":"0.0-35.0","task_version":"battery-v0.2-trt"},{"rune":"Y","rune_set":"bacs2","hex":"#3366ff99","correct":-1,"choice":-1,"rt":-1,"accuracy":1,"outcome":"+1","keys":[],"total_keys":0,"block":1,"trial":29,"stimulus":0,"robot":2,"valence":"win","action":"no-go","sham":1,"trial_type":"pit-trial","trial_index":80,"time_elapsed":687586,"internal_node_id":"0.0-36.0","task_version":"battery-v0.2-trt"},{"rune":"H","rune_set":"bacs2","hex":"#3366ff99","correct":32,"choice":32,"rt":542.6299999235198,"accuracy":1,"outcome":"+1","keys":[3.169999923557043,2043.6749999644235],"total_keys":2,"block":1,"trial":30,"stimulus":3,"robot":1,"valence":"win","action":"go","sham":1,"trial_type":"pit-trial","trial_index":81,"time_elapsed":690832,"internal_node_id":"0.0-37.0","task_version":"battery-v0.2-trt"},{"rune":"Q","rune_set":"bacs2","hex":"#f73b6a7A","correct":-1,"choice":-1,"rt":-1,"accuracy":1,"outcome":"-1","keys":[],"total_keys":0,"block":1,"trial":31,"stimulus":2,"robot":4,"valence":"lose","action":"no-go","sham":0,"trial_type":"pit-trial","trial_index":82,"time_elapsed":694837,"internal_node_id":"0.0-38.0","task_version":"battery-v0.2-trt"},{"rune":"T","rune_set":"bacs2","hex":"#3366ff99","correct":32,"choice":32,"rt":523.9499999443069,"accuracy":1,"outcome":"+10","keys":[2025.4450000356883],"total_keys":1,"block":1,"trial":32,"stimulus":1,"robot":1,"valence":"win","action":"go","sham":0,"trial_type":"pit-trial","trial_index":83,"time_elapsed":698064,"internal_node_id":"0.0-39.0","task_version":"battery-v0.2-trt"},{"rune":"E","rune_set":"bacs2","hex":"#3366ff99","correct":32,"choice":32,"rt":1099.4000000646338,"accuracy":1,"outcome":"+10","keys":[2599.4700000155717],"total_keys":1,"block":1,"trial":33,"stimulus":4,"robot":1,"valence":"win","action":"go","sham":0,"trial_type":"pit-trial","trial_index":84,"time_elapsed":701866,"internal_node_id":"0.0-40.0","task_version":"battery-v0.2-trt"},{"rune":"Y","rune_set":"bacs2","hex":"#3366ff99","correct":-1,"choice":32,"rt":848.1850000098348,"accuracy":0,"outcome":"+1","keys":[2349.6000000741333],"total_keys":1,"block":1,"trial":34,"stimulus":0,"robot":2,"valence":"win","action":"no-go","sham":0,"trial_type":"pit-trial","trial_index":85,"time_elapsed":705419,"internal_node_id":"0.0-41.0","task_version":"battery-v0.2-trt"},{"rune":"Q","rune_set":"bacs2","hex":"#f73b6a7A","correct":-1,"choice":-1,"rt":-1,"accuracy":1,"outcome":"-1","keys":[],"total_keys":0,"block":1,"trial":35,"stimulus":2,"robot":4,"valence":"lose","action":"no-go","sham":0,"trial_type":"pit-trial","trial_index":86,"time_elapsed":709421,"internal_node_id":"0.0-42.0","task_version":"battery-v0.2-trt"},{"rune":"H","rune_set":"bacs2","hex":"#3366ff99","correct":32,"choice":32,"rt":621.1749999783933,"accuracy":1,"outcome":"+10","keys":[2123.3249999349937],"total_keys":1,"block":1,"trial":36,"stimulus":3,"robot":1,"valence":"win","action":"go","sham":0,"trial_type":"pit-trial","trial_index":87,"time_elapsed":712746,"internal_node_id":"0.0-43.0","task_version":"battery-v0.2-trt"},{"rune":"Y","rune_set":"bacs2","hex":"#3366ff99","correct":-1,"choice":32,"rt":753.5749999806285,"accuracy":0,"outcome":"+10","keys":[2254.784999997355],"total_keys":1,"block":1,"trial":37,"stimulus":0,"robot":2,"valence":"win","action":"no-go","sham":1,"trial_type":"pit-trial","trial_index":88,"time_elapsed":716203,"internal_node_id":"0.0-44.0","task_version":"battery-v0.2-trt"},{"rune":"Q","rune_set":"bacs2","hex":"#f73b6a7A","correct":-1,"choice":-1,"rt":-1,"accuracy":1,"outcome":"-1","keys":[],"total_keys":0,"block":1,"trial":38,"stimulus":2,"robot":4,"valence":"lose","action":"no-go","sham":0,"trial_type":"pit-trial","trial_index":89,"time_elapsed":720206,"internal_node_id":"0.0-45.0","task_version":"battery-v0.2-trt"},{"rune":"E","rune_set":"bacs2","hex":"#3366ff99","correct":32,"choice":32,"rt":816.5199999930337,"accuracy":1,"outcome":"+10","keys":[2316.685000085272],"total_keys":1,"block":1,"trial":39,"stimulus":4,"robot":1,"valence":"win","action":"go","sham":0,"trial_type":"pit-trial","trial_index":90,"time_elapsed":723725,"internal_node_id":"0.0-46.0","task_version":"battery-v0.2-trt"},{"rune":"H","rune_set":"bacs2","hex":"#3366ff99","correct":32,"choice":32,"rt":682.4799999594688,"accuracy":1,"outcome":"+1","keys":[2182.61999997776],"total_keys":1,"block":1,"trial":40,"stimulus":3,"robot":1,"valence":"win","action":"go","sham":1,"trial_type":"pit-trial","trial_index":91,"time_elapsed":727110,"internal_node_id":"0.0-47.0","task_version":"battery-v0.2-trt"},{"rune":"Y","rune_set":"bacs2","hex":"#3366ff99","correct":-1,"choice":32,"rt":752.0400000503287,"accuracy":0,"outcome":"+1","keys":[2252.879999927245],"total_keys":1,"block":1,"trial":41,"stimulus":0,"robot":2,"valence":"win","action":"no-go","sham":0,"trial_type":"pit-trial","trial_index":92,"time_elapsed":730565,"internal_node_id":"0.0-48.0","task_version":"battery-v0.2-trt"},{"rune":"O","rune_set":"bacs2","hex":"#f73b6a7A","correct":-1,"choice":-1,"rt":-1,"accuracy":1,"outcome":"-1","keys":[],"total_keys":0,"block":1,"trial":42,"stimulus":6,"robot":4,"valence":"lose","action":"no-go","sham":0,"trial_type":"pit-trial","trial_index":93,"time_elapsed":734568,"internal_node_id":"0.0-49.0","task_version":"battery-v0.2-trt"},{"rune":"C","rune_set":"bacs2","hex":"#f73b6a7A","correct":32,"choice":-1,"rt":-1,"accuracy":0,"outcome":"-10","keys":[3700.660000089556],"total_keys":1,"block":1,"trial":43,"stimulus":5,"robot":3,"valence":"lose","action":"go","sham":0,"trial_type":"pit-trial","trial_index":94,"time_elapsed":738571,"internal_node_id":"0.0-50.0","task_version":"battery-v0.2-trt"},{"rune":"E","rune_set":"bacs2","hex":"#3366ff99","correct":32,"choice":32,"rt":885.8350000809878,"accuracy":1,"outcome":"+10","keys":[2386.28500001505],"total_keys":1,"block":1,"trial":44,"stimulus":4,"robot":1,"valence":"win","action":"go","sham":0,"trial_type":"pit-trial","trial_index":95,"time_elapsed":742160,"internal_node_id":"0.0-51.0","task_version":"battery-v0.2-trt"},{"rune":"E","rune_set":"bacs2","hex":"#3366ff99","correct":32,"choice":32,"rt":760.2900000056252,"accuracy":1,"outcome":"+10","keys":[2261.1950000282377],"total_keys":1,"block":1,"trial":45,"stimulus":4,"robot":1,"valence":"win","action":"go","sham":0,"trial_type":"pit-trial","trial_index":96,"time_elapsed":745624,"internal_node_id":"0.0-52.0","task_version":"battery-v0.2-trt"},{"rune":"C","rune_set":"bacs2","hex":"#f73b6a7A","correct":32,"choice":32,"rt":871.4750000508502,"accuracy":1,"outcome":"-1","keys":[2373.024999978952],"total_keys":1,"block":1,"trial":46,"stimulus":5,"robot":3,"valence":"lose","action":"go","sham":0,"trial_type":"pit-trial","trial_index":97,"time_elapsed":749200,"internal_node_id":"0.0-53.0","task_version":"battery-v0.2-trt"},{"rune":"O","rune_set":"bacs2","hex":"#f73b6a7A","correct":-1,"choice":-1,"rt":-1,"accuracy":1,"outcome":"-10","keys":[],"total_keys":0,"block":1,"trial":47,"stimulus":6,"robot":4,"valence":"lose","action":"no-go","sham":1,"trial_type":"pit-trial","trial_index":98,"time_elapsed":753202,"internal_node_id":"0.0-54.0","task_version":"battery-v0.2-trt"},{"rune":"Y","rune_set":"bacs2","hex":"#3366ff99","correct":-1,"choice":32,"rt":631.7600000184029,"accuracy":0,"outcome":"+1","keys":[2132.6649999246],"total_keys":1,"block":1,"trial":48,"stimulus":0,"robot":2,"valence":"win","action":"no-go","sham":0,"trial_type":"pit-trial","trial_index":99,"time_elapsed":756537,"internal_node_id":"0.0-55.0","task_version":"battery-v0.2-trt"},{"rune":"G","rune_set":"bacs2","hex":"#3366ff99","correct":-1,"choice":32,"rt":713.1149999331683,"accuracy":0,"outcome":"+1","keys":[2214.41999997478],"total_keys":1,"block":1,"trial":49,"stimulus":7,"robot":2,"valence":"win","action":"no-go","sham":0,"trial_type":"pit-trial","trial_index":100,"time_elapsed":759953,"internal_node_id":"0.0-56.0","task_version":"battery-v0.2-trt"},{"rune":"E","rune_set":"bacs2","hex":"#3366ff99","correct":32,"choice":32,"rt":560.7349999481812,"accuracy":1,"outcome":"+10","keys":[2062.6449999399483],"total_keys":1,"block":1,"trial":50,"stimulus":4,"robot":1,"valence":"win","action":"go","sham":0,"trial_type":"pit-trial","trial_index":101,"time_elapsed":763218,"internal_node_id":"0.0-57.0","task_version":"battery-v0.2-trt"},{"rune":"O","rune_set":"bacs2","hex":"#f73b6a7A","correct":-1,"choice":32,"rt":649.1349999560043,"accuracy":0,"outcome":"-10","keys":[2149.8150000115857],"total_keys":1,"block":1,"trial":51,"stimulus":6,"robot":4,"valence":"lose","action":"no-go","sham":0,"trial_type":"pit-trial","trial_index":102,"time_elapsed":766571,"internal_node_id":"0.0-58.0","task_version":"battery-v0.2-trt"},{"rune":"C","rune_set":"bacs2","hex":"#f73b6a7A","correct":32,"choice":32,"rt":656.3799999421462,"accuracy":1,"outcome":"-1","keys":[2157.50999993179],"total_keys":1,"block":1,"trial":52,"stimulus":5,"robot":3,"valence":"lose","action":"go","sham":0,"trial_type":"pit-trial","trial_index":103,"time_elapsed":769930,"internal_node_id":"0.0-59.0","task_version":"battery-v0.2-trt"},{"rune":"E","rune_set":"bacs2","hex":"#3366ff99","correct":32,"choice":32,"rt":657.3499999940395,"accuracy":1,"outcome":"+1","keys":[2158.005000092089],"total_keys":1,"block":1,"trial":53,"stimulus":4,"robot":1,"valence":"win","action":"go","sham":1,"trial_type":"pit-trial","trial_index":104,"time_elapsed":773292,"internal_node_id":"0.0-60.0","task_version":"battery-v0.2-trt"},{"rune":"G","rune_set":"bacs2","hex":"#3366ff99","correct":-1,"choice":-1,"rt":-1,"accuracy":1,"outcome":"+10","keys":[],"total_keys":0,"block":1,"trial":54,"stimulus":7,"robot":2,"valence":"win","action":"no-go","sham":0,"trial_type":"pit-trial","trial_index":105,"time_elapsed":777295,"internal_node_id":"0.0-61.0","task_version":"battery-v0.2-trt"},{"rune":"O","rune_set":"bacs2","hex":"#f73b6a7A","correct":-1,"choice":32,"rt":694.6649999590591,"accuracy":0,"outcome":"-1","keys":[2195.1250000856817],"total_keys":1,"block":1,"trial":55,"stimulus":6,"robot":4,"valence":"lose","action":"no-go","sham":1,"trial_type":"pit-trial","trial_index":106,"time_elapsed":780693,"internal_node_id":"0.0-62.0","task_version":"battery-v0.2-trt"},{"rune":"C","rune_set":"bacs2","hex":"#f73b6a7A","correct":32,"choice":32,"rt":584.7350000403821,"accuracy":1,"outcome":"-1","keys":[2085.5549999978393],"total_keys":1,"block":1,"trial":56,"stimulus":5,"robot":3,"valence":"lose","action":"go","sham":0,"trial_type":"pit-trial","trial_index":107,"time_elapsed":783980,"internal_node_id":"0.0-63.0","task_version":"battery-v0.2-trt"},{"rune":"G","rune_set":"bacs2","hex":"#3366ff99","correct":-1,"choice":-1,"rt":-1,"accuracy":1,"outcome":"+10","keys":[],"total_keys":0,"block":1,"trial":57,"stimulus":7,"robot":2,"valence":"win","action":"no-go","sham":0,"trial_type":"pit-trial","trial_index":108,"time_elapsed":787983,"internal_node_id":"0.0-64.0","task_version":"battery-v0.2-trt"},{"rune":"O","rune_set":"bacs2","hex":"#f73b6a7A","correct":-1,"choice":32,"rt":536.1549999797717,"accuracy":0,"outcome":"-10","keys":[2036.4400000544265],"total_keys":1,"block":1,"trial":58,"stimulus":6,"robot":4,"valence":"lose","action":"no-go","sham":0,"trial_type":"pit-trial","trial_index":109,"time_elapsed":791223,"internal_node_id":"0.0-65.0","task_version":"battery-v0.2-trt"},{"rune":"E","rune_set":"bacs2","hex":"#3366ff99","correct":32,"choice":-1,"rt":-1,"accuracy":0,"outcome":"+1","keys":[],"total_keys":0,"block":1,"trial":59,"stimulus":4,"robot":1,"valence":"win","action":"go","sham":0,"trial_type":"pit-trial","trial_index":110,"time_elapsed":795226,"internal_node_id":"0.0-66.0","task_version":"battery-v0.2-trt"},{"rune":"C","rune_set":"bacs2","hex":"#f73b6a7A","correct":32,"choice":32,"rt":1133.3300000987947,"accuracy":1,"outcome":"-10","keys":[2634.734999970533],"total_keys":1,"block":1,"trial":60,"stimulus":5,"robot":3,"valence":"lose","action":"go","sham":1,"trial_type":"pit-trial","trial_index":111,"time_elapsed":799064,"internal_node_id":"0.0-67.0","task_version":"battery-v0.2-trt"},{"rune":"C","rune_set":"bacs2","hex":"#f73b6a7A","correct":32,"choice":-1,"rt":-1,"accuracy":0,"outcome":"-10","keys":[2869.2550000268966],"total_keys":1,"block":1,"trial":61,"stimulus":5,"robot":3,"valence":"lose","action":"go","sham":0,"trial_type":"pit-trial","trial_index":112,"time_elapsed":803068,"internal_node_id":"0.0-68.0","task_version":"battery-v0.2-trt"},{"rune":"E","rune_set":"bacs2","hex":"#3366ff99","correct":32,"choice":32,"rt":939.9249999551103,"accuracy":1,"outcome":"+10","keys":[2441.315000061877],"total_keys":1,"block":1,"trial":62,"stimulus":4,"robot":1,"valence":"win","action":"go","sham":0,"trial_type":"pit-trial","trial_index":113,"time_elapsed":806712,"internal_node_id":"0.0-69.0","task_version":"battery-v0.2-trt"},{"rune":"G","rune_set":"bacs2","hex":"#3366ff99","correct":-1,"choice":-1,"rt":-1,"accuracy":1,"outcome":"+10","keys":[],"total_keys":0,"block":1,"trial":63,"stimulus":7,"robot":2,"valence":"win","action":"no-go","sham":0,"trial_type":"pit-trial","trial_index":114,"time_elapsed":810716,"internal_node_id":"0.0-70.0","task_version":"battery-v0.2-trt"},{"rune":"O","rune_set":"bacs2","hex":"#f73b6a7A","correct":-1,"choice":32,"rt":807.2799999499694,"accuracy":0,"outcome":"-10","keys":[2308.2900000736117],"total_keys":1,"block":1,"trial":64,"stimulus":6,"robot":4,"valence":"lose","action":"no-go","sham":0,"trial_type":"pit-trial","trial_index":115,"time_elapsed":814226,"internal_node_id":"0.0-71.0","task_version":"battery-v0.2-trt"},{"rune":"E","rune_set":"bacs2","hex":"#3366ff99","correct":32,"choice":32,"rt":1159.650000045076,"accuracy":1,"outcome":"+10","keys":[2661.294999998063],"total_keys":1,"block":1,"trial":65,"stimulus":4,"robot":1,"valence":"win","action":"go","sham":0,"trial_type":"pit-trial","trial_index":116,"time_elapsed":818089,"internal_node_id":"0.0-72.0","task_version":"battery-v0.2-trt"},{"rune":"O","rune_set":"bacs2","hex":"#f73b6a7A","correct":-1,"choice":32,"rt":753.9800000376999,"accuracy":0,"outcome":"-10","keys":[2255.1499999826774],"total_keys":1,"block":1,"trial":66,"stimulus":6,"robot":4,"valence":"lose","action":"no-go","sham":0,"trial_type":"pit-trial","trial_index":117,"time_elapsed":821547,"internal_node_id":"0.0-73.0","task_version":"battery-v0.2-trt"},{"rune":"G","rune_set":"bacs2","hex":"#3366ff99","correct":-1,"choice":32,"rt":850.0549999298528,"accuracy":0,"outcome":"+1","keys":[2350.2549999393523],"total_keys":1,"block":1,"trial":67,"stimulus":7,"robot":2,"valence":"win","action":"no-go","sham":0,"trial_type":"pit-trial","trial_index":118,"time_elapsed":825101,"internal_node_id":"0.0-74.0","task_version":"battery-v0.2-trt"},{"rune":"C","rune_set":"bacs2","hex":"#f73b6a7A","correct":32,"choice":-1,"rt":-1,"accuracy":0,"outcome":"-10","keys":[],"total_keys":0,"block":1,"trial":68,"stimulus":5,"robot":3,"valence":"lose","action":"go","sham":0,"trial_type":"pit-trial","trial_index":119,"time_elapsed":829106,"internal_node_id":"0.0-75.0","task_version":"battery-v0.2-trt"},{"rune":"O","rune_set":"bacs2","hex":"#f73b6a7A","correct":-1,"choice":32,"rt":732.2799999965355,"accuracy":0,"outcome":"-10","keys":[2232.785000000149],"total_keys":1,"block":1,"trial":69,"stimulus":6,"robot":4,"valence":"lose","action":"no-go","sham":0,"trial_type":"pit-trial","trial_index":120,"time_elapsed":832541,"internal_node_id":"0.0-76.0","task_version":"battery-v0.2-trt"},{"rune":"E","rune_set":"bacs2","hex":"#3366ff99","correct":32,"choice":32,"rt":808.0849999096245,"accuracy":1,"outcome":"+10","keys":[2309.5599999651313],"total_keys":1,"block":1,"trial":70,"stimulus":4,"robot":1,"valence":"win","action":"go","sham":0,"trial_type":"pit-trial","trial_index":121,"time_elapsed":836053,"internal_node_id":"0.0-77.0","task_version":"battery-v0.2-trt"},{"rune":"G","rune_set":"bacs2","hex":"#3366ff99","correct":-1,"choice":-1,"rt":-1,"accuracy":1,"outcome":"+10","keys":[],"total_keys":0,"block":1,"trial":71,"stimulus":7,"robot":2,"valence":"win","action":"no-go","sham":0,"trial_type":"pit-trial","trial_index":122,"time_elapsed":840056,"internal_node_id":"0.0-78.0","task_version":"battery-v0.2-trt"},{"rune":"C","rune_set":"bacs2","hex":"#f73b6a7A","correct":32,"choice":32,"rt":839.4899999257177,"accuracy":1,"outcome":"-1","keys":[2339.7750000003725],"total_keys":1,"block":1,"trial":72,"stimulus":5,"robot":3,"valence":"lose","action":"go","sham":0,"trial_type":"pit-trial","trial_index":123,"time_elapsed":843597,"internal_node_id":"0.0-79.0","task_version":"battery-v0.2-trt"},{"rune":"E","rune_set":"bacs2","hex":"#3366ff99","correct":32,"choice":-1,"rt":-1,"accuracy":0,"outcome":"+10","keys":[],"total_keys":0,"block":1,"trial":73,"stimulus":4,"robot":1,"valence":"win","action":"go","sham":1,"trial_type":"pit-trial","trial_index":124,"time_elapsed":847601,"internal_node_id":"0.0-80.0","task_version":"battery-v0.2-trt"},{"rune":"G","rune_set":"bacs2","hex":"#3366ff99","correct":-1,"choice":-1,"rt":-1,"accuracy":1,"outcome":"+10","keys":[],"total_keys":0,"block":1,"trial":74,"stimulus":7,"robot":2,"valence":"win","action":"no-go","sham":0,"trial_type":"pit-trial","trial_index":125,"time_elapsed":851605,"internal_node_id":"0.0-81.0","task_version":"battery-v0.2-trt"},{"rune":"O","rune_set":"bacs2","hex":"#f73b6a7A","correct":-1,"choice":32,"rt":987.1499999426305,"accuracy":0,"outcome":"-10","keys":[2487.7500000875443],"total_keys":1,"block":1,"trial":75,"stimulus":6,"robot":4,"valence":"lose","action":"no-go","sham":0,"trial_type":"pit-trial","trial_index":126,"time_elapsed":855296,"internal_node_id":"0.0-82.0","task_version":"battery-v0.2-trt"},{"rune":"Z","rune_set":"bacs2","hex":"#f73b6a7A","correct":32,"choice":-1,"rt":-1,"accuracy":0,"outcome":"-10","keys":[3420.979999937117],"total_keys":1,"block":1,"trial":76,"stimulus":8,"robot":3,"valence":"lose","action":"go","sham":0,"trial_type":"pit-trial","trial_index":127,"time_elapsed":859301,"internal_node_id":"0.0-83.0","task_version":"battery-v0.2-trt"},{"rune":"O","rune_set":"bacs2","hex":"#f73b6a7A","correct":-1,"choice":32,"rt":572.8149999631569,"accuracy":0,"outcome":"-10","keys":[2073.355000000447],"total_keys":1,"block":1,"trial":77,"stimulus":6,"robot":4,"valence":"lose","action":"no-go","sham":0,"trial_type":"pit-trial","trial_index":128,"time_elapsed":862577,"internal_node_id":"0.0-84.0","task_version":"battery-v0.2-trt"},{"rune":"G","rune_set":"bacs2","hex":"#3366ff99","correct":-1,"choice":-1,"rt":-1,"accuracy":1,"outcome":"+10","keys":[],"total_keys":0,"block":1,"trial":78,"stimulus":7,"robot":2,"valence":"win","action":"no-go","sham":0,"trial_type":"pit-trial","trial_index":129,"time_elapsed":866580,"internal_node_id":"0.0-85.0","task_version":"battery-v0.2-trt"},{"rune":"Z","rune_set":"bacs2","hex":"#f73b6a7A","correct":32,"choice":32,"rt":806.2850000569597,"accuracy":1,"outcome":"-1","keys":[2307.5299999909475],"total_keys":1,"block":1,"trial":79,"stimulus":8,"robot":3,"valence":"lose","action":"go","sham":0,"trial_type":"pit-trial","trial_index":130,"time_elapsed":870091,"internal_node_id":"0.0-86.0","task_version":"battery-v0.2-trt"},{"rune":"E","rune_set":"bacs2","hex":"#3366ff99","correct":32,"choice":-1,"rt":-1,"accuracy":0,"outcome":"+1","keys":[],"total_keys":0,"block":1,"trial":80,"stimulus":4,"robot":1,"valence":"win","action":"go","sham":0,"trial_type":"pit-trial","trial_index":131,"time_elapsed":874096,"internal_node_id":"0.0-87.0","task_version":"battery-v0.2-trt"},{"rune":"Z","rune_set":"bacs2","hex":"#f73b6a7A","correct":32,"choice":32,"rt":955.8800000231713,"accuracy":1,"outcome":"-1","keys":[2456.030000001192],"total_keys":1,"block":1,"trial":81,"stimulus":8,"robot":3,"valence":"lose","action":"go","sham":0,"trial_type":"pit-trial","trial_index":132,"time_elapsed":877754,"internal_node_id":"0.0-88.0","task_version":"battery-v0.2-trt"},{"rune":"X","rune_set":"bacs2","hex":"#f73b6a7A","correct":32,"choice":32,"rt":937.9149999003857,"accuracy":1,"outcome":"-1","keys":[2438.200000091456],"total_keys":1,"block":1,"trial":82,"stimulus":9,"robot":3,"valence":"lose","action":"go","sham":0,"trial_type":"pit-trial","trial_index":133,"time_elapsed":881396,"internal_node_id":"0.0-89.0","task_version":"battery-v0.2-trt"},{"rune":"O","rune_set":"bacs2","hex":"#f73b6a7A","correct":-1,"choice":-1,"rt":-1,"accuracy":1,"outcome":"-1","keys":[],"total_keys":0,"block":1,"trial":83,"stimulus":6,"robot":4,"valence":"lose","action":"no-go","sham":0,"trial_type":"pit-trial","trial_index":134,"time_elapsed":885399,"internal_node_id":"0.0-90.0","task_version":"battery-v0.2-trt"},{"rune":"G","rune_set":"bacs2","hex":"#3366ff99","correct":-1,"choice":32,"rt":1101.9300000043586,"accuracy":0,"outcome":"+1","keys":[2602.519999956712],"total_keys":1,"block":1,"trial":84,"stimulus":7,"robot":2,"valence":"win","action":"no-go","sham":0,"trial_type":"pit-trial","trial_index":135,"time_elapsed":889206,"internal_node_id":"0.0-91.0","task_version":"battery-v0.2-trt"},{"rune":"O","rune_set":"bacs2","hex":"#f73b6a7A","correct":-1,"choice":32,"rt":687.804999994114,"accuracy":0,"outcome":"-10","keys":[2188.594999955967],"total_keys":1,"block":1,"trial":85,"stimulus":6,"robot":4,"valence":"lose","action":"no-go","sham":0,"trial_type":"pit-trial","trial_index":136,"time_elapsed":892596,"internal_node_id":"0.0-92.0","task_version":"battery-v0.2-trt"},{"rune":"G","rune_set":"bacs2","hex":"#3366ff99","correct":-1,"choice":32,"rt":874.6650000102818,"accuracy":0,"outcome":"+1","keys":[2374.775000032969],"total_keys":1,"block":1,"trial":86,"stimulus":7,"robot":2,"valence":"win","action":"no-go","sham":0,"trial_type":"pit-trial","trial_index":137,"time_elapsed":896173,"internal_node_id":"0.0-93.0","task_version":"battery-v0.2-trt"},{"rune":"X","rune_set":"bacs2","hex":"#f73b6a7A","correct":32,"choice":32,"rt":921.8250000849366,"accuracy":1,"outcome":"-1","keys":[2422.305000014603],"total_keys":1,"block":1,"trial":87,"stimulus":9,"robot":3,"valence":"lose","action":"go","sham":0,"trial_type":"pit-trial","trial_index":138,"time_elapsed":899798,"internal_node_id":"0.0-94.0","task_version":"battery-v0.2-trt"},{"rune":"Z","rune_set":"bacs2","hex":"#f73b6a7A","correct":32,"choice":32,"rt":761.8399999337271,"accuracy":1,"outcome":"-1","keys":[2262.374999932945],"total_keys":1,"block":1,"trial":88,"stimulus":8,"robot":3,"valence":"lose","action":"go","sham":0,"trial_type":"pit-trial","trial_index":139,"time_elapsed":903263,"internal_node_id":"0.0-95.0","task_version":"battery-v0.2-trt"},{"rune":"X","rune_set":"bacs2","hex":"#f73b6a7A","correct":32,"choice":32,"rt":888.2599999196827,"accuracy":1,"outcome":"-1","keys":[2389.7349999751896],"total_keys":1,"block":1,"trial":89,"stimulus":9,"robot":3,"valence":"lose","action":"go","sham":0,"trial_type":"pit-trial","trial_index":140,"time_elapsed":906855,"internal_node_id":"0.0-96.0","task_version":"battery-v0.2-trt"},{"rune":"W","rune_set":"bacs2","hex":"#f73b6a7A","correct":-1,"choice":-1,"rt":-1,"accuracy":1,"outcome":"-1","keys":[],"total_keys":0,"block":1,"trial":90,"stimulus":10,"robot":4,"valence":"lose","action":"no-go","sham":0,"trial_type":"pit-trial","trial_index":141,"time_elapsed":910858,"internal_node_id":"0.0-97.0","task_version":"battery-v0.2-trt"},{"rune":"Z","rune_set":"bacs2","hex":"#f73b6a7A","correct":32,"choice":32,"rt":629.9499999731779,"accuracy":1,"outcome":"-1","keys":[2131.690000067465],"total_keys":1,"block":1,"trial":91,"stimulus":8,"robot":3,"valence":"lose","action":"go","sham":0,"trial_type":"pit-trial","trial_index":142,"time_elapsed":914191,"internal_node_id":"0.0-98.0","task_version":"battery-v0.2-trt"},{"rune":"J","rune_set":"bacs2","hex":"#3366ff99","correct":-1,"choice":-1,"rt":-1,"accuracy":1,"outcome":"+10","keys":[],"total_keys":0,"block":1,"trial":92,"stimulus":11,"robot":2,"valence":"win","action":"no-go","sham":0,"trial_type":"pit-trial","trial_index":143,"time_elapsed":918194,"internal_node_id":"0.0-99.0","task_version":"battery-v0.2-trt"},{"rune":"X","rune_set":"bacs2","hex":"#f73b6a7A","correct":32,"choice":32,"rt":823.2250000583008,"accuracy":1,"outcome":"-1","keys":[2324.184999917634],"total_keys":1,"block":1,"trial":93,"stimulus":9,"robot":3,"valence":"lose","action":"go","sham":0,"trial_type":"pit-trial","trial_index":144,"time_elapsed":921721,"internal_node_id":"0.0-100.0","task_version":"battery-v0.2-trt"},{"rune":"J","rune_set":"bacs2","hex":"#3366ff99","correct":-1,"choice":32,"rt":1250.3199999919161,"accuracy":0,"outcome":"+1","keys":[2750.4949999274686],"total_keys":1,"block":1,"trial":94,"stimulus":11,"robot":2,"valence":"win","action":"no-go","sham":0,"trial_type":"pit-trial","trial_index":145,"time_elapsed":925674,"internal_node_id":"0.0-101.0","task_version":"battery-v0.2-trt"},{"rune":"Z","rune_set":"bacs2","hex":"#f73b6a7A","correct":32,"choice":32,"rt":504.65999997686595,"accuracy":1,"outcome":"-1","keys":[2005.100000067614],"total_keys":1,"block":1,"trial":95,"stimulus":8,"robot":3,"valence":"lose","action":"go","sham":0,"trial_type":"pit-trial","trial_index":146,"time_elapsed":928881,"internal_node_id":"0.0-102.0","task_version":"battery-v0.2-trt"},{"rune":"W","rune_set":"bacs2","hex":"#f73b6a7A","correct":-1,"choice":32,"rt":882.0400000549853,"accuracy":0,"outcome":"-10","keys":[2383.6900000460446],"total_keys":1,"block":1,"trial":96,"stimulus":10,"robot":4,"valence":"lose","action":"no-go","sham":0,"trial_type":"pit-trial","trial_index":147,"time_elapsed":932468,"internal_node_id":"0.0-103.0","task_version":"battery-v0.2-trt"},{"rune":"W","rune_set":"bacs2","hex":"#f73b6a7A","correct":-1,"choice":-1,"rt":-1,"accuracy":1,"outcome":"-1","keys":[],"total_keys":0,"block":1,"trial":97,"stimulus":10,"robot":4,"valence":"lose","action":"no-go","sham":0,"trial_type":"pit-trial","trial_index":148,"time_elapsed":936471,"internal_node_id":"0.0-104.0","task_version":"battery-v0.2-trt"},{"rune":"J","rune_set":"bacs2","hex":"#3366ff99","correct":-1,"choice":-1,"rt":-1,"accuracy":1,"outcome":"+10","keys":[],"total_keys":0,"block":1,"trial":98,"stimulus":11,"robot":2,"valence":"win","action":"no-go","sham":0,"trial_type":"pit-trial","trial_index":149,"time_elapsed":940474,"internal_node_id":"0.0-105.0","task_version":"battery-v0.2-trt"},{"rune":"X","rune_set":"bacs2","hex":"#f73b6a7A","correct":32,"choice":-1,"rt":-1,"accuracy":0,"outcome":"-1","keys":[],"total_keys":0,"block":1,"trial":99,"stimulus":9,"robot":3,"valence":"lose","action":"go","sham":1,"trial_type":"pit-trial","trial_index":150,"time_elapsed":944477,"internal_node_id":"0.0-106.0","task_version":"battery-v0.2-trt"},{"rune":"Z","rune_set":"bacs2","hex":"#f73b6a7A","correct":32,"choice":32,"rt":705.045000067912,"accuracy":1,"outcome":"-10","keys":[2205.6649998994544],"total_keys":1,"block":1,"trial":100,"stimulus":8,"robot":3,"valence":"lose","action":"go","sham":1,"trial_type":"pit-trial","trial_index":151,"time_elapsed":947884,"internal_node_id":"0.0-107.0","task_version":"battery-v0.2-trt"},{"rune":"X","rune_set":"bacs2","hex":"#f73b6a7A","correct":32,"choice":-1,"rt":-1,"accuracy":0,"outcome":"-10","keys":[],"total_keys":0,"block":1,"trial":101,"stimulus":9,"robot":3,"valence":"lose","action":"go","sham":0,"trial_type":"pit-trial","trial_index":152,"time_elapsed":951888,"internal_node_id":"0.0-108.0","task_version":"battery-v0.2-trt"},{"rune":"J","rune_set":"bacs2","hex":"#3366ff99","correct":-1,"choice":-1,"rt":-1,"accuracy":1,"outcome":"+10","keys":[],"total_keys":0,"block":1,"trial":102,"stimulus":11,"robot":2,"valence":"win","action":"no-go","sham":0,"trial_type":"pit-trial","trial_index":153,"time_elapsed":955892,"internal_node_id":"0.0-109.0","task_version":"battery-v0.2-trt"},{"rune":"Z","rune_set":"bacs2","hex":"#f73b6a7A","correct":32,"choice":-1,"rt":-1,"accuracy":0,"outcome":"-10","keys":[],"total_keys":0,"block":1,"trial":103,"stimulus":8,"robot":3,"valence":"lose","action":"go","sham":0,"trial_type":"pit-trial","trial_index":154,"time_elapsed":959895,"internal_node_id":"0.0-110.0","task_version":"battery-v0.2-trt"},{"rune":"W","rune_set":"bacs2","hex":"#f73b6a7A","correct":-1,"choice":-1,"rt":-1,"accuracy":1,"outcome":"-1","keys":[],"total_keys":0,"block":1,"trial":104,"stimulus":10,"robot":4,"valence":"lose","action":"no-go","sham":0,"trial_type":"pit-trial","trial_index":155,"time_elapsed":963898,"internal_node_id":"0.0-111.0","task_version":"battery-v0.2-trt"},{"rune":"W","rune_set":"bacs2","hex":"#f73b6a7A","correct":-1,"choice":-1,"rt":-1,"accuracy":1,"outcome":"-1","keys":[],"total_keys":0,"block":1,"trial":105,"stimulus":10,"robot":4,"valence":"lose","action":"no-go","sham":0,"trial_type":"pit-trial","trial_index":156,"time_elapsed":967901,"internal_node_id":"0.0-112.0","task_version":"battery-v0.2-trt"},{"rune":"X","rune_set":"bacs2","hex":"#f73b6a7A","correct":32,"choice":32,"rt":986.9800000451505,"accuracy":1,"outcome":"-1","keys":[2487.9600000567734],"total_keys":1,"block":1,"trial":106,"stimulus":9,"robot":3,"valence":"lose","action":"go","sham":0,"trial_type":"pit-trial","trial_index":157,"time_elapsed":971592,"internal_node_id":"0.0-113.0","task_version":"battery-v0.2-trt"},{"rune":"Z","rune_set":"bacs2","hex":"#f73b6a7A","correct":32,"choice":32,"rt":689.6650000708178,"accuracy":1,"outcome":"-10","keys":[2190.6050000106916],"total_keys":1,"block":1,"trial":107,"stimulus":8,"robot":3,"valence":"lose","action":"go","sham":1,"trial_type":"pit-trial","trial_index":158,"time_elapsed":974984,"internal_node_id":"0.0-114.0","task_version":"battery-v0.2-trt"},{"rune":"J","rune_set":"bacs2","hex":"#3366ff99","correct":-1,"choice":-1,"rt":-1,"accuracy":1,"outcome":"+10","keys":[],"total_keys":0,"block":1,"trial":108,"stimulus":11,"robot":2,"valence":"win","action":"no-go","sham":0,"trial_type":"pit-trial","trial_index":159,"time_elapsed":978988,"internal_node_id":"0.0-115.0","task_version":"battery-v0.2-trt"},{"rune":"X","rune_set":"bacs2","hex":"#f73b6a7A","correct":32,"choice":-1,"rt":-1,"accuracy":0,"outcome":"-10","keys":[],"total_keys":0,"block":1,"trial":109,"stimulus":9,"robot":3,"valence":"lose","action":"go","sham":0,"trial_type":"pit-trial","trial_index":160,"time_elapsed":982992,"internal_node_id":"0.0-116.0","task_version":"battery-v0.2-trt"},{"rune":"Z","rune_set":"bacs2","hex":"#f73b6a7A","correct":32,"choice":-1,"rt":-1,"accuracy":0,"outcome":"-1","keys":[],"total_keys":0,"block":1,"trial":110,"stimulus":8,"robot":3,"valence":"lose","action":"go","sham":1,"trial_type":"pit-trial","trial_index":161,"time_elapsed":986995,"internal_node_id":"0.0-117.0","task_version":"battery-v0.2-trt"},{"rune":"J","rune_set":"bacs2","hex":"#3366ff99","correct":-1,"choice":-1,"rt":-1,"accuracy":1,"outcome":"+10","keys":[],"total_keys":0,"block":1,"trial":111,"stimulus":11,"robot":2,"valence":"win","action":"no-go","sham":0,"trial_type":"pit-trial","trial_index":162,"time_elapsed":991000,"internal_node_id":"0.0-118.0","task_version":"battery-v0.2-trt"},{"rune":"W","rune_set":"bacs2","hex":"#f73b6a7A","correct":-1,"choice":-1,"rt":-1,"accuracy":1,"outcome":"-1","keys":[],"total_keys":0,"block":1,"trial":112,"stimulus":10,"robot":4,"valence":"lose","action":"no-go","sham":0,"trial_type":"pit-trial","trial_index":163,"time_elapsed":995005,"internal_node_id":"0.0-119.0","task_version":"battery-v0.2-trt"},{"rune":"J","rune_set":"bacs2","hex":"#3366ff99","correct":-1,"choice":-1,"rt":-1,"accuracy":1,"outcome":"+1","keys":[],"total_keys":0,"block":1,"trial":113,"stimulus":11,"robot":2,"valence":"win","action":"no-go","sham":1,"trial_type":"pit-trial","trial_index":164,"time_elapsed":999008,"internal_node_id":"0.0-120.0","task_version":"battery-v0.2-trt"},{"rune":"X","rune_set":"bacs2","hex":"#f73b6a7A","correct":32,"choice":32,"rt":1108.9550000615418,"accuracy":1,"outcome":"-1","keys":[2610.039999941364],"total_keys":1,"block":1,"trial":114,"stimulus":9,"robot":3,"valence":"lose","action":"go","sham":0,"trial_type":"pit-trial","trial_index":165,"time_elapsed":1002820,"internal_node_id":"0.0-121.0","task_version":"battery-v0.2-trt"},{"rune":"Z","rune_set":"bacs2","hex":"#f73b6a7A","correct":32,"choice":32,"rt":656.7899999208748,"accuracy":1,"outcome":"-1","keys":[2157.275000005029],"total_keys":1,"block":1,"trial":115,"stimulus":8,"robot":3,"valence":"lose","action":"go","sham":0,"trial_type":"pit-trial","trial_index":166,"time_elapsed":1006181,"internal_node_id":"0.0-122.0","task_version":"battery-v0.2-trt"},{"rune":"W","rune_set":"bacs2","hex":"#f73b6a7A","correct":-1,"choice":-1,"rt":-1,"accuracy":1,"outcome":"-10","keys":[],"total_keys":0,"block":1,"trial":116,"stimulus":10,"robot":4,"valence":"lose","action":"no-go","sham":1,"trial_type":"pit-trial","trial_index":167,"time_elapsed":1010184,"internal_node_id":"0.0-123.0","task_version":"battery-v0.2-trt"},{"rune":"Z","rune_set":"bacs2","hex":"#f73b6a7A","correct":32,"choice":32,"rt":654.3049999745563,"accuracy":1,"outcome":"-1","keys":[2154.895000043325],"total_keys":1,"block":1,"trial":117,"stimulus":8,"robot":3,"valence":"lose","action":"go","sham":0,"trial_type":"pit-trial","trial_index":168,"time_elapsed":1013541,"internal_node_id":"0.0-124.0","task_version":"battery-v0.2-trt"},{"rune":"W","rune_set":"bacs2","hex":"#f73b6a7A","correct":-1,"choice":-1,"rt":-1,"accuracy":1,"outcome":"-1","keys":[],"total_keys":0,"block":1,"trial":118,"stimulus":10,"robot":4,"valence":"lose","action":"no-go","sham":0,"trial_type":"pit-trial","trial_index":169,"time_elapsed":1017544,"internal_node_id":"0.0-125.0","task_version":"battery-v0.2-trt"},{"rune":"X","rune_set":"bacs2","hex":"#f73b6a7A","correct":32,"choice":32,"rt":624.3000000249594,"accuracy":1,"outcome":"-1","keys":[2125.0749999890104],"total_keys":1,"block":1,"trial":119,"stimulus":9,"robot":3,"valence":"lose","action":"go","sham":0,"trial_type":"pit-trial","trial_index":170,"time_elapsed":1020871,"internal_node_id":"0.0-126.0","task_version":"battery-v0.2-trt"},{"rune":"J","rune_set":"bacs2","hex":"#3366ff99","correct":-1,"choice":-1,"rt":-1,"accuracy":1,"outcome":"+10","keys":[],"total_keys":0,"block":1,"trial":120,"stimulus":11,"robot":2,"valence":"win","action":"no-go","sham":0,"trial_type":"pit-trial","trial_index":171,"time_elapsed":1024874,"internal_node_id":"0.0-127.0","task_version":"battery-v0.2-trt"},{"view_history":"[{\"page_index\":0,\"viewing_time\":51437.460000044666},{\"page_index\":1,\"viewing_time\":5024.834999931045}]","rt":56462.799999979325,"trial_type":"pit-instructions","trial_index":172,"time_elapsed":1081337,"internal_node_id":"0.0-128.0","task_version":"battery-v0.2-trt"},{"rune":"B","rune_set":"bacs2","hex":"#f73b6a7A","correct":-1,"choice":32,"rt":550.6450000684708,"accuracy":0,"outcome":"-10","keys":[2050.840000039898],"total_keys":1,"block":2,"trial":121,"stimulus":1,"robot":4,"valence":"lose","action":"no-go","sham":0,"trial_type":"pit-trial","trial_index":173,"time_elapsed":1084591,"internal_node_id":"0.0-129.0","task_version":"battery-v0.2-trt"},{"rune":"K","rune_set":"bacs2","hex":"#3366ff99","correct":32,"choice":-1,"rt":-1,"accuracy":0,"outcome":"+1","keys":[],"total_keys":0,"block":2,"trial":122,"stimulus":2,"robot":1,"valence":"win","action":"go","sham":0,"trial_type":"pit-trial","trial_index":174,"time_elapsed":1088594,"internal_node_id":"0.0-130.0","task_version":"battery-v0.2-trt"},{"rune":"V","rune_set":"bacs2","hex":"#3366ff99","correct":-1,"choice":-1,"rt":-1,"accuracy":1,"outcome":"+10","keys":[],"total_keys":0,"block":2,"trial":123,"stimulus":3,"robot":2,"valence":"win","action":"no-go","sham":0,"trial_type":"pit-trial","trial_index":175,"time_elapsed":1092598,"internal_node_id":"0.0-131.0","task_version":"battery-v0.2-trt"},{"rune":"M","rune_set":"bacs2","hex":"#f73b6a7A","correct":-1,"choice":-1,"rt":-1,"accuracy":1,"outcome":"-1","keys":[],"total_keys":0,"block":2,"trial":124,"stimulus":0,"robot":4,"valence":"lose","action":"no-go","sham":0,"trial_type":"pit-trial","trial_index":176,"time_elapsed":1096602,"internal_node_id":"0.0-132.0","task_version":"battery-v0.2-trt"},{"rune":"B","rune_set":"bacs2","hex":"#f73b6a7A","correct":-1,"choice":32,"rt":752.6500000385568,"accuracy":0,"outcome":"-10","keys":[2254.575000028126],"total_keys":1,"block":2,"trial":125,"stimulus":1,"robot":4,"valence":"lose","action":"no-go","sham":0,"trial_type":"pit-trial","trial_index":177,"time_elapsed":1100058,"internal_node_id":"0.0-133.0","task_version":"battery-v0.2-trt"},{"rune":"K","rune_set":"bacs2","hex":"#3366ff99","correct":32,"choice":32,"rt":663.5799999348819,"accuracy":1,"outcome":"+10","keys":[2165.739999967627],"total_keys":1,"block":2,"trial":126,"stimulus":2,"robot":1,"valence":"win","action":"go","sham":0,"trial_type":"pit-trial","trial_index":178,"time_elapsed":1103426,"internal_node_id":"0.0-134.0","task_version":"battery-v0.2-trt"},{"rune":"M","rune_set":"bacs2","hex":"#f73b6a7A","correct":-1,"choice":32,"rt":729.7999999718741,"accuracy":0,"outcome":"-10","keys":[2230.6500000413507],"total_keys":1,"block":2,"trial":127,"stimulus":0,"robot":4,"valence":"lose","action":"no-go","sham":0,"trial_type":"pit-trial","trial_index":179,"time_elapsed":1106860,"internal_node_id":"0.0-135.0","task_version":"battery-v0.2-trt"},{"rune":"V","rune_set":"bacs2","hex":"#3366ff99","correct":-1,"choice":-1,"rt":-1,"accuracy":1,"outcome":"+10","keys":[],"total_keys":0,"block":2,"trial":128,"stimulus":3,"robot":2,"valence":"win","action":"no-go","sham":0,"trial_type":"pit-trial","trial_index":180,"time_elapsed":1110863,"internal_node_id":"0.0-136.0","task_version":"battery-v0.2-trt"},{"rune":"B","rune_set":"bacs2","hex":"#f73b6a7A","correct":-1,"choice":32,"rt":589.7399999666959,"accuracy":0,"outcome":"-10","keys":[2090.4500000178814],"total_keys":1,"block":2,"trial":129,"stimulus":1,"robot":4,"valence":"lose","action":"no-go","sham":0,"trial_type":"pit-trial","trial_index":181,"time_elapsed":1114156,"internal_node_id":"0.0-137.0","task_version":"battery-v0.2-trt"},{"rune":"K","rune_set":"bacs2","hex":"#3366ff99","correct":32,"choice":32,"rt":1207.5349999358878,"accuracy":1,"outcome":"+10","keys":[2709.1599999694154],"total_keys":1,"block":2,"trial":130,"stimulus":2,"robot":1,"valence":"win","action":"go","sham":0,"trial_type":"pit-trial","trial_index":182,"time_elapsed":1118070,"internal_node_id":"0.0-138.0","task_version":"battery-v0.2-trt"},{"rune":"M","rune_set":"bacs2","hex":"#f73b6a7A","correct":-1,"choice":32,"rt":1263.8750000623986,"accuracy":0,"outcome":"-10","keys":[2764.8700000718236],"total_keys":1,"block":2,"trial":131,"stimulus":0,"robot":4,"valence":"lose","action":"no-go","sham":0,"trial_type":"pit-trial","trial_index":183,"time_elapsed":1122036,"internal_node_id":"0.0-139.0","task_version":"battery-v0.2-trt"},{"rune":"V","rune_set":"bacs2","hex":"#3366ff99","correct":-1,"choice":-1,"rt":-1,"accuracy":1,"outcome":"+1","keys":[],"total_keys":0,"block":2,"trial":132,"stimulus":3,"robot":2,"valence":"win","action":"no-go","sham":1,"trial_type":"pit-trial","trial_index":184,"time_elapsed":1126042,"internal_node_id":"0.0-140.0","task_version":"battery-v0.2-trt"},{"rune":"V","rune_set":"bacs2","hex":"#3366ff99","correct":-1,"choice":32,"rt":549.9899999704212,"accuracy":0,"outcome":"+1","keys":[2050.6400000303984],"total_keys":1,"block":2,"trial":133,"stimulus":3,"robot":2,"valence":"win","action":"no-go","sham":0,"trial_type":"pit-trial","trial_index":185,"time_elapsed":1129295,"internal_node_id":"0.0-141.0","task_version":"battery-v0.2-trt"},{"rune":"K","rune_set":"bacs2","hex":"#3366ff99","correct":32,"choice":-1,"rt":-1,"accuracy":0,"outcome":"+10","keys":[],"total_keys":0,"block":2,"trial":134,"stimulus":2,"robot":1,"valence":"win","action":"go","sham":1,"trial_type":"pit-trial","trial_index":186,"time_elapsed":1133298,"internal_node_id":"0.0-142.0","task_version":"battery-v0.2-trt"},{"rune":"M","rune_set":"bacs2","hex":"#f73b6a7A","correct":-1,"choice":-1,"rt":-1,"accuracy":1,"outcome":"-1","keys":[2882.9449999611825],"total_keys":1,"block":2,"trial":135,"stimulus":0,"robot":4,"valence":"lose","action":"no-go","sham":0,"trial_type":"pit-trial","trial_index":187,"time_elapsed":1137302,"internal_node_id":"0.0-143.0","task_version":"battery-v0.2-trt"},{"rune":"B","rune_set":"bacs2","hex":"#f73b6a7A","correct":-1,"choice":32,"rt":587.7999999793246,"accuracy":0,"outcome":"-10","keys":[2087.805000017397],"total_keys":1,"block":2,"trial":136,"stimulus":1,"robot":4,"valence":"lose","action":"no-go","sham":0,"trial_type":"pit-trial","trial_index":188,"time_elapsed":1140593,"internal_node_id":"0.0-144.0","task_version":"battery-v0.2-trt"},{"rune":"V","rune_set":"bacs2","hex":"#3366ff99","correct":-1,"choice":32,"rt":607.920000096783,"accuracy":0,"outcome":"+1","keys":[2109.030000050552],"total_keys":1,"block":2,"trial":137,"stimulus":3,"robot":2,"valence":"win","action":"no-go","sham":0,"trial_type":"pit-trial","trial_index":189,"time_elapsed":1143905,"internal_node_id":"0.0-145.0","task_version":"battery-v0.2-trt"},{"rune":"M","rune_set":"bacs2","hex":"#f73b6a7A","correct":-1,"choice":-1,"rt":-1,"accuracy":1,"outcome":"-1","keys":[3197.234999970533],"total_keys":1,"block":2,"trial":138,"stimulus":0,"robot":4,"valence":"lose","action":"no-go","sham":0,"trial_type":"pit-trial","trial_index":190,"time_elapsed":1147908,"internal_node_id":"0.0-146.0","task_version":"battery-v0.2-trt"},{"rune":"B","rune_set":"bacs2","hex":"#f73b6a7A","correct":-1,"choice":32,"rt":759.7950000781566,"accuracy":0,"outcome":"-10","keys":[2260.5499998899177],"total_keys":1,"block":2,"trial":139,"stimulus":1,"robot":4,"valence":"lose","action":"no-go","sham":0,"trial_type":"pit-trial","trial_index":191,"time_elapsed":1151372,"internal_node_id":"0.0-147.0","task_version":"battery-v0.2-trt"},{"rune":"K","rune_set":"bacs2","hex":"#3366ff99","correct":32,"choice":32,"rt":1183.5149999242276,"accuracy":1,"outcome":"+10","keys":[2684.914999990724],"total_keys":1,"block":2,"trial":140,"stimulus":2,"robot":1,"valence":"win","action":"go","sham":0,"trial_type":"pit-trial","trial_index":192,"time_elapsed":1155260,"internal_node_id":"0.0-148.0","task_version":"battery-v0.2-trt"},{"rune":"B","rune_set":"bacs2","hex":"#f73b6a7A","correct":-1,"choice":32,"rt":959.764999919571,"accuracy":0,"outcome":"-10","keys":[2460.969999898225],"total_keys":1,"block":2,"trial":141,"stimulus":1,"robot":4,"valence":"lose","action":"no-go","sham":0,"trial_type":"pit-trial","trial_index":193,"time_elapsed":1158924,"internal_node_id":"0.0-149.0","task_version":"battery-v0.2-trt"},{"rune":"K","rune_set":"bacs2","hex":"#3366ff99","correct":32,"choice":32,"rt":1088.0350000225008,"accuracy":1,"outcome":"+10","keys":[2589.0049999579787],"total_keys":1,"block":2,"trial":142,"stimulus":2,"robot":1,"valence":"win","action":"go","sham":0,"trial_type":"pit-trial","trial_index":194,"time_elapsed":1162716,"internal_node_id":"0.0-150.0","task_version":"battery-v0.2-trt"},{"rune":"V","rune_set":"bacs2","hex":"#3366ff99","correct":-1,"choice":-1,"rt":-1,"accuracy":1,"outcome":"+10","keys":[],"total_keys":0,"block":2,"trial":143,"stimulus":3,"robot":2,"valence":"win","action":"no-go","sham":0,"trial_type":"pit-trial","trial_index":195,"time_elapsed":1166718,"internal_node_id":"0.0-151.0","task_version":"battery-v0.2-trt"},{"rune":"M","rune_set":"bacs2","hex":"#f73b6a7A","correct":-1,"choice":32,"rt":974.5100000873208,"accuracy":0,"outcome":"-10","keys":[2475.8499999297783],"total_keys":1,"block":2,"trial":144,"stimulus":0,"robot":4,"valence":"lose","action":"no-go","sham":0,"trial_type":"pit-trial","trial_index":196,"time_elapsed":1170396,"internal_node_id":"0.0-152.0","task_version":"battery-v0.2-trt"},{"rune":"K","rune_set":"bacs2","hex":"#3366ff99","correct":32,"choice":32,"rt":631.9149999180809,"accuracy":1,"outcome":"+10","keys":[2133.490000036545],"total_keys":1,"block":2,"trial":145,"stimulus":2,"robot":1,"valence":"win","action":"go","sham":0,"trial_type":"pit-trial","trial_index":197,"time_elapsed":1173732,"internal_node_id":"0.0-153.0","task_version":"battery-v0.2-trt"},{"rune":"V","rune_set":"bacs2","hex":"#3366ff99","correct":-1,"choice":-1,"rt":-1,"accuracy":1,"outcome":"+1","keys":[],"total_keys":0,"block":2,"trial":146,"stimulus":3,"robot":2,"valence":"win","action":"no-go","sham":1,"trial_type":"pit-trial","trial_index":198,"time_elapsed":1177734,"internal_node_id":"0.0-154.0","task_version":"battery-v0.2-trt"},{"rune":"B","rune_set":"bacs2","hex":"#f73b6a7A","correct":-1,"choice":32,"rt":887.9799999995157,"accuracy":0,"outcome":"-1","keys":[2389.395000063814],"total_keys":1,"block":2,"trial":147,"stimulus":1,"robot":4,"valence":"lose","action":"no-go","sham":1,"trial_type":"pit-trial","trial_index":199,"time_elapsed":1181327,"internal_node_id":"0.0-155.0","task_version":"battery-v0.2-trt"},{"rune":"M","rune_set":"bacs2","hex":"#f73b6a7A","correct":-1,"choice":32,"rt":536.1099999863654,"accuracy":0,"outcome":"-10","keys":[2037.8649999620393],"total_keys":1,"block":2,"trial":148,"stimulus":0,"robot":4,"valence":"lose","action":"no-go","sham":0,"trial_type":"pit-trial","trial_index":200,"time_elapsed":1184566,"internal_node_id":"0.0-156.0","task_version":"battery-v0.2-trt"},{"rune":"B","rune_set":"bacs2","hex":"#f73b6a7A","correct":-1,"choice":32,"rt":848.920000018552,"accuracy":0,"outcome":"-10","keys":[2350.0749999657273],"total_keys":1,"block":2,"trial":149,"stimulus":1,"robot":4,"valence":"lose","action":"no-go","sham":0,"trial_type":"pit-trial","trial_index":201,"time_elapsed":1188119,"internal_node_id":"0.0-157.0","task_version":"battery-v0.2-trt"},{"rune":"K","rune_set":"bacs2","hex":"#3366ff99","correct":32,"choice":32,"rt":872.1050000749528,"accuracy":1,"outcome":"+1","keys":[2373.090000008233],"total_keys":1,"block":2,"trial":150,"stimulus":2,"robot":1,"valence":"win","action":"go","sham":1,"trial_type":"pit-trial","trial_index":202,"time_elapsed":1191695,"internal_node_id":"0.0-158.0","task_version":"battery-v0.2-trt"},{"rune":"M","rune_set":"bacs2","hex":"#f73b6a7A","correct":-1,"choice":32,"rt":721.350000007078,"accuracy":0,"outcome":"-10","keys":[2222.0750000560656],"total_keys":1,"block":2,"trial":151,"stimulus":0,"robot":4,"valence":"lose","action":"no-go","sham":0,"trial_type":"pit-trial","trial_index":203,"time_elapsed":1195121,"internal_node_id":"0.0-159.0","task_version":"battery-v0.2-trt"},{"rune":"V","rune_set":"bacs2","hex":"#3366ff99","correct":-1,"choice":-1,"rt":-1,"accuracy":1,"outcome":"+10","keys":[2956.620000069961],"total_keys":1,"block":2,"trial":152,"stimulus":3,"robot":2,"valence":"win","action":"no-go","sham":0,"trial_type":"pit-trial","trial_index":204,"time_elapsed":1199124,"internal_node_id":"0.0-160.0","task_version":"battery-v0.2-trt"},{"rune":"K","rune_set":"bacs2","hex":"#3366ff99","correct":32,"choice":32,"rt":564.6699999924749,"accuracy":1,"outcome":"+10","keys":[2065.1799999177456],"total_keys":1,"block":2,"trial":153,"stimulus":2,"robot":1,"valence":"win","action":"go","sham":0,"trial_type":"pit-trial","trial_index":205,"time_elapsed":1202392,"internal_node_id":"0.0-161.0","task_version":"battery-v0.2-trt"},{"rune":"V","rune_set":"bacs2","hex":"#3366ff99","correct":-1,"choice":-1,"rt":-1,"accuracy":1,"outcome":"+10","keys":[],"total_keys":0,"block":2,"trial":154,"stimulus":3,"robot":2,"valence":"win","action":"no-go","sham":0,"trial_type":"pit-trial","trial_index":206,"time_elapsed":1206396,"internal_node_id":"0.0-162.0","task_version":"battery-v0.2-trt"},{"rune":"R","rune_set":"bacs2","hex":"#f73b6a7A","correct":32,"choice":-1,"rt":-1,"accuracy":0,"outcome":"-10","keys":[],"total_keys":0,"block":2,"trial":155,"stimulus":4,"robot":3,"valence":"lose","action":"go","sham":0,"trial_type":"pit-trial","trial_index":207,"time_elapsed":1210401,"internal_node_id":"0.0-163.0","task_version":"battery-v0.2-trt"},{"rune":"M","rune_set":"bacs2","hex":"#f73b6a7A","correct":-1,"choice":-1,"rt":-1,"accuracy":1,"outcome":"-1","keys":[],"total_keys":0,"block":2,"trial":156,"stimulus":0,"robot":4,"valence":"lose","action":"no-go","sham":0,"trial_type":"pit-trial","trial_index":208,"time_elapsed":1214404,"internal_node_id":"0.0-164.0","task_version":"battery-v0.2-trt"},{"rune":"K","rune_set":"bacs2","hex":"#3366ff99","correct":32,"choice":32,"rt":574.6250000083819,"accuracy":1,"outcome":"+10","keys":[2076.0000000009313],"total_keys":1,"block":2,"trial":157,"stimulus":2,"robot":1,"valence":"win","action":"go","sham":0,"trial_type":"pit-trial","trial_index":209,"time_elapsed":1217682,"internal_node_id":"0.0-165.0","task_version":"battery-v0.2-trt"},{"rune":"V","rune_set":"bacs2","hex":"#3366ff99","correct":-1,"choice":-1,"rt":-1,"accuracy":1,"outcome":"+10","keys":[],"total_keys":0,"block":2,"trial":158,"stimulus":3,"robot":2,"valence":"win","action":"no-go","sham":0,"trial_type":"pit-trial","trial_index":210,"time_elapsed":1221687,"internal_node_id":"0.0-166.0","task_version":"battery-v0.2-trt"},{"rune":"R","rune_set":"bacs2","hex":"#f73b6a7A","correct":32,"choice":32,"rt":956.1749999411404,"accuracy":1,"outcome":"-1","keys":[2457.1699999505654],"total_keys":1,"block":2,"trial":159,"stimulus":4,"robot":3,"valence":"lose","action":"go","sham":0,"trial_type":"pit-trial","trial_index":211,"time_elapsed":1225346,"internal_node_id":"0.0-167.0","task_version":"battery-v0.2-trt"},{"rune":"M","rune_set":"bacs2","hex":"#f73b6a7A","correct":-1,"choice":-1,"rt":-1,"accuracy":1,"outcome":"-1","keys":[],"total_keys":0,"block":2,"trial":160,"stimulus":0,"robot":4,"valence":"lose","action":"no-go","sham":0,"trial_type":"pit-trial","trial_index":212,"time_elapsed":1229349,"internal_node_id":"0.0-168.0","task_version":"battery-v0.2-trt"},{"rune":"M","rune_set":"bacs2","hex":"#f73b6a7A","correct":-1,"choice":-1,"rt":-1,"accuracy":1,"outcome":"-1","keys":[],"total_keys":0,"block":2,"trial":161,"stimulus":0,"robot":4,"valence":"lose","action":"no-go","sham":0,"trial_type":"pit-trial","trial_index":213,"time_elapsed":1233355,"internal_node_id":"0.0-169.0","task_version":"battery-v0.2-trt"},{"rune":"P","rune_set":"bacs2","hex":"#3366ff99","correct":-1,"choice":-1,"rt":-1,"accuracy":1,"outcome":"+10","keys":[],"total_keys":0,"block":2,"trial":162,"stimulus":5,"robot":2,"valence":"win","action":"no-go","sham":0,"trial_type":"pit-trial","trial_index":214,"time_elapsed":1237358,"internal_node_id":"0.0-170.0","task_version":"battery-v0.2-trt"},{"rune":"L","rune_set":"bacs2","hex":"#3366ff99","correct":32,"choice":-1,"rt":-1,"accuracy":0,"outcome":"+1","keys":[],"total_keys":0,"block":2,"trial":163,"stimulus":6,"robot":1,"valence":"win","action":"go","sham":0,"trial_type":"pit-trial","trial_index":215,"time_elapsed":1241362,"internal_node_id":"0.0-171.0","task_version":"battery-v0.2-trt"},{"rune":"R","rune_set":"bacs2","hex":"#f73b6a7A","correct":32,"choice":32,"rt":1060.6900000711903,"accuracy":1,"outcome":"-1","keys":[2561.3800000865012],"total_keys":1,"block":2,"trial":164,"stimulus":4,"robot":3,"valence":"lose","action":"go","sham":0,"trial_type":"pit-trial","trial_index":216,"time_elapsed":1245127,"internal_node_id":"0.0-172.0","task_version":"battery-v0.2-trt"},{"rune":"P","rune_set":"bacs2","hex":"#3366ff99","correct":-1,"choice":32,"rt":735.9150000847876,"accuracy":0,"outcome":"+1","keys":[2237.6049999147654],"total_keys":1,"block":2,"trial":165,"stimulus":5,"robot":2,"valence":"win","action":"no-go","sham":0,"trial_type":"pit-trial","trial_index":217,"time_elapsed":1248567,"internal_node_id":"0.0-173.0","task_version":"battery-v0.2-trt"},{"rune":"M","rune_set":"bacs2","hex":"#f73b6a7A","correct":-1,"choice":32,"rt":1184.0749999973923,"accuracy":0,"outcome":"-10","keys":[2686.295000021346],"total_keys":1,"block":2,"trial":166,"stimulus":0,"robot":4,"valence":"lose","action":"no-go","sham":0,"trial_type":"pit-trial","trial_index":218,"time_elapsed":1252456,"internal_node_id":"0.0-174.0","task_version":"battery-v0.2-trt"},{"rune":"R","rune_set":"bacs2","hex":"#f73b6a7A","correct":32,"choice":32,"rt":881.264999974519,"accuracy":1,"outcome":"-1","keys":[2382.435000035912],"total_keys":1,"block":2,"trial":167,"stimulus":4,"robot":3,"valence":"lose","action":"go","sham":0,"trial_type":"pit-trial","trial_index":219,"time_elapsed":1256042,"internal_node_id":"0.0-175.0","task_version":"battery-v0.2-trt"},{"rune":"L","rune_set":"bacs2","hex":"#3366ff99","correct":32,"choice":32,"rt":726.4799999538809,"accuracy":1,"outcome":"+10","keys":[2227.7749999193475],"total_keys":1,"block":2,"trial":168,"stimulus":6,"robot":1,"valence":"win","action":"go","sham":0,"trial_type":"pit-trial","trial_index":220,"time_elapsed":1259472,"internal_node_id":"0.0-176.0","task_version":"battery-v0.2-trt"},{"rune":"L","rune_set":"bacs2","hex":"#3366ff99","correct":32,"choice":32,"rt":664.4950000336394,"accuracy":1,"outcome":"+10","keys":[2165.81999999471],"total_keys":1,"block":2,"trial":169,"stimulus":6,"robot":1,"valence":"win","action":"go","sham":0,"trial_type":"pit-trial","trial_index":221,"time_elapsed":1262840,"internal_node_id":"0.0-177.0","task_version":"battery-v0.2-trt"},{"rune":"R","rune_set":"bacs2","hex":"#f73b6a7A","correct":32,"choice":32,"rt":906.6449999809265,"accuracy":1,"outcome":"-1","keys":[2407.7549999346957],"total_keys":1,"block":2,"trial":170,"stimulus":4,"robot":3,"valence":"lose","action":"go","sham":0,"trial_type":"pit-trial","trial_index":222,"time_elapsed":1266449,"internal_node_id":"0.0-178.0","task_version":"battery-v0.2-trt"},{"rune":"P","rune_set":"bacs2","hex":"#3366ff99","correct":-1,"choice":-1,"rt":-1,"accuracy":1,"outcome":"+1","keys":[],"total_keys":0,"block":2,"trial":171,"stimulus":5,"robot":2,"valence":"win","action":"no-go","sham":1,"trial_type":"pit-trial","trial_index":223,"time_elapsed":1270454,"internal_node_id":"0.0-179.0","task_version":"battery-v0.2-trt"},{"rune":"S","rune_set":"bacs2","hex":"#f73b6a7A","correct":-1,"choice":-1,"rt":-1,"accuracy":1,"outcome":"-1","keys":[],"total_keys":0,"block":2,"trial":172,"stimulus":7,"robot":4,"valence":"lose","action":"no-go","sham":0,"trial_type":"pit-trial","trial_index":224,"time_elapsed":1274458,"internal_node_id":"0.0-180.0","task_version":"battery-v0.2-trt"},{"rune":"R","rune_set":"bacs2","hex":"#f73b6a7A","correct":32,"choice":32,"rt":673.3450000174344,"accuracy":1,"outcome":"-1","keys":[2175.440000020899],"total_keys":1,"block":2,"trial":173,"stimulus":4,"robot":3,"valence":"lose","action":"go","sham":0,"trial_type":"pit-trial","trial_index":225,"time_elapsed":1277835,"internal_node_id":"0.0-181.0","task_version":"battery-v0.2-trt"},{"rune":"S","rune_set":"bacs2","hex":"#f73b6a7A","correct":-1,"choice":-1,"rt":-1,"accuracy":1,"outcome":"-10","keys":[],"total_keys":0,"block":2,"trial":174,"stimulus":7,"robot":4,"valence":"lose","action":"no-go","sham":1,"trial_type":"pit-trial","trial_index":226,"time_elapsed":1281838,"internal_node_id":"0.0-182.0","task_version":"battery-v0.2-trt"},{"rune":"P","rune_set":"bacs2","hex":"#3366ff99","correct":-1,"choice":-1,"rt":-1,"accuracy":1,"outcome":"+10","keys":[],"total_keys":0,"block":2,"trial":175,"stimulus":5,"robot":2,"valence":"win","action":"no-go","sham":0,"trial_type":"pit-trial","trial_index":227,"time_elapsed":1285842,"internal_node_id":"0.0-183.0","task_version":"battery-v0.2-trt"},{"rune":"L","rune_set":"bacs2","hex":"#3366ff99","correct":32,"choice":32,"rt":642.0599999837577,"accuracy":1,"outcome":"+10","keys":[2143.210000009276],"total_keys":1,"block":2,"trial":176,"stimulus":6,"robot":1,"valence":"win","action":"go","sham":0,"trial_type":"pit-trial","trial_index":228,"time_elapsed":1289188,"internal_node_id":"0.0-184.0","task_version":"battery-v0.2-trt"},{"rune":"S","rune_set":"bacs2","hex":"#f73b6a7A","correct":-1,"choice":32,"rt":762.044999981299,"accuracy":0,"outcome":"-10","keys":[2262.6450000097975],"total_keys":1,"block":2,"trial":177,"stimulus":7,"robot":4,"valence":"lose","action":"no-go","sham":0,"trial_type":"pit-trial","trial_index":229,"time_elapsed":1292653,"internal_node_id":"0.0-185.0","task_version":"battery-v0.2-trt"},{"rune":"P","rune_set":"bacs2","hex":"#3366ff99","correct":-1,"choice":-1,"rt":-1,"accuracy":1,"outcome":"+1","keys":[],"total_keys":0,"block":2,"trial":178,"stimulus":5,"robot":2,"valence":"win","action":"no-go","sham":1,"trial_type":"pit-trial","trial_index":230,"time_elapsed":1296657,"internal_node_id":"0.0-186.0","task_version":"battery-v0.2-trt"},{"rune":"R","rune_set":"bacs2","hex":"#f73b6a7A","correct":32,"choice":32,"rt":526.3599999016151,"accuracy":1,"outcome":"-1","keys":[2026.9700000062585],"total_keys":1,"block":2,"trial":179,"stimulus":4,"robot":3,"valence":"lose","action":"go","sham":0,"trial_type":"pit-trial","trial_index":231,"time_elapsed":1299887,"internal_node_id":"0.0-187.0","task_version":"battery-v0.2-trt"},{"rune":"L","rune_set":"bacs2","hex":"#3366ff99","correct":32,"choice":32,"rt":568.654999951832,"accuracy":1,"outcome":"+10","keys":[2069.134999997914],"total_keys":1,"block":2,"trial":180,"stimulus":6,"robot":1,"valence":"win","action":"go","sham":0,"trial_type":"pit-trial","trial_index":232,"time_elapsed":1303160,"internal_node_id":"0.0-188.0","task_version":"battery-v0.2-trt"},{"rune":"S","rune_set":"bacs2","hex":"#f73b6a7A","correct":-1,"choice":32,"rt":920.3049999196082,"accuracy":0,"outcome":"-10","keys":[2421.6299999970943],"total_keys":1,"block":2,"trial":181,"stimulus":7,"robot":4,"valence":"lose","action":"no-go","sham":0,"trial_type":"pit-trial","trial_index":233,"time_elapsed":1306784,"internal_node_id":"0.0-189.0","task_version":"battery-v0.2-trt"},{"rune":"R","rune_set":"bacs2","hex":"#f73b6a7A","correct":32,"choice":32,"rt":521.125000086613,"accuracy":1,"outcome":"-1","keys":[2022.194999968633],"total_keys":1,"block":2,"trial":182,"stimulus":4,"robot":3,"valence":"lose","action":"go","sham":0,"trial_type":"pit-trial","trial_index":234,"time_elapsed":1310009,"internal_node_id":"0.0-190.0","task_version":"battery-v0.2-trt"},{"rune":"P","rune_set":"bacs2","hex":"#3366ff99","correct":-1,"choice":-1,"rt":-1,"accuracy":1,"outcome":"+10","keys":[],"total_keys":0,"block":2,"trial":183,"stimulus":5,"robot":2,"valence":"win","action":"no-go","sham":0,"trial_type":"pit-trial","trial_index":235,"time_elapsed":1314013,"internal_node_id":"0.0-191.0","task_version":"battery-v0.2-trt"},{"rune":"L","rune_set":"bacs2","hex":"#3366ff99","correct":32,"choice":32,"rt":708.5349999833852,"accuracy":1,"outcome":"+10","keys":[2208.849999937229],"total_keys":1,"block":2,"trial":184,"stimulus":6,"robot":1,"valence":"win","action":"go","sham":0,"trial_type":"pit-trial","trial_index":236,"time_elapsed":1317425,"internal_node_id":"0.0-192.0","task_version":"battery-v0.2-trt"},{"rune":"R","rune_set":"bacs2","hex":"#f73b6a7A","correct":32,"choice":32,"rt":752.4299999931827,"accuracy":1,"outcome":"-1","keys":[2253.9450000040233],"total_keys":1,"block":2,"trial":185,"stimulus":4,"robot":3,"valence":"lose","action":"go","sham":0,"trial_type":"pit-trial","trial_index":237,"time_elapsed":1320882,"internal_node_id":"0.0-193.0","task_version":"battery-v0.2-trt"},{"rune":"S","rune_set":"bacs2","hex":"#f73b6a7A","correct":-1,"choice":-1,"rt":-1,"accuracy":1,"outcome":"-1","keys":[],"total_keys":0,"block":2,"trial":186,"stimulus":7,"robot":4,"valence":"lose","action":"no-go","sham":0,"trial_type":"pit-trial","trial_index":238,"time_elapsed":1324885,"internal_node_id":"0.0-194.0","task_version":"battery-v0.2-trt"},{"rune":"P","rune_set":"bacs2","hex":"#3366ff99","correct":-1,"choice":-1,"rt":-1,"accuracy":1,"outcome":"+10","keys":[],"total_keys":0,"block":2,"trial":187,"stimulus":5,"robot":2,"valence":"win","action":"no-go","sham":0,"trial_type":"pit-trial","trial_index":239,"time_elapsed":1328889,"internal_node_id":"0.0-195.0","task_version":"battery-v0.2-trt"},{"rune":"L","rune_set":"bacs2","hex":"#3366ff99","correct":32,"choice":32,"rt":619.7099999990314,"accuracy":1,"outcome":"+10","keys":[2120.104999979958],"total_keys":1,"block":2,"trial":188,"stimulus":6,"robot":1,"valence":"win","action":"go","sham":0,"trial_type":"pit-trial","trial_index":240,"time_elapsed":1332212,"internal_node_id":"0.0-196.0","task_version":"battery-v0.2-trt"},{"rune":"S","rune_set":"bacs2","hex":"#f73b6a7A","correct":-1,"choice":-1,"rt":-1,"accuracy":1,"outcome":"-1","keys":[],"total_keys":0,"block":2,"trial":189,"stimulus":7,"robot":4,"valence":"lose","action":"no-go","sham":0,"trial_type":"pit-trial","trial_index":241,"time_elapsed":1336216,"internal_node_id":"0.0-197.0","task_version":"battery-v0.2-trt"},{"rune":"P","rune_set":"bacs2","hex":"#3366ff99","correct":-1,"choice":-1,"rt":-1,"accuracy":1,"outcome":"+10","keys":[],"total_keys":0,"block":2,"trial":190,"stimulus":5,"robot":2,"valence":"win","action":"no-go","sham":0,"trial_type":"pit-trial","trial_index":242,"time_elapsed":1340219,"internal_node_id":"0.0-198.0","task_version":"battery-v0.2-trt"},{"rune":"R","rune_set":"bacs2","hex":"#f73b6a7A","correct":32,"choice":32,"rt":602.9450000496581,"accuracy":1,"outcome":"-1","keys":[2103.31999999471],"total_keys":1,"block":2,"trial":191,"stimulus":4,"robot":3,"valence":"lose","action":"go","sham":0,"trial_type":"pit-trial","trial_index":243,"time_elapsed":1343525,"internal_node_id":"0.0-199.0","task_version":"battery-v0.2-trt"},{"rune":"L","rune_set":"bacs2","hex":"#3366ff99","correct":32,"choice":32,"rt":527.6750000193715,"accuracy":1,"outcome":"+10","keys":[2029.1999999899417],"total_keys":1,"block":2,"trial":192,"stimulus":6,"robot":1,"valence":"win","action":"go","sham":0,"trial_type":"pit-trial","trial_index":244,"time_elapsed":1346757,"internal_node_id":"0.0-200.0","task_version":"battery-v0.2-trt"},{"rune":"A","rune_set":"bacs2","hex":"#f73b6a7A","correct":32,"choice":-1,"rt":-1,"accuracy":0,"outcome":"-10","keys":[],"total_keys":0,"block":2,"trial":193,"stimulus":9,"robot":3,"valence":"lose","action":"go","sham":0,"trial_type":"pit-trial","trial_index":245,"time_elapsed":1350759,"internal_node_id":"0.0-201.0","task_version":"battery-v0.2-trt"},{"rune":"S","rune_set":"bacs2","hex":"#f73b6a7A","correct":-1,"choice":-1,"rt":-1,"accuracy":1,"outcome":"-10","keys":[],"total_keys":0,"block":2,"trial":194,"stimulus":7,"robot":4,"valence":"lose","action":"no-go","sham":1,"trial_type":"pit-trial","trial_index":246,"time_elapsed":1354762,"internal_node_id":"0.0-202.0","task_version":"battery-v0.2-trt"},{"rune":"P","rune_set":"bacs2","hex":"#3366ff99","correct":-1,"choice":-1,"rt":-1,"accuracy":1,"outcome":"+10","keys":[],"total_keys":0,"block":2,"trial":195,"stimulus":5,"robot":2,"valence":"win","action":"no-go","sham":0,"trial_type":"pit-trial","trial_index":247,"time_elapsed":1358765,"internal_node_id":"0.0-203.0","task_version":"battery-v0.2-trt"},{"rune":"U","rune_set":"bacs2","hex":"#3366ff99","correct":32,"choice":-1,"rt":-1,"accuracy":0,"outcome":"+1","keys":[],"total_keys":0,"block":2,"trial":196,"stimulus":8,"robot":1,"valence":"win","action":"go","sham":0,"trial_type":"pit-trial","trial_index":248,"time_elapsed":1362769,"internal_node_id":"0.0-204.0","task_version":"battery-v0.2-trt"},{"rune":"P","rune_set":"bacs2","hex":"#3366ff99","correct":-1,"choice":-1,"rt":-1,"accuracy":1,"outcome":"+10","keys":[],"total_keys":0,"block":2,"trial":197,"stimulus":5,"robot":2,"valence":"win","action":"no-go","sham":0,"trial_type":"pit-trial","trial_index":249,"time_elapsed":1366772,"internal_node_id":"0.0-205.0","task_version":"battery-v0.2-trt"},{"rune":"S","rune_set":"bacs2","hex":"#f73b6a7A","correct":-1,"choice":32,"rt":956.7749999696389,"accuracy":0,"outcome":"-10","keys":[2457.7200000640005],"total_keys":1,"block":2,"trial":198,"stimulus":7,"robot":4,"valence":"lose","action":"no-go","sham":0,"trial_type":"pit-trial","trial_index":250,"time_elapsed":1370432,"internal_node_id":"0.0-206.0","task_version":"battery-v0.2-trt"},{"rune":"A","rune_set":"bacs2","hex":"#f73b6a7A","correct":32,"choice":32,"rt":769.1699999850243,"accuracy":1,"outcome":"-1","keys":[2270.424999995157],"total_keys":1,"block":2,"trial":199,"stimulus":9,"robot":3,"valence":"lose","action":"go","sham":0,"trial_type":"pit-trial","trial_index":251,"time_elapsed":1373905,"internal_node_id":"0.0-207.0","task_version":"battery-v0.2-trt"},{"rune":"U","rune_set":"bacs2","hex":"#3366ff99","correct":32,"choice":32,"rt":800.6899999454618,"accuracy":1,"outcome":"+10","keys":[2302.2049999563023],"total_keys":1,"block":2,"trial":200,"stimulus":8,"robot":1,"valence":"win","action":"go","sham":0,"trial_type":"pit-trial","trial_index":252,"time_elapsed":1377410,"internal_node_id":"0.0-208.0","task_version":"battery-v0.2-trt"},{"rune":"U","rune_set":"bacs2","hex":"#3366ff99","correct":32,"choice":32,"rt":496.70499993953854,"accuracy":1,"outcome":"+1","keys":[1997.855000081472],"total_keys":1,"block":2,"trial":201,"stimulus":8,"robot":1,"valence":"win","action":"go","sham":1,"trial_type":"pit-trial","trial_index":253,"time_elapsed":1380610,"internal_node_id":"0.0-209.0","task_version":"battery-v0.2-trt"},{"rune":"P","rune_set":"bacs2","hex":"#3366ff99","correct":-1,"choice":-1,"rt":-1,"accuracy":1,"outcome":"+1","keys":[],"total_keys":0,"block":2,"trial":202,"stimulus":5,"robot":2,"valence":"win","action":"no-go","sham":1,"trial_type":"pit-trial","trial_index":254,"time_elapsed":1384614,"internal_node_id":"0.0-210.0","task_version":"battery-v0.2-trt"},{"rune":"S","rune_set":"bacs2","hex":"#f73b6a7A","correct":-1,"choice":32,"rt":869.635000010021,"accuracy":0,"outcome":"-10","keys":[2369.914999930188],"total_keys":1,"block":2,"trial":203,"stimulus":7,"robot":4,"valence":"lose","action":"no-go","sham":0,"trial_type":"pit-trial","trial_index":255,"time_elapsed":1388187,"internal_node_id":"0.0-211.0","task_version":"battery-v0.2-trt"},{"rune":"A","rune_set":"bacs2","hex":"#f73b6a7A","correct":32,"choice":32,"rt":936.8450000183657,"accuracy":1,"outcome":"-1","keys":[2438.4050000226125],"total_keys":1,"block":2,"trial":204,"stimulus":9,"robot":3,"valence":"lose","action":"go","sham":0,"trial_type":"pit-trial","trial_index":256,"time_elapsed":1391827,"internal_node_id":"0.0-212.0","task_version":"battery-v0.2-trt"},{"rune":"P","rune_set":"bacs2","hex":"#3366ff99","correct":-1,"choice":-1,"rt":-1,"accuracy":1,"outcome":"+10","keys":[],"total_keys":0,"block":2,"trial":205,"stimulus":5,"robot":2,"valence":"win","action":"no-go","sham":0,"trial_type":"pit-trial","trial_index":257,"time_elapsed":1395832,"internal_node_id":"0.0-213.0","task_version":"battery-v0.2-trt"},{"rune":"U","rune_set":"bacs2","hex":"#3366ff99","correct":32,"choice":32,"rt":686.3750000484288,"accuracy":1,"outcome":"+1","keys":[2186.405000044033],"total_keys":1,"block":2,"trial":206,"stimulus":8,"robot":1,"valence":"win","action":"go","sham":1,"trial_type":"pit-trial","trial_index":258,"time_elapsed":1399221,"internal_node_id":"0.0-214.0","task_version":"battery-v0.2-trt"},{"rune":"S","rune_set":"bacs2","hex":"#f73b6a7A","correct":-1,"choice":-1,"rt":-1,"accuracy":1,"outcome":"-1","keys":[],"total_keys":0,"block":2,"trial":207,"stimulus":7,"robot":4,"valence":"lose","action":"no-go","sham":0,"trial_type":"pit-trial","trial_index":259,"time_elapsed":1403224,"internal_node_id":"0.0-215.0","task_version":"battery-v0.2-trt"},{"rune":"A","rune_set":"bacs2","hex":"#f73b6a7A","correct":32,"choice":32,"rt":1029.8550000879914,"accuracy":1,"outcome":"-10","keys":[2531.3650000607595],"total_keys":1,"block":2,"trial":208,"stimulus":9,"robot":3,"valence":"lose","action":"go","sham":1,"trial_type":"pit-trial","trial_index":260,"time_elapsed":1406957,"internal_node_id":"0.0-216.0","task_version":"battery-v0.2-trt"},{"rune":"A","rune_set":"bacs2","hex":"#f73b6a7A","correct":32,"choice":-1,"rt":-1,"accuracy":0,"outcome":"-10","keys":[],"total_keys":0,"block":2,"trial":209,"stimulus":9,"robot":3,"valence":"lose","action":"go","sham":0,"trial_type":"pit-trial","trial_index":261,"time_elapsed":1410962,"internal_node_id":"0.0-217.0","task_version":"battery-v0.2-trt"},{"rune":"N","rune_set":"bacs2","hex":"#3366ff99","correct":-1,"choice":-1,"rt":-1,"accuracy":1,"outcome":"+10","keys":[],"total_keys":0,"block":2,"trial":210,"stimulus":11,"robot":2,"valence":"win","action":"no-go","sham":0,"trial_type":"pit-trial","trial_index":262,"time_elapsed":1414964,"internal_node_id":"0.0-218.0","task_version":"battery-v0.2-trt"},{"rune":"U","rune_set":"bacs2","hex":"#3366ff99","correct":32,"choice":32,"rt":659.940000041388,"accuracy":1,"outcome":"+10","keys":[2160.370000055991],"total_keys":1,"block":2,"trial":211,"stimulus":8,"robot":1,"valence":"win","action":"go","sham":0,"trial_type":"pit-trial","trial_index":263,"time_elapsed":1418328,"internal_node_id":"0.0-219.0","task_version":"battery-v0.2-trt"},{"rune":"F","rune_set":"bacs2","hex":"#f73b6a7A","correct":32,"choice":-1,"rt":-1,"accuracy":0,"outcome":"-10","keys":[],"total_keys":0,"block":2,"trial":212,"stimulus":10,"robot":3,"valence":"lose","action":"go","sham":0,"trial_type":"pit-trial","trial_index":264,"time_elapsed":1422330,"internal_node_id":"0.0-220.0","task_version":"battery-v0.2-trt"},{"rune":"F","rune_set":"bacs2","hex":"#f73b6a7A","correct":32,"choice":32,"rt":493.9449999947101,"accuracy":1,"outcome":"-1","keys":[1995.4900000011548],"total_keys":1,"block":2,"trial":213,"stimulus":10,"robot":3,"valence":"lose","action":"go","sham":0,"trial_type":"pit-trial","trial_index":265,"time_elapsed":1425528,"internal_node_id":"0.0-221.0","task_version":"battery-v0.2-trt"},{"rune":"U","rune_set":"bacs2","hex":"#3366ff99","correct":32,"choice":32,"rt":577.4899999378249,"accuracy":1,"outcome":"+1","keys":[2078.2800000160933],"total_keys":1,"block":2,"trial":214,"stimulus":8,"robot":1,"valence":"win","action":"go","sham":1,"trial_type":"pit-trial","trial_index":266,"time_elapsed":1428810,"internal_node_id":"0.0-222.0","task_version":"battery-v0.2-trt"},{"rune":"N","rune_set":"bacs2","hex":"#3366ff99","correct":-1,"choice":-1,"rt":-1,"accuracy":1,"outcome":"+1","keys":[3140.484999981709],"total_keys":1,"block":2,"trial":215,"stimulus":11,"robot":2,"valence":"win","action":"no-go","sham":1,"trial_type":"pit-trial","trial_index":267,"time_elapsed":1432812,"internal_node_id":"0.0-223.0","task_version":"battery-v0.2-trt"},{"rune":"A","rune_set":"bacs2","hex":"#f73b6a7A","correct":32,"choice":32,"rt":1071.3850000174716,"accuracy":1,"outcome":"-1","keys":[2571.819999953732],"total_keys":1,"block":2,"trial":216,"stimulus":9,"robot":3,"valence":"lose","action":"go","sham":0,"trial_type":"pit-trial","trial_index":268,"time_elapsed":1436587,"internal_node_id":"0.0-224.0","task_version":"battery-v0.2-trt"},{"rune":"A","rune_set":"bacs2","hex":"#f73b6a7A","correct":32,"choice":32,"rt":535.1300000911579,"accuracy":1,"outcome":"-1","keys":[2036.4700000500306],"total_keys":1,"block":2,"trial":217,"stimulus":9,"robot":3,"valence":"lose","action":"go","sham":0,"trial_type":"pit-trial","trial_index":269,"time_elapsed":1439826,"internal_node_id":"0.0-225.0","task_version":"battery-v0.2-trt"},{"rune":"U","rune_set":"bacs2","hex":"#3366ff99","correct":32,"choice":32,"rt":561.2850000616163,"accuracy":1,"outcome":"+10","keys":[2062.6600000541657],"total_keys":1,"block":2,"trial":218,"stimulus":8,"robot":1,"valence":"win","action":"go","sham":0,"trial_type":"pit-trial","trial_index":270,"time_elapsed":1443091,"internal_node_id":"0.0-226.0","task_version":"battery-v0.2-trt"},{"rune":"F","rune_set":"bacs2","hex":"#f73b6a7A","correct":32,"choice":-1,"rt":-1,"accuracy":0,"outcome":"-10","keys":[],"total_keys":0,"block":2,"trial":219,"stimulus":10,"robot":3,"valence":"lose","action":"go","sham":0,"trial_type":"pit-trial","trial_index":271,"time_elapsed":1447093,"internal_node_id":"0.0-227.0","task_version":"battery-v0.2-trt"},{"rune":"N","rune_set":"bacs2","hex":"#3366ff99","correct":-1,"choice":32,"rt":983.949999907054,"accuracy":0,"outcome":"+1","keys":[2484.309999970719],"total_keys":1,"block":2,"trial":220,"stimulus":11,"robot":2,"valence":"win","action":"no-go","sham":0,"trial_type":"pit-trial","trial_index":272,"time_elapsed":1450780,"internal_node_id":"0.0-228.0","task_version":"battery-v0.2-trt"},{"rune":"F","rune_set":"bacs2","hex":"#f73b6a7A","correct":32,"choice":32,"rt":711.8699999991804,"accuracy":1,"outcome":"-10","keys":[2213.374999933876],"total_keys":1,"block":2,"trial":221,"stimulus":10,"robot":3,"valence":"lose","action":"go","sham":1,"trial_type":"pit-trial","trial_index":273,"time_elapsed":1454197,"internal_node_id":"0.0-229.0","task_version":"battery-v0.2-trt"},{"rune":"N","rune_set":"bacs2","hex":"#3366ff99","correct":-1,"choice":32,"rt":682.4050000868738,"accuracy":0,"outcome":"+1","keys":[2182.7500000363216],"total_keys":1,"block":2,"trial":222,"stimulus":11,"robot":2,"valence":"win","action":"no-go","sham":0,"trial_type":"pit-trial","trial_index":274,"time_elapsed":1457582,"internal_node_id":"0.0-230.0","task_version":"battery-v0.2-trt"},{"rune":"U","rune_set":"bacs2","hex":"#3366ff99","correct":32,"c