[{"view_history":"[{\"page_index\":0,\"viewing_time\":3459.8450000012235}]","rt":3460.6650000023365,"trial_type":"instructions","trial_index":0,"time_elapsed":3484,"internal_node_id":"0.0-0.0","task_version":"battery-v0.2-trt"},{"slider_type":"valence","raw_loc":497,"loc":0.494,"trial_type":"affective-slider","trial_index":1,"time_elapsed":10913,"internal_node_id":"0.0-1.0","task_version":"battery-v0.2-trt"},{"responses":{"Q06":"2","Q03":"3","Q04":"2","Q02":"0","Q08":"3","Q05":"3","Q07":"3","Q01":"3"},"rt":39887.75499999974,"item_order":[5,2,3,1,7,4,6,0],"radio_events":[23992.55500000072,26263.530000000173,28209.155000000464,30241.08999999953,32788.46999999951,36965.5500000008,38080.0199999976,39361.675000000105],"key_events":[],"mouse_events":[23992.55500000072,25674.639999997453,26263.530000000173,28209.155000000464,30241.08999999953,32788.46999999951,36965.5500000008,38080.0199999976,39361.675000000105,39886.02499999979],"straightlining":0.625,"zigzagging":0.42857142857142855,"survey":"dass_d","trial_type":"survey-template","trial_index":2,"time_elapsed":50807,"internal_node_id":"0.0-2.0","task_version":"battery-v0.2-trt","infrequency":0.5},{"responses":{"Q06":"1","Q01":"3","Q02":"3","Q03":"3","Q07":"3","Q08":"0","Q04":"1","Q05":"0"},"rt":18634.549999998853,"item_order":[5,0,1,2,6,7,3,4],"radio_events":[3098.744999999326,4760.634999998729,5930.259999997361,7252.000000000407,9531.220000000758,10717.069999998785,12720.535000000382,15008.014999999432,16465.87499999805],"key_events":[],"mouse_events":[3098.744999999326,4760.634999998729,5368.679999999586,5930.259999997361,6715.314999997645,7252.000000000407,9531.220000000758,10717.069999998785,12720.535000000382,15008.014999999432,16465.87499999805,18632.564999999886],"straightlining":0.5,"zigzagging":0.42857142857142855,"survey":"gad7","trial_type":"survey-template","trial_index":3,"time_elapsed":69450,"internal_node_id":"0.0-3.0","task_version":"battery-v0.2-trt","infrequency":0},{"responses":{"Q09":"1","Q07":"2","Q11":"1","Q12":"1","Q05":"2","Q06":"2","Q08":"1","Q03":"3","Q10":"0","Q01":"3","Q04":"3","Q02":"3","Q13":"0"},"rt":45924.73500000051,"item_order":[8,6,10,11,4,5,7,2,9,0,3,1,12],"radio_events":[5279.324999999517,6885.6549999982235,9744.555000001128,11199.730000000272,13954.969999998866,16178.15999999948,17844.624999997905,21665.20500000115,26880.874999998923,32146.639999999024,34652.74000000136,38022.32999999978,40533.354999999574,41463.230000001204,42120.114999997895,43942.449999998644],"key_events":[],"mouse_events":[5279.324999999517,6885.6549999982235,9744.555000001128,11199.730000000272,13954.969999998866,16178.15999999948,17844.624999997905,21665.20500000115,26880.874999998923,32146.639999999024,34652.74000000136,36596.30499999912,38022.32999999978,40533.354999999574,41463.230000001204,42120.114999997895,43942.449999998644,45921.659999999974],"straightlining":0.3076923076923077,"zigzagging":0.5833333333333334,"survey":"bisbas","trial_type":"survey-template","trial_index":4,"time_elapsed":115389,"internal_node_id":"0.0-4.0","task_version":"battery-v0.2-trt","infrequency":0},{"value":[0.5,1.4326923076923077,1.4404761904761905],"trial_type":"call-function","trial_index":5,"time_elapsed":115396,"internal_node_id":"0.0-5.0","task_version":"battery-v0.2-trt"},{"view_history":"[{\"page_index\":0,\"viewing_time\":41854.40500000186},{\"page_index\":1,\"viewing_time\":2264.824999998382},{\"page_index\":2,\"viewing_time\":3708.5000000006403},{\"page_index\":3,\"viewing_time\":5113.39500000031},{\"page_index\":4,\"viewing_time\":4321.205000000191},{\"page_index\":5,\"viewing_time\":3452.3149999986344},{\"page_index\":6,\"viewing_time\":4465.520000001561},{\"page_index\":7,\"viewing_time\":9378.945000000385},{\"page_index\":8,\"viewing_time\":4408.159999999043},{\"page_index\":9,\"viewing_time\":5342.485000001034}]","rt":84311.06,"trial_type":"pit-instructions","trial_index":6,"time_elapsed":199712,"internal_node_id":"0.0-6.0-0.0","task_version":"battery-v0.2-trt"},{"rune":"1","rune_set":"elianto","hex":"#3366ff99","correct":32,"choice":-1,"rt":-1,"accuracy":0,"outcome":"+1","keys":[],"total_keys":0,"block":0,"practice":1,"trial_type":"pit-trial","trial_index":7,"time_elapsed":203730,"internal_node_id":"0.0-6.0-1.0-0.0","task_version":"battery-v0.2-trt"},{"rune":"1","rune_set":"elianto","hex":"#3366ff99","correct":32,"choice":32,"rt":1279.7950000021956,"accuracy":1,"outcome":"+10","keys":[2781.315000000177],"total_keys":1,"block":0,"practice":1,"trial_type":"pit-trial","trial_index":8,"time_elapsed":207724,"internal_node_id":"0.0-6.0-1.1-0.1","task_version":"battery-v0.2-trt"},{"rune":"1","rune_set":"elianto","hex":"#3366ff99","correct":32,"choice":-1,"rt":-1,"accuracy":0,"outcome":"+1","keys":[],"total_keys":0,"block":0,"practice":1,"trial_type":"pit-trial","trial_index":9,"time_elapsed":211737,"internal_node_id":"0.0-6.0-1.2-0.2","task_version":"battery-v0.2-trt"},{"rune":"1","rune_set":"elianto","hex":"#3366ff99","correct":32,"choice":-1,"rt":-1,"accuracy":0,"outcome":"+1","keys":[],"total_keys":0,"block":0,"practice":1,"trial_type":"pit-trial","trial_index":10,"time_elapsed":215749,"internal_node_id":"0.0-6.0-1.3-0.3","task_version":"battery-v0.2-trt"},{"rune":"1","rune_set":"elianto","hex":"#3366ff99","correct":32,"choice":32,"rt":1056.8500000008498,"accuracy":1,"outcome":"+10","keys":[2557.554999999411],"total_keys":1,"block":0,"practice":1,"trial_type":"pit-trial","trial_index":11,"time_elapsed":219517,"internal_node_id":"0.0-6.0-1.4-0.4","task_version":"battery-v0.2-trt"},{"rune":"1","rune_set":"elianto","hex":"#3366ff99","correct":32,"choice":32,"rt":531.2850000009348,"accuracy":1,"outcome":"+10","keys":[2031.5899999986868],"total_keys":1,"block":0,"practice":1,"trial_type":"pit-trial","trial_index":12,"time_elapsed":222761,"internal_node_id":"0.0-6.0-1.5-0.5","task_version":"battery-v0.2-trt"},{"rune":"1","rune_set":"elianto","hex":"#3366ff99","correct":32,"choice":32,"rt":408.86999999929685,"accuracy":1,"outcome":"+10","keys":[1909.495000003517],"total_keys":1,"block":0,"practice":1,"trial_type":"pit-trial","trial_index":13,"time_elapsed":225879,"internal_node_id":"0.0-6.0-1.6-0.6","task_version":"battery-v0.2-trt"},{"trial_type":"call-function","trial_index":14,"time_elapsed":225887,"internal_node_id":"0.0-6.0-2.0","task_version":"battery-v0.2-trt"},{"view_history":"[{\"page_index\":0,\"viewing_time\":5940.725000000384},{\"page_index\":1,\"viewing_time\":2786.66499999963}]","rt":8728.055000003224,"trial_type":"pit-instructions","trial_index":15,"time_elapsed":234616,"internal_node_id":"0.0-6.0-3.0","task_version":"battery-v0.2-trt"},{"rune":"2","rune_set":"elianto","hex":"#3366ff99","correct":-1,"choice":32,"rt":113.31499999869266,"accuracy":0,"outcome":"+1","keys":[1613.8900000005378],"total_keys":1,"block":0,"practice":2,"trial_type":"pit-trial","trial_index":16,"time_elapsed":237442,"internal_node_id":"0.0-6.0-4.0-0.0","task_version":"battery-v0.2-trt"},{"rune":"2","rune_set":"elianto","hex":"#3366ff99","correct":-1,"choice":32,"rt":619.234999998298,"accuracy":0,"outcome":"+1","keys":[2119.699999999284],"total_keys":1,"block":0,"practice":2,"trial_type":"pit-trial","trial_index":17,"time_elapsed":240771,"internal_node_id":"0.0-6.0-4.1-0.1","task_version":"battery-v0.2-trt"},{"rune":"2","rune_set":"elianto","hex":"#3366ff99","correct":-1,"choice":32,"rt":474.5599999987462,"accuracy":0,"outcome":"+1","keys":[1975.1050000013493],"total_keys":1,"block":0,"practice":2,"trial_type":"pit-trial","trial_index":18,"time_elapsed":243955,"internal_node_id":"0.0-6.0-4.2-0.2","task_version":"battery-v0.2-trt"},{"rune":"2","rune_set":"elianto","hex":"#3366ff99","correct":-1,"choice":32,"rt":577.2399999987101,"accuracy":0,"outcome":"+1","keys":[2077.6349999978265],"total_keys":1,"block":0,"practice":2,"trial_type":"pit-trial","trial_index":19,"time_elapsed":247242,"internal_node_id":"0.0-6.0-4.3-0.3","task_version":"battery-v0.2-trt"},{"rune":"2","rune_set":"elianto","hex":"#3366ff99","correct":-1,"choice":-1,"rt":-1,"accuracy":1,"outcome":"+10","keys":[3846.605000002455],"total_keys":1,"block":0,"practice":2,"trial_type":"pit-trial","trial_index":20,"time_elapsed":251259,"internal_node_id":"0.0-6.0-4.4-0.4","task_version":"battery-v0.2-trt"},{"rune":"2","rune_set":"elianto","hex":"#3366ff99","correct":-1,"choice":-1,"rt":-1,"accuracy":1,"outcome":"+10","keys":[3432.8649999988556],"total_keys":1,"block":0,"practice":2,"trial_type":"pit-trial","trial_index":21,"time_elapsed":255270,"internal_node_id":"0.0-6.0-4.5-0.5","task_version":"battery-v0.2-trt"},{"rune":"2","rune_set":"elianto","hex":"#3366ff99","correct":-1,"choice":-1,"rt":-1,"accuracy":1,"outcome":"+10","keys":[],"total_keys":0,"block":0,"practice":2,"trial_type":"pit-trial","trial_index":22,"time_elapsed":259282,"internal_node_id":"0.0-6.0-4.6-0.6","task_version":"battery-v0.2-trt"},{"trial_type":"call-function","trial_index":23,"time_elapsed":259288,"internal_node_id":"0.0-6.0-5.0","task_version":"battery-v0.2-trt"},{"view_history":"[{\"page_index\":0,\"viewing_time\":5853.634999999456},{\"page_index\":1,\"viewing_time\":3261.480000001029}]","rt":9115.770000000339,"trial_type":"pit-instructions","trial_index":24,"time_elapsed":268405,"internal_node_id":"0.0-6.0-6.0","task_version":"battery-v0.2-trt"},{"rune":"3","rune_set":"elianto","hex":"#f73b6a7A","correct":-1,"choice":-1,"rt":-1,"accuracy":1,"outcome":"-1","keys":[],"total_keys":0,"block":0,"practice":3,"trial_type":"pit-trial","trial_index":25,"time_elapsed":272419,"internal_node_id":"0.0-6.0-7.0-0.0","task_version":"battery-v0.2-trt"},{"rune":"3","rune_set":"elianto","hex":"#f73b6a7A","correct":-1,"choice":-1,"rt":-1,"accuracy":1,"outcome":"-1","keys":[3010.7449999995297],"total_keys":1,"block":0,"practice":3,"trial_type":"pit-trial","trial_index":26,"time_elapsed":276430,"internal_node_id":"0.0-6.0-7.1-0.1","task_version":"battery-v0.2-trt"},{"rune":"3","rune_set":"elianto","hex":"#f73b6a7A","correct":-1,"choice":-1,"rt":-1,"accuracy":1,"outcome":"-1","keys":[],"total_keys":0,"block":0,"practice":3,"trial_type":"pit-trial","trial_index":27,"time_elapsed":280441,"internal_node_id":"0.0-6.0-7.2-0.2","task_version":"battery-v0.2-trt"},{"rune":"3","rune_set":"elianto","hex":"#f73b6a7A","correct":-1,"choice":-1,"rt":-1,"accuracy":1,"outcome":"-1","keys":[],"total_keys":0,"block":0,"practice":3,"trial_type":"pit-trial","trial_index":28,"time_elapsed":284453,"internal_node_id":"0.0-6.0-7.3-0.3","task_version":"battery-v0.2-trt"},{"trial_type":"call-function","trial_index":29,"time_elapsed":284459,"internal_node_id":"0.0-6.0-8.0","task_version":"battery-v0.2-trt"},{"view_history":"[{\"page_index\":0,\"viewing_time\":4157.585000000836},{\"page_index\":1,\"viewing_time\":3942.7249999971245}]","rt":8100.954999998095,"trial_type":"pit-instructions","trial_index":30,"time_elapsed":292561,"internal_node_id":"0.0-6.0-9.0","task_version":"battery-v0.2-trt"},{"rune":"4","rune_set":"elianto","hex":"#f73b6a7A","correct":32,"choice":32,"rt":748.554999998305,"accuracy":1,"outcome":"-1","keys":[2250.1149999988847],"total_keys":1,"block":0,"practice":4,"trial_type":"pit-trial","trial_index":31,"time_elapsed":296023,"internal_node_id":"0.0-6.0-10.0-0.0","task_version":"battery-v0.2-trt"},{"rune":"4","rune_set":"elianto","hex":"#f73b6a7A","correct":32,"choice":-1,"rt":-1,"accuracy":0,"outcome":"-10","keys":[],"total_keys":0,"block":0,"practice":4,"trial_type":"pit-trial","trial_index":32,"time_elapsed":300034,"internal_node_id":"0.0-6.0-10.1-0.1","task_version":"battery-v0.2-trt"},{"rune":"4","rune_set":"elianto","hex":"#f73b6a7A","correct":32,"choice":32,"rt":1232.429999999993,"accuracy":1,"outcome":"-1","keys":[2732.560000000347],"total_keys":1,"block":0,"practice":4,"trial_type":"pit-trial","trial_index":33,"time_elapsed":303978,"internal_node_id":"0.0-6.0-10.2-0.2","task_version":"battery-v0.2-trt"},{"rune":"4","rune_set":"elianto","hex":"#f73b6a7A","correct":32,"choice":32,"rt":613.2699999979814,"accuracy":1,"outcome":"-1","keys":[2113.7500000004075],"total_keys":1,"block":0,"practice":4,"trial_type":"pit-trial","trial_index":34,"time_elapsed":307298,"internal_node_id":"0.0-6.0-10.3-0.3","task_version":"battery-v0.2-trt"},{"rune":"4","rune_set":"elianto","hex":"#f73b6a7A","correct":32,"choice":-1,"rt":-1,"accuracy":0,"outcome":"-10","keys":[],"total_keys":0,"block":0,"practice":4,"trial_type":"pit-trial","trial_index":35,"time_elapsed":311307,"internal_node_id":"0.0-6.0-10.4-0.4","task_version":"battery-v0.2-trt"},{"rune":"4","rune_set":"elianto","hex":"#f73b6a7A","correct":32,"choice":32,"rt":946.7250000016065,"accuracy":1,"outcome":"-1","keys":[2446.974999998929],"total_keys":1,"block":0,"practice":4,"trial_type":"pit-trial","trial_index":36,"time_elapsed":314965,"internal_node_id":"0.0-6.0-10.5-0.5","task_version":"battery-v0.2-trt"},{"rune":"4","rune_set":"elianto","hex":"#f73b6a7A","correct":32,"choice":32,"rt":696.2600000006496,"accuracy":1,"outcome":"-1","keys":[2197.8500000005006],"total_keys":1,"block":0,"practice":4,"trial_type":"pit-trial","trial_index":37,"time_elapsed":318372,"internal_node_id":"0.0-6.0-10.6-0.6","task_version":"battery-v0.2-trt"},{"rune":"4","rune_set":"elianto","hex":"#f73b6a7A","correct":32,"choice":-1,"rt":-1,"accuracy":0,"outcome":"-10","keys":[],"total_keys":0,"block":0,"practice":4,"trial_type":"pit-trial","trial_index":38,"time_elapsed":322384,"internal_node_id":"0.0-6.0-10.7-0.7","task_version":"battery-v0.2-trt"},{"rune":"4","rune_set":"elianto","hex":"#f73b6a7A","correct":32,"choice":-1,"rt":-1,"accuracy":0,"outcome":"-10","keys":[],"total_keys":0,"block":0,"practice":4,"trial_type":"pit-trial","trial_index":39,"time_elapsed":326395,"internal_node_id":"0.0-6.0-10.8-0.8","task_version":"battery-v0.2-trt"},{"rune":"4","rune_set":"elianto","hex":"#f73b6a7A","correct":32,"choice":32,"rt":692.095000002184,"accuracy":1,"outcome":"-1","keys":[2192.814999998547],"total_keys":1,"block":0,"practice":4,"trial_type":"pit-trial","trial_index":40,"time_elapsed":329797,"internal_node_id":"0.0-6.0-10.9-0.9","task_version":"battery-v0.2-trt"},{"rune":"4","rune_set":"elianto","hex":"#f73b6a7A","correct":32,"choice":32,"rt":710.4350000008708,"accuracy":1,"outcome":"-1","keys":[2212.459999998857],"total_keys":1,"block":0,"practice":4,"trial_type":"pit-trial","trial_index":41,"time_elapsed":333220,"internal_node_id":"0.0-6.0-10.10-0.10","task_version":"battery-v0.2-trt"},{"rune":"4","rune_set":"elianto","hex":"#f73b6a7A","correct":32,"choice":-1,"rt":-1,"accuracy":0,"outcome":"-10","keys":[],"total_keys":0,"block":0,"practice":4,"trial_type":"pit-trial","trial_index":42,"time_elapsed":337232,"internal_node_id":"0.0-6.0-10.11-0.11","task_version":"battery-v0.2-trt"},{"rune":"4","rune_set":"elianto","hex":"#f73b6a7A","correct":32,"choice":32,"rt":371.66500000236556,"accuracy":1,"outcome":"-1","keys":[1873.490000001737],"total_keys":1,"block":0,"practice":4,"trial_type":"pit-trial","trial_index":43,"time_elapsed":340316,"internal_node_id":"0.0-6.0-10.12-0.12","task_version":"battery-v0.2-trt"},{"rune":"4","rune_set":"elianto","hex":"#f73b6a7A","correct":32,"choice":-1,"rt":-1,"accuracy":0,"outcome":"-10","keys":[],"total_keys":0,"block":0,"practice":4,"trial_type":"pit-trial","trial_index":44,"time_elapsed":344327,"internal_node_id":"0.0-6.0-10.13-0.13","task_version":"battery-v0.2-trt"},{"rune":"4","rune_set":"elianto","hex":"#f73b6a7A","correct":32,"choice":-1,"rt":-1,"accuracy":0,"outcome":"-10","keys":[3141.4849999964354],"total_keys":1,"block":0,"practice":4,"trial_type":"pit-trial","trial_index":45,"time_elapsed":348339,"internal_node_id":"0.0-6.0-10.14-0.14","task_version":"battery-v0.2-trt"},{"rune":"4","rune_set":"elianto","hex":"#f73b6a7A","correct":32,"choice":32,"rt":315.8549999971292,"accuracy":1,"outcome":"-1","keys":[1194.5100000011735,1816.0649999990128],"total_keys":2,"block":0,"practice":4,"trial_type":"pit-trial","trial_index":46,"time_elapsed":351367,"internal_node_id":"0.0-6.0-10.15-0.15","task_version":"battery-v0.2-trt"},{"rune":"4","rune_set":"elianto","hex":"#f73b6a7A","correct":32,"choice":-1,"rt":-1,"accuracy":0,"outcome":"-10","keys":[],"total_keys":0,"block":0,"practice":4,"trial_type":"pit-trial","trial_index":47,"time_elapsed":355380,"internal_node_id":"0.0-6.0-10.16-0.16","task_version":"battery-v0.2-trt"},{"rune":"4","rune_set":"elianto","hex":"#f73b6a7A","correct":32,"choice":-1,"rt":-1,"accuracy":0,"outcome":"-10","keys":[],"total_keys":0,"block":0,"practice":4,"trial_type":"pit-trial","trial_index":48,"time_elapsed":359392,"internal_node_id":"0.0-6.0-10.17-0.17","task_version":"battery-v0.2-trt"},{"rune":"4","rune_set":"elianto","hex":"#f73b6a7A","correct":32,"choice":32,"rt":1272.7799999993294,"accuracy":1,"outcome":"-1","keys":[2772.9699999981676],"total_keys":1,"block":0,"practice":4,"trial_type":"pit-trial","trial_index":49,"time_elapsed":363377,"internal_node_id":"0.0-6.0-10.18-0.18","task_version":"battery-v0.2-trt"},{"rune":"4","rune_set":"elianto","hex":"#f73b6a7A","correct":32,"choice":-1,"rt":-1,"accuracy":0,"outcome":"-10","keys":[],"total_keys":0,"block":0,"practice":4,"trial_type":"pit-trial","trial_index":50,"time_elapsed":367393,"internal_node_id":"0.0-6.0-10.19-0.19","task_version":"battery-v0.2-trt"},{"rune":"4","rune_set":"elianto","hex":"#f73b6a7A","correct":32,"choice":-1,"rt":-1,"accuracy":0,"outcome":"-10","keys":[],"total_keys":0,"block":0,"practice":4,"trial_type":"pit-trial","trial_index":51,"time_elapsed":371407,"internal_node_id":"0.0-6.0-10.20-0.20","task_version":"battery-v0.2-trt"},{"rune":"4","rune_set":"elianto","hex":"#f73b6a7A","correct":32,"choice":32,"rt":654.8249999977998,"accuracy":1,"outcome":"-1","keys":[2156.084999998682],"total_keys":1,"block":0,"practice":4,"trial_type":"pit-trial","trial_index":52,"time_elapsed":374769,"internal_node_id":"0.0-6.0-10.21-0.21","task_version":"battery-v0.2-trt"},{"rune":"4","rune_set":"elianto","hex":"#f73b6a7A","correct":32,"choice":32,"rt":679.9749999991618,"accuracy":1,"outcome":"-1","keys":[2182.069999998901],"total_keys":1,"block":0,"practice":4,"trial_type":"pit-trial","trial_index":53,"time_elapsed":378162,"internal_node_id":"0.0-6.0-10.22-0.22","task_version":"battery-v0.2-trt"},{"rune":"4","rune_set":"elianto","hex":"#f73b6a7A","correct":32,"choice":-1,"rt":-1,"accuracy":0,"outcome":"-10","keys":[],"total_keys":0,"block":0,"practice":4,"trial_type":"pit-trial","trial_index":54,"time_elapsed":382171,"internal_node_id":"0.0-6.0-10.23-0.23","task_version":"battery-v0.2-trt"},{"rune":"4","rune_set":"elianto","hex":"#f73b6a7A","correct":32,"choice":-1,"rt":-1,"accuracy":0,"outcome":"-10","keys":[],"total_keys":0,"block":0,"practice":4,"trial_type":"pit-trial","trial_index":55,"time_elapsed":386183,"internal_node_id":"0.0-6.0-10.24-0.24","task_version":"battery-v0.2-trt"},{"rune":"4","rune_set":"elianto","hex":"#f73b6a7A","correct":32,"choice":-1,"rt":-1,"accuracy":0,"outcome":"-10","keys":[],"total_keys":0,"block":0,"practice":4,"trial_type":"pit-trial","trial_index":56,"time_elapsed":390196,"internal_node_id":"0.0-6.0-10.25-0.25","task_version":"battery-v0.2-trt"},{"rune":"4","rune_set":"elianto","hex":"#f73b6a7A","correct":32,"choice":-1,"rt":-1,"accuracy":0,"outcome":"-10","keys":[],"total_keys":0,"block":0,"practice":4,"trial_type":"pit-trial","trial_index":57,"time_elapsed":394205,"internal_node_id":"0.0-6.0-10.26-0.26","task_version":"battery-v0.2-trt"},{"rune":"4","rune_set":"elianto","hex":"#f73b6a7A","correct":32,"choice":-1,"rt":-1,"accuracy":0,"outcome":"-10","keys":[],"total_keys":0,"block":0,"practice":4,"trial_type":"pit-trial","trial_index":58,"time_elapsed":398217,"internal_node_id":"0.0-6.0-10.27-0.27","task_version":"battery-v0.2-trt"},{"rune":"4","rune_set":"elianto","hex":"#f73b6a7A","correct":32,"choice":-1,"rt":-1,"accuracy":0,"outcome":"-10","keys":[],"total_keys":0,"block":0,"practice":4,"trial_type":"pit-trial","trial_index":59,"time_elapsed":402227,"internal_node_id":"0.0-6.0-10.28-0.28","task_version":"battery-v0.2-trt"},{"rune":"4","rune_set":"elianto","hex":"#f73b6a7A","correct":32,"choice":-1,"rt":-1,"accuracy":0,"outcome":"-10","keys":[],"total_keys":0,"block":0,"practice":4,"trial_type":"pit-trial","trial_index":60,"time_elapsed":406242,"internal_node_id":"0.0-6.0-10.29-0.29","task_version":"battery-v0.2-trt"},{"rune":"4","rune_set":"elianto","hex":"#f73b6a7A","correct":32,"choice":-1,"rt":-1,"accuracy":0,"outcome":"-10","keys":[],"total_keys":0,"block":0,"practice":4,"trial_type":"pit-trial","trial_index":61,"time_elapsed":410256,"internal_node_id":"0.0-6.0-10.30-0.30","task_version":"battery-v0.2-trt"},{"rune":"4","rune_set":"elianto","hex":"#f73b6a7A","correct":32,"choice":-1,"rt":-1,"accuracy":0,"outcome":"-10","keys":[],"total_keys":0,"block":0,"practice":4,"trial_type":"pit-trial","trial_index":62,"time_elapsed":414267,"internal_node_id":"0.0-6.0-10.31-0.31","task_version":"battery-v0.2-trt"},{"rune":"4","rune_set":"elianto","hex":"#f73b6a7A","correct":32,"choice":-1,"rt":-1,"accuracy":0,"outcome":"-10","keys":[],"total_keys":0,"block":0,"practice":4,"trial_type":"pit-trial","trial_index":63,"time_elapsed":418770,"internal_node_id":"0.0-6.0-10.32-0.32","task_version":"battery-v0.2-trt"},{"rune":"4","rune_set":"elianto","hex":"#f73b6a7A","correct":32,"choice":-1,"rt":-1,"accuracy":0,"outcome":"-10","keys":[3113.8750000026776],"total_keys":1,"block":0,"practice":4,"trial_type":"pit-trial","trial_index":64,"time_elapsed":422784,"internal_node_id":"0.0-6.0-10.33-0.33","task_version":"battery-v0.2-trt"},{"rune":"4","rune_set":"elianto","hex":"#f73b6a7A","correct":32,"choice":-1,"rt":-1,"accuracy":0,"outcome":"-10","keys":[],"total_keys":0,"block":0,"practice":4,"trial_type":"pit-trial","trial_index":65,"time_elapsed":426801,"internal_node_id":"0.0-6.0-10.34-0.34","task_version":"battery-v0.2-trt"},{"rune":"4","rune_set":"elianto","hex":"#f73b6a7A","correct":32,"choice":32,"rt":774.6750000005704,"accuracy":1,"outcome":"-1","keys":[2275.3799999991315],"total_keys":1,"block":0,"practice":4,"trial_type":"pit-trial","trial_index":66,"time_elapsed":430284,"internal_node_id":"0.0-6.0-10.35-0.35","task_version":"battery-v0.2-trt"},{"rune":"4","rune_set":"elianto","hex":"#f73b6a7A","correct":32,"choice":-1,"rt":-1,"accuracy":0,"outcome":"-10","keys":[3232.0600000021514],"total_keys":1,"block":0,"practice":4,"trial_type":"pit-trial","trial_index":67,"time_elapsed":434296,"internal_node_id":"0.0-6.0-10.36-0.36","task_version":"battery-v0.2-trt"},{"rune":"4","rune_set":"elianto","hex":"#f73b6a7A","correct":32,"choice":-1,"rt":-1,"accuracy":0,"outcome":"-10","keys":[3604.960000000545],"total_keys":1,"block":0,"practice":4,"trial_type":"pit-trial","trial_index":68,"time_elapsed":438307,"internal_node_id":"0.0-6.0-10.37-0.37","task_version":"battery-v0.2-trt"},{"rune":"4","rune_set":"elianto","hex":"#f73b6a7A","correct":32,"choice":32,"rt":204.76500000222586,"accuracy":1,"outcome":"-1","keys":[1706.5349999975297],"total_keys":1,"block":0,"practice":4,"trial_type":"pit-trial","trial_index":69,"time_elapsed":441221,"internal_node_id":"0.0-6.0-10.38-0.38","task_version":"battery-v0.2-trt"},{"rune":"4","rune_set":"elianto","hex":"#f73b6a7A","correct":32,"choice":32,"rt":819.4000000003725,"accuracy":1,"outcome":"-1","keys":[1374.0749999997206,2320.834999998624],"total_keys":2,"block":0,"practice":4,"trial_type":"pit-trial","trial_index":70,"time_elapsed":444751,"internal_node_id":"0.0-6.0-10.39-0.39","task_version":"battery-v0.2-trt"},{"rune":"4","rune_set":"elianto","hex":"#f73b6a7A","correct":32,"choice":32,"rt":610.8050000002258,"accuracy":1,"outcome":"-1","keys":[2111.429999997199],"total_keys":1,"block":0,"practice":4,"trial_type":"pit-trial","trial_index":71,"time_elapsed":448071,"internal_node_id":"0.0-6.0-10.40-0.40","task_version":"battery-v0.2-trt"},{"trial_type":"call-function","trial_index":72,"time_elapsed":448075,"internal_node_id":"0.0-6.0-11.0","task_version":"battery-v0.2-trt"},{"view_history":"[{\"page_index\":0,\"viewing_time\":2477.935000002617},{\"page_index\":1,\"viewing_time\":3417.5799999975134},{\"page_index\":2,\"viewing_time\":4728.650000000955},{\"page_index\":3,\"viewing_time\":1549.2450000019744},{\"page_index\":4,\"viewing_time\":1728.479999997886},{\"page_index\":5,\"viewing_time\":945.9549999992596}]","rt":14848.510000003385,"trial_type":"pit-instructions","trial_index":73,"time_elapsed":462925,"internal_node_id":"0.0-6.0-12.0","task_version":"battery-v0.2-trt"},{"responses":["Press SPACE","+10","-1","True","True"],"num_errors":0,"rt":13712.124999998137,"trial_type":"pit-comprehension","trial_index":74,"time_elapsed":476647,"internal_node_id":"0.0-6.0-13.0","task_version":"battery-v0.2-trt"},{"view_history":"[{\"page_index\":0,\"viewing_time\":3016.6449999996694},{\"page_index\":1,\"viewing_time\":2595.14499999932}]","rt":5612.434999999125,"trial_type":"pit-instructions","trial_index":75,"time_elapsed":482271,"internal_node_id":"0.0-7.0","task_version":"battery-v0.2-trt"},{"rune":"G","rune_set":"elianto","hex":"#3366ff99","correct":-1,"choice":32,"rt":785.0799999978044,"accuracy":0,"outcome":"+1","keys":[2285.6900000005844],"total_keys":1,"block":1,"trial":1,"stimulus":3,"robot":2,"valence":"win","action":"no-go","sham":0,"trial_type":"pit-trial","trial_index":76,"time_elapsed":485770,"internal_node_id":"0.0-8.0","task_version":"battery-v0.2-trt"},{"rune":"U","rune_set":"elianto","hex":"#f73b6a7A","correct":-1,"choice":-1,"rt":-1,"accuracy":1,"outcome":"-10","keys":[],"total_keys":0,"block":1,"trial":2,"stimulus":0,"robot":4,"valence":"lose","action":"no-go","sham":1,"trial_type":"pit-trial","trial_index":77,"time_elapsed":489776,"internal_node_id":"0.0-9.0","task_version":"battery-v0.2-trt"},{"rune":"A","rune_set":"elianto","hex":"#3366ff99","correct":32,"choice":32,"rt":525.2399999990594,"accuracy":1,"outcome":"+1","keys":[2025.7999999994645],"total_keys":1,"block":1,"trial":3,"stimulus":2,"robot":1,"valence":"win","action":"go","sham":1,"trial_type":"pit-trial","trial_index":78,"time_elapsed":493009,"internal_node_id":"0.0-10.0","task_version":"battery-v0.2-trt"},{"rune":"L","rune_set":"elianto","hex":"#f73b6a7A","correct":-1,"choice":-1,"rt":-1,"accuracy":1,"outcome":"-1","keys":[],"total_keys":0,"block":1,"trial":4,"stimulus":1,"robot":4,"valence":"lose","action":"no-go","sham":0,"trial_type":"pit-trial","trial_index":79,"time_elapsed":497020,"internal_node_id":"0.0-11.0","task_version":"battery-v0.2-trt"},{"rune":"A","rune_set":"elianto","hex":"#3366ff99","correct":32,"choice":32,"rt":607.2800000001444,"accuracy":1,"outcome":"+10","keys":[2107.5250000031083],"total_keys":1,"block":1,"trial":5,"stimulus":2,"robot":1,"valence":"win","action":"go","sham":0,"trial_type":"pit-trial","trial_index":80,"time_elapsed":500335,"internal_node_id":"0.0-12.0","task_version":"battery-v0.2-trt"},{"rune":"G","rune_set":"elianto","hex":"#3366ff99","correct":-1,"choice":-1,"rt":-1,"accuracy":1,"outcome":"+1","keys":[],"total_keys":0,"block":1,"trial":6,"stimulus":3,"robot":2,"valence":"win","action":"no-go","sham":1,"trial_type":"pit-trial","trial_index":81,"time_elapsed":504352,"internal_node_id":"0.0-13.0","task_version":"battery-v0.2-trt"},{"rune":"L","rune_set":"elianto","hex":"#f73b6a7A","correct":-1,"choice":-1,"rt":-1,"accuracy":1,"outcome":"-10","keys":[],"total_keys":0,"block":1,"trial":7,"stimulus":1,"robot":4,"valence":"lose","action":"no-go","sham":1,"trial_type":"pit-trial","trial_index":82,"time_elapsed":508364,"internal_node_id":"0.0-14.0","task_version":"battery-v0.2-trt"},{"rune":"U","rune_set":"elianto","hex":"#f73b6a7A","correct":-1,"choice":-1,"rt":-1,"accuracy":1,"outcome":"-1","keys":[],"total_keys":0,"block":1,"trial":8,"stimulus":0,"robot":4,"valence":"lose","action":"no-go","sham":0,"trial_type":"pit-trial","trial_index":83,"time_elapsed":512375,"internal_node_id":"0.0-15.0","task_version":"battery-v0.2-trt"},{"rune":"L","rune_set":"elianto","hex":"#f73b6a7A","correct":-1,"choice":-1,"rt":-1,"accuracy":1,"outcome":"-1","keys":[],"total_keys":0,"block":1,"trial":9,"stimulus":1,"robot":4,"valence":"lose","action":"no-go","sham":0,"trial_type":"pit-trial","trial_index":84,"time_elapsed":516386,"internal_node_id":"0.0-16.0","task_version":"battery-v0.2-trt"},{"rune":"G","rune_set":"elianto","hex":"#3366ff99","correct":-1,"choice":32,"rt":781.1800000017392,"accuracy":0,"outcome":"+1","keys":[2283.240000000631],"total_keys":1,"block":1,"trial":10,"stimulus":3,"robot":2,"valence":"win","action":"no-go","sham":0,"trial_type":"pit-trial","trial_index":85,"time_elapsed":519880,"internal_node_id":"0.0-17.0","task_version":"battery-v0.2-trt"},{"rune":"A","rune_set":"elianto","hex":"#3366ff99","correct":32,"choice":32,"rt":505.03000000026077,"accuracy":1,"outcome":"+10","keys":[2005.2499999983702],"total_keys":1,"block":1,"trial":11,"stimulus":2,"robot":1,"valence":"win","action":"go","sham":0,"trial_type":"pit-trial","trial_index":86,"time_elapsed":523091,"internal_node_id":"0.0-18.0","task_version":"battery-v0.2-trt"},{"rune":"U","rune_set":"elianto","hex":"#f73b6a7A","correct":-1,"choice":32,"rt":907.1849999999395,"accuracy":0,"outcome":"-10","keys":[2407.4749999999767],"total_keys":1,"block":1,"trial":12,"stimulus":0,"robot":4,"valence":"lose","action":"no-go","sham":0,"trial_type":"pit-trial","trial_index":87,"time_elapsed":526705,"internal_node_id":"0.0-19.0","task_version":"battery-v0.2-trt"},{"rune":"G","rune_set":"elianto","hex":"#3366ff99","correct":-1,"choice":32,"rt":849.9750000010245,"accuracy":0,"outcome":"+1","keys":[2350.4099999991013],"total_keys":1,"block":1,"trial":13,"stimulus":3,"robot":2,"valence":"win","action":"no-go","sham":0,"trial_type":"pit-trial","trial_index":88,"time_elapsed":530266,"internal_node_id":"0.0-20.0","task_version":"battery-v0.2-trt"},{"rune":"U","rune_set":"elianto","hex":"#f73b6a7A","correct":-1,"choice":-1,"rt":-1,"accuracy":1,"outcome":"-1","keys":[],"total_keys":0,"block":1,"trial":14,"stimulus":0,"robot":4,"valence":"lose","action":"no-go","sham":0,"trial_type":"pit-trial","trial_index":89,"time_elapsed":534278,"internal_node_id":"0.0-21.0","task_version":"battery-v0.2-trt"},{"rune":"A","rune_set":"elianto","hex":"#3366ff99","correct":32,"choice":32,"rt":553.359999998007,"accuracy":1,"outcome":"+10","keys":[2053.734999997774],"total_keys":1,"block":1,"trial":15,"stimulus":2,"robot":1,"valence":"win","action":"go","sham":0,"trial_type":"pit-trial","trial_index":90,"time_elapsed":537540,"internal_node_id":"0.0-22.0","task_version":"battery-v0.2-trt"},{"rune":"L","rune_set":"elianto","hex":"#f73b6a7A","correct":-1,"choice":-1,"rt":-1,"accuracy":1,"outcome":"-1","keys":[],"total_keys":0,"block":1,"trial":16,"stimulus":1,"robot":4,"valence":"lose","action":"no-go","sham":0,"trial_type":"pit-trial","trial_index":91,"time_elapsed":541552,"internal_node_id":"0.0-23.0","task_version":"battery-v0.2-trt"},{"rune":"U","rune_set":"elianto","hex":"#f73b6a7A","correct":-1,"choice":-1,"rt":-1,"accuracy":1,"outcome":"-10","keys":[],"total_keys":0,"block":1,"trial":17,"stimulus":0,"robot":4,"valence":"lose","action":"no-go","sham":1,"trial_type":"pit-trial","trial_index":92,"time_elapsed":545574,"internal_node_id":"0.0-24.0","task_version":"battery-v0.2-trt"},{"rune":"G","rune_set":"elianto","hex":"#3366ff99","correct":-1,"choice":32,"rt":995.0800000005402,"accuracy":0,"outcome":"+10","keys":[2497.080000001006],"total_keys":1,"block":1,"trial":18,"stimulus":3,"robot":2,"valence":"win","action":"no-go","sham":1,"trial_type":"pit-trial","trial_index":93,"time_elapsed":549281,"internal_node_id":"0.0-25.0","task_version":"battery-v0.2-trt"},{"rune":"A","rune_set":"elianto","hex":"#3366ff99","correct":32,"choice":32,"rt":604.4750000000931,"accuracy":1,"outcome":"+10","keys":[2105.0199999990873],"total_keys":1,"block":1,"trial":19,"stimulus":2,"robot":1,"valence":"win","action":"go","sham":0,"trial_type":"pit-trial","trial_index":94,"time_elapsed":552597,"internal_node_id":"0.0-26.0","task_version":"battery-v0.2-trt"},{"rune":"L","rune_set":"elianto","hex":"#f73b6a7A","correct":-1,"choice":32,"rt":484.1100000011502,"accuracy":0,"outcome":"-10","keys":[1984.29000000027],"total_keys":1,"block":1,"trial":20,"stimulus":1,"robot":4,"valence":"lose","action":"no-go","sham":0,"trial_type":"pit-trial","trial_index":95,"time_elapsed":555793,"internal_node_id":"0.0-27.0","task_version":"battery-v0.2-trt"},{"rune":"G","rune_set":"elianto","hex":"#3366ff99","correct":-1,"choice":32,"rt":489.15499999932945,"accuracy":0,"outcome":"+10","keys":[1989.835000000312],"total_keys":1,"block":1,"trial":21,"stimulus":3,"robot":2,"valence":"win","action":"no-go","sham":1,"trial_type":"pit-trial","trial_index":96,"time_elapsed":558995,"internal_node_id":"0.0-28.0","task_version":"battery-v0.2-trt"},{"rune":"A","rune_set":"elianto","hex":"#3366ff99","correct":32,"choice":32,"rt":575.4999999990687,"accuracy":1,"outcome":"+10","keys":[2076.8499999976484],"total_keys":1,"block":1,"trial":22,"stimulus":2,"robot":1,"valence":"win","action":"go","sham":0,"trial_type":"pit-trial","trial_index":97,"time_elapsed":562285,"internal_node_id":"0.0-29.0","task_version":"battery-v0.2-trt"},{"rune":"L","rune_set":"elianto","hex":"#f73b6a7A","correct":-1,"choice":-1,"rt":-1,"accuracy":1,"outcome":"-1","keys":[3949.4449999984354],"total_keys":1,"block":1,"trial":23,"stimulus":1,"robot":4,"valence":"lose","action":"no-go","sham":0,"trial_type":"pit-trial","trial_index":98,"time_elapsed":566299,"internal_node_id":"0.0-30.0","task_version":"battery-v0.2-trt"},{"rune":"U","rune_set":"elianto","hex":"#f73b6a7A","correct":-1,"choice":-1,"rt":-1,"accuracy":1,"outcome":"-1","keys":[],"total_keys":0,"block":1,"trial":24,"stimulus":0,"robot":4,"valence":"lose","action":"no-go","sham":0,"trial_type":"pit-trial","trial_index":99,"time_elapsed":570311,"internal_node_id":"0.0-31.0","task_version":"battery-v0.2-trt"},{"rune":"L","rune_set":"elianto","hex":"#f73b6a7A","correct":-1,"choice":32,"rt":889.820000000298,"accuracy":0,"outcome":"-1","keys":[2392.4350000015693],"total_keys":1,"block":1,"trial":25,"stimulus":1,"robot":4,"valence":"lose","action":"no-go","sham":1,"trial_type":"pit-trial","trial_index":100,"time_elapsed":573916,"internal_node_id":"0.0-32.0","task_version":"battery-v0.2-trt"},{"rune":"G","rune_set":"elianto","hex":"#3366ff99","correct":-1,"choice":32,"rt":550.5449999982957,"accuracy":0,"outcome":"+10","keys":[2050.7749999997905],"total_keys":1,"block":1,"trial":26,"stimulus":3,"robot":2,"valence":"win","action":"no-go","sham":1,"trial_type":"pit-trial","trial_index":101,"time_elapsed":577179,"internal_node_id":"0.0-33.0","task_version":"battery-v0.2-trt"},{"rune":"A","rune_set":"elianto","hex":"#3366ff99","correct":32,"choice":32,"rt":544.7999999996973,"accuracy":1,"outcome":"+10","keys":[2046.4150000007357],"total_keys":1,"block":1,"trial":27,"stimulus":2,"robot":1,"valence":"win","action":"go","sham":0,"trial_type":"pit-trial","trial_index":102,"time_elapsed":580435,"internal_node_id":"0.0-34.0","task_version":"battery-v0.2-trt"},{"rune":"U","rune_set":"elianto","hex":"#f73b6a7A","correct":-1,"choice":32,"rt":1282.9899999996414,"accuracy":0,"outcome":"-10","keys":[2783.9949999979],"total_keys":1,"block":1,"trial":28,"stimulus":0,"robot":4,"valence":"lose","action":"no-go","sham":0,"trial_type":"pit-trial","trial_index":103,"time_elapsed":584430,"internal_node_id":"0.0-35.0","task_version":"battery-v0.2-trt"},{"rune":"G","rune_set":"elianto","hex":"#3366ff99","correct":-1,"choice":32,"rt":480.31000000273343,"accuracy":0,"outcome":"+1","keys":[1980.8750000011642],"total_keys":1,"block":1,"trial":29,"stimulus":3,"robot":2,"valence":"win","action":"no-go","sham":0,"trial_type":"pit-trial","trial_index":104,"time_elapsed":587622,"internal_node_id":"0.0-36.0","task_version":"battery-v0.2-trt"},{"rune":"A","rune_set":"elianto","hex":"#3366ff99","correct":32,"choice":32,"rt":464.1800000027288,"accuracy":1,"outcome":"+10","keys":[1964.2449999991804],"total_keys":1,"block":1,"trial":30,"stimulus":2,"robot":1,"valence":"win","action":"go","sham":0,"trial_type":"pit-trial","trial_index":105,"time_elapsed":590798,"internal_node_id":"0.0-37.0","task_version":"battery-v0.2-trt"},{"rune":"U","rune_set":"elianto","hex":"#f73b6a7A","correct":-1,"choice":-1,"rt":-1,"accuracy":1,"outcome":"-10","keys":[2944.0150000009453],"total_keys":1,"block":1,"trial":31,"stimulus":0,"robot":4,"valence":"lose","action":"no-go","sham":1,"trial_type":"pit-trial","trial_index":106,"time_elapsed":594812,"internal_node_id":"0.0-38.0","task_version":"battery-v0.2-trt"},{"rune":"L","rune_set":"elianto","hex":"#f73b6a7A","correct":-1,"choice":32,"rt":926.9649999986868,"accuracy":0,"outcome":"-10","keys":[2427.465000000666],"total_keys":1,"block":1,"trial":32,"stimulus":1,"robot":4,"valence":"lose","action":"no-go","sham":0,"trial_type":"pit-trial","trial_index":107,"time_elapsed":598449,"internal_node_id":"0.0-39.0","task_version":"battery-v0.2-trt"},{"rune":"P","rune_set":"elianto","hex":"#f73b6a7A","correct":32,"choice":-1,"rt":-1,"accuracy":0,"outcome":"-10","keys":[],"total_keys":0,"block":1,"trial":33,"stimulus":4,"robot":3,"valence":"lose","action":"go","sham":0,"trial_type":"pit-trial","trial_index":108,"time_elapsed":602461,"internal_node_id":"0.0-40.0","task_version":"battery-v0.2-trt"},{"rune":"A","rune_set":"elianto","hex":"#3366ff99","correct":32,"choice":32,"rt":590.395000002929,"accuracy":1,"outcome":"+10","keys":[2090.9500000015832],"total_keys":1,"block":1,"trial":34,"stimulus":2,"robot":1,"valence":"win","action":"go","sham":0,"trial_type":"pit-trial","trial_index":109,"time_elapsed":605763,"internal_node_id":"0.0-41.0","task_version":"battery-v0.2-trt"},{"rune":"U","rune_set":"elianto","hex":"#f73b6a7A","correct":-1,"choice":-1,"rt":-1,"accuracy":1,"outcome":"-1","keys":[],"total_keys":0,"block":1,"trial":35,"stimulus":0,"robot":4,"valence":"lose","action":"no-go","sham":0,"trial_type":"pit-trial","trial_index":110,"time_elapsed":609776,"internal_node_id":"0.0-42.0","task_version":"battery-v0.2-trt"},{"rune":"G","rune_set":"elianto","hex":"#3366ff99","correct":-1,"choice":32,"rt":513.7350000004517,"accuracy":0,"outcome":"+1","keys":[2013.8449999977602],"total_keys":1,"block":1,"trial":36,"stimulus":3,"robot":2,"valence":"win","action":"no-go","sham":0,"trial_type":"pit-trial","trial_index":111,"time_elapsed":612997,"internal_node_id":"0.0-43.0","task_version":"battery-v0.2-trt"},{"rune":"A","rune_set":"elianto","hex":"#3366ff99","correct":32,"choice":32,"rt":505.21999999915715,"accuracy":1,"outcome":"+10","keys":[2007.2999999974854],"total_keys":1,"block":1,"trial":37,"stimulus":2,"robot":1,"valence":"win","action":"go","sham":0,"trial_type":"pit-trial","trial_index":112,"time_elapsed":616214,"internal_node_id":"0.0-44.0","task_version":"battery-v0.2-trt"},{"rune":"U","rune_set":"elianto","hex":"#f73b6a7A","correct":-1,"choice":-1,"rt":-1,"accuracy":1,"outcome":"-1","keys":[],"total_keys":0,"block":1,"trial":38,"stimulus":0,"robot":4,"valence":"lose","action":"no-go","sham":0,"trial_type":"pit-trial","trial_index":113,"time_elapsed":620225,"internal_node_id":"0.0-45.0","task_version":"battery-v0.2-trt"},{"rune":"P","rune_set":"elianto","hex":"#f73b6a7A","correct":32,"choice":-1,"rt":-1,"accuracy":0,"outcome":"-10","keys":[],"total_keys":0,"block":1,"trial":39,"stimulus":4,"robot":3,"valence":"lose","action":"go","sham":0,"trial_type":"pit-trial","trial_index":114,"time_elapsed":624242,"internal_node_id":"0.0-46.0","task_version":"battery-v0.2-trt"},{"rune":"G","rune_set":"elianto","hex":"#3366ff99","correct":-1,"choice":32,"rt":601.1999999972759,"accuracy":0,"outcome":"+1","keys":[2101.7550000032643],"total_keys":1,"block":1,"trial":40,"stimulus":3,"robot":2,"valence":"win","action":"no-go","sham":0,"trial_type":"pit-trial","trial_index":115,"time_elapsed":627556,"internal_node_id":"0.0-47.0","task_version":"battery-v0.2-trt"},{"rune":"W","rune_set":"elianto","hex":"#3366ff99","correct":32,"choice":32,"rt":911.3349999970524,"accuracy":1,"outcome":"+10","keys":[2413.560000000871],"total_keys":1,"block":1,"trial":41,"stimulus":6,"robot":1,"valence":"win","action":"go","sham":0,"trial_type":"pit-trial","trial_index":116,"time_elapsed":631178,"internal_node_id":"0.0-48.0","task_version":"battery-v0.2-trt"},{"rune":"P","rune_set":"elianto","hex":"#f73b6a7A","correct":32,"choice":-1,"rt":-1,"accuracy":0,"outcome":"-1","keys":[],"total_keys":0,"block":1,"trial":42,"stimulus":4,"robot":3,"valence":"lose","action":"go","sham":1,"trial_type":"pit-trial","trial_index":117,"time_elapsed":635190,"internal_node_id":"0.0-49.0","task_version":"battery-v0.2-trt"},{"rune":"U","rune_set":"elianto","hex":"#f73b6a7A","correct":-1,"choice":-1,"rt":-1,"accuracy":1,"outcome":"-1","keys":[],"total_keys":0,"block":1,"trial":43,"stimulus":0,"robot":4,"valence":"lose","action":"no-go","sham":0,"trial_type":"pit-trial","trial_index":118,"time_elapsed":639202,"internal_node_id":"0.0-50.0","task_version":"battery-v0.2-trt"},{"rune":"S","rune_set":"elianto","hex":"#3366ff99","correct":-1,"choice":32,"rt":772.8349999997299,"accuracy":0,"outcome":"+1","keys":[2275.0799999994924],"total_keys":1,"block":1,"trial":44,"stimulus":5,"robot":2,"valence":"win","action":"no-go","sham":0,"trial_type":"pit-trial","trial_index":119,"time_elapsed":642689,"internal_node_id":"0.0-51.0","task_version":"battery-v0.2-trt"},{"rune":"P","rune_set":"elianto","hex":"#f73b6a7A","correct":32,"choice":-1,"rt":-1,"accuracy":0,"outcome":"-10","keys":[3004.5700000009965],"total_keys":1,"block":1,"trial":45,"stimulus":4,"robot":3,"valence":"lose","action":"go","sham":0,"trial_type":"pit-trial","trial_index":120,"time_elapsed":646701,"internal_node_id":"0.0-52.0","task_version":"battery-v0.2-trt"},{"rune":"U","rune_set":"elianto","hex":"#f73b6a7A","correct":-1,"choice":32,"rt":581.0549999987707,"accuracy":0,"outcome":"-10","keys":[2082.815000001574],"total_keys":1,"block":1,"trial":46,"stimulus":0,"robot":4,"valence":"lose","action":"no-go","sham":0,"trial_type":"pit-trial","trial_index":121,"time_elapsed":649994,"internal_node_id":"0.0-53.0","task_version":"battery-v0.2-trt"},{"rune":"S","rune_set":"elianto","hex":"#3366ff99","correct":-1,"choice":32,"rt":416.4900000032503,"accuracy":0,"outcome":"+1","keys":[1916.9800000017276],"total_keys":1,"block":1,"trial":47,"stimulus":5,"robot":2,"valence":"win","action":"no-go","sham":0,"trial_type":"pit-trial","trial_index":122,"time_elapsed":653120,"internal_node_id":"0.0-54.0","task_version":"battery-v0.2-trt"},{"rune":"W","rune_set":"elianto","hex":"#3366ff99","correct":32,"choice":32,"rt":326.0149999987334,"accuracy":1,"outcome":"+10","keys":[1826.8199999984354],"total_keys":1,"block":1,"trial":48,"stimulus":6,"robot":1,"valence":"win","action":"go","sham":0,"trial_type":"pit-trial","trial_index":123,"time_elapsed":656153,"internal_node_id":"0.0-55.0","task_version":"battery-v0.2-trt"},{"rune":"E","rune_set":"elianto","hex":"#f73b6a7A","correct":-1,"choice":32,"rt":677.9050000004936,"accuracy":0,"outcome":"-10","keys":[2178.0500000022585],"total_keys":1,"block":1,"trial":49,"stimulus":7,"robot":4,"valence":"lose","action":"no-go","sham":0,"trial_type":"pit-trial","trial_index":124,"time_elapsed":659543,"internal_node_id":"0.0-56.0","task_version":"battery-v0.2-trt"},{"rune":"S","rune_set":"elianto","hex":"#3366ff99","correct":-1,"choice":32,"rt":525.1900000002934,"accuracy":0,"outcome":"+1","keys":[2027.494999998482],"total_keys":1,"block":1,"trial":50,"stimulus":5,"robot":2,"valence":"win","action":"no-go","sham":0,"trial_type":"pit-trial","trial_index":125,"time_elapsed":662783,"internal_node_id":"0.0-57.0","task_version":"battery-v0.2-trt"},{"rune":"W","rune_set":"elianto","hex":"#3366ff99","correct":32,"choice":32,"rt":418.2750000000233,"accuracy":1,"outcome":"+10","keys":[1919.4300000017975],"total_keys":1,"block":1,"trial":51,"stimulus":6,"robot":1,"valence":"win","action":"go","sham":0,"trial_type":"pit-trial","trial_index":126,"time_elapsed":665911,"internal_node_id":"0.0-58.0","task_version":"battery-v0.2-trt"},{"rune":"P","rune_set":"elianto","hex":"#f73b6a7A","correct":32,"choice":-1,"rt":-1,"accuracy":0,"outcome":"-1","keys":[],"total_keys":0,"block":1,"trial":52,"stimulus":4,"robot":3,"valence":"lose","action":"go","sham":1,"trial_type":"pit-trial","trial_index":127,"time_elapsed":669923,"internal_node_id":"0.0-59.0","task_version":"battery-v0.2-trt"},{"rune":"P","rune_set":"elianto","hex":"#f73b6a7A","correct":32,"choice":-1,"rt":-1,"accuracy":0,"outcome":"-10","keys":[],"total_keys":0,"block":1,"trial":53,"stimulus":4,"robot":3,"valence":"lose","action":"go","sham":0,"trial_type":"pit-trial","trial_index":128,"time_elapsed":673934,"internal_node_id":"0.0-60.0","task_version":"battery-v0.2-trt"},{"rune":"W","rune_set":"elianto","hex":"#3366ff99","correct":32,"choice":32,"rt":499.1599999993341,"accuracy":1,"outcome":"+10","keys":[1999.650000001653],"total_keys":1,"block":1,"trial":54,"stimulus":6,"robot":1,"valence":"win","action":"go","sham":0,"trial_type":"pit-trial","trial_index":129,"time_elapsed":677144,"internal_node_id":"0.0-61.0","task_version":"battery-v0.2-trt"},{"rune":"E","rune_set":"elianto","hex":"#f73b6a7A","correct":-1,"choice":32,"rt":656.7350000004517,"accuracy":0,"outcome":"-10","keys":[2160.4650000007823],"total_keys":1,"block":1,"trial":55,"stimulus":7,"robot":4,"valence":"lose","action":"no-go","sham":0,"trial_type":"pit-trial","trial_index":130,"time_elapsed":680517,"internal_node_id":"0.0-62.0","task_version":"battery-v0.2-trt"},{"rune":"S","rune_set":"elianto","hex":"#3366ff99","correct":-1,"choice":32,"rt":497.1199999998789,"accuracy":0,"outcome":"+10","keys":[1997.219999997411],"total_keys":1,"block":1,"trial":56,"stimulus":5,"robot":2,"valence":"win","action":"no-go","sham":1,"trial_type":"pit-trial","trial_index":131,"time_elapsed":683727,"internal_node_id":"0.0-63.0","task_version":"battery-v0.2-trt"},{"rune":"W","rune_set":"elianto","hex":"#3366ff99","correct":32,"choice":32,"rt":494.22499999857973,"accuracy":1,"outcome":"+1","keys":[1995.5100000007078],"total_keys":1,"block":1,"trial":57,"stimulus":6,"robot":1,"valence":"win","action":"go","sham":1,"trial_type":"pit-trial","trial_index":132,"time_elapsed":686932,"internal_node_id":"0.0-64.0","task_version":"battery-v0.2-trt"},{"rune":"P","rune_set":"elianto","hex":"#f73b6a7A","correct":32,"choice":-1,"rt":-1,"accuracy":0,"outcome":"-1","keys":[],"total_keys":0,"block":1,"trial":58,"stimulus":4,"robot":3,"valence":"lose","action":"go","sham":1,"trial_type":"pit-trial","trial_index":133,"time_elapsed":690942,"internal_node_id":"0.0-65.0","task_version":"battery-v0.2-trt"},{"rune":"E","rune_set":"elianto","hex":"#f73b6a7A","correct":-1,"choice":32,"rt":661.3849999994272,"accuracy":0,"outcome":"-10","keys":[2163.8949999978067],"total_keys":1,"block":1,"trial":59,"stimulus":7,"robot":4,"valence":"lose","action":"no-go","sham":0,"trial_type":"pit-trial","trial_index":134,"time_elapsed":694316,"internal_node_id":"0.0-66.0","task_version":"battery-v0.2-trt"},{"rune":"S","rune_set":"elianto","hex":"#3366ff99","correct":-1,"choice":32,"rt":350.01999999803957,"accuracy":0,"outcome":"+1","keys":[1850.3750000018626],"total_keys":1,"block":1,"trial":60,"stimulus":5,"robot":2,"valence":"win","action":"no-go","sham":0,"trial_type":"pit-trial","trial_index":135,"time_elapsed":697375,"internal_node_id":"0.0-67.0","task_version":"battery-v0.2-trt"},{"rune":"E","rune_set":"elianto","hex":"#f73b6a7A","correct":-1,"choice":-1,"rt":-1,"accuracy":1,"outcome":"-1","keys":[],"total_keys":0,"block":1,"trial":61,"stimulus":7,"robot":4,"valence":"lose","action":"no-go","sham":0,"trial_type":"pit-trial","trial_index":136,"time_elapsed":701387,"internal_node_id":"0.0-68.0","task_version":"battery-v0.2-trt"},{"rune":"W","rune_set":"elianto","hex":"#3366ff99","correct":32,"choice":32,"rt":563.364999998128,"accuracy":1,"outcome":"+1","keys":[2063.5600000022678],"total_keys":1,"block":1,"trial":62,"stimulus":6,"robot":1,"valence":"win","action":"go","sham":1,"trial_type":"pit-trial","trial_index":137,"time_elapsed":704660,"internal_node_id":"0.0-69.0","task_version":"battery-v0.2-trt"},{"rune":"S","rune_set":"elianto","hex":"#3366ff99","correct":-1,"choice":32,"rt":488.89000000047963,"accuracy":0,"outcome":"+1","keys":[1990.5699999980861],"total_keys":1,"block":1,"trial":63,"stimulus":5,"robot":2,"valence":"win","action":"no-go","sham":0,"trial_type":"pit-trial","trial_index":138,"time_elapsed":707860,"internal_node_id":"0.0-70.0","task_version":"battery-v0.2-trt"},{"rune":"P","rune_set":"elianto","hex":"#f73b6a7A","correct":32,"choice":-1,"rt":-1,"accuracy":0,"outcome":"-10","keys":[],"total_keys":0,"block":1,"trial":64,"stimulus":4,"robot":3,"valence":"lose","action":"go","sham":0,"trial_type":"pit-trial","trial_index":139,"time_elapsed":711870,"internal_node_id":"0.0-71.0","task_version":"battery-v0.2-trt"},{"rune":"S","rune_set":"elianto","hex":"#3366ff99","correct":-1,"choice":32,"rt":561.7500000006985,"accuracy":0,"outcome":"+1","keys":[2062.069999999949],"total_keys":1,"block":1,"trial":65,"stimulus":5,"robot":2,"valence":"win","action":"no-go","sham":0,"trial_type":"pit-trial","trial_index":140,"time_elapsed":715143,"internal_node_id":"0.0-72.0","task_version":"battery-v0.2-trt"},{"rune":"E","rune_set":"elianto","hex":"#f73b6a7A","correct":-1,"choice":-1,"rt":-1,"accuracy":1,"outcome":"-1","keys":[],"total_keys":0,"block":1,"trial":66,"stimulus":7,"robot":4,"valence":"lose","action":"no-go","sham":0,"trial_type":"pit-trial","trial_index":141,"time_elapsed":719151,"internal_node_id":"0.0-73.0","task_version":"battery-v0.2-trt"},{"rune":"W","rune_set":"elianto","hex":"#3366ff99","correct":32,"choice":32,"rt":561.2599999984959,"accuracy":1,"outcome":"+10","keys":[2061.6250000020955],"total_keys":1,"block":1,"trial":67,"stimulus":6,"robot":1,"valence":"win","action":"go","sham":0,"trial_type":"pit-trial","trial_index":142,"time_elapsed":722425,"internal_node_id":"0.0-74.0","task_version":"battery-v0.2-trt"},{"rune":"P","rune_set":"elianto","hex":"#f73b6a7A","correct":32,"choice":-1,"rt":-1,"accuracy":0,"outcome":"-10","keys":[],"total_keys":0,"block":1,"trial":68,"stimulus":4,"robot":3,"valence":"lose","action":"go","sham":0,"trial_type":"pit-trial","trial_index":143,"time_elapsed":726436,"internal_node_id":"0.0-75.0","task_version":"battery-v0.2-trt"},{"rune":"P","rune_set":"elianto","hex":"#f73b6a7A","correct":32,"choice":-1,"rt":-1,"accuracy":0,"outcome":"-10","keys":[],"total_keys":0,"block":1,"trial":69,"stimulus":4,"robot":3,"valence":"lose","action":"go","sham":0,"trial_type":"pit-trial","trial_index":144,"time_elapsed":730447,"internal_node_id":"0.0-76.0","task_version":"battery-v0.2-trt"},{"rune":"W","rune_set":"elianto","hex":"#3366ff99","correct":32,"choice":32,"rt":571.1949999968056,"accuracy":1,"outcome":"+10","keys":[2071.794999999809],"total_keys":1,"block":1,"trial":70,"stimulus":6,"robot":1,"valence":"win","action":"go","sham":0,"trial_type":"pit-trial","trial_index":145,"time_elapsed":733731,"internal_node_id":"0.0-77.0","task_version":"battery-v0.2-trt"},{"rune":"S","rune_set":"elianto","hex":"#3366ff99","correct":-1,"choice":-1,"rt":-1,"accuracy":1,"outcome":"+10","keys":[3283.89999999851],"total_keys":1,"block":1,"trial":71,"stimulus":5,"robot":2,"valence":"win","action":"no-go","sham":0,"trial_type":"pit-trial","trial_index":146,"time_elapsed":737743,"internal_node_id":"0.0-78.0","task_version":"battery-v0.2-trt"},{"rune":"E","rune_set":"elianto","hex":"#f73b6a7A","correct":-1,"choice":-1,"rt":-1,"accuracy":1,"outcome":"-1","keys":[],"total_keys":0,"block":1,"trial":72,"stimulus":7,"robot":4,"valence":"lose","action":"no-go","sham":0,"trial_type":"pit-trial","trial_index":147,"time_elapsed":741756,"internal_node_id":"0.0-79.0","task_version":"battery-v0.2-trt"},{"rune":"E","rune_set":"elianto","hex":"#f73b6a7A","correct":-1,"choice":32,"rt":972.8749999994179,"accuracy":0,"outcome":"-10","keys":[2472.9550000011222],"total_keys":1,"block":1,"trial":73,"stimulus":7,"robot":4,"valence":"lose","action":"no-go","sham":0,"trial_type":"pit-trial","trial_index":148,"time_elapsed":745442,"internal_node_id":"0.0-80.0","task_version":"battery-v0.2-trt"},{"rune":"S","rune_set":"elianto","hex":"#3366ff99","correct":-1,"choice":32,"rt":441.21499999891967,"accuracy":0,"outcome":"+1","keys":[1943.1450000010664],"total_keys":1,"block":1,"trial":74,"stimulus":5,"robot":2,"valence":"win","action":"no-go","sham":0,"trial_type":"pit-trial","trial_index":149,"time_elapsed":748593,"internal_node_id":"0.0-81.0","task_version":"battery-v0.2-trt"},{"rune":"K","rune_set":"elianto","hex":"#3366ff99","correct":32,"choice":32,"rt":645.7999999984168,"accuracy":1,"outcome":"+10","keys":[2354.9100000018952],"total_keys":1,"block":1,"trial":75,"stimulus":8,"robot":1,"valence":"win","action":"go","sham":0,"trial_type":"pit-trial","trial_index":150,"time_elapsed":752156,"internal_node_id":"0.0-82.0","task_version":"battery-v0.2-trt"},{"rune":"D","rune_set":"elianto","hex":"#f73b6a7A","correct":32,"choice":32,"rt":776.1100000025472,"accuracy":1,"outcome":"-1","keys":[2276.429999998072],"total_keys":1,"block":1,"trial":76,"stimulus":9,"robot":3,"valence":"lose","action":"go","sham":0,"trial_type":"pit-trial","trial_index":151,"time_elapsed":755641,"internal_node_id":"0.0-83.0","task_version":"battery-v0.2-trt"},{"rune":"S","rune_set":"elianto","hex":"#3366ff99","correct":-1,"choice":32,"rt":748.6699999972479,"accuracy":0,"outcome":"+1","keys":[2248.7700000019977],"total_keys":1,"block":1,"trial":77,"stimulus":5,"robot":2,"valence":"win","action":"no-go","sham":0,"trial_type":"pit-trial","trial_index":152,"time_elapsed":759100,"internal_node_id":"0.0-84.0","task_version":"battery-v0.2-trt"},{"rune":"K","rune_set":"elianto","hex":"#3366ff99","correct":32,"choice":32,"rt":550.3300000019372,"accuracy":1,"outcome":"+10","keys":[2050.93500000285],"total_keys":1,"block":1,"trial":78,"stimulus":8,"robot":1,"valence":"win","action":"go","sham":0,"trial_type":"pit-trial","trial_index":153,"time_elapsed":762362,"internal_node_id":"0.0-85.0","task_version":"battery-v0.2-trt"},{"rune":"D","rune_set":"elianto","hex":"#f73b6a7A","correct":32,"choice":32,"rt":794.5499999986496,"accuracy":1,"outcome":"-1","keys":[2294.7349999995204],"total_keys":1,"block":1,"trial":79,"stimulus":9,"robot":3,"valence":"lose","action":"go","sham":0,"trial_type":"pit-trial","trial_index":154,"time_elapsed":765863,"internal_node_id":"0.0-86.0","task_version":"battery-v0.2-trt"},{"rune":"E","rune_set":"elianto","hex":"#f73b6a7A","correct":-1,"choice":-1,"rt":-1,"accuracy":1,"outcome":"-1","keys":[],"total_keys":0,"block":1,"trial":80,"stimulus":7,"robot":4,"valence":"lose","action":"no-go","sham":0,"trial_type":"pit-trial","trial_index":155,"time_elapsed":769876,"internal_node_id":"0.0-87.0","task_version":"battery-v0.2-trt"},{"rune":"S","rune_set":"elianto","hex":"#3366ff99","correct":-1,"choice":32,"rt":828.5200000028126,"accuracy":0,"outcome":"+1","keys":[2328.730000001029],"total_keys":1,"block":1,"trial":81,"stimulus":5,"robot":2,"valence":"win","action":"no-go","sham":0,"trial_type":"pit-trial","trial_index":156,"time_elapsed":773411,"internal_node_id":"0.0-88.0","task_version":"battery-v0.2-trt"},{"rune":"K","rune_set":"elianto","hex":"#3366ff99","correct":32,"choice":32,"rt":680.4850000006845,"accuracy":1,"outcome":"+1","keys":[2180.6149999974295],"total_keys":1,"block":1,"trial":82,"stimulus":8,"robot":1,"valence":"win","action":"go","sham":1,"trial_type":"pit-trial","trial_index":157,"time_elapsed":776802,"internal_node_id":"0.0-89.0","task_version":"battery-v0.2-trt"},{"rune":"D","rune_set":"elianto","hex":"#f73b6a7A","correct":32,"choice":32,"rt":699.2800000007264,"accuracy":1,"outcome":"-1","keys":[2200.3150000018068],"total_keys":1,"block":1,"trial":83,"stimulus":9,"robot":3,"valence":"lose","action":"go","sham":0,"trial_type":"pit-trial","trial_index":158,"time_elapsed":780210,"internal_node_id":"0.0-90.0","task_version":"battery-v0.2-trt"},{"rune":"E","rune_set":"elianto","hex":"#f73b6a7A","correct":-1,"choice":32,"rt":1055.400000001071,"accuracy":0,"outcome":"-10","keys":[2555.6700000015553],"total_keys":1,"block":1,"trial":84,"stimulus":7,"robot":4,"valence":"lose","action":"no-go","sham":0,"trial_type":"pit-trial","trial_index":159,"time_elapsed":783977,"internal_node_id":"0.0-91.0","task_version":"battery-v0.2-trt"},{"rune":"D","rune_set":"elianto","hex":"#f73b6a7A","correct":32,"choice":32,"rt":624.8049999994691,"accuracy":1,"outcome":"-1","keys":[2125.5400000009686],"total_keys":1,"block":1,"trial":85,"stimulus":9,"robot":3,"valence":"lose","action":"go","sham":0,"trial_type":"pit-trial","trial_index":160,"time_elapsed":787311,"internal_node_id":"0.0-92.0","task_version":"battery-v0.2-trt"},{"rune":"S","rune_set":"elianto","hex":"#3366ff99","correct":-1,"choice":32,"rt":762.2000000011176,"accuracy":0,"outcome":"+1","keys":[2262.5049999988405],"total_keys":1,"block":1,"trial":86,"stimulus":5,"robot":2,"valence":"win","action":"no-go","sham":0,"trial_type":"pit-trial","trial_index":161,"time_elapsed":790786,"internal_node_id":"0.0-93.0","task_version":"battery-v0.2-trt"},{"rune":"E","rune_set":"elianto","hex":"#f73b6a7A","correct":-1,"choice":32,"rt":850.5249999979278,"accuracy":0,"outcome":"-10","keys":[2352.7050000012387],"total_keys":1,"block":1,"trial":87,"stimulus":7,"robot":4,"valence":"lose","action":"no-go","sham":0,"trial_type":"pit-trial","trial_index":162,"time_elapsed":794345,"internal_node_id":"0.0-94.0","task_version":"battery-v0.2-trt"},{"rune":"K","rune_set":"elianto","hex":"#3366ff99","correct":32,"choice":32,"rt":762.2650000011781,"accuracy":1,"outcome":"+10","keys":[2263.2400000002235],"total_keys":1,"block":1,"trial":88,"stimulus":8,"robot":1,"valence":"win","action":"go","sham":0,"trial_type":"pit-trial","trial_index":163,"time_elapsed":797820,"internal_node_id":"0.0-95.0","task_version":"battery-v0.2-trt"},{"rune":"V","rune_set":"elianto","hex":"#3366ff99","correct":-1,"choice":32,"rt":685.0899999990361,"accuracy":0,"outcome":"+1","keys":[2186.000000001397],"total_keys":1,"block":1,"trial":89,"stimulus":11,"robot":2,"valence":"win","action":"no-go","sham":0,"trial_type":"pit-trial","trial_index":164,"time_elapsed":801214,"internal_node_id":"0.0-96.0","task_version":"battery-v0.2-trt"},{"rune":"D","rune_set":"elianto","hex":"#f73b6a7A","correct":32,"choice":-1,"rt":-1,"accuracy":0,"outcome":"-10","keys":[],"total_keys":0,"block":1,"trial":90,"stimulus":9,"robot":3,"valence":"lose","action":"go","sham":0,"trial_type":"pit-trial","trial_index":165,"time_elapsed":805224,"internal_node_id":"0.0-97.0","task_version":"battery-v0.2-trt"},{"rune":"J","rune_set":"elianto","hex":"#f73b6a7A","correct":32,"choice":32,"rt":809.7049999997253,"accuracy":1,"outcome":"-1","keys":[2310.2749999997905],"total_keys":1,"block":1,"trial":91,"stimulus":10,"robot":3,"valence":"lose","action":"go","sham":0,"trial_type":"pit-trial","trial_index":166,"time_elapsed":808741,"internal_node_id":"0.0-98.0","task_version":"battery-v0.2-trt"},{"rune":"K","rune_set":"elianto","hex":"#3366ff99","correct":32,"choice":32,"rt":727.5950000003213,"accuracy":1,"outcome":"+10","keys":[2228.8899999985006],"total_keys":1,"block":1,"trial":92,"stimulus":8,"robot":1,"valence":"win","action":"go","sham":0,"trial_type":"pit-trial","trial_index":167,"time_elapsed":812178,"internal_node_id":"0.0-99.0","task_version":"battery-v0.2-trt"},{"rune":"K","rune_set":"elianto","hex":"#3366ff99","correct":32,"choice":32,"rt":623.8549999981187,"accuracy":1,"outcome":"+1","keys":[2124.105000002659],"total_keys":1,"block":1,"trial":93,"stimulus":8,"robot":1,"valence":"win","action":"go","sham":1,"trial_type":"pit-trial","trial_index":168,"time_elapsed":815510,"internal_node_id":"0.0-100.0","task_version":"battery-v0.2-trt"},{"rune":"D","rune_set":"elianto","hex":"#f73b6a7A","correct":32,"choice":-1,"rt":-1,"accuracy":0,"outcome":"-1","keys":[],"total_keys":0,"block":1,"trial":94,"stimulus":9,"robot":3,"valence":"lose","action":"go","sham":1,"trial_type":"pit-trial","trial_index":169,"time_elapsed":819522,"internal_node_id":"0.0-101.0","task_version":"battery-v0.2-trt"},{"rune":"J","rune_set":"elianto","hex":"#f73b6a7A","correct":32,"choice":32,"rt":573.2549999994226,"accuracy":1,"outcome":"-1","keys":[2074.4950000008103],"total_keys":1,"block":1,"trial":95,"stimulus":10,"robot":3,"valence":"lose","action":"go","sham":0,"trial_type":"pit-trial","trial_index":170,"time_elapsed":822804,"internal_node_id":"0.0-102.0","task_version":"battery-v0.2-trt"},{"rune":"V","rune_set":"elianto","hex":"#3366ff99","correct":-1,"choice":32,"rt":621.8799999988405,"accuracy":0,"outcome":"+1","keys":[2123.0150000010617],"total_keys":1,"block":1,"trial":96,"stimulus":11,"robot":2,"valence":"win","action":"no-go","sham":0,"trial_type":"pit-trial","trial_index":171,"time_elapsed":826133,"internal_node_id":"0.0-103.0","task_version":"battery-v0.2-trt"},{"rune":"D","rune_set":"elianto","hex":"#f73b6a7A","correct":32,"choice":-1,"rt":-1,"accuracy":0,"outcome":"-10","keys":[],"total_keys":0,"block":1,"trial":97,"stimulus":9,"robot":3,"valence":"lose","action":"go","sham":0,"trial_type":"pit-trial","trial_index":172,"time_elapsed":830145,"internal_node_id":"0.0-104.0","task_version":"battery-v0.2-trt"},{"rune":"J","rune_set":"elianto","hex":"#f73b6a7A","correct":32,"choice":-1,"rt":-1,"accuracy":0,"outcome":"-10","keys":[],"total_keys":0,"block":1,"trial":98,"stimulus":10,"robot":3,"valence":"lose","action":"go","sham":0,"trial_type":"pit-trial","trial_index":173,"time_elapsed":834157,"internal_node_id":"0.0-105.0","task_version":"battery-v0.2-trt"},{"rune":"V","rune_set":"elianto","hex":"#3366ff99","correct":-1,"choice":32,"rt":596.5250000008382,"accuracy":0,"outcome":"+1","keys":[2098.070000000065],"total_keys":1,"block":1,"trial":99,"stimulus":11,"robot":2,"valence":"win","action":"no-go","sham":0,"trial_type":"pit-trial","trial_index":174,"time_elapsed":837465,"internal_node_id":"0.0-106.0","task_version":"battery-v0.2-trt"},{"rune":"K","rune_set":"elianto","hex":"#3366ff99","correct":32,"choice":32,"rt":523.7000000015832,"accuracy":1,"outcome":"+10","keys":[2024.2200000029989],"total_keys":1,"block":1,"trial":100,"stimulus":8,"robot":1,"valence":"win","action":"go","sham":0,"trial_type":"pit-trial","trial_index":175,"time_elapsed":840699,"internal_node_id":"0.0-107.0","task_version":"battery-v0.2-trt"},{"rune":"J","rune_set":"elianto","hex":"#f73b6a7A","correct":32,"choice":-1,"rt":-1,"accuracy":0,"outcome":"-1","keys":[],"total_keys":0,"block":1,"trial":101,"stimulus":10,"robot":3,"valence":"lose","action":"go","sham":1,"trial_type":"pit-trial","trial_index":176,"time_elapsed":844710,"internal_node_id":"0.0-108.0","task_version":"battery-v0.2-trt"},{"rune":"V","rune_set":"elianto","hex":"#3366ff99","correct":-1,"choice":32,"rt":628.0899999983376,"accuracy":0,"outcome":"+1","keys":[2129.6599999986356],"total_keys":1,"block":1,"trial":102,"stimulus":11,"robot":2,"valence":"win","action":"no-go","sham":0,"trial_type":"pit-trial","trial_index":177,"time_elapsed":848048,"internal_node_id":"0.0-109.0","task_version":"battery-v0.2-trt"},{"rune":"K","rune_set":"elianto","hex":"#3366ff99","correct":32,"choice":32,"rt":539.4400000004098,"accuracy":1,"outcome":"+10","keys":[2039.8950000017649],"total_keys":1,"block":1,"trial":103,"stimulus":8,"robot":1,"valence":"win","action":"go","sham":0,"trial_type":"pit-trial","trial_index":178,"time_elapsed":851297,"internal_node_id":"0.0-110.0","task_version":"battery-v0.2-trt"},{"rune":"D","rune_set":"elianto","hex":"#f73b6a7A","correct":32,"choice":32,"rt":955.1399999982677,"accuracy":1,"outcome":"-1","keys":[2457.2649999973364],"total_keys":1,"block":1,"trial":104,"stimulus":9,"robot":3,"valence":"lose","action":"go","sham":0,"trial_type":"pit-trial","trial_index":179,"time_elapsed":854962,"internal_node_id":"0.0-111.0","task_version":"battery-v0.2-trt"},{"rune":"J","rune_set":"elianto","hex":"#f73b6a7A","correct":32,"choice":32,"rt":576.9249999976018,"accuracy":1,"outcome":"-1","keys":[2079.51999999932],"total_keys":1,"block":1,"trial":105,"stimulus":10,"robot":3,"valence":"lose","action":"go","sham":0,"trial_type":"pit-trial","trial_index":180,"time_elapsed":858254,"internal_node_id":"0.0-112.0","task_version":"battery-v0.2-trt"},{"rune":"D","rune_set":"elianto","hex":"#f73b6a7A","correct":32,"choice":32,"rt":639.8049999988871,"accuracy":1,"outcome":"-1","keys":[2141.939999997616],"total_keys":1,"block":1,"trial":106,"stimulus":9,"robot":3,"valence":"lose","action":"go","sham":0,"trial_type":"pit-trial","trial_index":181,"time_elapsed":861605,"internal_node_id":"0.0-113.0","task_version":"battery-v0.2-trt"},{"rune":"V","rune_set":"elianto","hex":"#3366ff99","correct":-1,"choice":32,"rt":493.94500000204425,"accuracy":0,"outcome":"+10","keys":[1995.8599999990547],"total_keys":1,"block":1,"trial":107,"stimulus":11,"robot":2,"valence":"win","action":"no-go","sham":1,"trial_type":"pit-trial","trial_index":182,"time_elapsed":864813,"internal_node_id":"0.0-114.0","task_version":"battery-v0.2-trt"},{"rune":"K","rune_set":"elianto","hex":"#3366ff99","correct":32,"choice":32,"rt":590.5899999997346,"accuracy":1,"outcome":"+1","keys":[2090.674999999581],"total_keys":1,"block":1,"trial":108,"stimulus":8,"robot":1,"valence":"win","action":"go","sham":1,"trial_type":"pit-trial","trial_index":183,"time_elapsed":868116,"internal_node_id":"0.0-115.0","task_version":"battery-v0.2-trt"},{"rune":"D","rune_set":"elianto","hex":"#f73b6a7A","correct":32,"choice":32,"rt":719.5050000010524,"accuracy":1,"outcome":"-1","keys":[2219.6699999985285],"total_keys":1,"block":1,"trial":109,"stimulus":9,"robot":3,"valence":"lose","action":"go","sham":0,"trial_type":"pit-trial","trial_index":184,"time_elapsed":871547,"internal_node_id":"0.0-116.0","task_version":"battery-v0.2-trt"},{"rune":"V","rune_set":"elianto","hex":"#3366ff99","correct":-1,"choice":32,"rt":495.9049999997951,"accuracy":0,"outcome":"+10","keys":[1997.610000002198],"total_keys":1,"block":1,"trial":110,"stimulus":11,"robot":2,"valence":"win","action":"no-go","sham":1,"trial_type":"pit-trial","trial_index":185,"time_elapsed":874752,"internal_node_id":"0.0-117.0","task_version":"battery-v0.2-trt"},{"rune":"K","rune_set":"elianto","hex":"#3366ff99","correct":32,"choice":32,"rt":304.21999999822583,"accuracy":1,"outcome":"+10","keys":[1804.0699999982025],"total_keys":1,"block":1,"trial":111,"stimulus":8,"robot":1,"valence":"win","action":"go","sham":0,"trial_type":"pit-trial","trial_index":186,"time_elapsed":877763,"internal_node_id":"0.0-118.0","task_version":"battery-v0.2-trt"},{"rune":"J","rune_set":"elianto","hex":"#f73b6a7A","correct":32,"choice":32,"rt":564.0800000000745,"accuracy":1,"outcome":"-10","keys":[2064.3300000011222],"total_keys":1,"block":1,"trial":112,"stimulus":10,"robot":3,"valence":"lose","action":"go","sham":1,"trial_type":"pit-trial","trial_index":187,"time_elapsed":881039,"internal_node_id":"0.0-119.0","task_version":"battery-v0.2-trt"},{"rune":"J","rune_set":"elianto","hex":"#f73b6a7A","correct":32,"choice":-1,"rt":-1,"accuracy":0,"outcome":"-1","keys":[],"total_keys":0,"block":1,"trial":113,"stimulus":10,"robot":3,"valence":"lose","action":"go","sham":1,"trial_type":"pit-trial","trial_index":188,"time_elapsed":885050,"internal_node_id":"0.0-120.0","task_version":"battery-v0.2-trt"},{"rune":"V","rune_set":"elianto","hex":"#3366ff99","correct":-1,"choice":32,"rt":383.64000000001397,"accuracy":0,"outcome":"+1","keys":[1883.9299999999348],"total_keys":1,"block":1,"trial":114,"stimulus":11,"robot":2,"valence":"win","action":"no-go","sham":0,"trial_type":"pit-trial","trial_index":189,"time_elapsed":888143,"internal_node_id":"0.0-121.0","task_version":"battery-v0.2-trt"},{"rune":"D","rune_set":"elianto","hex":"#f73b6a7A","correct":32,"choice":-1,"rt":-1,"accuracy":0,"outcome":"-10","keys":[],"total_keys":0,"block":1,"trial":115,"stimulus":9,"robot":3,"valence":"lose","action":"go","sham":0,"trial_type":"pit-trial","trial_index":190,"time_elapsed":892156,"internal_node_id":"0.0-122.0","task_version":"battery-v0.2-trt"},{"rune":"K","rune_set":"elianto","hex":"#3366ff99","correct":32,"choice":32,"rt":413.39999999757856,"accuracy":1,"outcome":"+1","keys":[1914.7450000019744],"total_keys":1,"block":1,"trial":116,"stimulus":8,"robot":1,"valence":"win","action":"go","sham":1,"trial_type":"pit-trial","trial_index":191,"time_elapsed":895281,"internal_node_id":"0.0-123.0","task_version":"battery-v0.2-trt"},{"rune":"K","rune_set":"elianto","hex":"#3366ff99","correct":32,"choice":32,"rt":381.72000000125263,"accuracy":1,"outcome":"+10","keys":[1883.3199999971548],"total_keys":1,"block":1,"trial":117,"stimulus":8,"robot":1,"valence":"win","action":"go","sham":0,"trial_type":"pit-trial","trial_index":192,"time_elapsed":898373,"internal_node_id":"0.0-124.0","task_version":"battery-v0.2-trt"},{"rune":"J","rune_set":"elianto","hex":"#f73b6a7A","correct":32,"choice":-1,"rt":-1,"accuracy":0,"outcome":"-10","keys":[],"total_keys":0,"block":1,"trial":118,"stimulus":10,"robot":3,"valence":"lose","action":"go","sham":0,"trial_type":"pit-trial","trial_index":193,"time_elapsed":902390,"internal_node_id":"0.0-125.0","task_version":"battery-v0.2-trt"},{"rune":"V","rune_set":"elianto","hex":"#3366ff99","correct":-1,"choice":32,"rt":409.6449999997858,"accuracy":0,"outcome":"+1","keys":[1910.185000000638],"total_keys":1,"block":1,"trial":119,"stimulus":11,"robot":2,"valence":"win","action":"no-go","sham":0,"trial_type":"pit-trial","trial_index":194,"time_elapsed":905508,"internal_node_id":"0.0-126.0","task_version":"battery-v0.2-trt"},{"rune":"D","rune_set":"elianto","hex":"#f73b6a7A","correct":32,"choice":-1,"rt":-1,"accuracy":0,"outcome":"-10","keys":[],"total_keys":0,"block":1,"trial":120,"stimulus":9,"robot":3,"valence":"lose","action":"go","sham":0,"trial_type":"pit-trial","trial_index":195,"time_elapsed":909525,"internal_node_id":"0.0-127.0","task_version":"battery-v0.2-trt"},{"view_history":"[{\"page_index\":0,\"viewing_time\":6408.385000002454},{\"page_index\":1,\"viewing_time\":1305.339999999036}]","rt":7714.180000002729,"trial_type":"pit-instructions","trial_index":196,"time_elapsed":917246,"internal_node_id":"0.0-128.0","task_version":"battery-v0.2-trt"},{"rune":"Y","rune_set":"elianto","hex":"#f73b6a7A","correct":-1,"choice":32,"rt":989.3850000008242,"accuracy":0,"outcome":"-10","keys":[2490.81000000285],"total_keys":1,"block":2,"trial":121,"stimulus":2,"robot":4,"valence":"lose","action":"no-go","sham":0,"trial_type":"pit-trial","trial_index":197,"time_elapsed":920949,"internal_node_id":"0.0-129.0","task_version":"battery-v0.2-trt"},{"rune":"M","rune_set":"elianto","hex":"#3366ff99","correct":-1,"choice":32,"rt":477.53000000014435,"accuracy":0,"outcome":"+1","keys":[1978.4399999988964],"total_keys":1,"block":2,"trial":122,"stimulus":0,"robot":2,"valence":"win","action":"no-go","sham":0,"trial_type":"pit-trial","trial_index":198,"time_elapsed":924139,"internal_node_id":"0.0-130.0","task_version":"battery-v0.2-trt"},{"rune":"H","rune_set":"elianto","hex":"#3366ff99","correct":32,"choice":32,"rt":632.9050000022398,"accuracy":1,"outcome":"+10","keys":[2133.3549999981187],"total_keys":1,"block":2,"trial":123,"stimulus":3,"robot":1,"valence":"win","action":"go","sham":0,"trial_type":"pit-trial","trial_index":199,"time_elapsed":927480,"internal_node_id":"0.0-131.0","task_version":"battery-v0.2-trt"},{"rune":"R","rune_set":"elianto","hex":"#3366ff99","correct":32,"choice":32,"rt":605.6150000003399,"accuracy":1,"outcome":"+10","keys":[2107.9400000016904],"total_keys":1,"block":2,"trial":124,"stimulus":1,"robot":1,"valence":"win","action":"go","sham":0,"trial_type":"pit-trial","trial_index":200,"time_elapsed":930799,"internal_node_id":"0.0-132.0","task_version":"battery-v0.2-trt"},{"rune":"Y","rune_set":"elianto","hex":"#f73b6a7A","correct":-1,"choice":-1,"rt":-1,"accuracy":1,"outcome":"-1","keys":[],"total_keys":0,"block":2,"trial":125,"stimulus":2,"robot":4,"valence":"lose","action":"no-go","sham":0,"trial_type":"pit-trial","trial_index":201,"time_elapsed":934814,"internal_node_id":"0.0-133.0","task_version":"battery-v0.2-trt"},{"rune":"M","rune_set":"elianto","hex":"#3366ff99","correct":-1,"choice":32,"rt":583.1949999992503,"accuracy":0,"outcome":"+1","keys":[2085.5200000004843],"total_keys":1,"block":2,"trial":126,"stimulus":0,"robot":2,"valence":"win","action":"no-go","sham":0,"trial_type":"pit-trial","trial_index":202,"time_elapsed":938109,"internal_node_id":"0.0-134.0","task_version":"battery-v0.2-trt"},{"rune":"R","rune_set":"elianto","hex":"#3366ff99","correct":32,"choice":32,"rt":484.2050000006566,"accuracy":1,"outcome":"+10","keys":[1984.3049999981886],"total_keys":1,"block":2,"trial":127,"stimulus":1,"robot":1,"valence":"win","action":"go","sham":0,"trial_type":"pit-trial","trial_index":203,"time_elapsed":941302,"internal_node_id":"0.0-135.0","task_version":"battery-v0.2-trt"},{"rune":"H","rune_set":"elianto","hex":"#3366ff99","correct":32,"choice":32,"rt":390.8450000017183,"accuracy":1,"outcome":"+10","keys":[1891.8499999999767],"total_keys":1,"block":2,"trial":128,"stimulus":3,"robot":1,"valence":"win","action":"go","sham":0,"trial_type":"pit-trial","trial_index":204,"time_elapsed":944402,"internal_node_id":"0.0-136.0","task_version":"battery-v0.2-trt"},{"rune":"R","rune_set":"elianto","hex":"#3366ff99","correct":32,"choice":32,"rt":357.6099999990547,"accuracy":1,"outcome":"+10","keys":[1860.3100000000559],"total_keys":1,"block":2,"trial":129,"stimulus":1,"robot":1,"valence":"win","action":"go","sham":0,"trial_type":"pit-trial","trial_index":205,"time_elapsed":947473,"internal_node_id":"0.0-137.0","task_version":"battery-v0.2-trt"},{"rune":"Y","rune_set":"elianto","hex":"#f73b6a7A","correct":-1,"choice":32,"rt":741.0899999995017,"accuracy":0,"outcome":"-1","keys":[2241.2850000000326],"total_keys":1,"block":2,"trial":130,"stimulus":2,"robot":4,"valence":"lose","action":"no-go","sham":1,"trial_type":"pit-trial","trial_index":206,"time_elapsed":950923,"internal_node_id":"0.0-138.0","task_version":"battery-v0.2-trt"},{"rune":"H","rune_set":"elianto","hex":"#3366ff99","correct":32,"choice":32,"rt":559.2099999993807,"accuracy":1,"outcome":"+1","keys":[2059.3100000005215],"total_keys":1,"block":2,"trial":131,"stimulus":3,"robot":1,"valence":"win","action":"go","sham":1,"trial_type":"pit-trial","trial_index":207,"time_elapsed":954190,"internal_node_id":"0.0-139.0","task_version":"battery-v0.2-trt"},{"rune":"M","rune_set":"elianto","hex":"#3366ff99","correct":-1,"choice":32,"rt":445.4799999985844,"accuracy":0,"outcome":"+1","keys":[1945.6599999975879],"total_keys":1,"block":2,"trial":132,"stimulus":0,"robot":2,"valence":"win","action":"no-go","sham":0,"trial_type":"pit-trial","trial_index":208,"time_elapsed":957344,"internal_node_id":"0.0-140.0","task_version":"battery-v0.2-trt"},{"rune":"R","rune_set":"elianto","hex":"#3366ff99","correct":32,"choice":32,"rt":520.1999999990221,"accuracy":1,"outcome":"+10","keys":[2020.3900000015274],"total_keys":1,"block":2,"trial":133,"stimulus":1,"robot":1,"valence":"win","action":"go","sham":0,"trial_type":"pit-trial","trial_index":209,"time_elapsed":960574,"internal_node_id":"0.0-141.0","task_version":"battery-v0.2-trt"},{"rune":"H","rune_set":"elianto","hex":"#3366ff99","correct":32,"choice":32,"rt":452.4700000002049,"accuracy":1,"outcome":"+1","keys":[1955.3049999994691],"total_keys":1,"block":2,"trial":134,"stimulus":3,"robot":1,"valence":"win","action":"go","sham":1,"trial_type":"pit-trial","trial_index":210,"time_elapsed":963739,"internal_node_id":"0.0-142.0","task_version":"battery-v0.2-trt"},{"rune":"Y","rune_set":"elianto","hex":"#f73b6a7A","correct":-1,"choice":32,"rt":880.9549999968149,"accuracy":0,"outcome":"-1","keys":[2381.0249999987427],"total_keys":1,"block":2,"trial":135,"stimulus":2,"robot":4,"valence":"lose","action":"no-go","sham":1,"trial_type":"pit-trial","trial_index":211,"time_elapsed":967333,"internal_node_id":"0.0-143.0","task_version":"battery-v0.2-trt"},{"rune":"M","rune_set":"elianto","hex":"#3366ff99","correct":-1,"choice":32,"rt":599.2150000019465,"accuracy":0,"outcome":"+1","keys":[2099.3300000008894],"total_keys":1,"block":2,"trial":136,"stimulus":0,"robot":2,"valence":"win","action":"no-go","sham":0,"trial_type":"pit-trial","trial_index":212,"time_elapsed":970641,"internal_node_id":"0.0-144.0","task_version":"battery-v0.2-trt"},{"rune":"R","rune_set":"elianto","hex":"#3366ff99","correct":32,"choice":32,"rt":539.8499999974156,"accuracy":1,"outcome":"+10","keys":[2040.0200000004843],"total_keys":1,"block":2,"trial":137,"stimulus":1,"robot":1,"valence":"win","action":"go","sham":0,"trial_type":"pit-trial","trial_index":213,"time_elapsed":973893,"internal_node_id":"0.0-145.0","task_version":"battery-v0.2-trt"},{"rune":"H","rune_set":"elianto","hex":"#3366ff99","correct":32,"choice":32,"rt":420.79499999817926,"accuracy":1,"outcome":"+10","keys":[1921.034999999334],"total_keys":1,"block":2,"trial":138,"stimulus":3,"robot":1,"valence":"win","action":"go","sham":0,"trial_type":"pit-trial","trial_index":214,"time_elapsed":977022,"internal_node_id":"0.0-146.0","task_version":"battery-v0.2-trt"},{"rune":"Y","rune_set":"elianto","hex":"#f73b6a7A","correct":-1,"choice":32,"rt":646.6449999971082,"accuracy":0,"outcome":"-10","keys":[2146.730000000447],"total_keys":1,"block":2,"trial":139,"stimulus":2,"robot":4,"valence":"lose","action":"no-go","sham":0,"trial_type":"pit-trial","trial_index":215,"time_elapsed":980381,"internal_node_id":"0.0-147.0","task_version":"battery-v0.2-trt"},{"rune":"M","rune_set":"elianto","hex":"#3366ff99","correct":-1,"choice":32,"rt":282.40999999979977,"accuracy":0,"outcome":"+1","keys":[1782.5950000005541],"total_keys":1,"block":2,"trial":140,"stimulus":0,"robot":2,"valence":"win","action":"no-go","sham":0,"trial_type":"pit-trial","trial_index":216,"time_elapsed":983370,"internal_node_id":"0.0-148.0","task_version":"battery-v0.2-trt"},{"rune":"R","rune_set":"elianto","hex":"#3366ff99","correct":32,"choice":32,"rt":375.6649999995716,"accuracy":1,"outcome":"+10","keys":[1877.3699999983655],"total_keys":1,"block":2,"trial":141,"stimulus":1,"robot":1,"valence":"win","action":"go","sham":0,"trial_type":"pit-trial","trial_index":217,"time_elapsed":986455,"internal_node_id":"0.0-149.0","task_version":"battery-v0.2-trt"},{"rune":"Y","rune_set":"elianto","hex":"#f73b6a7A","correct":-1,"choice":32,"rt":751.2249999999767,"accuracy":0,"outcome":"-10","keys":[2253.4799999993993],"total_keys":1,"block":2,"trial":142,"stimulus":2,"robot":4,"valence":"lose","action":"no-go","sham":0,"trial_type":"pit-trial","trial_index":218,"time_elapsed":989919,"internal_node_id":"0.0-150.0","task_version":"battery-v0.2-trt"},{"rune":"M","rune_set":"elianto","hex":"#3366ff99","correct":-1,"choice":32,"rt":519.4299999966752,"accuracy":0,"outcome":"+10","keys":[2020.0750000003027],"total_keys":1,"block":2,"trial":143,"stimulus":0,"robot":2,"valence":"win","action":"no-go","sham":1,"trial_type":"pit-trial","trial_index":219,"time_elapsed":993152,"internal_node_id":"0.0-151.0","task_version":"battery-v0.2-trt"},{"rune":"H","rune_set":"elianto","hex":"#3366ff99","correct":32,"choice":32,"rt":480.62500000023283,"accuracy":1,"outcome":"+1","keys":[1983.089999997872],"total_keys":1,"block":2,"trial":144,"stimulus":3,"robot":1,"valence":"win","action":"go","sham":1,"trial_type":"pit-trial","trial_index":220,"time_elapsed":996345,"internal_node_id":"0.0-152.0","task_version":"battery-v0.2-trt"},{"rune":"R","rune_set":"elianto","hex":"#3366ff99","correct":32,"choice":32,"rt":52.53500000247732,"accuracy":1,"outcome":"+1","keys":[1552.6250000002328],"total_keys":1,"block":2,"trial":145,"stimulus":1,"robot":1,"valence":"win","action":"go","sham":1,"trial_type":"pit-trial","trial_index":221,"time_elapsed":999106,"internal_node_id":"0.0-153.0","task_version":"battery-v0.2-trt"},{"rune":"H","rune_set":"elianto","hex":"#3366ff99","correct":32,"choice":32,"rt":431.5150000001304,"accuracy":1,"outcome":"+10","keys":[1932.9649999999674],"total_keys":1,"block":2,"trial":146,"stimulus":3,"robot":1,"valence":"win","action":"go","sham":0,"trial_type":"pit-trial","trial_index":222,"time_elapsed":1002248,"internal_node_id":"0.0-154.0","task_version":"battery-v0.2-trt"},{"rune":"Y","rune_set":"elianto","hex":"#f73b6a7A","correct":-1,"choice":-1,"rt":-1,"accuracy":1,"outcome":"-1","keys":[],"total_keys":0,"block":2,"trial":147,"stimulus":2,"robot":4,"valence":"lose","action":"no-go","sham":0,"trial_type":"pit-trial","trial_index":223,"time_elapsed":1006262,"internal_node_id":"0.0-155.0","task_version":"battery-v0.2-trt"},{"rune":"M","rune_set":"elianto","hex":"#3366ff99","correct":-1,"choice":32,"rt":498.8749999975553,"accuracy":0,"outcome":"+1","keys":[2000.915000000503],"total_keys":1,"block":2,"trial":148,"stimulus":0,"robot":2,"valence":"win","action":"no-go","sham":0,"trial_type":"pit-trial","trial_index":224,"time_elapsed":1009470,"internal_node_id":"0.0-156.0","task_version":"battery-v0.2-trt"},{"rune":"Y","rune_set":"elianto","hex":"#f73b6a7A","correct":-1,"choice":-1,"rt":-1,"accuracy":1,"outcome":"-10","keys":[],"total_keys":0,"block":2,"trial":149,"stimulus":2,"robot":4,"valence":"lose","action":"no-go","sham":1,"trial_type":"pit-trial","trial_index":225,"time_elapsed":1013484,"internal_node_id":"0.0-157.0","task_version":"battery-v0.2-trt"},{"rune":"R","rune_set":"elianto","hex":"#3366ff99","correct":32,"choice":32,"rt":564.4399999981979,"accuracy":1,"outcome":"+10","keys":[2066.015000000247],"total_keys":1,"block":2,"trial":150,"stimulus":1,"robot":1,"valence":"win","action":"go","sham":0,"trial_type":"pit-trial","trial_index":226,"time_elapsed":1016760,"internal_node_id":"0.0-158.0","task_version":"battery-v0.2-trt"},{"rune":"H","rune_set":"elianto","hex":"#3366ff99","correct":32,"choice":32,"rt":452.8100000025006,"accuracy":1,"outcome":"+1","keys":[1953.3450000017183],"total_keys":1,"block":2,"trial":151,"stimulus":3,"robot":1,"valence":"win","action":"go","sham":1,"trial_type":"pit-trial","trial_index":227,"time_elapsed":1019923,"internal_node_id":"0.0-159.0","task_version":"battery-v0.2-trt"},{"rune":"M","rune_set":"elianto","hex":"#3366ff99","correct":-1,"choice":32,"rt":528.9000000011874,"accuracy":0,"outcome":"+1","keys":[2029.555000001099],"total_keys":1,"block":2,"trial":152,"stimulus":0,"robot":2,"valence":"win","action":"no-go","sham":0,"trial_type":"pit-trial","trial_index":228,"time_elapsed":1023161,"internal_node_id":"0.0-160.0","task_version":"battery-v0.2-trt"},{"rune":"Y","rune_set":"elianto","hex":"#f73b6a7A","correct":-1,"choice":-1,"rt":-1,"accuracy":1,"outcome":"-1","keys":[],"total_keys":0,"block":2,"trial":153,"stimulus":2,"robot":4,"valence":"lose","action":"no-go","sham":0,"trial_type":"pit-trial","trial_index":229,"time_elapsed":1027172,"internal_node_id":"0.0-161.0","task_version":"battery-v0.2-trt"},{"rune":"M","rune_set":"elianto","hex":"#3366ff99","correct":-1,"choice":32,"rt":528.730000001844,"accuracy":0,"outcome":"+1","keys":[2030.1500000023516],"total_keys":1,"block":2,"trial":154,"stimulus":0,"robot":2,"valence":"win","action":"no-go","sham":0,"trial_type":"pit-trial","trial_index":230,"time_elapsed":1030411,"internal_node_id":"0.0-162.0","task_version":"battery-v0.2-trt"},{"rune":"H","rune_set":"elianto","hex":"#3366ff99","correct":32,"choice":32,"rt":450.20499999739695,"accuracy":1,"outcome":"+10","keys":[1951.2500000018626],"total_keys":1,"block":2,"trial":155,"stimulus":3,"robot":1,"valence":"win","action":"go","sham":0,"trial_type":"pit-trial","trial_index":231,"time_elapsed":1033571,"internal_node_id":"0.0-163.0","task_version":"battery-v0.2-trt"},{"rune":"Z","rune_set":"elianto","hex":"#3366ff99","correct":32,"choice":32,"rt":677.7099999999627,"accuracy":1,"outcome":"+10","keys":[2180.29999999993],"total_keys":1,"block":2,"trial":156,"stimulus":4,"robot":1,"valence":"win","action":"go","sham":0,"trial_type":"pit-trial","trial_index":232,"time_elapsed":1036966,"internal_node_id":"0.0-164.0","task_version":"battery-v0.2-trt"},{"rune":"H","rune_set":"elianto","hex":"#3366ff99","correct":32,"choice":32,"rt":603.1900000016904,"accuracy":1,"outcome":"+10","keys":[2103.364999998943],"total_keys":1,"block":2,"trial":157,"stimulus":3,"robot":1,"valence":"win","action":"go","sham":0,"trial_type":"pit-trial","trial_index":233,"time_elapsed":1040280,"internal_node_id":"0.0-165.0","task_version":"battery-v0.2-trt"},{"rune":"M","rune_set":"elianto","hex":"#3366ff99","correct":-1,"choice":32,"rt":439.77000000083353,"accuracy":0,"outcome":"+1","keys":[1941.8949999999022],"total_keys":1,"block":2,"trial":158,"stimulus":0,"robot":2,"valence":"win","action":"no-go","sham":0,"trial_type":"pit-trial","trial_index":234,"time_elapsed":1043431,"internal_node_id":"0.0-166.0","task_version":"battery-v0.2-trt"},{"rune":"Y","rune_set":"elianto","hex":"#f73b6a7A","correct":-1,"choice":-1,"rt":-1,"accuracy":1,"outcome":"-10","keys":[],"total_keys":0,"block":2,"trial":159,"stimulus":2,"robot":4,"valence":"lose","action":"no-go","sham":1,"trial_type":"pit-trial","trial_index":235,"time_elapsed":1047442,"internal_node_id":"0.0-167.0","task_version":"battery-v0.2-trt"},{"rune":"Z","rune_set":"elianto","hex":"#3366ff99","correct":32,"choice":32,"rt":282.31000000215136,"accuracy":1,"outcome":"+1","keys":[1784.554999998305],"total_keys":1,"block":2,"trial":160,"stimulus":4,"robot":1,"valence":"win","action":"go","sham":1,"trial_type":"pit-trial","trial_index":236,"time_elapsed":1050438,"internal_node_id":"0.0-168.0","task_version":"battery-v0.2-trt"},{"rune":"Z","rune_set":"elianto","hex":"#3366ff99","correct":32,"choice":32,"rt":646.3900000017602,"accuracy":1,"outcome":"+10","keys":[2147.444999998668],"total_keys":1,"block":2,"trial":161,"stimulus":4,"robot":1,"valence":"win","action":"go","sham":0,"trial_type":"pit-trial","trial_index":237,"time_elapsed":1053794,"internal_node_id":"0.0-169.0","task_version":"battery-v0.2-trt"},{"rune":"M","rune_set":"elianto","hex":"#3366ff99","correct":-1,"choice":32,"rt":401.0549999985378,"accuracy":0,"outcome":"+1","keys":[1903.5699999986682],"total_keys":1,"block":2,"trial":162,"stimulus":0,"robot":2,"valence":"win","action":"no-go","sham":0,"trial_type":"pit-trial","trial_index":238,"time_elapsed":1056906,"internal_node_id":"0.0-170.0","task_version":"battery-v0.2-trt"},{"rune":"B","rune_set":"elianto","hex":"#f73b6a7A","correct":-1,"choice":32,"rt":554.2900000000373,"accuracy":0,"outcome":"-10","keys":[2054.595000001369],"total_keys":1,"block":2,"trial":163,"stimulus":6,"robot":4,"valence":"lose","action":"no-go","sham":0,"trial_type":"pit-trial","trial_index":239,"time_elapsed":1060169,"internal_node_id":"0.0-171.0","task_version":"battery-v0.2-trt"},{"rune":"C","rune_set":"elianto","hex":"#f73b6a7A","correct":32,"choice":32,"rt":529.1199999991804,"accuracy":1,"outcome":"-1","keys":[2030.5850000004284],"total_keys":1,"block":2,"trial":164,"stimulus":5,"robot":3,"valence":"lose","action":"go","sham":0,"trial_type":"pit-trial","trial_index":240,"time_elapsed":1063408,"internal_node_id":"0.0-172.0","task_version":"battery-v0.2-trt"},{"rune":"B","rune_set":"elianto","hex":"#f73b6a7A","correct":-1,"choice":32,"rt":524.3250000020489,"accuracy":0,"outcome":"-10","keys":[2026.610000000801],"total_keys":1,"block":2,"trial":165,"stimulus":6,"robot":4,"valence":"lose","action":"no-go","sham":0,"trial_type":"pit-trial","trial_index":241,"time_elapsed":1066646,"internal_node_id":"0.0-173.0","task_version":"battery-v0.2-trt"},{"rune":"Z","rune_set":"elianto","hex":"#3366ff99","correct":32,"choice":32,"rt":447.69499999913387,"accuracy":1,"outcome":"+10","keys":[1949.860000000568],"total_keys":1,"block":2,"trial":166,"stimulus":4,"robot":1,"valence":"win","action":"go","sham":0,"trial_type":"pit-trial","trial_index":242,"time_elapsed":1069803,"internal_node_id":"0.0-174.0","task_version":"battery-v0.2-trt"},{"rune":"C","rune_set":"elianto","hex":"#f73b6a7A","correct":32,"choice":-1,"rt":-1,"accuracy":0,"outcome":"-10","keys":[],"total_keys":0,"block":2,"trial":167,"stimulus":5,"robot":3,"valence":"lose","action":"go","sham":0,"trial_type":"pit-trial","trial_index":243,"time_elapsed":1073815,"internal_node_id":"0.0-175.0","task_version":"battery-v0.2-trt"},{"rune":"M","rune_set":"elianto","hex":"#3366ff99","correct":-1,"choice":32,"rt":485.4300000006333,"accuracy":0,"outcome":"+1","keys":[1986.3999999978114],"total_keys":1,"block":2,"trial":168,"stimulus":0,"robot":2,"valence":"win","action":"no-go","sham":0,"trial_type":"pit-trial","trial_index":244,"time_elapsed":1077010,"internal_node_id":"0.0-176.0","task_version":"battery-v0.2-trt"},{"rune":"T","rune_set":"elianto","hex":"#3366ff99","correct":-1,"choice":32,"rt":485.41000000108033,"accuracy":0,"outcome":"+10","keys":[1985.7049999991432],"total_keys":1,"block":2,"trial":169,"stimulus":7,"robot":2,"valence":"win","action":"no-go","sham":1,"trial_type":"pit-trial","trial_index":245,"time_elapsed":1080206,"internal_node_id":"0.0-177.0","task_version":"battery-v0.2-trt"},{"rune":"Z","rune_set":"elianto","hex":"#3366ff99","correct":32,"choice":32,"rt":452.6399999994319,"accuracy":1,"outcome":"+10","keys":[1953.059999999823],"total_keys":1,"block":2,"trial":170,"stimulus":4,"robot":1,"valence":"win","action":"go","sham":0,"trial_type":"pit-trial","trial_index":246,"time_elapsed":1083372,"internal_node_id":"0.0-178.0","task_version":"battery-v0.2-trt"},{"rune":"C","rune_set":"elianto","hex":"#f73b6a7A","correct":32,"choice":32,"rt":798.7050000010058,"accuracy":1,"outcome":"-1","keys":[2298.839999999618],"total_keys":1,"block":2,"trial":171,"stimulus":5,"robot":3,"valence":"lose","action":"go","sham":0,"trial_type":"pit-trial","trial_index":247,"time_elapsed":1086882,"internal_node_id":"0.0-179.0","task_version":"battery-v0.2-trt"},{"rune":"B","rune_set":"elianto","hex":"#f73b6a7A","correct":-1,"choice":-1,"rt":-1,"accuracy":1,"outcome":"-1","keys":[],"total_keys":0,"block":2,"trial":172,"stimulus":6,"robot":4,"valence":"lose","action":"no-go","sham":0,"trial_type":"pit-trial","trial_index":248,"time_elapsed":1090889,"internal_node_id":"0.0-180.0","task_version":"battery-v0.2-trt"},{"rune":"Z","rune_set":"elianto","hex":"#3366ff99","correct":32,"choice":32,"rt":468.41499999933876,"accuracy":1,"outcome":"+10","keys":[1968.6150000016205],"total_keys":1,"block":2,"trial":173,"stimulus":4,"robot":1,"valence":"win","action":"go","sham":0,"trial_type":"pit-trial","trial_index":249,"time_elapsed":1094064,"internal_node_id":"0.0-181.0","task_version":"battery-v0.2-trt"},{"rune":"C","rune_set":"elianto","hex":"#f73b6a7A","correct":32,"choice":32,"rt":1145.8100000016857,"accuracy":1,"outcome":"-10","keys":[2647.984999999637],"total_keys":1,"block":2,"trial":174,"stimulus":5,"robot":3,"valence":"lose","action":"go","sham":1,"trial_type":"pit-trial","trial_index":250,"time_elapsed":1097920,"internal_node_id":"0.0-182.0","task_version":"battery-v0.2-trt"},{"rune":"T","rune_set":"elianto","hex":"#3366ff99","correct":-1,"choice":32,"rt":427.88999999896623,"accuracy":0,"outcome":"+1","keys":[1930.8500000005588],"total_keys":1,"block":2,"trial":175,"stimulus":7,"robot":2,"valence":"win","action":"no-go","sham":0,"trial_type":"pit-trial","trial_index":251,"time_elapsed":1101059,"internal_node_id":"0.0-183.0","task_version":"battery-v0.2-trt"},{"rune":"B","rune_set":"elianto","hex":"#f73b6a7A","correct":-1,"choice":32,"rt":663.0650000006426,"accuracy":0,"outcome":"-10","keys":[2163.4300000006333],"total_keys":1,"block":2,"trial":176,"stimulus":6,"robot":4,"valence":"lose","action":"no-go","sham":0,"trial_type":"pit-trial","trial_index":252,"time_elapsed":1104427,"internal_node_id":"0.0-184.0","task_version":"battery-v0.2-trt"},{"rune":"C","rune_set":"elianto","hex":"#f73b6a7A","correct":32,"choice":32,"rt":1018.2650000024587,"accuracy":1,"outcome":"-1","keys":[2518.5549999987707],"total_keys":1,"block":2,"trial":177,"stimulus":5,"robot":3,"valence":"lose","action":"go","sham":0,"trial_type":"pit-trial","trial_index":253,"time_elapsed":1108154,"internal_node_id":"0.0-185.0","task_version":"battery-v0.2-trt"},{"rune":"B","rune_set":"elianto","hex":"#f73b6a7A","correct":-1,"choice":-1,"rt":-1,"accuracy":1,"outcome":"-1","keys":[],"total_keys":0,"block":2,"trial":178,"stimulus":6,"robot":4,"valence":"lose","action":"no-go","sham":0,"trial_type":"pit-trial","trial_index":254,"time_elapsed":1112166,"internal_node_id":"0.0-186.0","task_version":"battery-v0.2-trt"},{"rune":"T","rune_set":"elianto","hex":"#3366ff99","correct":-1,"choice":32,"rt":426.04000000213273,"accuracy":0,"outcome":"+1","keys":[1928.1149999988265],"total_keys":1,"block":2,"trial":179,"stimulus":7,"robot":2,"valence":"win","action":"no-go","sham":0,"trial_type":"pit-trial","trial_index":255,"time_elapsed":1115304,"internal_node_id":"0.0-187.0","task_version":"battery-v0.2-trt"},{"rune":"Z","rune_set":"elianto","hex":"#3366ff99","correct":32,"choice":32,"rt":400.64000000339,"accuracy":1,"outcome":"+10","keys":[1902.2349999977741],"total_keys":1,"block":2,"trial":180,"stimulus":4,"robot":1,"valence":"win","action":"go","sham":0,"trial_type":"pit-trial","trial_index":256,"time_elapsed":1118416,"internal_node_id":"0.0-188.0","task_version":"battery-v0.2-trt"},{"rune":"C","rune_set":"elianto","hex":"#f73b6a7A","correct":32,"choice":-1,"rt":-1,"accuracy":0,"outcome":"-10","keys":[],"total_keys":0,"block":2,"trial":181,"stimulus":5,"robot":3,"valence":"lose","action":"go","sham":0,"trial_type":"pit-trial","trial_index":257,"time_elapsed":1122429,"internal_node_id":"0.0-189.0","task_version":"battery-v0.2-trt"},{"rune":"Z","rune_set":"elianto","hex":"#3366ff99","correct":32,"choice":32,"rt":631.025000002468,"accuracy":1,"outcome":"+10","keys":[2131.0899999989197],"total_keys":1,"block":2,"trial":182,"stimulus":4,"robot":1,"valence":"win","action":"go","sham":0,"trial_type":"pit-trial","trial_index":258,"time_elapsed":1125773,"internal_node_id":"0.0-190.0","task_version":"battery-v0.2-trt"},{"rune":"B","rune_set":"elianto","hex":"#f73b6a7A","correct":-1,"choice":-1,"rt":-1,"accuracy":1,"outcome":"-1","keys":[],"total_keys":0,"block":2,"trial":183,"stimulus":6,"robot":4,"valence":"lose","action":"no-go","sham":0,"trial_type":"pit-trial","trial_index":259,"time_elapsed":1129784,"internal_node_id":"0.0-191.0","task_version":"battery-v0.2-trt"},{"rune":"T","rune_set":"elianto","hex":"#3366ff99","correct":-1,"choice":32,"rt":411.4950000003446,"accuracy":0,"outcome":"+1","keys":[1913.0900000017136],"total_keys":1,"block":2,"trial":184,"stimulus":7,"robot":2,"valence":"win","action":"no-go","sham":0,"trial_type":"pit-trial","trial_index":260,"time_elapsed":1132904,"internal_node_id":"0.0-192.0","task_version":"battery-v0.2-trt"},{"rune":"T","rune_set":"elianto","hex":"#3366ff99","correct":-1,"choice":32,"rt":423.0150000003632,"accuracy":0,"outcome":"+1","keys":[1924.6200000015087],"total_keys":1,"block":2,"trial":185,"stimulus":7,"robot":2,"valence":"win","action":"no-go","sham":0,"trial_type":"pit-trial","trial_index":261,"time_elapsed":1136037,"internal_node_id":"0.0-193.0","task_version":"battery-v0.2-trt"},{"rune":"C","rune_set":"elianto","hex":"#f73b6a7A","correct":32,"choice":-1,"rt":-1,"accuracy":0,"outcome":"-10","keys":[],"total_keys":0,"block":2,"trial":186,"stimulus":5,"robot":3,"valence":"lose","action":"go","sham":0,"trial_type":"pit-trial","trial_index":262,"time_elapsed":1140049,"internal_node_id":"0.0-194.0","task_version":"battery-v0.2-trt"},{"rune":"B","rune_set":"elianto","hex":"#f73b6a7A","correct":-1,"choice":-1,"rt":-1,"accuracy":1,"outcome":"-1","keys":[],"total_keys":0,"block":2,"trial":187,"stimulus":6,"robot":4,"valence":"lose","action":"no-go","sham":0,"trial_type":"pit-trial","trial_index":263,"time_elapsed":1144059,"internal_node_id":"0.0-195.0","task_version":"battery-v0.2-trt"},{"rune":"Z","rune_set":"elianto","hex":"#3366ff99","correct":32,"choice":32,"rt":469.9699999981094,"accuracy":1,"outcome":"+1","keys":[1971.099999998929],"total_keys":1,"block":2,"trial":188,"stimulus":4,"robot":1,"valence":"win","action":"go","sham":1,"trial_type":"pit-trial","trial_index":264,"time_elapsed":1147240,"internal_node_id":"0.0-196.0","task_version":"battery-v0.2-trt"},{"rune":"T","rune_set":"elianto","hex":"#3366ff99","correct":-1,"choice":32,"rt":481.6300000019837,"accuracy":0,"outcome":"+1","keys":[1981.770000002114],"total_keys":1,"block":2,"trial":189,"stimulus":7,"robot":2,"valence":"win","action":"no-go","sham":0,"trial_type":"pit-trial","trial_index":265,"time_elapsed":1150433,"internal_node_id":"0.0-197.0","task_version":"battery-v0.2-trt"},{"rune":"Z","rune_set":"elianto","hex":"#3366ff99","correct":32,"choice":32,"rt":438.23500000149943,"accuracy":1,"outcome":"+10","keys":[1939.089999999851],"total_keys":1,"block":2,"trial":190,"stimulus":4,"robot":1,"valence":"win","action":"go","sham":0,"trial_type":"pit-trial","trial_index":266,"time_elapsed":1153580,"internal_node_id":"0.0-198.0","task_version":"battery-v0.2-trt"},{"rune":"C","rune_set":"elianto","hex":"#f73b6a7A","correct":32,"choice":-1,"rt":-1,"accuracy":0,"outcome":"-10","keys":[],"total_keys":0,"block":2,"trial":191,"stimulus":5,"robot":3,"valence":"lose","action":"go","sham":0,"trial_type":"pit-trial","trial_index":267,"time_elapsed":1157597,"internal_node_id":"0.0-199.0","task_version":"battery-v0.2-trt"},{"rune":"B","rune_set":"elianto","hex":"#f73b6a7A","correct":-1,"choice":-1,"rt":-1,"accuracy":1,"outcome":"-1","keys":[],"total_keys":0,"block":2,"trial":192,"stimulus":6,"robot":4,"valence":"lose","action":"no-go","sham":0,"trial_type":"pit-trial","trial_index":268,"time_elapsed":1161608,"internal_node_id":"0.0-200.0","task_version":"battery-v0.2-trt"},{"rune":"Z","rune_set":"elianto","hex":"#3366ff99","correct":32,"choice":32,"rt":528.6800000031944,"accuracy":1,"outcome":"+10","keys":[2030.0800000003073],"total_keys":1,"block":2,"trial":193,"stimulus":4,"robot":1,"valence":"win","action":"go","sham":0,"trial_type":"pit-trial","trial_index":269,"time_elapsed":1164848,"internal_node_id":"0.0-201.0","task_version":"battery-v0.2-trt"},{"rune":"B","rune_set":"elianto","hex":"#f73b6a7A","correct":-1,"choice":-1,"rt":-1,"accuracy":1,"outcome":"-1","keys":[],"total_keys":0,"block":2,"trial":194,"stimulus":6,"robot":4,"valence":"lose","action":"no-go","sham":0,"trial_type":"pit-trial","trial_index":270,"time_elapsed":1168860,"internal_node_id":"0.0-202.0","task_version":"battery-v0.2-trt"},{"rune":"X","rune_set":"elianto","hex":"#f73b6a7A","correct":32,"choice":-1,"rt":-1,"accuracy":0,"outcome":"-10","keys":[],"total_keys":0,"block":2,"trial":195,"stimulus":8,"robot":3,"valence":"lose","action":"go","sham":0,"trial_type":"pit-trial","trial_index":271,"time_elapsed":1172876,"internal_node_id":"0.0-203.0","task_version":"battery-v0.2-trt"},{"rune":"T","rune_set":"elianto","hex":"#3366ff99","correct":-1,"choice":32,"rt":429.9749999991618,"accuracy":0,"outcome":"+1","keys":[1930.355000000447],"total_keys":1,"block":2,"trial":196,"stimulus":7,"robot":2,"valence":"win","action":"no-go","sham":0,"trial_type":"pit-trial","trial_index":272,"time_elapsed":1176015,"internal_node_id":"0.0-204.0","task_version":"battery-v0.2-trt"},{"rune":"X","rune_set":"elianto","hex":"#f73b6a7A","correct":32,"choice":-1,"rt":-1,"accuracy":0,"outcome":"-10","keys":[],"total_keys":0,"block":2,"trial":197,"stimulus":8,"robot":3,"valence":"lose","action":"go","sham":0,"trial_type":"pit-trial","trial_index":273,"time_elapsed":1180025,"internal_node_id":"0.0-205.0","task_version":"battery-v0.2-trt"},{"rune":"T","rune_set":"elianto","hex":"#3366ff99","correct":-1,"choice":32,"rt":617.2850000003818,"accuracy":0,"outcome":"+10","keys":[2117.6200000008103],"total_keys":1,"block":2,"trial":198,"stimulus":7,"robot":2,"valence":"win","action":"no-go","sham":1,"trial_type":"pit-trial","trial_index":274,"time_elapsed":1183351,"internal_node_id":"0.0-206.0","task_version":"