[{"view_history":"[{\"page_index\":0,\"viewing_time\":4399.329999927431}]","rt":4401.574999792501,"trial_type":"instructions","trial_index":0,"time_elapsed":4438,"internal_node_id":"0.0-0.0","task_version":"battery-v0.2-trt"},{"slider_type":"valence","raw_loc":532,"loc":0.564,"trial_type":"affective-slider","trial_index":1,"time_elapsed":8915,"internal_node_id":"0.0-1.0","task_version":"battery-v0.2-trt"},{"responses":{"Q06":"0","Q07":"0","Q02":"1","Q01":"2","Q04":"2","Q05":"0","Q08":"0","Q03":"2"},"rt":27778.149999910966,"item_order":[5,6,1,0,3,4,7,2],"radio_events":[4231.440000003204,9441.22499995865,11242.554999887943,14254.919999977574,15475.150000071153,18339.7699999623,21382.955000037327,26741.08499987051],"key_events":[],"mouse_events":[4231.440000003204,9441.22499995865,11242.554999887943,14254.919999977574,15475.150000071153,17359.08000008203,18339.7699999623,20608.754999935627,21382.955000037327,26741.08499987051,27773.92499987036],"straightlining":0.5,"zigzagging":0.2857142857142857,"survey":"gad7","trial_type":"survey-template","trial_index":2,"time_elapsed":36707,"internal_node_id":"0.0-2.0","task_version":"battery-v0.2-trt","infrequency":0},{"responses":{"Q01":"2","Q03":"2","Q07":"3","Q13":"0","Q09":"1","Q06":"2","Q10":"2","Q08":"3","Q12":"2","Q05":"2","Q02":"2","Q11":"2","Q04":"2"},"rt":51451.00999996066,"item_order":[0,2,6,12,8,5,9,7,11,4,1,10,3],"radio_events":[2855.0999998115003,5239.419999998063,8953.99499987252,11077.239999780431,13373.489999910817,16712.899999925867,21549.56499999389,24316.279999911785,30384.86999995075,32572.969999862835,35444.41999983974,37672.61999985203,44937.94499989599,48289.29999982938],"key_events":[],"mouse_events":[2855.0999998115003,5239.419999998063,8953.99499987252,11077.239999780431,13373.489999910817,16712.899999925867,20095.799999777228,21549.56499999389,24316.279999911785,30384.86999995075,32572.969999862835,35444.41999983974,37672.61999985203,44937.94499989599,48289.29999982938,51446.0999998264],"straightlining":0.6923076923076923,"zigzagging":0.5,"survey":"bisbas","trial_type":"survey-template","trial_index":3,"time_elapsed":88172,"internal_node_id":"0.0-3.0","task_version":"battery-v0.2-trt","infrequency":0},{"responses":{"Q03":"0","Q05":"0","Q06":"0","Q02":"0","Q07":"0","Q01":"0","Q04":"0","Q08":"0"},"rt":33733.36499999277,"item_order":[2,4,5,1,6,0,3,7],"radio_events":[3153.110000072047,19534.239999949932,21572.424999903888,23473.965000128374,24564.604999963194,29004.094999982044,29801.579999970272,31320.719999959692],"key_events":[],"mouse_events":[3153.110000072047,18540.20499996841,19534.239999949932,20472.485000034794,21572.424999903888,23473.965000128374,24564.604999963194,29004.094999982044,29801.579999970272,30509.10499994643,31320.719999959692,33730.2900000941],"straightlining":1,"zigzagging":0,"survey":"dass_d","trial_type":"survey-template","trial_index":4,"time_elapsed":121917,"internal_node_id":"0.0-4.0","task_version":"battery-v0.2-trt","infrequency":1},{"value":[1,2.1923076923076925,0.7857142857142857],"trial_type":"call-function","trial_index":5,"time_elapsed":121928,"internal_node_id":"0.0-5.0","task_version":"battery-v0.2-trt"},{"view_history":"[{\"page_index\":0,\"viewing_time\":5026.004999876022},{\"page_index\":1,\"viewing_time\":9755.125000141561},{\"page_index\":2,\"viewing_time\":3818.134999834001},{\"page_index\":3,\"viewing_time\":6666.480000130832},{\"page_index\":4,\"viewing_time\":52079.2749999091},{\"page_index\":5,\"viewing_time\":1932.2900001425296},{\"page_index\":6,\"viewing_time\":3799.814999802038},{\"page_index\":7,\"viewing_time\":3455.2250001579523},{\"page_index\":8,\"viewing_time\":1436.1449999269098},{\"page_index\":7,\"viewing_time\":4011.5149999037385},{\"page_index\":8,\"viewing_time\":8906.33500018157},{\"page_index\":9,\"viewing_time\":4026.534999953583}]","rt":104914.60000001825,"trial_type":"pit-instructions","trial_index":6,"time_elapsed":226855,"internal_node_id":"0.0-6.0-0.0","task_version":"battery-v0.2-trt"},{"rune":"1","rune_set":"elianto","hex":"#3366ff99","correct":32,"choice":32,"rt":968.4200000483543,"accuracy":1,"outcome":"+10","keys":[2475.940000033006],"total_keys":1,"block":0,"practice":1,"trial_type":"pit-trial","trial_index":7,"time_elapsed":230544,"internal_node_id":"0.0-6.0-1.0-0.0","task_version":"battery-v0.2-trt"},{"rune":"1","rune_set":"elianto","hex":"#3366ff99","correct":32,"choice":32,"rt":612.8299999982119,"accuracy":1,"outcome":"+10","keys":[2117.430000100285],"total_keys":1,"block":0,"practice":1,"trial_type":"pit-trial","trial_index":8,"time_elapsed":233875,"internal_node_id":"0.0-6.0-1.1-0.1","task_version":"battery-v0.2-trt"},{"rune":"1","rune_set":"elianto","hex":"#3366ff99","correct":32,"choice":32,"rt":331.22000005096197,"accuracy":1,"outcome":"+10","keys":[1837.9450000356883],"total_keys":1,"block":0,"practice":1,"trial_type":"pit-trial","trial_index":9,"time_elapsed":236923,"internal_node_id":"0.0-6.0-1.2-0.2","task_version":"battery-v0.2-trt"},{"rune":"1","rune_set":"elianto","hex":"#3366ff99","correct":32,"choice":32,"rt":504.054999910295,"accuracy":1,"outcome":"+10","keys":[2004.2499999981374],"total_keys":1,"block":0,"practice":1,"trial_type":"pit-trial","trial_index":10,"time_elapsed":240139,"internal_node_id":"0.0-6.0-1.3-0.3","task_version":"battery-v0.2-trt"},{"trial_type":"call-function","trial_index":11,"time_elapsed":240143,"internal_node_id":"0.0-6.0-2.0","task_version":"battery-v0.2-trt"},{"view_history":"[{\"page_index\":0,\"viewing_time\":4902.84000011161},{\"page_index\":1,\"viewing_time\":2105.5149999447167}]","rt":7009.779999963939,"trial_type":"pit-instructions","trial_index":12,"time_elapsed":247155,"internal_node_id":"0.0-6.0-3.0","task_version":"battery-v0.2-trt"},{"rune":"2","rune_set":"elianto","hex":"#3366ff99","correct":-1,"choice":32,"rt":48.14500012435019,"accuracy":0,"outcome":"+1","keys":[1551.0299999732524],"total_keys":1,"block":0,"practice":2,"trial_type":"pit-trial","trial_index":13,"time_elapsed":249917,"internal_node_id":"0.0-6.0-4.0-0.0","task_version":"battery-v0.2-trt"},{"rune":"2","rune_set":"elianto","hex":"#3366ff99","correct":-1,"choice":-1,"rt":-1,"accuracy":1,"outcome":"+10","keys":[],"total_keys":0,"block":0,"practice":2,"trial_type":"pit-trial","trial_index":14,"time_elapsed":253935,"internal_node_id":"0.0-6.0-4.1-0.1","task_version":"battery-v0.2-trt"},{"rune":"2","rune_set":"elianto","hex":"#3366ff99","correct":-1,"choice":-1,"rt":-1,"accuracy":1,"outcome":"+10","keys":[],"total_keys":0,"block":0,"practice":2,"trial_type":"pit-trial","trial_index":15,"time_elapsed":257944,"internal_node_id":"0.0-6.0-4.2-0.2","task_version":"battery-v0.2-trt"},{"rune":"2","rune_set":"elianto","hex":"#3366ff99","correct":-1,"choice":-1,"rt":-1,"accuracy":1,"outcome":"+10","keys":[],"total_keys":0,"block":0,"practice":2,"trial_type":"pit-trial","trial_index":16,"time_elapsed":261965,"internal_node_id":"0.0-6.0-4.3-0.3","task_version":"battery-v0.2-trt"},{"trial_type":"call-function","trial_index":17,"time_elapsed":261968,"internal_node_id":"0.0-6.0-5.0","task_version":"battery-v0.2-trt"},{"view_history":"[{\"page_index\":0,\"viewing_time\":7853.464999934658},{\"page_index\":1,\"viewing_time\":20738.550000125542}]","rt":28593.52000011131,"trial_type":"pit-instructions","trial_index":18,"time_elapsed":290562,"internal_node_id":"0.0-6.0-6.0","task_version":"battery-v0.2-trt"},{"rune":"3","rune_set":"elianto","hex":"#f73b6a7A","correct":-1,"choice":-1,"rt":-1,"accuracy":1,"outcome":"-1","keys":[],"total_keys":0,"block":0,"practice":3,"trial_type":"pit-trial","trial_index":19,"time_elapsed":294582,"internal_node_id":"0.0-6.0-7.0-0.0","task_version":"battery-v0.2-trt"},{"rune":"3","rune_set":"elianto","hex":"#f73b6a7A","correct":-1,"choice":32,"rt":772.6849999744445,"accuracy":0,"outcome":"-10","keys":[2278.1299999915063],"total_keys":1,"block":0,"practice":3,"trial_type":"pit-trial","trial_index":20,"time_elapsed":298073,"internal_node_id":"0.0-6.0-7.1-0.1","task_version":"battery-v0.2-trt"},{"rune":"3","rune_set":"elianto","hex":"#f73b6a7A","correct":-1,"choice":-1,"rt":-1,"accuracy":1,"outcome":"-1","keys":[],"total_keys":0,"block":0,"practice":3,"trial_type":"pit-trial","trial_index":21,"time_elapsed":302088,"internal_node_id":"0.0-6.0-7.2-0.2","task_version":"battery-v0.2-trt"},{"rune":"3","rune_set":"elianto","hex":"#f73b6a7A","correct":-1,"choice":-1,"rt":-1,"accuracy":1,"outcome":"-1","keys":[],"total_keys":0,"block":0,"practice":3,"trial_type":"pit-trial","trial_index":22,"time_elapsed":306098,"internal_node_id":"0.0-6.0-7.3-0.3","task_version":"battery-v0.2-trt"},{"rune":"3","rune_set":"elianto","hex":"#f73b6a7A","correct":-1,"choice":-1,"rt":-1,"accuracy":1,"outcome":"-1","keys":[],"total_keys":0,"block":0,"practice":3,"trial_type":"pit-trial","trial_index":23,"time_elapsed":310108,"internal_node_id":"0.0-6.0-7.4-0.4","task_version":"battery-v0.2-trt"},{"trial_type":"call-function","trial_index":24,"time_elapsed":310110,"internal_node_id":"0.0-6.0-8.0","task_version":"battery-v0.2-trt"},{"view_history":"[{\"page_index\":0,\"viewing_time\":2701.4850000850856},{\"page_index\":1,\"viewing_time\":1565.9149999264628}]","rt":4268.6949998606,"trial_type":"pit-instructions","trial_index":25,"time_elapsed":314381,"internal_node_id":"0.0-6.0-9.0","task_version":"battery-v0.2-trt"},{"rune":"4","rune_set":"elianto","hex":"#f73b6a7A","correct":32,"choice":32,"rt":298.9850000012666,"accuracy":1,"outcome":"-1","keys":[1803.4000000916421],"total_keys":1,"block":0,"practice":4,"trial_type":"pit-trial","trial_index":26,"time_elapsed":317391,"internal_node_id":"0.0-6.0-10.0-0.0","task_version":"battery-v0.2-trt"},{"rune":"4","rune_set":"elianto","hex":"#f73b6a7A","correct":32,"choice":32,"rt":245.58999994769692,"accuracy":1,"outcome":"-1","keys":[1748.1649999972433],"total_keys":1,"block":0,"practice":4,"trial_type":"pit-trial","trial_index":27,"time_elapsed":320349,"internal_node_id":"0.0-6.0-10.1-0.1","task_version":"battery-v0.2-trt"},{"rune":"4","rune_set":"elianto","hex":"#f73b6a7A","correct":32,"choice":32,"rt":127.76000006124377,"accuracy":1,"outcome":"-1","keys":[1629.8899999819696],"total_keys":1,"block":0,"practice":4,"trial_type":"pit-trial","trial_index":28,"time_elapsed":323190,"internal_node_id":"0.0-6.0-10.2-0.2","task_version":"battery-v0.2-trt"},{"rune":"4","rune_set":"elianto","hex":"#f73b6a7A","correct":32,"choice":32,"rt":204.15000012144446,"accuracy":1,"outcome":"-1","keys":[1709.830000065267],"total_keys":1,"block":0,"practice":4,"trial_type":"pit-trial","trial_index":29,"time_elapsed":326114,"internal_node_id":"0.0-6.0-10.3-0.3","task_version":"battery-v0.2-trt"},{"trial_type":"call-function","trial_index":30,"time_elapsed":326117,"internal_node_id":"0.0-6.0-11.0","task_version":"battery-v0.2-trt"},{"view_history":"[{\"page_index\":0,\"viewing_time\":1344.7100000921637},{\"page_index\":1,\"viewing_time\":6231.944999890402},{\"page_index\":2,\"viewing_time\":3562.1350000146776},{\"page_index\":3,\"viewing_time\":1959.3500001356006},{\"page_index\":4,\"viewing_time\":1288.1449998822063},{\"page_index\":5,\"viewing_time\":950.8500001393259}]","rt":15338.450000155717,"trial_type":"pit-instructions","trial_index":31,"time_elapsed":341456,"internal_node_id":"0.0-6.0-12.0","task_version":"battery-v0.2-trt"},{"responses":["Press SPACE","+10","-1","True","True"],"num_errors":0,"rt":16750.789999961853,"trial_type":"pit-comprehension","trial_index":32,"time_elapsed":358219,"internal_node_id":"0.0-6.0-13.0","task_version":"battery-v0.2-trt"},{"view_history":"[{\"page_index\":0,\"viewing_time\":5535.645000170916},{\"page_index\":1,\"viewing_time\":2798.384999856353}]","rt":8335.549999959767,"trial_type":"pit-instructions","trial_index":33,"time_elapsed":366568,"internal_node_id":"0.0-7.0","task_version":"battery-v0.2-trt"},{"rune":"Z","rune_set":"bacs2","hex":"#3366ff99","correct":-1,"choice":32,"rt":1092.0199998654425,"accuracy":0,"outcome":"+1","keys":[2592.5750001333654],"total_keys":1,"block":1,"trial":1,"stimulus":3,"robot":2,"valence":"win","action":"no-go","sham":0,"trial_type":"pit-trial","trial_index":34,"time_elapsed":370372,"internal_node_id":"0.0-8.0","task_version":"battery-v0.2-trt"},{"rune":"W","rune_set":"bacs2","hex":"#f73b6a7A","correct":-1,"choice":32,"rt":871.3100000750273,"accuracy":0,"outcome":"-10","keys":[2377.6099998503923],"total_keys":1,"block":1,"trial":2,"stimulus":1,"robot":4,"valence":"lose","action":"no-go","sham":0,"trial_type":"pit-trial","trial_index":35,"time_elapsed":373961,"internal_node_id":"0.0-9.0","task_version":"battery-v0.2-trt"},{"rune":"J","rune_set":"bacs2","hex":"#f73b6a7A","correct":-1,"choice":32,"rt":791.9099999126047,"accuracy":0,"outcome":"-10","keys":[2292.2499999403954],"total_keys":1,"block":1,"trial":3,"stimulus":0,"robot":4,"valence":"lose","action":"no-go","sham":0,"trial_type":"pit-trial","trial_index":36,"time_elapsed":377469,"internal_node_id":"0.0-10.0","task_version":"battery-v0.2-trt"},{"rune":"X","rune_set":"bacs2","hex":"#3366ff99","correct":32,"choice":32,"rt":745.3949998598546,"accuracy":1,"outcome":"+10","keys":[2249.8550000600517],"total_keys":1,"block":1,"trial":4,"stimulus":2,"robot":1,"valence":"win","action":"go","sham":0,"trial_type":"pit-trial","trial_index":37,"time_elapsed":380933,"internal_node_id":"0.0-11.0","task_version":"battery-v0.2-trt"},{"rune":"Z","rune_set":"bacs2","hex":"#3366ff99","correct":-1,"choice":-1,"rt":-1,"accuracy":1,"outcome":"+10","keys":[],"total_keys":0,"block":1,"trial":5,"stimulus":3,"robot":2,"valence":"win","action":"no-go","sham":0,"trial_type":"pit-trial","trial_index":38,"time_elapsed":384953,"internal_node_id":"0.0-12.0","task_version":"battery-v0.2-trt"},{"rune":"X","rune_set":"bacs2","hex":"#3366ff99","correct":32,"choice":32,"rt":684.8699999973178,"accuracy":1,"outcome":"+10","keys":[2187.930000014603],"total_keys":1,"block":1,"trial":6,"stimulus":2,"robot":1,"valence":"win","action":"go","sham":0,"trial_type":"pit-trial","trial_index":39,"time_elapsed":388350,"internal_node_id":"0.0-13.0","task_version":"battery-v0.2-trt"},{"rune":"W","rune_set":"bacs2","hex":"#f73b6a7A","correct":-1,"choice":-1,"rt":-1,"accuracy":1,"outcome":"-1","keys":[],"total_keys":0,"block":1,"trial":7,"stimulus":1,"robot":4,"valence":"lose","action":"no-go","sham":0,"trial_type":"pit-trial","trial_index":40,"time_elapsed":392362,"internal_node_id":"0.0-14.0","task_version":"battery-v0.2-trt"},{"rune":"J","rune_set":"bacs2","hex":"#f73b6a7A","correct":-1,"choice":-1,"rt":-1,"accuracy":1,"outcome":"-1","keys":[],"total_keys":0,"block":1,"trial":8,"stimulus":0,"robot":4,"valence":"lose","action":"no-go","sham":0,"trial_type":"pit-trial","trial_index":41,"time_elapsed":396375,"internal_node_id":"0.0-15.0","task_version":"battery-v0.2-trt"},{"rune":"X","rune_set":"bacs2","hex":"#3366ff99","correct":32,"choice":32,"rt":302.3900000844151,"accuracy":1,"outcome":"+10","keys":[1803.665000014007],"total_keys":1,"block":1,"trial":9,"stimulus":2,"robot":1,"valence":"win","action":"go","sham":0,"trial_type":"pit-trial","trial_index":42,"time_elapsed":399389,"internal_node_id":"0.0-16.0","task_version":"battery-v0.2-trt"},{"rune":"W","rune_set":"bacs2","hex":"#f73b6a7A","correct":-1,"choice":-1,"rt":-1,"accuracy":1,"outcome":"-1","keys":[],"total_keys":0,"block":1,"trial":10,"stimulus":1,"robot":4,"valence":"lose","action":"no-go","sham":0,"trial_type":"pit-trial","trial_index":43,"time_elapsed":403404,"internal_node_id":"0.0-17.0","task_version":"battery-v0.2-trt"},{"rune":"Z","rune_set":"bacs2","hex":"#3366ff99","correct":-1,"choice":-1,"rt":-1,"accuracy":1,"outcome":"+10","keys":[],"total_keys":0,"block":1,"trial":11,"stimulus":3,"robot":2,"valence":"win","action":"no-go","sham":0,"trial_type":"pit-trial","trial_index":44,"time_elapsed":407419,"internal_node_id":"0.0-18.0","task_version":"battery-v0.2-trt"},{"rune":"J","rune_set":"bacs2","hex":"#f73b6a7A","correct":-1,"choice":-1,"rt":-1,"accuracy":1,"outcome":"-1","keys":[],"total_keys":0,"block":1,"trial":12,"stimulus":0,"robot":4,"valence":"lose","action":"no-go","sham":0,"trial_type":"pit-trial","trial_index":45,"time_elapsed":411439,"internal_node_id":"0.0-19.0","task_version":"battery-v0.2-trt"},{"rune":"X","rune_set":"bacs2","hex":"#3366ff99","correct":32,"choice":32,"rt":299.55500015057623,"accuracy":1,"outcome":"+10","keys":[1801.2549998238683],"total_keys":1,"block":1,"trial":13,"stimulus":2,"robot":1,"valence":"win","action":"go","sham":0,"trial_type":"pit-trial","trial_index":46,"time_elapsed":414451,"internal_node_id":"0.0-20.0","task_version":"battery-v0.2-trt"},{"rune":"W","rune_set":"bacs2","hex":"#f73b6a7A","correct":-1,"choice":-1,"rt":-1,"accuracy":1,"outcome":"-1","keys":[],"total_keys":0,"block":1,"trial":14,"stimulus":1,"robot":4,"valence":"lose","action":"no-go","sham":0,"trial_type":"pit-trial","trial_index":47,"time_elapsed":418462,"internal_node_id":"0.0-21.0","task_version":"battery-v0.2-trt"},{"rune":"Z","rune_set":"bacs2","hex":"#3366ff99","correct":-1,"choice":-1,"rt":-1,"accuracy":1,"outcome":"+10","keys":[],"total_keys":0,"block":1,"trial":15,"stimulus":3,"robot":2,"valence":"win","action":"no-go","sham":0,"trial_type":"pit-trial","trial_index":48,"time_elapsed":422473,"internal_node_id":"0.0-22.0","task_version":"battery-v0.2-trt"},{"rune":"J","rune_set":"bacs2","hex":"#f73b6a7A","correct":-1,"choice":-1,"rt":-1,"accuracy":1,"outcome":"-1","keys":[],"total_keys":0,"block":1,"trial":16,"stimulus":0,"robot":4,"valence":"lose","action":"no-go","sham":0,"trial_type":"pit-trial","trial_index":49,"time_elapsed":426489,"internal_node_id":"0.0-23.0","task_version":"battery-v0.2-trt"},{"rune":"W","rune_set":"bacs2","hex":"#f73b6a7A","correct":-1,"choice":-1,"rt":-1,"accuracy":1,"outcome":"-1","keys":[],"total_keys":0,"block":1,"trial":17,"stimulus":1,"robot":4,"valence":"lose","action":"no-go","sham":0,"trial_type":"pit-trial","trial_index":50,"time_elapsed":430500,"internal_node_id":"0.0-24.0","task_version":"battery-v0.2-trt"},{"rune":"Z","rune_set":"bacs2","hex":"#3366ff99","correct":-1,"choice":-1,"rt":-1,"accuracy":1,"outcome":"+10","keys":[],"total_keys":0,"block":1,"trial":18,"stimulus":3,"robot":2,"valence":"win","action":"no-go","sham":0,"trial_type":"pit-trial","trial_index":51,"time_elapsed":434515,"internal_node_id":"0.0-25.0","task_version":"battery-v0.2-trt"},{"rune":"J","rune_set":"bacs2","hex":"#f73b6a7A","correct":-1,"choice":-1,"rt":-1,"accuracy":1,"outcome":"-1","keys":[],"total_keys":0,"block":1,"trial":19,"stimulus":0,"robot":4,"valence":"lose","action":"no-go","sham":0,"trial_type":"pit-trial","trial_index":52,"time_elapsed":438531,"internal_node_id":"0.0-26.0","task_version":"battery-v0.2-trt"},{"rune":"X","rune_set":"bacs2","hex":"#3366ff99","correct":32,"choice":32,"rt":352.6500000152737,"accuracy":1,"outcome":"+10","keys":[1854.9800000619143],"total_keys":1,"block":1,"trial":20,"stimulus":2,"robot":1,"valence":"win","action":"go","sham":0,"trial_type":"pit-trial","trial_index":53,"time_elapsed":441598,"internal_node_id":"0.0-27.0","task_version":"battery-v0.2-trt"},{"rune":"X","rune_set":"bacs2","hex":"#3366ff99","correct":32,"choice":32,"rt":636.1100000794977,"accuracy":1,"outcome":"+10","keys":[2141.469999914989],"total_keys":1,"block":1,"trial":21,"stimulus":2,"robot":1,"valence":"win","action":"go","sham":0,"trial_type":"pit-trial","trial_index":54,"time_elapsed":444949,"internal_node_id":"0.0-28.0","task_version":"battery-v0.2-trt"},{"rune":"Z","rune_set":"bacs2","hex":"#3366ff99","correct":-1,"choice":-1,"rt":-1,"accuracy":1,"outcome":"+10","keys":[],"total_keys":0,"block":1,"trial":22,"stimulus":3,"robot":2,"valence":"win","action":"no-go","sham":0,"trial_type":"pit-trial","trial_index":55,"time_elapsed":448967,"internal_node_id":"0.0-29.0","task_version":"battery-v0.2-trt"},{"rune":"W","rune_set":"bacs2","hex":"#f73b6a7A","correct":-1,"choice":-1,"rt":-1,"accuracy":1,"outcome":"-1","keys":[],"total_keys":0,"block":1,"trial":23,"stimulus":1,"robot":4,"valence":"lose","action":"no-go","sham":0,"trial_type":"pit-trial","trial_index":56,"time_elapsed":452988,"internal_node_id":"0.0-30.0","task_version":"battery-v0.2-trt"},{"rune":"J","rune_set":"bacs2","hex":"#f73b6a7A","correct":-1,"choice":-1,"rt":-1,"accuracy":1,"outcome":"-1","keys":[],"total_keys":0,"block":1,"trial":24,"stimulus":0,"robot":4,"valence":"lose","action":"no-go","sham":0,"trial_type":"pit-trial","trial_index":57,"time_elapsed":457003,"internal_node_id":"0.0-31.0","task_version":"battery-v0.2-trt"},{"rune":"J","rune_set":"bacs2","hex":"#f73b6a7A","correct":-1,"choice":-1,"rt":-1,"accuracy":1,"outcome":"-10","keys":[],"total_keys":0,"block":1,"trial":25,"stimulus":0,"robot":4,"valence":"lose","action":"no-go","sham":1,"trial_type":"pit-trial","trial_index":58,"time_elapsed":461019,"internal_node_id":"0.0-32.0","task_version":"battery-v0.2-trt"},{"rune":"W","rune_set":"bacs2","hex":"#f73b6a7A","correct":-1,"choice":-1,"rt":-1,"accuracy":1,"outcome":"-1","keys":[],"total_keys":0,"block":1,"trial":26,"stimulus":1,"robot":4,"valence":"lose","action":"no-go","sham":0,"trial_type":"pit-trial","trial_index":59,"time_elapsed":465035,"internal_node_id":"0.0-33.0","task_version":"battery-v0.2-trt"},{"rune":"X","rune_set":"bacs2","hex":"#3366ff99","correct":32,"choice":32,"rt":479.6700000297278,"accuracy":1,"outcome":"+10","keys":[1981.0550000984222],"total_keys":1,"block":1,"trial":27,"stimulus":2,"robot":1,"valence":"win","action":"go","sham":0,"trial_type":"pit-trial","trial_index":60,"time_elapsed":468228,"internal_node_id":"0.0-34.0","task_version":"battery-v0.2-trt"},{"rune":"Z","rune_set":"bacs2","hex":"#3366ff99","correct":-1,"choice":-1,"rt":-1,"accuracy":1,"outcome":"+10","keys":[],"total_keys":0,"block":1,"trial":28,"stimulus":3,"robot":2,"valence":"win","action":"no-go","sham":0,"trial_type":"pit-trial","trial_index":61,"time_elapsed":472241,"internal_node_id":"0.0-35.0","task_version":"battery-v0.2-trt"},{"rune":"Z","rune_set":"bacs2","hex":"#3366ff99","correct":-1,"choice":-1,"rt":-1,"accuracy":1,"outcome":"+10","keys":[],"total_keys":0,"block":1,"trial":29,"stimulus":3,"robot":2,"valence":"win","action":"no-go","sham":0,"trial_type":"pit-trial","trial_index":62,"time_elapsed":476265,"internal_node_id":"0.0-36.0","task_version":"battery-v0.2-trt"},{"rune":"J","rune_set":"bacs2","hex":"#f73b6a7A","correct":-1,"choice":32,"rt":323.33000004291534,"accuracy":0,"outcome":"-10","keys":[1826.4049999415874],"total_keys":1,"block":1,"trial":30,"stimulus":0,"robot":4,"valence":"lose","action":"no-go","sham":0,"trial_type":"pit-trial","trial_index":63,"time_elapsed":479306,"internal_node_id":"0.0-37.0","task_version":"battery-v0.2-trt"},{"rune":"W","rune_set":"bacs2","hex":"#f73b6a7A","correct":-1,"choice":-1,"rt":-1,"accuracy":1,"outcome":"-10","keys":[3764.339999994263],"total_keys":1,"block":1,"trial":31,"stimulus":1,"robot":4,"valence":"lose","action":"no-go","sham":1,"trial_type":"pit-trial","trial_index":64,"time_elapsed":483325,"internal_node_id":"0.0-38.0","task_version":"battery-v0.2-trt"},{"rune":"X","rune_set":"bacs2","hex":"#3366ff99","correct":32,"choice":32,"rt":479.34500011615455,"accuracy":1,"outcome":"+10","keys":[1985.2799999061972],"total_keys":1,"block":1,"trial":32,"stimulus":2,"robot":1,"valence":"win","action":"go","sham":0,"trial_type":"pit-trial","trial_index":65,"time_elapsed":486537,"internal_node_id":"0.0-39.0","task_version":"battery-v0.2-trt"},{"rune":"J","rune_set":"bacs2","hex":"#f73b6a7A","correct":-1,"choice":-1,"rt":-1,"accuracy":1,"outcome":"-1","keys":[],"total_keys":0,"block":1,"trial":33,"stimulus":0,"robot":4,"valence":"lose","action":"no-go","sham":0,"trial_type":"pit-trial","trial_index":66,"time_elapsed":490551,"internal_node_id":"0.0-40.0","task_version":"battery-v0.2-trt"},{"rune":"X","rune_set":"bacs2","hex":"#3366ff99","correct":32,"choice":32,"rt":521.6749999672174,"accuracy":1,"outcome":"+10","keys":[2022.734999889508],"total_keys":1,"block":1,"trial":34,"stimulus":2,"robot":1,"valence":"win","action":"go","sham":0,"trial_type":"pit-trial","trial_index":67,"time_elapsed":493785,"internal_node_id":"0.0-41.0","task_version":"battery-v0.2-trt"},{"rune":"Z","rune_set":"bacs2","hex":"#3366ff99","correct":-1,"choice":-1,"rt":-1,"accuracy":1,"outcome":"+10","keys":[],"total_keys":0,"block":1,"trial":35,"stimulus":3,"robot":2,"valence":"win","action":"no-go","sham":0,"trial_type":"pit-trial","trial_index":68,"time_elapsed":497792,"internal_node_id":"0.0-42.0","task_version":"battery-v0.2-trt"},{"rune":"G","rune_set":"bacs2","hex":"#f73b6a7A","correct":32,"choice":32,"rt":638.8099999167025,"accuracy":1,"outcome":"-1","keys":[2142.06500002183],"total_keys":1,"block":1,"trial":36,"stimulus":4,"robot":3,"valence":"lose","action":"go","sham":0,"trial_type":"pit-trial","trial_index":69,"time_elapsed":501145,"internal_node_id":"0.0-43.0","task_version":"battery-v0.2-trt"},{"rune":"X","rune_set":"bacs2","hex":"#3366ff99","correct":32,"choice":32,"rt":717.9100001230836,"accuracy":1,"outcome":"+10","keys":[2219.2949999589473],"total_keys":1,"block":1,"trial":37,"stimulus":2,"robot":1,"valence":"win","action":"go","sham":0,"trial_type":"pit-trial","trial_index":70,"time_elapsed":504575,"internal_node_id":"0.0-44.0","task_version":"battery-v0.2-trt"},{"rune":"G","rune_set":"bacs2","hex":"#f73b6a7A","correct":32,"choice":32,"rt":423.380000051111,"accuracy":1,"outcome":"-1","keys":[1923.6250000540167],"total_keys":1,"block":1,"trial":38,"stimulus":4,"robot":3,"valence":"lose","action":"go","sham":0,"trial_type":"pit-trial","trial_index":71,"time_elapsed":507706,"internal_node_id":"0.0-45.0","task_version":"battery-v0.2-trt"},{"rune":"J","rune_set":"bacs2","hex":"#f73b6a7A","correct":-1,"choice":-1,"rt":-1,"accuracy":1,"outcome":"-1","keys":[],"total_keys":0,"block":1,"trial":39,"stimulus":0,"robot":4,"valence":"lose","action":"no-go","sham":0,"trial_type":"pit-trial","trial_index":72,"time_elapsed":511723,"internal_node_id":"0.0-46.0","task_version":"battery-v0.2-trt"},{"rune":"Z","rune_set":"bacs2","hex":"#3366ff99","correct":-1,"choice":-1,"rt":-1,"accuracy":1,"outcome":"+10","keys":[],"total_keys":0,"block":1,"trial":40,"stimulus":3,"robot":2,"valence":"win","action":"no-go","sham":0,"trial_type":"pit-trial","trial_index":73,"time_elapsed":515735,"internal_node_id":"0.0-47.0","task_version":"battery-v0.2-trt"},{"rune":"O","rune_set":"bacs2","hex":"#3366ff99","correct":-1,"choice":32,"rt":632.85499997437,"accuracy":0,"outcome":"+1","keys":[2136.434999993071],"total_keys":1,"block":1,"trial":41,"stimulus":5,"robot":2,"valence":"win","action":"no-go","sham":0,"trial_type":"pit-trial","trial_index":74,"time_elapsed":519080,"internal_node_id":"0.0-48.0","task_version":"battery-v0.2-trt"},{"rune":"C","rune_set":"bacs2","hex":"#3366ff99","correct":32,"choice":32,"rt":696.2649999186397,"accuracy":1,"outcome":"+10","keys":[2196.4850001968443],"total_keys":1,"block":1,"trial":42,"stimulus":6,"robot":1,"valence":"win","action":"go","sham":0,"trial_type":"pit-trial","trial_index":75,"time_elapsed":522485,"internal_node_id":"0.0-49.0","task_version":"battery-v0.2-trt"},{"rune":"G","rune_set":"bacs2","hex":"#f73b6a7A","correct":32,"choice":32,"rt":1100.1900001429021,"accuracy":1,"outcome":"-1","keys":[2606.529999990016],"total_keys":1,"block":1,"trial":43,"stimulus":4,"robot":3,"valence":"lose","action":"go","sham":0,"trial_type":"pit-trial","trial_index":76,"time_elapsed":526299,"internal_node_id":"0.0-50.0","task_version":"battery-v0.2-trt"},{"rune":"J","rune_set":"bacs2","hex":"#f73b6a7A","correct":-1,"choice":-1,"rt":-1,"accuracy":1,"outcome":"-1","keys":[],"total_keys":0,"block":1,"trial":44,"stimulus":0,"robot":4,"valence":"lose","action":"no-go","sham":0,"trial_type":"pit-trial","trial_index":77,"time_elapsed":530310,"internal_node_id":"0.0-51.0","task_version":"battery-v0.2-trt"},{"rune":"G","rune_set":"bacs2","hex":"#f73b6a7A","correct":32,"choice":32,"rt":583.9599999599159,"accuracy":1,"outcome":"-1","keys":[2089.0049999579787],"total_keys":1,"block":1,"trial":45,"stimulus":4,"robot":3,"valence":"lose","action":"go","sham":0,"trial_type":"pit-trial","trial_index":78,"time_elapsed":533610,"internal_node_id":"0.0-52.0","task_version":"battery-v0.2-trt"},{"rune":"O","rune_set":"bacs2","hex":"#3366ff99","correct":-1,"choice":-1,"rt":-1,"accuracy":1,"outcome":"+10","keys":[],"total_keys":0,"block":1,"trial":46,"stimulus":5,"robot":2,"valence":"win","action":"no-go","sham":0,"trial_type":"pit-trial","trial_index":79,"time_elapsed":537625,"internal_node_id":"0.0-53.0","task_version":"battery-v0.2-trt"},{"rune":"J","rune_set":"bacs2","hex":"#f73b6a7A","correct":-1,"choice":-1,"rt":-1,"accuracy":1,"outcome":"-1","keys":[],"total_keys":0,"block":1,"trial":47,"stimulus":0,"robot":4,"valence":"lose","action":"no-go","sham":0,"trial_type":"pit-trial","trial_index":80,"time_elapsed":541642,"internal_node_id":"0.0-54.0","task_version":"battery-v0.2-trt"},{"rune":"C","rune_set":"bacs2","hex":"#3366ff99","correct":32,"choice":32,"rt":175.10999995283782,"accuracy":1,"outcome":"+1","keys":[1680.509999860078],"total_keys":1,"block":1,"trial":48,"stimulus":6,"robot":1,"valence":"win","action":"go","sham":1,"trial_type":"pit-trial","trial_index":81,"time_elapsed":544540,"internal_node_id":"0.0-55.0","task_version":"battery-v0.2-trt"},{"rune":"E","rune_set":"bacs2","hex":"#f73b6a7A","correct":-1,"choice":32,"rt":1020.7700000610203,"accuracy":0,"outcome":"-10","keys":[2523.3050000388175],"total_keys":1,"block":1,"trial":49,"stimulus":7,"robot":4,"valence":"lose","action":"no-go","sham":0,"trial_type":"pit-trial","trial_index":82,"time_elapsed":548273,"internal_node_id":"0.0-56.0","task_version":"battery-v0.2-trt"},{"rune":"G","rune_set":"bacs2","hex":"#f73b6a7A","correct":32,"choice":32,"rt":712.5599998980761,"accuracy":1,"outcome":"-1","keys":[2216.1850000265986],"total_keys":1,"block":1,"trial":50,"stimulus":4,"robot":3,"valence":"lose","action":"go","sham":0,"trial_type":"pit-trial","trial_index":83,"time_elapsed":551697,"internal_node_id":"0.0-57.0","task_version":"battery-v0.2-trt"},{"rune":"C","rune_set":"bacs2","hex":"#3366ff99","correct":32,"choice":-1,"rt":-1,"accuracy":0,"outcome":"+10","keys":[],"total_keys":0,"block":1,"trial":51,"stimulus":6,"robot":1,"valence":"win","action":"go","sham":1,"trial_type":"pit-trial","trial_index":84,"time_elapsed":555718,"internal_node_id":"0.0-58.0","task_version":"battery-v0.2-trt"},{"rune":"O","rune_set":"bacs2","hex":"#3366ff99","correct":-1,"choice":-1,"rt":-1,"accuracy":1,"outcome":"+10","keys":[],"total_keys":0,"block":1,"trial":52,"stimulus":5,"robot":2,"valence":"win","action":"no-go","sham":0,"trial_type":"pit-trial","trial_index":85,"time_elapsed":559732,"internal_node_id":"0.0-59.0","task_version":"battery-v0.2-trt"},{"rune":"O","rune_set":"bacs2","hex":"#3366ff99","correct":-1,"choice":-1,"rt":-1,"accuracy":1,"outcome":"+10","keys":[],"total_keys":0,"block":1,"trial":53,"stimulus":5,"robot":2,"valence":"win","action":"no-go","sham":0,"trial_type":"pit-trial","trial_index":86,"time_elapsed":563748,"internal_node_id":"0.0-60.0","task_version":"battery-v0.2-trt"},{"rune":"G","rune_set":"bacs2","hex":"#f73b6a7A","correct":32,"choice":32,"rt":624.8149999883026,"accuracy":1,"outcome":"-1","keys":[2127.2899999748915],"total_keys":1,"block":1,"trial":54,"stimulus":4,"robot":3,"valence":"lose","action":"go","sham":0,"trial_type":"pit-trial","trial_index":87,"time_elapsed":567088,"internal_node_id":"0.0-61.0","task_version":"battery-v0.2-trt"},{"rune":"E","rune_set":"bacs2","hex":"#f73b6a7A","correct":-1,"choice":-1,"rt":-1,"accuracy":1,"outcome":"-1","keys":[],"total_keys":0,"block":1,"trial":55,"stimulus":7,"robot":4,"valence":"lose","action":"no-go","sham":0,"trial_type":"pit-trial","trial_index":88,"time_elapsed":571107,"internal_node_id":"0.0-62.0","task_version":"battery-v0.2-trt"},{"rune":"C","rune_set":"bacs2","hex":"#3366ff99","correct":32,"choice":-1,"rt":-1,"accuracy":0,"outcome":"+10","keys":[],"total_keys":0,"block":1,"trial":56,"stimulus":6,"robot":1,"valence":"win","action":"go","sham":1,"trial_type":"pit-trial","trial_index":89,"time_elapsed":575124,"internal_node_id":"0.0-63.0","task_version":"battery-v0.2-trt"},{"rune":"C","rune_set":"bacs2","hex":"#3366ff99","correct":32,"choice":-1,"rt":-1,"accuracy":0,"outcome":"+10","keys":[],"total_keys":0,"block":1,"trial":57,"stimulus":6,"robot":1,"valence":"win","action":"go","sham":1,"trial_type":"pit-trial","trial_index":90,"time_elapsed":579136,"internal_node_id":"0.0-64.0","task_version":"battery-v0.2-trt"},{"rune":"O","rune_set":"bacs2","hex":"#3366ff99","correct":-1,"choice":-1,"rt":-1,"accuracy":1,"outcome":"+10","keys":[],"total_keys":0,"block":1,"trial":58,"stimulus":5,"robot":2,"valence":"win","action":"no-go","sham":0,"trial_type":"pit-trial","trial_index":91,"time_elapsed":583144,"internal_node_id":"0.0-65.0","task_version":"battery-v0.2-trt"},{"rune":"G","rune_set":"bacs2","hex":"#f73b6a7A","correct":32,"choice":32,"rt":530.3599999751896,"accuracy":1,"outcome":"-1","keys":[2034.3100000172853],"total_keys":1,"block":1,"trial":59,"stimulus":4,"robot":3,"valence":"lose","action":"go","sham":0,"trial_type":"pit-trial","trial_index":92,"time_elapsed":586392,"internal_node_id":"0.0-66.0","task_version":"battery-v0.2-trt"},{"rune":"E","rune_set":"bacs2","hex":"#f73b6a7A","correct":-1,"choice":-1,"rt":-1,"accuracy":1,"outcome":"-1","keys":[],"total_keys":0,"block":1,"trial":60,"stimulus":7,"robot":4,"valence":"lose","action":"no-go","sham":0,"trial_type":"pit-trial","trial_index":93,"time_elapsed":590402,"internal_node_id":"0.0-67.0","task_version":"battery-v0.2-trt"},{"rune":"C","rune_set":"bacs2","hex":"#3366ff99","correct":32,"choice":-1,"rt":-1,"accuracy":0,"outcome":"+1","keys":[3394.7149999439716],"total_keys":1,"block":1,"trial":61,"stimulus":6,"robot":1,"valence":"win","action":"go","sham":0,"trial_type":"pit-trial","trial_index":94,"time_elapsed":594416,"internal_node_id":"0.0-68.0","task_version":"battery-v0.2-trt"},{"rune":"G","rune_set":"bacs2","hex":"#f73b6a7A","correct":32,"choice":32,"rt":576.0899998713285,"accuracy":1,"outcome":"-1","keys":[2077.8149999678135],"total_keys":1,"block":1,"trial":62,"stimulus":4,"robot":3,"valence":"lose","action":"go","sham":0,"trial_type":"pit-trial","trial_index":95,"time_elapsed":597701,"internal_node_id":"0.0-69.0","task_version":"battery-v0.2-trt"},{"rune":"E","rune_set":"bacs2","hex":"#f73b6a7A","correct":-1,"choice":-1,"rt":-1,"accuracy":1,"outcome":"-10","keys":[],"total_keys":0,"block":1,"trial":63,"stimulus":7,"robot":4,"valence":"lose","action":"no-go","sham":1,"trial_type":"pit-trial","trial_index":96,"time_elapsed":601718,"internal_node_id":"0.0-70.0","task_version":"battery-v0.2-trt"},{"rune":"O","rune_set":"bacs2","hex":"#3366ff99","correct":-1,"choice":-1,"rt":-1,"accuracy":1,"outcome":"+1","keys":[],"total_keys":0,"block":1,"trial":64,"stimulus":5,"robot":2,"valence":"win","action":"no-go","sham":1,"trial_type":"pit-trial","trial_index":97,"time_elapsed":605741,"internal_node_id":"0.0-71.0","task_version":"battery-v0.2-trt"},{"rune":"O","rune_set":"bacs2","hex":"#3366ff99","correct":-1,"choice":-1,"rt":-1,"accuracy":1,"outcome":"+10","keys":[],"total_keys":0,"block":1,"trial":65,"stimulus":5,"robot":2,"valence":"win","action":"no-go","sham":0,"trial_type":"pit-trial","trial_index":98,"time_elapsed":609757,"internal_node_id":"0.0-72.0","task_version":"battery-v0.2-trt"},{"rune":"E","rune_set":"bacs2","hex":"#f73b6a7A","correct":-1,"choice":-1,"rt":-1,"accuracy":1,"outcome":"-1","keys":[],"total_keys":0,"block":1,"trial":66,"stimulus":7,"robot":4,"valence":"lose","action":"no-go","sham":0,"trial_type":"pit-trial","trial_index":99,"time_elapsed":613774,"internal_node_id":"0.0-73.0","task_version":"battery-v0.2-trt"},{"rune":"G","rune_set":"bacs2","hex":"#f73b6a7A","correct":32,"choice":-1,"rt":-1,"accuracy":0,"outcome":"-10","keys":[2911.3500001840293],"total_keys":1,"block":1,"trial":67,"stimulus":4,"robot":3,"valence":"lose","action":"go","sham":0,"trial_type":"pit-trial","trial_index":100,"time_elapsed":617788,"internal_node_id":"0.0-74.0","task_version":"battery-v0.2-trt"},{"rune":"C","rune_set":"bacs2","hex":"#3366ff99","correct":32,"choice":-1,"rt":-1,"accuracy":0,"outcome":"+10","keys":[],"total_keys":0,"block":1,"trial":68,"stimulus":6,"robot":1,"valence":"win","action":"go","sham":1,"trial_type":"pit-trial","trial_index":101,"time_elapsed":621804,"internal_node_id":"0.0-75.0","task_version":"battery-v0.2-trt"},{"rune":"O","rune_set":"bacs2","hex":"#3366ff99","correct":-1,"choice":-1,"rt":-1,"accuracy":1,"outcome":"+10","keys":[],"total_keys":0,"block":1,"trial":69,"stimulus":5,"robot":2,"valence":"win","action":"no-go","sham":0,"trial_type":"pit-trial","trial_index":102,"time_elapsed":625821,"internal_node_id":"0.0-76.0","task_version":"battery-v0.2-trt"},{"rune":"C","rune_set":"bacs2","hex":"#3366ff99","correct":32,"choice":-1,"rt":-1,"accuracy":0,"outcome":"+1","keys":[],"total_keys":0,"block":1,"trial":70,"stimulus":6,"robot":1,"valence":"win","action":"go","sham":0,"trial_type":"pit-trial","trial_index":103,"time_elapsed":629838,"internal_node_id":"0.0-77.0","task_version":"battery-v0.2-trt"},{"rune":"G","rune_set":"bacs2","hex":"#f73b6a7A","correct":32,"choice":32,"rt":433.6500000208616,"accuracy":1,"outcome":"-1","keys":[1934.2849999666214],"total_keys":1,"block":1,"trial":71,"stimulus":4,"robot":3,"valence":"lose","action":"go","sham":0,"trial_type":"pit-trial","trial_index":104,"time_elapsed":632981,"internal_node_id":"0.0-78.0","task_version":"battery-v0.2-trt"},{"rune":"E","rune_set":"bacs2","hex":"#f73b6a7A","correct":-1,"choice":-1,"rt":-1,"accuracy":1,"outcome":"-1","keys":[],"total_keys":0,"block":1,"trial":72,"stimulus":7,"robot":4,"valence":"lose","action":"no-go","sham":0,"trial_type":"pit-trial","trial_index":105,"time_elapsed":637006,"internal_node_id":"0.0-79.0","task_version":"battery-v0.2-trt"},{"rune":"H","rune_set":"bacs2","hex":"#3366ff99","correct":32,"choice":32,"rt":827.4150001816452,"accuracy":1,"outcome":"+10","keys":[958.8999999687076,2328.2799997832626],"total_keys":2,"block":1,"trial":73,"stimulus":8,"robot":1,"valence":"win","action":"go","sham":0,"trial_type":"pit-trial","trial_index":106,"time_elapsed":640555,"internal_node_id":"0.0-80.0","task_version":"battery-v0.2-trt"},{"rune":"E","rune_set":"bacs2","hex":"#f73b6a7A","correct":-1,"choice":-1,"rt":-1,"accuracy":1,"outcome":"-1","keys":[],"total_keys":0,"block":1,"trial":74,"stimulus":7,"robot":4,"valence":"lose","action":"no-go","sham":0,"trial_type":"pit-trial","trial_index":107,"time_elapsed":644567,"internal_node_id":"0.0-81.0","task_version":"battery-v0.2-trt"},{"rune":"O","rune_set":"bacs2","hex":"#3366ff99","correct":-1,"choice":-1,"rt":-1,"accuracy":1,"outcome":"+1","keys":[],"total_keys":0,"block":1,"trial":75,"stimulus":5,"robot":2,"valence":"win","action":"no-go","sham":1,"trial_type":"pit-trial","trial_index":108,"time_elapsed":648575,"internal_node_id":"0.0-82.0","task_version":"battery-v0.2-trt"},{"rune":"Q","rune_set":"bacs2","hex":"#f73b6a7A","correct":32,"choice":32,"rt":928.4300000872463,"accuracy":1,"outcome":"-1","keys":[2431.3149999361485],"total_keys":1,"block":1,"trial":76,"stimulus":9,"robot":3,"valence":"lose","action":"go","sham":0,"trial_type":"pit-trial","trial_index":109,"time_elapsed":652220,"internal_node_id":"0.0-83.0","task_version":"battery-v0.2-trt"},{"rune":"O","rune_set":"bacs2","hex":"#3366ff99","correct":-1,"choice":-1,"rt":-1,"accuracy":1,"outcome":"+10","keys":[],"total_keys":0,"block":1,"trial":77,"stimulus":5,"robot":2,"valence":"win","action":"no-go","sham":0,"trial_type":"pit-trial","trial_index":110,"time_elapsed":656236,"internal_node_id":"0.0-84.0","task_version":"battery-v0.2-trt"},{"rune":"Q","rune_set":"bacs2","hex":"#f73b6a7A","correct":32,"choice":32,"rt":592.0300001744181,"accuracy":1,"outcome":"-1","keys":[2097.275000065565],"total_keys":1,"block":1,"trial":78,"stimulus":9,"robot":3,"valence":"lose","action":"go","sham":0,"trial_type":"pit-trial","trial_index":111,"time_elapsed":659547,"internal_node_id":"0.0-85.0","task_version":"battery-v0.2-trt"},{"rune":"E","rune_set":"bacs2","hex":"#f73b6a7A","correct":-1,"choice":-1,"rt":-1,"accuracy":1,"outcome":"-1","keys":[],"total_keys":0,"block":1,"trial":79,"stimulus":7,"robot":4,"valence":"lose","action":"no-go","sham":0,"trial_type":"pit-trial","trial_index":112,"time_elapsed":663571,"internal_node_id":"0.0-86.0","task_version":"battery-v0.2-trt"},{"rune":"H","rune_set":"bacs2","hex":"#3366ff99","correct":32,"choice":32,"rt":478.20000001229346,"accuracy":1,"outcome":"+10","keys":[1981.2499999534339],"total_keys":1,"block":1,"trial":80,"stimulus":8,"robot":1,"valence":"win","action":"go","sham":0,"trial_type":"pit-trial","trial_index":113,"time_elapsed":666766,"internal_node_id":"0.0-87.0","task_version":"battery-v0.2-trt"},{"rune":"E","rune_set":"bacs2","hex":"#f73b6a7A","correct":-1,"choice":-1,"rt":-1,"accuracy":1,"outcome":"-1","keys":[],"total_keys":0,"block":1,"trial":81,"stimulus":7,"robot":4,"valence":"lose","action":"no-go","sham":0,"trial_type":"pit-trial","trial_index":114,"time_elapsed":670777,"internal_node_id":"0.0-88.0","task_version":"battery-v0.2-trt"},{"rune":"O","rune_set":"bacs2","hex":"#3366ff99","correct":-1,"choice":-1,"rt":-1,"accuracy":1,"outcome":"+10","keys":[],"total_keys":0,"block":1,"trial":82,"stimulus":5,"robot":2,"valence":"win","action":"no-go","sham":0,"trial_type":"pit-trial","trial_index":115,"time_elapsed":674787,"internal_node_id":"0.0-89.0","task_version":"battery-v0.2-trt"},{"rune":"Q","rune_set":"bacs2","hex":"#f73b6a7A","correct":32,"choice":32,"rt":551.7349999863654,"accuracy":1,"outcome":"-1","keys":[2054.9749999772757],"total_keys":1,"block":1,"trial":83,"stimulus":9,"robot":3,"valence":"lose","action":"go","sham":0,"trial_type":"pit-trial","trial_index":116,"time_elapsed":678052,"internal_node_id":"0.0-90.0","task_version":"battery-v0.2-trt"},{"rune":"H","rune_set":"bacs2","hex":"#3366ff99","correct":32,"choice":32,"rt":574.1000000853091,"accuracy":1,"outcome":"+10","keys":[260.45499998144805,516.7000000365078,643.9149999059737,859.8100000526756,2077.959999907762],"total_keys":5,"block":1,"trial":84,"stimulus":8,"robot":1,"valence":"win","action":"go","sham":0,"trial_type":"pit-trial","trial_index":117,"time_elapsed":681337,"internal_node_id":"0.0-91.0","task_version":"battery-v0.2-trt"},{"rune":"H","rune_set":"bacs2","hex":"#3366ff99","correct":32,"choice":32,"rt":461.4150000270456,"accuracy":1,"outcome":"+10","keys":[63.61000007018447,295.6600000616163,416.53500008396804,649.0850001573563,948.9250001497567,1963.359999936074,2412.2349999379367,2542.765000136569,2709.590000100434,2840.305000077933,2976.0000000242144,3118.100000079721],"total_keys":12,"block":1,"trial":85,"stimulus":8,"robot":1,"valence":"win","action":"go","sham":0,"trial_type":"pit-trial","trial_index":118,"time_elapsed":684513,"internal_node_id":"0.0-92.0","task_version":"battery-v0.2-trt"},{"rune":"Q","rune_set":"bacs2","hex":"#f73b6a7A","correct":32,"choice":32,"rt":823.9450000692159,"accuracy":1,"outcome":"-1","keys":[107.164999935776,304.5249998103827,469.14999978616834,735.2049998007715,2324.7599999886006],"total_keys":5,"block":1,"trial":86,"stimulus":9,"robot":3,"valence":"lose","action":"go","sham":0,"trial_type":"pit-trial","trial_index":119,"time_elapsed":688047,"internal_node_id":"0.0-93.0","task_version":"battery-v0.2-trt"},{"rune":"E","rune_set":"bacs2","hex":"#f73b6a7A","correct":-1,"choice":-1,"rt":-1,"accuracy":1,"outcome":"-10","keys":[],"total_keys":0,"block":1,"trial":87,"stimulus":7,"robot":4,"valence":"lose","action":"no-go","sham":1,"trial_type":"pit-trial","trial_index":120,"time_elapsed":692062,"internal_node_id":"0.0-94.0","task_version":"battery-v0.2-trt"},{"rune":"O","rune_set":"bacs2","hex":"#3366ff99","correct":-1,"choice":-1,"rt":-1,"accuracy":1,"outcome":"+10","keys":[],"total_keys":0,"block":1,"trial":88,"stimulus":5,"robot":2,"valence":"win","action":"no-go","sham":0,"trial_type":"pit-trial","trial_index":121,"time_elapsed":696081,"internal_node_id":"0.0-95.0","task_version":"battery-v0.2-trt"},{"rune":"Y","rune_set":"bacs2","hex":"#3366ff99","correct":-1,"choice":32,"rt":777.2849998436868,"accuracy":0,"outcome":"+1","keys":[2282.5700000394136],"total_keys":1,"block":1,"trial":89,"stimulus":11,"robot":2,"valence":"win","action":"no-go","sham":0,"trial_type":"pit-trial","trial_index":122,"time_elapsed":699576,"internal_node_id":"0.0-96.0","task_version":"battery-v0.2-trt"},{"rune":"Q","rune_set":"bacs2","hex":"#f73b6a7A","correct":32,"choice":32,"rt":505.4850000888109,"accuracy":1,"outcome":"-10","keys":[2010.0950000341982],"total_keys":1,"block":1,"trial":90,"stimulus":9,"robot":3,"valence":"lose","action":"go","sham":1,"trial_type":"pit-trial","trial_index":123,"time_elapsed":702797,"internal_node_id":"0.0-97.0","task_version":"battery-v0.2-trt"},{"rune":"T","rune_set":"bacs2","hex":"#f73b6a7A","correct":32,"choice":32,"rt":839.3149999901652,"accuracy":1,"outcome":"-1","keys":[2345.48500017263],"total_keys":1,"block":1,"trial":91,"stimulus":10,"robot":3,"valence":"lose","action":"go","sham":0,"trial_type":"pit-trial","trial_index":124,"time_elapsed":706351,"internal_node_id":"0.0-98.0","task_version":"battery-v0.2-trt"},{"rune":"H","rune_set":"bacs2","hex":"#3366ff99","correct":32,"choice":32,"rt":512.7900000661612,"accuracy":1,"outcome":"+1","keys":[2015.0050001684576],"total_keys":1,"block":1,"trial":92,"stimulus":8,"robot":1,"valence":"win","action":"go","sham":1,"trial_type":"pit-trial","trial_index":125,"time_elapsed":709573,"internal_node_id":"0.0-99.0","task_version":"battery-v0.2-trt"},{"rune":"Q","rune_set":"bacs2","hex":"#f73b6a7A","correct":32,"choice":32,"rt":693.3349999599159,"accuracy":1,"outcome":"-10","keys":[2198.6899999901652],"total_keys":1,"block":1,"trial":93,"stimulus":9,"robot":3,"valence":"lose","action":"go","sham":1,"trial_type":"pit-trial","trial_index":126,"time_elapsed":712978,"internal_node_id":"0.0-100.0","task_version":"battery-v0.2-trt"},{"rune":"Y","rune_set":"bacs2","hex":"#3366ff99","correct":-1,"choice":-1,"rt":-1,"accuracy":1,"outcome":"+1","keys":[],"total_keys":0,"block":1,"trial":94,"stimulus":11,"robot":2,"valence":"win","action":"no-go","sham":1,"trial_type":"pit-trial","trial_index":127,"time_elapsed":716993,"internal_node_id":"0.0-101.0","task_version":"battery-v0.2-trt"},{"rune":"T","rune_set":"bacs2","hex":"#f73b6a7A","correct":32,"choice":32,"rt":929.5299998484552,"accuracy":1,"outcome":"-1","keys":[2432.130000088364],"total_keys":1,"block":1,"trial":95,"stimulus":10,"robot":3,"valence":"lose","action":"go","sham":0,"trial_type":"pit-trial","trial_index":128,"time_elapsed":720636,"internal_node_id":"0.0-102.0","task_version":"battery-v0.2-trt"},{"rune":"H","rune_set":"bacs2","hex":"#3366ff99","correct":32,"choice":32,"rt":505.76500012539327,"accuracy":1,"outcome":"+10","keys":[2007.0050000213087],"total_keys":1,"block":1,"trial":96,"stimulus":8,"robot":1,"valence":"win","action":"go","sham":0,"trial_type":"pit-trial","trial_index":129,"time_elapsed":723851,"internal_node_id":"0.0-103.0","task_version":"battery-v0.2-trt"},{"rune":"Y","rune_set":"bacs2","hex":"#3366ff99","correct":-1,"choice":32,"rt":1075.575000140816,"accuracy":0,"outcome":"+1","keys":[2577.619999879971],"total_keys":1,"block":1,"trial":97,"stimulus":11,"robot":2,"valence":"win","action":"no-go","sham":0,"trial_type":"pit-trial","trial_index":130,"time_elapsed":727642,"internal_node_id":"0.0-104.0","task_version":"battery-v0.2-trt"},{"rune":"Q","rune_set":"bacs2","hex":"#f73b6a7A","correct":32,"choice":-1,"rt":-1,"accuracy":0,"outcome":"-10","keys":[3367.5599999260157,3536.874999990687,3747.139999875799,3854.4749999418855,3982.099999906495],"total_keys":5,"block":1,"trial":98,"stimulus":9,"robot":3,"valence":"lose","action":"go","sham":0,"trial_type":"pit-trial","trial_index":131,"time_elapsed":731656,"internal_node_id":"0.0-105.0","task_version":"battery-v0.2-trt"},{"rune":"T","rune_set":"bacs2","hex":"#f73b6a7A","correct":32,"choice":32,"rt":733.9200000278652,"accuracy":1,"outcome":"-1","keys":[85.23000008426607,198.61500011757016,2237.300000153482],"total_keys":3,"block":1,"trial":99,"stimulus":10,"robot":3,"valence":"lose","action":"go","sham":0,"trial_type":"pit-trial","trial_index":132,"time_elapsed":735102,"internal_node_id":"0.0-106.0","task_version":"battery-v0.2-trt"},{"rune":"H","rune_set":"bacs2","hex":"#3366ff99","correct":32,"choice":32,"rt":507.889999775216,"accuracy":1,"outcome":"+10","keys":[2008.6999998893589],"total_keys":1,"block":1,"trial":100,"stimulus":8,"robot":1,"valence":"win","action":"go","sham":0,"trial_type":"pit-trial","trial_index":133,"time_elapsed":738318,"internal_node_id":"0.0-107.0","task_version":"battery-v0.2-trt"},{"rune":"Y","rune_set":"bacs2","hex":"#3366ff99","correct":-1,"choice":-1,"rt":-1,"accuracy":1,"outcome":"+1","keys":[],"total_keys":0,"block":1,"trial":101,"stimulus":11,"robot":2,"valence":"win","action":"no-go","sham":1,"trial_type":"pit-trial","trial_index":134,"time_elapsed":742325,"internal_node_id":"0.0-108.0","task_version":"battery-v0.2-trt"},{"rune":"T","rune_set":"bacs2","hex":"#f73b6a7A","correct":32,"choice":32,"rt":962.8399999346584,"accuracy":1,"outcome":"-1","keys":[2463.3850001264364],"total_keys":1,"block":1,"trial":102,"stimulus":10,"robot":3,"valence":"lose","action":"go","sham":0,"trial_type":"pit-trial","trial_index":135,"time_elapsed":746002,"internal_node_id":"0.0-109.0","task_version":"battery-v0.2-trt"},{"rune":"Q","rune_set":"bacs2","hex":"#f73b6a7A","correct":32,"choice":-1,"rt":-1,"accuracy":0,"outcome":"-10","keys":[],"total_keys":0,"block":1,"trial":103,"stimulus":9,"robot":3,"valence":"lose","action":"go","sham":0,"trial_type":"pit-trial","trial_index":136,"time_elapsed":750013,"internal_node_id":"0.0-110.0","task_version":"battery-v0.2-trt"},{"rune":"H","rune_set":"bacs2","hex":"#3366ff99","correct":32,"choice":32,"rt":606.1699998099357,"accuracy":1,"outcome":"+1","keys":[2108.299999963492],"total_keys":1,"block":1,"trial":104,"stimulus":8,"robot":1,"valence":"win","action":"go","sham":1,"trial_type":"pit-trial","trial_index":137,"time_elapsed":753331,"internal_node_id":"0.0-111.0","task_version":"battery-v0.2-trt"},{"rune":"T","rune_set":"bacs2","hex":"#f73b6a7A","correct":32,"choice":32,"rt":522.7599998470396,"accuracy":1,"outcome":"-1","keys":[2023.6649999860674],"total_keys":1,"block":1,"trial":105,"stimulus":10,"robot":3,"valence":"lose","action":"go","sham":0,"trial_type":"pit-trial","trial_index":138,"time_elapsed":756564,"internal_node_id":"0.0-112.0","task_version":"battery-v0.2-trt"},{"rune":"Y","rune_set":"bacs2","hex":"#3366ff99","correct":-1,"choice":-1,"rt":-1,"accuracy":1,"outcome":"+1","keys":[],"total_keys":0,"block":1,"trial":106,"stimulus":11,"robot":2,"valence":"win","action":"no-go","sham":1,"trial_type":"pit-trial","trial_index":139,"time_elapsed":760579,"internal_node_id":"0.0-113.0","task_version":"battery-v0.2-trt"},{"rune":"Q","rune_set":"bacs2","hex":"#f73b6a7A","correct":32,"choice":32,"rt":1248.905000044033,"accuracy":1,"outcome":"-1","keys":[2751.759999897331],"total_keys":1,"block":1,"trial":107,"stimulus":9,"robot":3,"valence":"lose","action":"go","sham":0,"trial_type":"pit-trial","trial_index":140,"time_elapsed":764542,"internal_node_id":"0.0-114.0","task_version":"battery-v0.2-trt"},{"rune":"H","rune_set":"bacs2","hex":"#3366ff99","correct":32,"choice":32,"rt":510.40499983355403,"accuracy":1,"outcome":"+10","keys":[2012.7349998801947],"total_keys":1,"block":1,"trial":108,"stimulus":8,"robot":1,"valence":"win","action":"go","sham":0,"trial_type":"pit-trial","trial_index":141,"time_elapsed":767767,"internal_node_id":"0.0-115.0","task_version":"battery-v0.2-trt"},{"rune":"T","rune_set":"bacs2","hex":"#f73b6a7A","correct":32,"choice":32,"rt":545.8849999122322,"accuracy":1,"outcome":"-1","keys":[2050.5100002046674],"total_keys":1,"block":1,"trial":109,"stimulus":10,"robot":3,"valence":"lose","action":"go","sham":0,"trial_type":"pit-trial","trial_index":142,"time_elapsed":771031,"internal_node_id":"0.0-116.0","task_version":"battery-v0.2-trt"},{"rune":"H","rune_set":"bacs2","hex":"#3366ff99","correct":32,"choice":32,"rt":577.6199998799711,"accuracy":1,"outcome":"+10","keys":[2082.094999961555],"total_keys":1,"block":1,"trial":110,"stimulus":8,"robot":1,"valence":"win","action":"go","sham":0,"trial_type":"pit-trial","trial_index":143,"time_elapsed":774320,"internal_node_id":"0.0-117.0","task_version":"battery-v0.2-trt"},{"rune":"Q","rune_set":"bacs2","hex":"#f73b6a7A","correct":32,"choice":32,"rt":705.6800001300871,"accuracy":1,"outcome":"-1","keys":[2210.884999949485],"total_keys":1,"block":1,"trial":111,"stimulus":9,"robot":3,"valence":"lose","action":"go","sham":0,"trial_type":"pit-trial","trial_index":144,"time_elapsed":777739,"internal_node_id":"0.0-118.0","task_version":"battery-v0.2-trt"},{"rune":"Y","rune_set":"bacs2","hex":"#3366ff99","correct":-1,"choice":32,"rt":1200.2449999563396,"accuracy":0,"outcome":"+1","keys":[2702.2899999283254],"total_keys":1,"block":1,"trial":112,"stimulus":11,"robot":2,"valence":"win","action":"no-go","sham":0,"trial_type":"pit-trial","trial_index":145,"time_elapsed":781653,"internal_node_id":"0.0-119.0","task_version":"battery-v0.2-trt"},{"rune":"T","rune_set":"bacs2","hex":"#f73b6a7A","correct":32,"choice":32,"rt":528.819999890402,"accuracy":1,"outcome":"-1","keys":[2035.1500001270324],"total_keys":1,"block":1,"trial":113,"stimulus":10,"robot":3,"valence":"lose","action":"go","sham":0,"trial_type":"pit-trial","trial_index":146,"time_elapsed":784897,"internal_node_id":"0.0-120.0","task_version":"battery-v0.2-trt"},{"rune":"Y","rune_set":"bacs2","hex":"#3366ff99","correct":-1,"choice":-1,"rt":-1,"accuracy":1,"outcome":"+10","keys":[],"total_keys":0,"block":1,"trial":114,"stimulus":11,"robot":2,"valence":"win","action":"no-go","sham":0,"trial_type":"pit-trial","trial_index":147,"time_elapsed":788913,"internal_node_id":"0.0-121.0","task_version":"battery-v0.2-trt"},{"rune":"Q","rune_set":"bacs2","hex":"#f73b6a7A","correct":32,"choice":32,"rt":971.3950001168996,"accuracy":1,"outcome":"-1","keys":[2477.2099999245256],"total_keys":1,"block":1,"trial":115,"stimulus":9,"robot":3,"valence":"lose","action":"go","sham":0,"trial_type":"pit-trial","trial_index":148,"time_elapsed":792600,"internal_node_id":"0.0-122.0","task_version":"battery-v0.2-trt"},{"rune":"H","rune_set":"bacs2","hex":"#3366ff99","correct":32,"choice":32,"rt":529.5899999327958,"accuracy":1,"outcome":"+10","keys":[2030.80500010401],"total_keys":1,"block":1,"trial":116,"stimulus":8,"robot":1,"valence":"win","action":"go","sham":0,"trial_type":"pit-trial","trial_index":149,"time_elapsed":795844,"internal_node_id":"0.0-123.0","task_version":"battery-v0.2-trt"},{"rune":"Y","rune_set":"bacs2","hex":"#3366ff99","correct":-1,"choice":-1,"rt":-1,"accuracy":1,"outcome":"+10","keys":[],"total_keys":0,"block":1,"trial":117,"stimulus":11,"robot":2,"valence":"win","action":"no-go","sham":0,"trial_type":"pit-trial","trial_index":150,"time_elapsed":799866,"internal_node_id":"0.0-124.0","task_version":"battery-v0.2-trt"},{"rune":"H","rune_set":"bacs2","hex":"#3366ff99","correct":32,"choice":32,"rt":439.6299999207258,"accuracy":1,"outcome":"+10","keys":[1939.7850001696497],"total_keys":1,"block":1,"trial":118,"stimulus":8,"robot":1,"valence":"win","action":"go","sham":0,"trial_type":"pit-trial","trial_index":151,"time_elapsed":803012,"internal_node_id":"0.0-125.0","task_version":"battery-v0.2-trt"},{"rune":"T","rune_set":"bacs2","hex":"#f73b6a7A","correct":32,"choice":32,"rt":480.1350000780076,"accuracy":1,"outcome":"-10","keys":[1982.1500000543892],"total_keys":1,"block":1,"trial":119,"stimulus":10,"robot":3,"valence":"lose","action":"go","sham":1,"trial_type":"pit-trial","trial_index":152,"time_elapsed":806203,"internal_node_id":"0.0-126.0","task_version":"battery-v0.2-trt"},{"rune":"Q","rune_set":"bacs2","hex":"#f73b6a7A","correct":32,"choice":32,"rt":799.485000083223,"accuracy":1,"outcome":"-1","keys":[2302.0549998618662],"total_keys":1,"block":1,"trial":120,"stimulus":9,"robot":3,"valence":"lose","action":"go","sham":0,"trial_type":"pit-trial","trial_index":153,"time_elapsed":809758,"internal_node_id":"0.0-127.0","task_version":"battery-v0.2-trt"},{"view_history":"[{\"page_index\":0,\"viewing_time\":1058688.6299999896},{\"page_index\":1,\"viewing_time\":19545.39499990642}]","rt":1078235.619999934,"trial_type":"pit-instructions","trial_index":154,"time_elapsed":1887997,"internal_node_id":"0.0-128.0","task_version":"battery-v0.2-trt"},{"rune":"N","rune_set":"bacs2","hex":"#3366ff99","correct":-1,"choice":32,"rt":704.3850000482053,"accuracy":0,"outcome":"+1","keys":[2210.70499997586],"total_keys":1,"block":2,"trial":121,"stimulus":0,"robot":2,"valence":"win","action":"no-go","sham":0,"trial_type":"pit-trial","trial_index":155,"time_elapsed":1891426,"internal_node_id":"0.0-129.0","task_version":"battery-v0.2-trt"},{"rune":"F","rune_set":"bacs2","hex":"#3366ff99","correct":32,"choice":32,"rt":444.4949999451637,"accuracy":1,"outcome":"+1","keys":[1947.3699999507517],"total_keys":1,"block":2,"trial":122,"stimulus":1,"robot":1,"valence":"win","action":"go","sham":1,"trial_type":"pit-trial","trial_index":156,"time_elapsed":1894583,"internal_node_id":"0.0-130.0","task_version":"battery-v0.2-trt"},{"rune":"A","rune_set":"bacs2","hex":"#f73b6a7A","correct":-1,"choice":32,"rt":449.1900000721216,"accuracy":0,"outcome":"-10","keys":[1953.6599998828024],"total_keys":1,"block":2,"trial":123,"stimulus":2,"robot":4,"valence":"lose","action":"no-go","sham":0,"trial_type":"pit-trial","trial_index":157,"time_elapsed":1897767,"internal_node_id":"0.0-131.0","task_version":"battery-v0.2-trt"},{"rune":"U","rune_set":"bacs2","hex":"#3366ff99","correct":32,"choice":32,"rt":373.90000000596046,"accuracy":1,"outcome":"+10","keys":[1877.0800000056624],"total_keys":1,"block":2,"trial":124,"stimulus":3,"robot":1,"valence":"win","action":"go","sham":0,"trial_type":"pit-trial","trial_index":158,"time_elapsed":1900858,"internal_node_id":"0.0-132.0","task_version":"battery-v0.2-trt"},{"rune":"U","rune_set":"bacs2","hex":"#3366ff99","correct":32,"choice":32,"rt":464.77500000037253,"accuracy":1,"outcome":"+10","keys":[1967.1350000426173],"total_keys":1,"block":2,"trial":125,"stimulus":3,"robot":1,"valence":"win","action":"go","sham":0,"trial_type":"pit-trial","trial_index":159,"time_elapsed":1904034,"internal_node_id":"0.0-133.0","task_version":"battery-v0.2-trt"},{"rune":"F","rune_set":"bacs2","hex":"#3366ff99","correct":32,"choice":-1,"rt":-1,"accuracy":0,"outcome":"+10","keys":[],"total_keys":0,"block":2,"trial":126,"stimulus":1,"robot":1,"valence":"win","action":"go","sham":1,"trial_type":"pit-trial","trial_index":160,"time_elapsed":1908049,"internal_node_id":"0.0-134.0","task_version":"battery-v0.2-trt"},{"rune":"N","rune_set":"bacs2","hex":"#3366ff99","correct":-1,"choice":-1,"rt":-1,"accuracy":1,"outcome":"+10","keys":[],"total_keys":0,"block":2,"trial":127,"stimulus":0,"robot":2,"valence":"win","action":"no-go","sham":0,"trial_type":"pit-trial","trial_index":161,"time_elapsed":1912059,"internal_node_id":"0.0-135.0","task_version":"battery-v0.2-trt"},{"rune":"A","rune_set":"bacs2","hex":"#f73b6a7A","correct":-1,"choice":-1,"rt":-1,"accuracy":1,"outcome":"-1","keys":[],"total_keys":0,"block":2,"trial":128,"stimulus":2,"robot":4,"valence":"lose","action":"no-go","sham":0,"trial_type":"pit-trial","trial_index":162,"time_elapsed":1916067,"internal_node_id":"0.0-136.0","task_version":"battery-v0.2-trt"},{"rune":"N","rune_set":"bacs2","hex":"#3366ff99","correct":-1,"choice":-1,"rt":-1,"accuracy":1,"outcome":"+10","keys":[],"total_keys":0,"block":2,"trial":129,"stimulus":0,"robot":2,"valence":"win","action":"no-go","sham":0,"trial_type":"pit-trial","trial_index":163,"time_elapsed":1920076,"internal_node_id":"0.0-137.0","task_version":"battery-v0.2-trt"},{"rune":"U","rune_set":"bacs2","hex":"#3366ff99","correct":32,"choice":32,"rt":489.9699999950826,"accuracy":1,"outcome":"+10","keys":[1990.555000025779],"total_keys":1,"block":2,"trial":130,"stimulus":3,"robot":1,"valence":"win","action":"go","sham":0,"trial_type":"pit-trial","trial_index":164,"time_elapsed":1923279,"internal_node_id":"0.0-138.0","task_version":"battery-v0.2-trt"},{"rune":"F","rune_set":"bacs2","hex":"#3366ff99","correct":32,"choice":-1,"rt":-1,"accuracy":0,"outcome":"+1","keys":[],"total_keys":0,"block":2,"trial":131,"stimulus":1,"robot":1,"valence":"win","action":"go","sham":0,"trial_type":"pit-trial","trial_index":165,"time_elapsed":1927297,"internal_node_id":"0.0-139.0","task_version":"battery-v0.2-trt"},{"rune":"A","rune_set":"bacs2","hex":"#f73b6a7A","correct":-1,"choice":-1,"rt":-1,"accuracy":1,"outcome":"-1","keys":[],"total_keys":0,"block":2,"trial":132,"stimulus":2,"robot":4,"valence":"lose","action":"no-go","sham":0,"trial_type":"pit-trial","trial_index":166,"time_elapsed":1931308,"internal_node_id":"0.0-140.0","task_version":"battery-v0.2-trt"},{"rune":"F","rune_set":"bacs2","hex":"#3366ff99","correct":32,"choice":-1,"rt":-1,"accuracy":0,"outcome":"+1","keys":[],"total_keys":0,"block":2,"trial":133,"stimulus":1,"robot":1,"valence":"win","action":"go","sham":0,"trial_type":"pit-trial","trial_index":167,"time_elapsed":1935317,"internal_node_id":"0.0-141.0","task_version":"battery-v0.2-trt"},{"rune":"N","rune_set":"bacs2","hex":"#3366ff99","correct":-1,"choice":-1,"rt":-1,"accuracy":1,"outcome":"+10","keys":[64.99999994412065],"total_keys":1,"block":2,"trial":134,"stimulus":0,"robot":2,"valence":"win","action":"no-go","sham":0,"trial_type":"pit-trial","trial_index":168,"time_elapsed":1939333,"internal_node_id":"0.0-142.0","task_version":"battery-v0.2-trt"},{"rune":"A","rune_set":"bacs2","hex":"#f73b6a7A","correct":-1,"choice":-1,"rt":-1,"accuracy":1,"outcome":"-1","keys":[],"total_keys":0,"block":2,"trial":135,"stimulus":2,"robot":4,"valence":"lose","action":"no-go","sham":0,"trial_type":"pit-trial","trial_index":169,"time_elapsed":1943351,"internal_node_id":"0.0-143.0","task_version":"battery-v0.2-trt"},{"rune":"U","rune_set":"bacs2","hex":"#3366ff99","correct":32,"choice":32,"rt":331.43500005826354,"accuracy":1,"outcome":"+1","keys":[1832.8050000127405],"total_keys":1,"block":2,"trial":136,"stimulus":3,"robot":1,"valence":"win","action":"go","sham":1,"trial_type":"pit-trial","trial_index":170,"time_elapsed":1946392,"internal_node_id":"0.0-144.0","task_version":"battery-v0.2-trt"},{"rune":"N","rune_set":"bacs2","hex":"#3366ff99","correct":-1,"choice":-1,"rt":-1,"accuracy":1,"outcome":"+10","keys":[],"total_keys":0,"block":2,"trial":137,"stimulus":0,"robot":2,"valence":"win","action":"no-go","sham":0,"trial_type":"pit-trial","trial_index":171,"time_elapsed":1950412,"internal_node_id":"0.0-145.0","task_version":"battery-v0.2-trt"},{"rune":"U","rune_set":"bacs2","hex":"#3366ff99","correct":32,"choice":32,"rt":567.7949998062104,"accuracy":1,"outcome":"+1","keys":[2075.029999949038],"total_keys":1,"block":2,"trial":138,"stimulus":3,"robot":1,"valence":"win","action":"go","sham":1,"trial_type":"pit-trial","trial_index":172,"time_elapsed":1953694,"internal_node_id":"0.0-146.0","task_version":"battery-v0.2-trt"},{"rune":"F","rune_set":"bacs2","hex":"#3366ff99","correct":32,"choice":-1,"rt":-1,"accuracy":0,"outcome":"+10","keys":[],"total_keys":0,"block":2,"trial":139,"stimulus":1,"robot":1,"valence":"win","action":"go","sham":1,"trial_type":"pit-trial","trial_index":173,"time_elapsed":1957708,"internal_node_id":"0.0-147.0","task_version":"battery-v0.2-trt"},{"rune":"A","rune_set":"bacs2","hex":"#f73b6a7A","correct":-1,"choice":-1,"rt":-1,"accuracy":1,"outcome":"-1","keys":[],"total_keys":0,"block":2,"trial":140,"stimulus":2,"robot":4,"valence":"lose","action":"no-go","sham":0,"trial_type":"pit-trial","trial_index":174,"time_elapsed":1961725,"internal_node_id":"0.0-148.0","task_version":"battery-v0.2-trt"},{"rune":"N","rune_set":"bacs2","hex":"#3366ff99","correct":-1,"choice":-1,"rt":-1,"accuracy":1,"outcome":"+10","keys":[],"total_keys":0,"block":2,"trial":141,"stimulus":0,"robot":2,"valence":"win","action":"no-go","sham":0,"trial_type":"pit-trial","trial_index":175,"time_elapsed":1965740,"internal_node_id":"0.0-149.0","task_version":"battery-v0.2-trt"},{"rune":"F","rune_set":"bacs2","hex":"#3366ff99","correct":32,"choice":-1,"rt":-1,"accuracy":0,"outcome":"+10","keys":[],"total_keys":0,"block":2,"trial":142,"stimulus":1,"robot":1,"valence":"win","action":"go","sham":1,"trial_type":"pit-trial","trial_index":176,"time_elapsed":1969760,"internal_node_id":"0.0-150.0","task_version":"battery-v0.2-trt"},{"rune":"A","rune_set":"bacs2","hex":"#f73b6a7A","correct":-1,"choice":-1,"rt":-1,"accuracy":1,"outcome":"-1","keys":[],"total_keys":0,"block":2,"trial":143,"stimulus":2,"robot":4,"valence":"lose","action":"no-go","sham":0,"trial_type":"pit-trial","trial_index":177,"time_elapsed":1973803,"internal_node_id":"0.0-151.0","task_version":"battery-v0.2-trt"},{"rune":"U","rune_set":"bacs2","hex":"#3366ff99","correct":32,"choice":32,"rt":415.3750000987202,"accuracy":1,"outcome":"+10","keys":[1918.0399999022484],"total_keys":1,"block":2,"trial":144,"stimulus":3,"robot":1,"valence":"win","action":"go","sham":0,"trial_type":"pit-trial","trial_index":178,"time_elapsed":1976930,"internal_node_id":"0.0-152.0","task_version":"battery-v0.2-trt"},{"rune":"N","rune_set":"bacs2","hex":"#3366ff99","correct":-1,"choice":-1,"rt":-1,"accuracy":1,"outcome":"+10","keys":[],"total_keys":0,"block":2,"trial":145,"stimulus":0,"robot":2,"valence":"win","action":"no-go","sham":0,"trial_type":"pit-trial","trial_index":179,"time_elapsed":1980948,"internal_node_id":"0.0-153.0","task_version":"battery-v0.2-trt"},{"rune":"F","rune_set":"bacs2","hex":"#3366ff99","correct":32,"choice":-1,"rt":-1,"accuracy":0,"outcome":"+1","keys":[],"total_keys":0,"block":2,"trial":146,"stimulus":1,"robot":1,"valence":"win","action":"go","sham":0,"trial_type":"pit-trial","trial_index":180,"time_elapsed":1984957,"internal_node_id":"0.0-154.0","task_version":"battery-v0.2-trt"},{"rune":"U","rune_set":"bacs2","hex":"#3366ff99","correct":32,"choice":32,"rt":736.4100001286715,"accuracy":1,"outcome":"+1","keys":[2237.049999879673],"total_keys":1,"block":2,"trial":147,"stimulus":3,"robot":1,"valence":"win","action":"go","sham":1,"trial_type":"pit-trial","trial_index":181,"time_elapsed":1988403,"internal_node_id":"0.0-155.0","task_version":"battery-v0.2-trt"},{"rune":"A","rune_set":"bacs2","hex":"#f73b6a7A","correct":-1,"choice":-1,"rt":-1,"accuracy":1,"outcome":"-10","keys":[],"total_keys":0,"block":2,"trial":148,"stimulus":2,"robot":4,"valence":"lose","action":"no-go","sham":1,"trial_type":"pit-trial","trial_index":182,"time_elapsed":1992419,"internal_node_id":"0.0-156.0","task_version":"battery-v0.2-trt"},{"rune":"U","rune_set":"bacs2","hex":"#3366ff99","correct":32,"choice":32,"rt":980.9350001160055,"accuracy":1,"outcome":"+10","keys":[2481.7500000353903],"total_keys":1,"block":2,"trial":149,"stimulus":3,"robot":1,"valence":"win","action":"go","sham":0,"trial_type":"pit-trial","trial_index":183,"time_elapsed":1996123,"internal_node_id":"0.0-157.0","task_version":"battery-v0.2-trt"},{"rune":"N","rune_set":"bacs2","hex":"#3366ff99","correct":-1,"choice":-1,"rt":-1,"accuracy":1,"outcome":"+10","keys":[],"total_keys":0,"block":2,"trial":150,"stimulus":0,"robot":2,"valence":"win","action":"no-go","sham":0,"trial_type":"pit-trial","trial_index":184,"time_elapsed":2000137,"internal_node_id":"0.0-158.0","task_version":"battery-v0.2-trt"},{"rune":"F","rune_set":"bacs2","hex":"#3366ff99","correct":32,"choice":-1,"rt":-1,"accuracy":0,"outcome":"+1","keys":[],"total_keys":0,"block":2,"trial":151,"stimulus":1,"robot":1,"valence":"win","action":"go","sham":0,"trial_type":"pit-trial","trial_index":185,"time_elapsed":2004151,"internal_node_id":"0.0-159.0","task_version":"battery-v0.2-trt"},{"rune":"A","rune_set":"bacs2","hex":"#f73b6a7A","correct":-1,"choice":-1,"rt":-1,"accuracy":1,"outcome":"-1","keys":[],"total_keys":0,"block":2,"trial":152,"stimulus":2,"robot":4,"valence":"lose","action":"no-go","sham":0,"trial_type":"pit-trial","trial_index":186,"time_elapsed":2008165,"internal_node_id":"0.0-160.0","task_version":"battery-v0.2-trt"},{"rune":"S","rune_set":"bacs2","hex":"#3366ff99","correct":32,"choice":32,"rt":1230.344999814406,"accuracy":1,"outcome":"+10","keys":[2735.6400000862777],"total_keys":1,"block":2,"trial":153,"stimulus":4,"robot":1,"valence":"win","action":"go","sham":0,"trial_type":"pit-trial","trial_index":187,"time_elapsed":2012108,"internal_node_id":"0.0-161.0","task_version":"battery-v0.2-trt"},{"rune":"N","rune_set":"bacs2","hex":"#3366ff99","correct":-1,"choice":-1,"rt":-1,"accuracy":1,"outcome":"+1","keys":[],"total_keys":0,"block":2,"trial":154,"stimulus":0,"robot":2,"valence":"win","action":"no-go","sham":1,"trial_type":"pit-trial","trial_index":188,"time_elapsed":2016124,"internal_node_id":"0.0-162.0","task_version":"battery-v0.2-trt"},{"rune":"U","rune_set":"bacs2","hex":"#3366ff99","correct":32,"choice":32,"rt":1071.9650001265109,"accuracy":1,"outcome":"+10","keys":[2573.0999999213964],"total_keys":1,"block":2,"trial":155,"stimulus":3,"robot":1,"valence":"win","action":"go","sham":0,"trial_type":"pit-trial","trial_index":189,"time_elapsed":2019912,"internal_node_id":"0.0-163.0","task_version":"battery-v0.2-trt"},{"rune":"A","rune_set":"bacs2","hex":"#f73b6a7A","correct":-1,"choice":-1,"rt":-1,"accuracy":1,"outcome":"-1","keys":[],"total_keys":0,"block":2,"trial":156,"stimulus":2,"robot":4,"valence":"lose","action":"no-go","sham":0,"trial_type":"pit-trial","trial_index":190,"time_elapsed":2023928,"internal_node_id":"0.0-164.0","task_version":"battery-v0.2-trt"},{"rune":"N","rune_set":"bacs2","hex":"#3366ff99","correct":-1,"choice":-1,"rt":-1,"accuracy":1,"outcome":"+10","keys":[],"total_keys":0,"block":2,"trial":157,"stimulus":0,"robot":2,"valence":"win","action":"no-go","sham":0,"trial_type":"pit-trial","trial_index":191,"time_elapsed":2027946,"internal_node_id":"0.0-165.0","task_version":"battery-v0.2-trt"},{"rune":"U","rune_set":"bacs2","hex":"#3366ff99","correct":32,"choice":32,"rt":366.8100000359118,"accuracy":1,"outcome":"+10","keys":[1871.0950000677258],"total_keys":1,"block":2,"trial":158,"stimulus":3,"robot":1,"valence":"win","action":"go","sham":0,"trial_type":"pit-trial","trial_index":192,"time_elapsed":2031029,"internal_node_id":"0.0-166.0","task_version":"battery-v0.2-trt"},{"rune":"A","rune_set":"bacs2","hex":"#f73b6a7A","correct":-1,"choice":-1,"rt":-1,"accuracy":1,"outcome":"-1","keys":[],"total_keys":0,"block":2,"trial":159,"stimulus":2,"robot":4,"valence":"lose","action":"no-go","sham":0,"trial_type":"pit-trial","trial_index":193,"time_elapsed":2035047,"internal_node_id":"0.0-167.0","task_version":"battery-v0.2-trt"},{"rune":"S","rune_set":"bacs2","hex":"#3366ff99","correct":32,"choice":32,"rt":586.6650000680238,"accuracy":1,"outcome":"+10","keys":[2090.584999881685],"total_keys":1,"block":2,"trial":160,"stimulus":4,"robot":1,"valence":"win","action":"go","sham":0,"trial_type":"pit-trial","trial_index":194,"time_elapsed":2038347,"internal_node_id":"0.0-168.0","task_version":"battery-v0.2-trt"},{"rune":"S","rune_set":"bacs2","hex":"#3366ff99","correct":32,"choice":32,"rt":527.2699999623001,"accuracy":1,"outcome":"+10","keys":[2030.0349998287857],"total_keys":1,"block":2,"trial":161,"stimulus":4,"robot":1,"valence":"win","action":"go","sham":0,"trial_type":"pit-trial","trial_index":195,"time_elapsed":2041590,"internal_node_id":"0.0-169.0","task_version":"battery-v0.2-trt"},{"rune":"N","rune_set":"bacs2","hex":"#3366ff99","correct":-1,"choice":-1,"rt":-1,"accuracy":1,"outcome":"+10","keys":[],"total_keys":0,"block":2,"trial":162,"stimulus":0,"robot":2,"valence":"win","action":"no-go","sham":0,"trial_type":"pit-trial","trial_index":196,"time_elapsed":2045605,"internal_node_id":"0.0-170.0","task_version":"battery-v0.2-trt"},{"rune":"L","rune_set":"bacs2","hex":"#f73b6a7A","correct":32,"choice":32,"rt":968.7449999619275,"accuracy":1,"outcome":"-10","keys":[2470.200000097975],"total_keys":1,"block":2,"trial":163,"stimulus":5,"robot":3,"valence":"lose","action":"go","sham":1,"trial_type":"pit-trial","trial_index":197,"time_elapsed":2049283,"internal_node_id":"0.0-171.0","task_version":"battery-v0.2-trt"},{"rune":"P","rune_set":"bacs2","hex":"#f73b6a7A","correct":-1,"choice":32,"rt":781.8100000731647,"accuracy":0,"outcome":"-1","keys":[2286.9849998969585],"total_keys":1,"block":2,"trial":164,"stimulus":6,"robot":4,"valence":"lose","action":"no-go","sham":1,"trial_type":"pit-trial","trial_index":198,"time_elapsed":2052785,"internal_node_id":"0.0-172.0","task_version":"battery-v0.2-trt"},{"rune":"S","rune_set":"bacs2","hex":"#3366ff99","correct":32,"choice":32,"rt":614.3350000493228,"accuracy":1,"outcome":"+10","keys":[2115.6149997841567],"total_keys":1,"block":2,"trial":165,"stimulus":4,"robot":1,"valence":"win","action":"go","sham":0,"trial_type":"pit-trial","trial_index":199,"time_elapsed":2056109,"internal_node_id":"0.0-173.0","task_version":"battery-v0.2-trt"},{"rune":"P","rune_set":"bacs2","hex":"#f73b6a7A","correct":-1,"choice":32,"rt":465.06000007502735,"accuracy":0,"outcome":"-10","keys":[1970.2200000174344],"total_keys":1,"block":2,"trial":166,"stimulus":6,"robot":4,"valence":"lose","action":"no-go","sham":0,"trial_type":"pit-trial","trial_index":200,"time_elapsed":2059290,"internal_node_id":"0.0-174.0","task_version":"battery-v0.2-trt"},{"rune":"N","rune_set":"bacs2","hex":"#3366ff99","correct":-1,"choice":-1,"rt":-1,"accuracy":1,"outcome":"+10","keys":[],"total_keys":0,"block":2,"trial":167,"stimulus":0,"robot":2,"valence":"win","action":"no-go","sham":0,"trial_type":"pit-trial","trial_index":201,"time_elapsed":2063303,"internal_node_id":"0.0-175.0","task_version":"battery-v0.2-trt"},{"rune":"L","rune_set":"bacs2","hex":"#f73b6a7A","correct":32,"choice":32,"rt":1103.940000059083,"accuracy":1,"outcome":"-1","keys":[2606.1700000427663],"total_keys":1,"block":2,"trial":168,"stimulus":5,"robot":3,"valence":"lose","action":"go","sham":0,"trial_type":"pit-trial","trial_index":202,"time_elapsed":2067124,"internal_node_id":"0.0-176.0","task_version":"battery-v0.2-trt"},{"rune":"P","rune_set":"bacs2","hex":"#f73b6a7A","correct":-1,"choice":-1,"rt":-1,"accuracy":1,"outcome":"-1","keys":[],"total_keys":0,"block":2,"trial":169,"stimulus":6,"robot":4,"valence":"lose","action":"no-go","sham":0,"trial_type":"pit-trial","trial_index":203,"time_elapsed":2071139,"internal_node_id":"0.0-177.0","task_version":"battery-v0.2-trt"},{"rune":"R","rune_set":"bacs2","hex":"#3366ff99","correct":-1,"choice":32,"rt":631.5150000154972,"accuracy":0,"outcome":"+1","keys":[2134.9899999331683],"total_keys":1,"block":2,"trial":170,"stimulus":7,"robot":2,"valence":"win","action":"no-go","sham":0,"trial_type":"pit-trial","trial_index":204,"time_elapsed":2074486,"internal_node_id":"0.0-178.0","task_version":"battery-v0.2-trt"},{"rune":"L","rune_set":"bacs2","hex":"#f73b6a7A","correct":32,"choice":32,"rt":1199.7849999461323,"accuracy":1,"outcome":"-1","keys":[2700.3350001759827],"total_keys":1,"block":2,"trial":171,"stimulus":5,"robot":3,"valence":"lose","action":"go","sham":0,"trial_type":"pit-trial","trial_index":205,"time_elapsed":2078398,"internal_node_id":"0.0-179.0","task_version":"battery-v0.2-trt"},{"rune":"S","rune_set":"bacs2","hex":"#3366ff99","correct":32,"choice":32,"rt":571.7199998907745,"accuracy":1,"outcome":"+10","keys":[2072.5050000473857],"total_keys":1,"block":2,"trial":172,"stimulus":4,"robot":1,"valence":"win","action":"go","sham":0,"trial_type":"pit-trial","trial_index":206,"time_elapsed":2081682,"internal_node_id":"0.0-180.0","task_version":"battery-v0.2-trt"},{"rune":"P","rune_set":"bacs2","hex":"#f73b6a7A","correct":-1,"choice":-1,"rt":-1,"accuracy":1,"outcome":"-1","keys":[],"total_keys":0,"block":2,"trial":173,"stimulus":6,"robot":4,"valence":"lose","action":"no-go","sham":0,"trial_type":"pit-trial","trial_index":207,"time_elapsed":2085701,"internal_node_id":"0.0-181.0","task_version":"battery-v0.2-trt"},{"rune":"S","rune_set":"bacs2","hex":"#3366ff99","correct":32,"choice":32,"rt":997.7150000631809,"accuracy":1,"outcome":"+10","keys":[2498.9700000733137],"total_keys":1,"block":2,"trial":174,"stimulus":4,"robot":1,"valence":"win","action":"go","sham":0,"trial_type":"pit-trial","trial_index":208,"time_elapsed":2089415,"internal_node_id":"0.0-182.0","task_version":"battery-v0.2-trt"},{"rune":"L","rune_set":"bacs2","hex":"#f73b6a7A","correct":32,"choice":32,"rt":716.6349999606609,"accuracy":1,"outcome":"-10","keys":[2217.5549999810755],"total_keys":1,"block":2,"trial":175,"stimulus":5,"robot":3,"valence":"lose","action":"go","sham":1,"trial_type":"pit-trial","trial_index":209,"time_elapsed":2092841,"internal_node_id":"0.0-183.0","task_version":"battery-v0.2-trt"},{"rune":"R","rune_set":"bacs2","hex":"#3366ff99","correct":-1,"choice":32,"rt":499.1600001230836,"accuracy":0,"outcome":"+1","keys":[2005.339999916032],"total_keys":1,"block":2,"trial":176,"stimulus":7,"robot":2,"valence":"win","action":"no-go","sham":0,"trial_type":"pit-trial","trial_index":210,"time_elapsed":2096056,"internal_node_id":"0.0-184.0","task_version":"battery-v0.2-trt"},{"rune":"S","rune_set":"bacs2","hex":"#3366ff99","correct":32,"choice":32,"rt":497.6150000002235,"accuracy":1,"outcome":"+1","keys":[2001.0400000028312],"total_keys":1,"block":2,"trial":177,"stimulus":4,"robot":1,"valence":"win","action":"go","sham":1,"trial_type":"pit-trial","trial_index":211,"time_elapsed":2099269,"internal_node_id":"0.0-185.0","task_version":"battery-v0.2-trt"},{"rune":"P","rune_set":"bacs2","hex":"#f73b6a7A","correct":-1,"choice":-1,"rt":-1,"accuracy":1,"outcome":"-1","keys":[],"total_keys":0,"block":2,"trial":178,"stimulus":6,"robot":4,"valence":"lose","action":"no-go","sham":0,"trial_type":"pit-trial","trial_index":212,"time_elapsed":2103285,"internal_node_id":"0.0-186.0","task_version":"battery-v0.2-trt"},{"rune":"L","rune_set":"bacs2","hex":"#f73b6a7A","correct":32,"choice":32,"rt":625.050000147894,"accuracy":1,"outcome":"-1","keys":[2128.5550000611693],"total_keys":1,"block":2,"trial":179,"stimulus":5,"robot":3,"valence":"lose","action":"go","sham":0,"trial_type":"pit-trial","trial_index":213,"time_elapsed":2106627,"internal_node_id":"0.0-187.0","task_version":"battery-v0.2-trt"},{"rune":"R","rune_set":"bacs2","hex":"#3366ff99","correct":-1,"choice":-1,"rt":-1,"accuracy":1,"outcome":"+10","keys":[],"total_keys":0,"block":2,"trial":180,"stimulus":7,"robot":2,"valence":"win","action":"no-go","sham":0,"trial_type":"pit-trial","trial_index":214,"time_elapsed":2110642,"internal_node_id":"0.0-188.0","task_version":"battery-v0.2-trt"},{"rune":"R","rune_set":"bacs2","hex":"#3366ff99","correct":-1,"choice":-1,"rt":-1,"accuracy":1,"outcome":"+1","keys":[],"total_keys":0,"block":2,"trial":181,"stimulus":7,"robot":2,"valence":"win","action":"no-go","sham":1,"trial_type":"pit-trial","trial_index":215,"time_elapsed":2114660,"internal_node_id":"0.0-189.0","task_version":"battery-v0.2-trt"},{"rune":"P","rune_set":"bacs2","hex":"#f73b6a7A","correct":-1,"choice":-1,"rt":-1,"accuracy":1,"outcome":"-1","keys":[],"total_keys":0,"block":2,"trial":182,"stimulus":6,"robot":4,"valence":"lose","action":"no-go","sham":0,"trial_type":"pit-trial","trial_index":216,"time_elapsed":2118676,"internal_node_id":"0.0-190.0","task_version":"battery-v0.2-trt"},{"rune":"S","rune_set":"bacs2","hex":"#3366ff99","correct":32,"choice":32,"rt":831.1149999499321,"accuracy":1,"outcome":"+10","keys":[2332.155000185594],"total_keys":1,"block":2,"trial":183,"stimulus":4,"robot":1,"valence":"win","action":"go","sham":0,"trial_type":"pit-trial","trial_index":217,"time_elapsed":2122217,"internal_node_id":"0.0-191.0","task_version":"battery-v0.2-trt"},{"rune":"L","rune_set":"bacs2","hex":"#f73b6a7A","correct":32,"choice":32,"rt":809.940000064671,"accuracy":1,"outcome":"-1","keys":[2311.619999818504],"total_keys":1,"block":2,"trial":184,"stimulus":5,"robot":3,"valence":"lose","action":"go","sham":0,"trial_type":"pit-trial","trial_index":218,"time_elapsed":2125756,"internal_node_id":"0.0-192.0","task_version":"battery-v0.2-trt"},{"rune":"R","rune_set":"bacs2","hex":"#3366ff99","correct":-1,"choice":-1,"rt":-1,"accuracy":1,"outcome":"+10","keys":[],"total_keys":0,"block":2,"trial":185,"stimulus":7,"robot":2,"valence":"win","action":"no-go","sham":0,"trial_type":"pit-trial","trial_index":219,"time_elapsed":2129767,"internal_node_id":"0.0-193.0","task_version":"battery-v0.2-trt"},{"rune":"S","rune_set":"bacs2","hex":"#3366ff99","correct":32,"choice":32,"rt":538.4649999905378,"accuracy":1,"outcome":"+10","keys":[2042.4550001043826],"total_keys":1,"block":2,"trial":186,"stimulus":4,"robot":1,"valence":"win","action":"go","sham":0,"trial_type":"pit-trial","trial_index":220,"time_elapsed":2133041,"internal_node_id":"0.0-194.0","task_version":"battery-v0.2-trt"},{"rune":"L","rune_set":"bacs2","hex":"#f73b6a7A","correct":32,"choice":32,"rt":657.6249999925494,"accuracy":1,"outcome":"-1","keys":[2159.969999920577],"total_keys":1,"block":2,"trial":187,"stimulus":5,"robot":3,"valence":"lose","action":"go","sham":0,"trial_type":"pit-trial","trial_index":221,"time_elapsed":2136407,"internal_node_id":"0.0-195.0","task_version":"battery-v0.2-trt"},{"rune":"P","rune_set":"bacs2","hex":"#f73b6a7A","correct":-1,"choice":-1,"rt":-1,"accuracy":1,"outcome":"-10","keys":[],"total_keys":0,"block":2,"trial":188,"stimulus":6,"robot":4,"valence":"lose","action":"no-go","sham":1,"trial_type":"pit-trial","trial_index":222,"time_elapsed":2140426,"internal_node_id":"0.0-196.0","task_version":"battery-v0.2-trt"},{"rune":"S","rune_set":"bacs2","hex":"#3366ff99","correct":32,"choice":32,"rt":439.2000001389533,"accuracy":1,"outcome":"+10","keys":[1942.8550000302494],"total_keys":1,"block":2,"trial":189,"stimulus":4,"robot":1,"valence":"win","action":"go","sham":0,"trial_type":"pit-trial","trial_index":223,"time_elapsed":2143576,"internal_node_id":"0.0-197.0","task_version":"battery-v0.2-trt"},{"rune":"R","rune_set":"bacs2","hex":"#3366ff99","correct":-1,"choice":-1,"rt":-1,"accuracy":1,"outcome":"+10","keys":[],"total_keys":0,"block":2,"trial":190,"stimulus":7,"robot":2,"valence":"win","action":"no-go","sham":0,"trial_type":"pit-trial","trial_index":224,"time_elapsed":2147597,"internal_node_id":"0.0-198.0","task_version":"battery-v0.2-trt"},{"rune":"L","rune_set":"bacs2","hex":"#f73b6a7A","correct":32,"choice":32,"rt":647.4850000813603,"accuracy":1,"outcome":"-1","keys":[2148.6949999816716],"total_keys":1,"block":2,"trial":191,"stimulus":5,"robot":3,"valence":"lose","action":"go","sham":0,"trial_type":"pit-trial","trial_index":225,"time_elapsed":2150959,"internal_node_id":"0.0-199.0","task_version":"battery-v0.2-trt"},{"rune":"P","rune_set":"bacs2","hex":"#f73b6a7A","correct":-1,"choice":-1,"rt":-1,"accuracy":1,"outcome":"-1","keys":[],"total_keys":0,"block":2,"trial":192,"stimulus":6,"robot":4,"valence":"lose","action":"no-go","sham":0,"trial_type":"pit-trial","trial_index":226,"time_elapsed":2154969,"internal_node_id":"0.0-200.0","task_version":"battery-v0.2-trt"},{"rune":"S","rune_set":"bacs2","hex":"#3366ff99","correct":32,"choice":32,"rt":695.4600000753999,"accuracy":1,"outcome":"+10","keys":[2199.6999999973923],"total_keys":1,"block":2,"trial":193,"stimulus":4,"robot":1,"valence":"win","action":"go","sham":0,"trial_type":"pit-trial","trial_index":227,"time_elapsed":2158401,"internal_node_id":"0.0-201.0","task_version":"battery-v0.2-trt"},{"rune":"P","rune_set":"bacs2","hex":"#f73b6a7A","correct":-1,"choice":-1,"rt":-1,"accuracy":1,"outcome":"-10","keys":[],"total_keys":0,"block":2,"trial":194,"stimulus":6,"robot":4,"valence":"lose","action":"no-go","sham":1,"trial_type":"pit-trial","trial_index":228,"time_elapsed":2162411,"internal_node_id":"0.0-202.0","task_version":"battery-v0.2-trt"},{"rune":"V","rune_set":"bacs2","hex":"#f73b6a7A","correct":32,"choice":32,"rt":758.3699999377131,"accuracy":1,"outcome":"-1","keys":[2260.420000180602],"total_keys":1,"block":2,"trial":195,"stimulus":8,"robot":3,"valence":"lose","action":"go","sham":0,"trial_type":"pit-trial","trial_index":229,"time_elapsed":2165879,"internal_node_id":"0.0-203.0","task_version":"battery-v0.2-trt"},{"rune":"R","rune_set":"bacs2","hex":"#3366ff99","correct":-1,"choice":-1,"rt":-1,"accuracy":1,"outcome":"+10","keys":[],"total_keys":0,"block":2,"trial":196,"stimulus":7,"robot":2,"valence":"win","action":"no-go","sham":0,"trial_type":"pit-trial","trial_index":230,"time_elapsed":2169892,"internal_node_id":"0.0-204.0","task_version":"battery-v0.2-trt"},{"rune":"R","rune_set":"bacs2","hex":"#3366ff99","correct":-1,"choice":-1,"rt":-1,"accuracy":1,"outcome":"+10","keys":[],"total_keys":0,"block":2,"trial":197,"stimulus":7,"robot":2,"valence":"win","action":"no-go","sham":0,"trial_type":"pit-trial","trial_index":231,"time_elapsed":2173912,"internal_node_id":"0.0-205.0","task_version":"battery-v0.2-trt"},{"rune":"S","rune_set":"bacs2","hex":"#3366ff99","correct":32,"choice":32,"rt":647.5249999202788,"accuracy":1,"outcome":"+10","keys":[2148.679999867454],"total_keys":1,"block":2,"trial":198,"stimulus":4,"robot":1,"valence":"win","action":"go","sham":0,"trial_type":"pit-trial","trial_index":232,"time_elapsed":2177266,"internal_node_id":"0.0-206.0","task_version":"battery-v0.2-trt"},{"rune":"V","rune_set":"bacs2","hex":"#f73b6a7A","correct":32,"choice":32,"rt":1244.4350000005215,"accuracy":1,"outcome":"-10","keys":[2745.7749999593943],"total_keys":1,"block":2,"trial":199,"stimulus":8,"robot":3,"valence":"lose","action":"go","sham":1,"trial_type":"pit-trial","trial_index":233,"time_elapsed":2181222,"internal_node_id":"0.0-207.0","task_version":"battery-v0.2-trt"},{"rune":"P","rune_set":"bacs2","hex":"#f73b6a7A","correct":-1,"choice":-1,"rt":-1,"accuracy":1,"outcome":"-1","keys":[],"total_keys":0,"block":2,"trial":200,"stimulus":6,"robot":4,"valence":"lose","action":"no-go","sham":0,"trial_type":"pit-trial","trial_index":234,"time_elapsed":2185245,"internal_node_id":"0.0-208.0","task_version":"battery-v0.2-trt"},{"rune":"K","rune_set":"bacs2","hex":"#f73b6a7A","correct":32,"choice":32,"rt":688.1999999750406,"accuracy":1,"outcome":"-1","keys":[2189.2649999354035],"total_keys":1,"block":2,"trial":201,"stimulus":9,"robot":3,"valence":"lose","action":"go","sham":0,"trial_type":"pit-trial","trial_index":235,"time_elapsed":2188641,"internal_node_id":"0.0-209.0","task_version":"battery-v0.2-trt"},{"rune":"R","rune_set":"bacs2","hex":"#3366ff99","correct":-1,"choice":-1,"rt":-1,"accuracy":1,"outcome":"+10","keys":[],"total_keys":0,"block":2,"trial":202,"stimulus":7,"robot":2,"valence":"win","action":"no-go","sham":0,"trial_type":"pit-trial","trial_index":236,"time_elapsed":2192655,"internal_node_id":"0.0-210.0","task_version":"battery-v0.2-trt"},{"rune":"V","rune_set":"bacs2","hex":"#f73b6a7A","correct":32,"choice":32,"rt":1076.1700000148267,"accuracy":1,"outcome":"-1","keys":[2579.494999954477],"total_keys":1,"block":2,"trial":203,"stimulus":8,"robot":3,"valence":"lose","action":"go","sham":0,"trial_type":"pit-trial","trial_index":237,"time_elapsed":2196446,"internal_node_id":"0.0-211.0","task_version":"battery-v0.2-trt"},{"rune":"P","rune_set":"bacs2","hex":"#f73b6a7A","correct":-1,"choice":-1,"rt":-1,"accuracy":1,"outcome":"-1","keys":[],"total_keys":0,"block":2,"trial":204,"stimulus":6,"robot":4,"valence":"lose","action":"no-go","sham":0,"trial_type":"pit-trial","trial_index":238,"time_elapsed":2200461,"internal_node_id":"0.0-212.0","task_version":"battery-v0.2-trt"},{"rune":"P","rune_set":"bacs2","hex":"#f73b6a7A","correct":-1,"choice":-1,"rt":-1,"accuracy":1,"outcome":"-1","keys":[],"total_keys":0,"block":2,"trial":205,"stimulus":6,"robot":4,"valence":"lose","action":"no-go","sham":0,"trial_type":"pit-trial","trial_index":239,"time_elapsed":2204479,"internal_node_id":"0.0-213.0","task_version":"battery-v0.2-trt"},{"rune":"K","rune_set":"bacs2","hex":"#f73b6a7A","correct":32,"choice":-1,"rt":-1,"accuracy":0,"outcome":"-10","keys":[3484.3150000087917,3661.985000129789,3804.0500001516193,3941.815000027418],"total_keys":4,"block":2,"trial":206,"stimulus":9,"robot":3,"valence":"lose","action":"go","sham":0,"trial_type":"pit-trial","trial_index":240,"time_elapsed":2208495,"internal_node_id":"0.0-214.0","task_version":"battery-v0.2-trt"},{"rune":"R","rune_set":"bacs2","hex":"#3366ff99","correct":-1,"choice":-1,"rt":-1,"accuracy":1,"outcome":"+10","keys":[],"total_keys":0,"block":2,"trial":207,"stimulus":7,"robot":2,"valence":"win","action":"no-go","sham":0,"trial_type":"pit-trial","trial_index":241,"time_elapsed":2212510,"internal_node_id":"0.0-215.0","task_version":"battery-v0.2-trt"},{"rune":"V","rune_set":"bacs2","hex":"#f73b6a7A","correct":32,"choice":32,"rt":1028.5849999636412,"accuracy":1,"outcome":"-1","keys":[2531.0100000351667],"total_keys":1,"block":2,"trial":208,"stimulus":8,"robot":3,"valence":"lose","action":"go","sham":0,"trial_type":"pit-trial","trial_index":242,"time_elapsed":2216248,"internal_node_id":"0.0-216.0","task_version":"battery-v0.2-trt"},{"rune":"B","rune_set":"bacs2","hex":"#f73b6a7A","correct":-1,"choice":32,"rt":763.7399998493493,"accuracy":0,"outcome":"-10","keys":[2268.7699999660254],"total_keys":1,"block":2,"trial":209,"stimulus":10,"robot":4,"valence":"lose","action":"no-go","sham":0,"trial_type":"pit-trial","trial_index":243,"time_elapsed":2219727,"internal_node_id":"0.0-217.0","task_version":"battery-v0.2-trt"},{"rune":"K","rune_set":"bacs2","hex":"#f73b6a7A","correct":32,"choice":-1,"rt":-1,"accuracy":0,"outcome":"-10","keys":[2893.5650000348687],"total_keys":1,"block":2,"trial":210,"stimulus":9,"robot":3,"valence":"lose","action":"go","sham":0,"trial_type":"pit-trial","trial_index":244,"time_elapsed":2223739,"internal_node_id":"0.0-218.0","task_version":"battery-v0.2-trt"},{"rune":"V","rune_set":"bacs2","hex":"#f73b6a7A","correct":32,"choice":-1,"rt":-1,"accuracy":0,"outcome":"-1","keys":[],"total_keys":0,"block":2,"trial":211,"stimulus":8,"robot":3,"valence":"lose","action":"go","sham":1,"trial_type":"pit-trial","trial_index":245,"time_elapsed":2227756,"internal_node_id":"0.0-219.0","task_version":"battery-v0.2-trt"},{"rune":"M","rune_set":"bacs2","hex":"#3366ff99","correct":-1,"choice":32,"rt":1296.2649997789413,"accuracy":0,"outcome":"+1","keys":[2799.235000042245],"total_keys":1,"block":2,"trial":212,"stimulus":11,"robot":2,"valence":"win","action":"no-go","sham":0,"trial_type":"pit-trial","trial_index":246,"time_elapsed":2231764,"internal_node_id":"0.0-220.0","task_version":"battery-v0.2-trt"},{"rune":"M","rune_set":"bacs2","hex":"#3366ff99","correct":-1,"choice":32,"rt":1222.5800000596792,"accuracy":0,"outcome":"+1","keys":[2723.8199999555945],"total_keys":1,"block":2,"trial":213,"stimulus":11,"robot":2,"valence":"win","action":"no-go","sham":0,"trial_type":"pit-trial","trial_index":247,"time_elapsed":2235698,"internal_node_id":"0.0-221.0","task_version":"battery-v0.2-trt"},{"rune":"K","rune_set":"bacs2","hex":"#f73b6a7A","correct":32,"choice":-1,"rt":-1,"accuracy":0,"outcome":"-10","keys":[],"total_keys":0,"block":2,"trial":214,"stimulus":9,"robot":3,"valence":"lose","action":"go","sham":0,"trial_type":"pit-trial","trial_index":248,"time_elapsed":2239826,"internal_node_id":"0.0-222.0","task_version":"battery-v0.2-trt"},{"rune":"B","rune_set":"bacs2","hex":"#f73b6a7A","correct":-1,"choice":32,"rt":1072.5849999580532,"accuracy":0,"outcome":"-10","keys":[2575.395000167191],"total_keys":1,"block":2,"trial":215,"stimulus":10,"robot":4,"valence":"lose","action":"no-go","sham":0,"trial_type":"pit-trial","trial_index":249,"time_elapsed":2243609,"internal_node_id":"0.0-223.0","task_version":"battery-v0.2-trt"},{"rune":"V","rune_set":"bacs2","hex":"#f73b6a7A","correct":32,"choice":32,"rt":549.959999974817,"accuracy":1,"outcome":"-1","keys":[2054.01000007987],"total_keys":1,"block":2,"trial":216,"stimulus":8,"robot":3,"valence":"lose","action":"go","sham":0,"trial_type":"pit-trial","trial_index":250,"time_elapsed":2246876,"internal_node_id":"0.0-224.0","task_version":"battery-v0.2-trt"},{"rune":"M","rune_set":"bacs2","hex":"#3366ff99","correct":-1,"choice":-1,"rt":-1,"accuracy":1,"outcome":"+10","keys":[],"total_keys":0,"block":2,"trial":217,"stimulus":11,"robot":2,"valence":"win","action":"no-go","sham":0,"trial_type":"pit-trial","trial_index":251,"time_elapsed":2251833,"internal_node_id":"0.0-225.0","task_version":"battery-v0.2-trt"},{"rune":"B","rune_set":"bacs2","hex":"#f73b6a7A","correct":-1,"choice":-1,"rt":-1,"accuracy":1,"outcome":"-1","keys":[],"total_keys":0,"block":2,"trial":218,"stimulus":10,"robot":4,"valence":"lose","action":"no-go","sham":0,"trial_type":"pit-trial","trial_index":252,"time_elapsed":2256827,"internal_node_id":"0.0-226.0","task_version":"battery-v0.2-trt"},{"rune":"K","rune_set":"bacs2","hex":"#f73b6a7A","correct":32,"choice":-1,"rt":-1,"accuracy":0,"outcome":"-1","keys":[],"total_keys":0,"block":2,"trial":219,"stimulus":9,"robot":3,"valence":"lose","action":"go","sham":1,"trial_type":"pit-trial","trial_index":253,"time_elapsed":2260839,"internal_node_id":"0.0-227.0","task_version":"battery-v0.2-trt"},{"rune":"V","rune_set":"bacs2","hex":"#f73b6a7A","correct":32,"choice":32,"rt":603.7500000093132,"accuracy":1,"outcome":"-10","keys":[2112.4950000084937],"total_keys":1,"block":2,"trial":220,"stimulus":8,"robot":3,"valence":"lose","action":"go","sham":1,"trial_type":"pit-trial","trial_index":254,"time_elapsed":2264159,"internal_node_id":"0.0-228.0","task_version":"battery-v0.2-trt"},{"rune":"M","rune_set":"bacs2","hex":"#3366ff99","correct":-1,"choice":-1,"rt":-1,"accuracy":1,"outcome":"+10","keys":[],"total_keys":0,"block":2,"trial":221,"stimulus":11,"robot":2,"valence":"win","action":"no-go","sham":0,"trial_type":"pit-trial","trial_index":255,"time_elapsed":2268780,"internal_node_id":"0.0-229.0","task_version":"battery-v0.2-trt"},{"rune":"B","rune_set":"bacs2","hex":"#f73b6a7A","correct":-1,"choice":32,"rt":627.3950000759214,"accuracy":0,"outcome":"-10","keys":[2128.5249998327345],"total_keys":1,"block":2,"trial":222,"stimulus":10,"robot":4,"valence":"lose","action":"no-go","sham":0,"trial_type":"pit-trial","trial_index":256,"time_elapsed":2272120,"internal_node_id":"0.0-230.0","task_version":"battery-v0.2-trt"},{"rune":"K","rune_set":"bacs2","hex":"#f73b6a7A","correct":32,"choice":-1,"rt":-1,"accuracy":0,"outcome":"-10","keys":[],"total_keys":0,"block":2,"trial":223,"stimulus":9,"robot":3,"valence":"lose","action":"go","sham":0,"trial_type":"pit-trial","trial_index":257,"time_elapsed":2276134,"internal_node_id":"0.0-231.0","task_version":"battery-v0.2-trt"},{"rune":"V","rune_set":"bacs2","hex":"#f73b6a7A","correct":32,"choice":32,"rt":601.6549998894334,"accuracy":1,"outcome":"-1","keys":[2105.4500001482666],"total_keys":1,"block":2,"trial":224,"stimulus":8,"robot":3,"valence":"lose","action":"go","sham":0,"trial_type":"pit-trial","trial_index":258,"time_elapsed":2279447,"internal_node_id":"0.0-232.0","task_version":"battery-v0.2-trt"},{"rune":"M","rune_set":"bacs2","hex":"#3366ff99","correct":-1,"choice":-1,"rt":-1,"accuracy":1,"outcome":"+10","keys":[],"total_keys":0,"block":2,"trial":225,"stimulus":11,"robot":2,"valence":"win","action":"no-go","sham":0,"trial_type":"pit-trial","trial_index":259,"time_elapsed":2283469,"internal_node_id":"0.0-233.0","task_version":"battery-v0.2-trt"},{"rune":"B","rune_set":"bacs2","hex":"#f73b6a7A","correct":-1,"choice":-1,"rt":-1,"accuracy":1,"outcome":"-1","keys":[],"total_keys":0,"block":2,"trial":226,"stimulus":10,"robot":4,"valence":"lose","action":"no-go","sham":0,"trial_type":"pit-trial","trial_index":260,"time_elapsed":2287489,"internal_node_id":"0.0-234.0","task_version":"battery-v0.2-trt"},{"rune":"K","rune_set":"bacs2","hex":"#f73b6a7A","correct":32,"choice":-1,"rt":-1,"accuracy":0,"outcome":"-10","keys":[],"total_keys":0,"block":2,"trial":227,"stimulus":9,"robot":3,"valence":"lose","action":"go","sham":0,"trial_type":"pit-trial","trial_index":261,"time_elapsed":2291507,"internal_node_id":"0.0-235.0","task_version":"battery-v0.2-trt"},{"rune":"V","rune_set":"bacs2","hex":"#f73b6a7A","correct":32,"choice":32,"rt":517.7750000730157,"accuracy":1,"outcome":"-1","keys":[2019.205000018701],"total_keys":1,"block":2,"trial":228,"stimulus":8,"robot":3,"valence":"lose","action":"go","sham":0,"trial_type":"pit-trial","trial_index":262,"time_elapsed":2294734,"internal_node_id":"0.0-236.0","task_version":"battery-v0.2-trt"},{"rune":"V","rune_set":"bacs2","hex":"#f73b6a7A","correct":32,"choice":32,"rt":627.8599998913705,"accuracy":1,"outcome":"-1","keys":[2134.730000048876],"total_keys":1,"block":2,"trial":229,"stimulus":8,"robot":3,"valence":"lose","action":"go","sham":0,"trial_type":"pit-trial","trial_index":263,"time_elapsed":2298082,"internal_node_id":"0.0-237.0","task_version":"battery-v0.2-trt"},{"rune":"B","rune_set":"bacs2","hex":"#f73b6a7A","correct":-1,"choice":-1,"rt":-1,"accuracy":1,"outcome":"-1","keys":[],"total_keys":0,"block":2,"trial":230,"stimulus":10,"robot":4,"valence":"lose","action":"no-go","sham":0,"trial_type":"pit-trial","trial_index":264,"time_elapsed":2302101,"internal_node_id":"0.0-238.0","task_version":"battery-v0.2-trt"},{"rune":"K","rune_set":"bacs2","hex":"#f73b6a7A","correct":32,"choice":-1,"rt":-1,"accuracy":0,"outcome":"-10","keys":[2993.365000002086],"total_keys":1,"block":2,"trial":231,"stimulus":9,"robot":3,"valence":"lose","action":"go","sham":0,"trial_type":"pit-trial","trial_index":265,"time_elapsed":2306122,"internal_node_id":"0.0-239.0","task_version":"battery-v0.2-trt"},{"rune":"M","rune_set":"bacs2","hex":"#3366ff99","correct":-1,"choice":-1,"rt":-1,"accuracy":1,"outcome":"+10","keys":[],"total_keys":0,"block":2,"trial":232,"stimulus":11,"robot":2,"valence":"win","action":"no-go","sham":0,"trial_type":"pit-trial","trial_index":266,"time_elapsed":2310142,"internal_node_id":"0.0-240.0","task_version":"battery-v0.2-trt"},{"rune":"M","rune_set":"bacs2","hex":"#3366ff99","correct":-1,"choice":-1,"rt":-1,"accuracy":1,"outcome":"+10","keys":[],"total_keys":0,"block":2,"trial":233,"stimulus":11,"robot":2,"valence":"win","action":"no-go","sham":0,"trial_type":"pit-trial","trial_index":267,"time_elapsed":2314156,"internal_node_id":"0.0-241.0","task_version":"battery-v0.2-trt"},{"rune":"V","rune_set":"bacs2","hex":"#f73b6a7A","correct":32,"choice":32,"rt":989.8800000082701,"accuracy":1,"outcome":"-1","keys":[2493.1199999991804],"total_keys":1,"block":2,"trial":234,"stimulus":8,"robot":3,"valence":"lose","action":"go","sham":0,"trial_type":"pit-trial","trial_index":268,"time_elapsed":2317863,"internal_node_id":"0.0-242.0","task_version":"battery-v0.2-trt"},{"rune":"B","rune_set":"bacs2","hex":"#f73b6a7A","correct":-1,"choice":-1,"rt":-1,"accuracy":1,"outcome":"-1","keys":[],"total_keys":0,"block":2,"trial":235,"stimulus":10,"robot":4,"valence":"lose","action":"no-go","sham":0,"trial_type":"pit-trial","trial_index":269,"time_elapsed":2321880,"internal_node_id":"0.0-243.0","task_version":"battery-v0.2-trt"},{"rune":"K","rune_set":"bacs2","hex":"#f73b6a7A","correct":32,"choice":32,"rt":1110.524999909103,"accuracy":1,"outcome":"-1","keys":[2611.765000037849],"total_keys":1,"block":2,"trial":236,"stimulus":9,"robot":3,"valence":"lose","action":"go","sham":0,"trial_type":"pit-trial","trial_index":270,"time_elapsed":2325699,"internal_node_id":"0.0-244.0","task_version":"battery-v0.2-trt"},{"rune":"M","rune_set":"bacs2","hex":"#3366ff99","correct":-1,"choice":-1,"rt":-1,"accuracy":1,"outcome":"+10","keys":[],"total_keys":0,"block":2,"trial":237,"stimulus":11,"robot":2,"valence":"win","action":"no-go","sham":0,"trial_type":"pit-trial","trial_index":271,"time_elapsed":2329711,"internal_node_id":"0.0-245.0","task_version":"battery-v0.2-trt"},{"rune":"V","rune_set":"bacs2","hex":"#f73b6a7A","correct":32,"cho