[{"view_history":"[{\"page_index\":0,\"viewing_time\":46327.80999992974}]","rt":46328.73499998823,"trial_type":"instructions","trial_index":0,"time_elapsed":46336,"internal_node_id":"0.0-0.0","task_version":"battery-v0.2-trt"},{"slider_type":"valence","raw_loc":470,"loc":0.44,"trial_type":"affective-slider","trial_index":1,"time_elapsed":57777,"internal_node_id":"0.0-1.0","task_version":"battery-v0.2-trt"},{"responses":{"Q07":"0","Q04":"2","Q05":"1","Q02":"2","Q01":"1","Q03":"0","Q06":"1","Q08":"3"},"rt":57948.115000035614,"item_order":[6,3,4,1,0,2,5,7],"radio_events":[11826.205000048503,14363.959999987856,21162.07000007853,27962.280000094324,34802.455000113696,38722.25000010803,44498.314999975264,49010.215000016615],"key_events":[],"mouse_events":[9930.27999997139,11826.205000048503,14363.959999987856,21162.07000007853,27962.280000094324,34802.455000113696,38722.25000010803,44498.314999975264,49010.215000016615,57946.43000001088],"straightlining":0.375,"zigzagging":0.7142857142857143,"survey":"dass_d","trial_type":"survey-template","trial_index":2,"time_elapsed":115728,"internal_node_id":"0.0-2.0","task_version":"battery-v0.2-trt","infrequency":0.5},{"responses":{"Q04":"1","Q02":"1","Q08":"0","Q07":"1","Q06":"2","Q03":"2","Q01":"2","Q05":"1"},"rt":40632.83500005491,"item_order":[3,1,7,6,5,2,0,4],"radio_events":[8511.365000158548,13391.44999999553,17127.380000194535,27335.30500018969,32783.52000005543,35614.91500004195,37055.26000005193,39447.55000015721],"key_events":[],"mouse_events":[8511.365000158548,13391.44999999553,17127.380000194535,27335.30500018969,32783.52000005543,35614.91500004195,37055.26000005193,39447.55000015721,40631.63000019267],"straightlining":0.5,"zigzagging":0.5714285714285714,"survey":"gad7","trial_type":"survey-template","trial_index":3,"time_elapsed":156368,"internal_node_id":"0.0-3.0","task_version":"battery-v0.2-trt","infrequency":0},{"responses":{"Q01":"3","Q12":"1","Q09":"1","Q10":"2","Q03":"2","Q06":"3","Q11":"2","Q04":"3","Q02":"2","Q08":"2","Q13":"0","Q07":"3","Q05":"3"},"rt":124105.93499988317,"item_order":[0,11,8,9,2,5,10,3,1,7,12,6,4],"radio_events":[29583.52499990724,33503.84999997914,37551.9749999512,44632.0499998983,53519.98999994248,58423.600000096485,74888.09500006028,86183.88499994762,90295.59500003234,97703.80000001751,105663.85999997146,116007.62500008568,122631.65999995545],"key_events":[],"mouse_events":[29583.52499990724,33503.84999997914,37551.9749999512,43439.53499989584,44632.0499998983,53519.98999994248,57647.684999974445,58423.600000096485,74888.09500006028,86183.88499994762,90295.59500003234,97703.80000001751,105663.85999997146,116007.62500008568,122631.65999995545,124104.03999988921],"straightlining":0.38461538461538464,"zigzagging":0.5,"survey":"bisbas","trial_type":"survey-template","trial_index":4,"time_elapsed":280482,"internal_node_id":"0.0-4.0","task_version":"battery-v0.2-trt","infrequency":0},{"value":[0.5,1.2596153846153846,1.7857142857142856],"trial_type":"call-function","trial_index":5,"time_elapsed":280488,"internal_node_id":"0.0-5.0","task_version":"battery-v0.2-trt"},{"view_history":"[{\"page_index\":0,\"viewing_time\":4939.544999971986},{\"page_index\":1,\"viewing_time\":6087.989999912679},{\"page_index\":2,\"viewing_time\":17095.71500006132},{\"page_index\":3,\"viewing_time\":10160.175000084564},{\"page_index\":4,\"viewing_time\":14751.92499998957},{\"page_index\":5,\"viewing_time\":6471.995000028983},{\"page_index\":6,\"viewing_time\":7895.739999832585},{\"page_index\":7,\"viewing_time\":24280.110000167042},{\"page_index\":8,\"viewing_time\":24567.93999997899},{\"page_index\":9,\"viewing_time\":9216.139999916777}]","rt":125467.96500007622,"trial_type":"pit-instructions","trial_index":6,"time_elapsed":405958,"internal_node_id":"0.0-6.0-0.0","task_version":"battery-v0.2-trt"},{"rune":"1","rune_set":"elianto","hex":"#3366ff99","correct":32,"choice":-1,"rt":-1,"accuracy":0,"outcome":"+1","keys":[],"total_keys":0,"block":0,"practice":1,"trial_type":"pit-trial","trial_index":7,"time_elapsed":409966,"internal_node_id":"0.0-6.0-1.0-0.0","task_version":"battery-v0.2-trt"},{"rune":"1","rune_set":"elianto","hex":"#3366ff99","correct":32,"choice":-1,"rt":-1,"accuracy":0,"outcome":"+1","keys":[],"total_keys":0,"block":0,"practice":1,"trial_type":"pit-trial","trial_index":8,"time_elapsed":413974,"internal_node_id":"0.0-6.0-1.1-0.1","task_version":"battery-v0.2-trt"},{"rune":"1","rune_set":"elianto","hex":"#3366ff99","correct":32,"choice":-1,"rt":-1,"accuracy":0,"outcome":"+1","keys":[],"total_keys":0,"block":0,"practice":1,"trial_type":"pit-trial","trial_index":9,"time_elapsed":417983,"internal_node_id":"0.0-6.0-1.2-0.2","task_version":"battery-v0.2-trt"},{"rune":"1","rune_set":"elianto","hex":"#3366ff99","correct":32,"choice":-1,"rt":-1,"accuracy":0,"outcome":"+1","keys":[],"total_keys":0,"block":0,"practice":1,"trial_type":"pit-trial","trial_index":10,"time_elapsed":421990,"internal_node_id":"0.0-6.0-1.3-0.3","task_version":"battery-v0.2-trt"},{"rune":"1","rune_set":"elianto","hex":"#3366ff99","correct":32,"choice":32,"rt":452.65999995172024,"accuracy":1,"outcome":"+10","keys":[1954.4549998827279],"total_keys":1,"block":0,"practice":1,"trial_type":"pit-trial","trial_index":11,"time_elapsed":425150,"internal_node_id":"0.0-6.0-1.4-0.4","task_version":"battery-v0.2-trt"},{"rune":"1","rune_set":"elianto","hex":"#3366ff99","correct":32,"choice":32,"rt":612.5699998810887,"accuracy":1,"outcome":"+10","keys":[2113.2650000508875],"total_keys":1,"block":0,"practice":1,"trial_type":"pit-trial","trial_index":12,"time_elapsed":428480,"internal_node_id":"0.0-6.0-1.5-0.5","task_version":"battery-v0.2-trt"},{"rune":"1","rune_set":"elianto","hex":"#3366ff99","correct":32,"choice":32,"rt":450.24999999441206,"accuracy":1,"outcome":"+10","keys":[1950.8249999489635],"total_keys":1,"block":0,"practice":1,"trial_type":"pit-trial","trial_index":13,"time_elapsed":431636,"internal_node_id":"0.0-6.0-1.6-0.6","task_version":"battery-v0.2-trt"},{"trial_type":"call-function","trial_index":14,"time_elapsed":431640,"internal_node_id":"0.0-6.0-2.0","task_version":"battery-v0.2-trt"},{"view_history":"[{\"page_index\":0,\"viewing_time\":10371.839999919757},{\"page_index\":1,\"viewing_time\":5184.09000011161}]","rt":15556.325000012293,"trial_type":"pit-instructions","trial_index":15,"time_elapsed":447197,"internal_node_id":"0.0-6.0-3.0","task_version":"battery-v0.2-trt"},{"rune":"2","rune_set":"elianto","hex":"#3366ff99","correct":-1,"choice":32,"rt":820.3499999362975,"accuracy":0,"outcome":"+1","keys":[2320.6000002101064],"total_keys":1,"block":0,"practice":2,"trial_type":"pit-trial","trial_index":16,"time_elapsed":450724,"internal_node_id":"0.0-6.0-4.0-0.0","task_version":"battery-v0.2-trt"},{"rune":"2","rune_set":"elianto","hex":"#3366ff99","correct":-1,"choice":-1,"rt":-1,"accuracy":1,"outcome":"+10","keys":[],"total_keys":0,"block":0,"practice":2,"trial_type":"pit-trial","trial_index":17,"time_elapsed":454731,"internal_node_id":"0.0-6.0-4.1-0.1","task_version":"battery-v0.2-trt"},{"rune":"2","rune_set":"elianto","hex":"#3366ff99","correct":-1,"choice":-1,"rt":-1,"accuracy":1,"outcome":"+10","keys":[],"total_keys":0,"block":0,"practice":2,"trial_type":"pit-trial","trial_index":18,"time_elapsed":458737,"internal_node_id":"0.0-6.0-4.2-0.2","task_version":"battery-v0.2-trt"},{"rune":"2","rune_set":"elianto","hex":"#3366ff99","correct":-1,"choice":-1,"rt":-1,"accuracy":1,"outcome":"+10","keys":[],"total_keys":0,"block":0,"practice":2,"trial_type":"pit-trial","trial_index":19,"time_elapsed":462744,"internal_node_id":"0.0-6.0-4.3-0.3","task_version":"battery-v0.2-trt"},{"trial_type":"call-function","trial_index":20,"time_elapsed":462747,"internal_node_id":"0.0-6.0-5.0","task_version":"battery-v0.2-trt"},{"view_history":"[{\"page_index\":0,\"viewing_time\":18065.239999908954},{\"page_index\":1,\"viewing_time\":12327.810000162572}]","rt":30393.489999929443,"trial_type":"pit-instructions","trial_index":21,"time_elapsed":493142,"internal_node_id":"0.0-6.0-6.0","task_version":"battery-v0.2-trt"},{"rune":"3","rune_set":"elianto","hex":"#f73b6a7A","correct":-1,"choice":32,"rt":325.21499996073544,"accuracy":0,"outcome":"-10","keys":[1825.3900001291186],"total_keys":1,"block":0,"practice":3,"trial_type":"pit-trial","trial_index":22,"time_elapsed":496173,"internal_node_id":"0.0-6.0-7.0-0.0","task_version":"battery-v0.2-trt"},{"rune":"3","rune_set":"elianto","hex":"#f73b6a7A","correct":-1,"choice":-1,"rt":-1,"accuracy":1,"outcome":"-1","keys":[],"total_keys":0,"block":0,"practice":3,"trial_type":"pit-trial","trial_index":23,"time_elapsed":500179,"internal_node_id":"0.0-6.0-7.1-0.1","task_version":"battery-v0.2-trt"},{"rune":"3","rune_set":"elianto","hex":"#f73b6a7A","correct":-1,"choice":-1,"rt":-1,"accuracy":1,"outcome":"-1","keys":[],"total_keys":0,"block":0,"practice":3,"trial_type":"pit-trial","trial_index":24,"time_elapsed":504185,"internal_node_id":"0.0-6.0-7.2-0.2","task_version":"battery-v0.2-trt"},{"rune":"3","rune_set":"elianto","hex":"#f73b6a7A","correct":-1,"choice":-1,"rt":-1,"accuracy":1,"outcome":"-1","keys":[],"total_keys":0,"block":0,"practice":3,"trial_type":"pit-trial","trial_index":25,"time_elapsed":508198,"internal_node_id":"0.0-6.0-7.3-0.3","task_version":"battery-v0.2-trt"},{"trial_type":"call-function","trial_index":26,"time_elapsed":508202,"internal_node_id":"0.0-6.0-8.0","task_version":"battery-v0.2-trt"},{"view_history":"[{\"page_index\":0,\"viewing_time\":5515.164999989793},{\"page_index\":1,\"viewing_time\":4224.019999848679}]","rt":9739.614999853075,"trial_type":"pit-instructions","trial_index":27,"time_elapsed":517942,"internal_node_id":"0.0-6.0-9.0","task_version":"battery-v0.2-trt"},{"rune":"4","rune_set":"elianto","hex":"#f73b6a7A","correct":32,"choice":32,"rt":492.91000002995133,"accuracy":1,"outcome":"-1","keys":[1993.4350000694394],"total_keys":1,"block":0,"practice":4,"trial_type":"pit-trial","trial_index":28,"time_elapsed":521141,"internal_node_id":"0.0-6.0-10.0-0.0","task_version":"battery-v0.2-trt"},{"rune":"4","rune_set":"elianto","hex":"#f73b6a7A","correct":32,"choice":32,"rt":365.7899999525398,"accuracy":1,"outcome":"-1","keys":[1866.3249998353422],"total_keys":1,"block":0,"practice":4,"trial_type":"pit-trial","trial_index":29,"time_elapsed":524214,"internal_node_id":"0.0-6.0-10.1-0.1","task_version":"battery-v0.2-trt"},{"rune":"4","rune_set":"elianto","hex":"#f73b6a7A","correct":32,"choice":32,"rt":364.8250000551343,"accuracy":1,"outcome":"-1","keys":[1865.6200000550598],"total_keys":1,"block":0,"practice":4,"trial_type":"pit-trial","trial_index":30,"time_elapsed":527284,"internal_node_id":"0.0-6.0-10.2-0.2","task_version":"battery-v0.2-trt"},{"rune":"4","rune_set":"elianto","hex":"#f73b6a7A","correct":32,"choice":32,"rt":373.4150000382215,"accuracy":1,"outcome":"-1","keys":[1874.5450000278652],"total_keys":1,"block":0,"practice":4,"trial_type":"pit-trial","trial_index":31,"time_elapsed":530364,"internal_node_id":"0.0-6.0-10.3-0.3","task_version":"battery-v0.2-trt"},{"trial_type":"call-function","trial_index":32,"time_elapsed":530367,"internal_node_id":"0.0-6.0-11.0","task_version":"battery-v0.2-trt"},{"view_history":"[{\"page_index\":0,\"viewing_time\":3789.2650000285357},{\"page_index\":1,\"viewing_time\":7280.009999871254},{\"page_index\":2,\"viewing_time\":11799.96500001289},{\"page_index\":3,\"viewing_time\":5455.945000052452},{\"page_index\":4,\"viewing_time\":6024.005000013858},{\"page_index\":5,\"viewing_time\":4712.384999962524}]","rt":39061.9899998419,"trial_type":"pit-instructions","trial_index":33,"time_elapsed":569430,"internal_node_id":"0.0-6.0-12.0","task_version":"battery-v0.2-trt"},{"responses":["Press SPACE","+10","-1","True","True"],"num_errors":0,"rt":29131.07499992475,"trial_type":"pit-comprehension","trial_index":34,"time_elapsed":598567,"internal_node_id":"0.0-6.0-13.0","task_version":"battery-v0.2-trt"},{"view_history":"[{\"page_index\":0,\"viewing_time\":4557.88500001654},{\"page_index\":1,\"viewing_time\":6167.670000111684}]","rt":10725.975000066683,"trial_type":"pit-instructions","trial_index":35,"time_elapsed":609302,"internal_node_id":"0.0-7.0","task_version":"battery-v0.2-trt"},{"rune":"X","rune_set":"bacs2","hex":"#f73b6a7A","correct":-1,"choice":-1,"rt":-1,"accuracy":1,"outcome":"-1","keys":[2960.304999956861],"total_keys":1,"block":1,"trial":1,"stimulus":2,"robot":4,"valence":"lose","action":"no-go","sham":0,"trial_type":"pit-trial","trial_index":36,"time_elapsed":613310,"internal_node_id":"0.0-8.0","task_version":"battery-v0.2-trt"},{"rune":"Z","rune_set":"bacs2","hex":"#3366ff99","correct":32,"choice":32,"rt":789.8500000592321,"accuracy":1,"outcome":"+10","keys":[2289.924999931827],"total_keys":1,"block":1,"trial":2,"stimulus":3,"robot":1,"valence":"win","action":"go","sham":0,"trial_type":"pit-trial","trial_index":37,"time_elapsed":616806,"internal_node_id":"0.0-9.0","task_version":"battery-v0.2-trt"},{"rune":"J","rune_set":"bacs2","hex":"#3366ff99","correct":-1,"choice":32,"rt":732.5399999972433,"accuracy":0,"outcome":"+10","keys":[2233.7250001728535],"total_keys":1,"block":1,"trial":3,"stimulus":0,"robot":2,"valence":"win","action":"no-go","sham":1,"trial_type":"pit-trial","trial_index":38,"time_elapsed":620245,"internal_node_id":"0.0-10.0","task_version":"battery-v0.2-trt"},{"rune":"W","rune_set":"bacs2","hex":"#3366ff99","correct":32,"choice":32,"rt":598.4600000083447,"accuracy":1,"outcome":"+1","keys":[2098.6050001811236],"total_keys":1,"block":1,"trial":4,"stimulus":1,"robot":1,"valence":"win","action":"go","sham":1,"trial_type":"pit-trial","trial_index":39,"time_elapsed":623549,"internal_node_id":"0.0-11.0","task_version":"battery-v0.2-trt"},{"rune":"Z","rune_set":"bacs2","hex":"#3366ff99","correct":32,"choice":32,"rt":605.5250000208616,"accuracy":1,"outcome":"+1","keys":[2106.2950000632554],"total_keys":1,"block":1,"trial":5,"stimulus":3,"robot":1,"valence":"win","action":"go","sham":1,"trial_type":"pit-trial","trial_index":40,"time_elapsed":626862,"internal_node_id":"0.0-12.0","task_version":"battery-v0.2-trt"},{"rune":"X","rune_set":"bacs2","hex":"#f73b6a7A","correct":-1,"choice":32,"rt":517.7199998870492,"accuracy":0,"outcome":"-10","keys":[2017.7750000730157],"total_keys":1,"block":1,"trial":6,"stimulus":2,"robot":4,"valence":"lose","action":"no-go","sham":0,"trial_type":"pit-trial","trial_index":41,"time_elapsed":630085,"internal_node_id":"0.0-13.0","task_version":"battery-v0.2-trt"},{"rune":"J","rune_set":"bacs2","hex":"#3366ff99","correct":-1,"choice":32,"rt":462.3799999244511,"accuracy":0,"outcome":"+1","keys":[1962.5899998936802],"total_keys":1,"block":1,"trial":7,"stimulus":0,"robot":2,"valence":"win","action":"no-go","sham":0,"trial_type":"pit-trial","trial_index":42,"time_elapsed":633256,"internal_node_id":"0.0-14.0","task_version":"battery-v0.2-trt"},{"rune":"W","rune_set":"bacs2","hex":"#3366ff99","correct":32,"choice":32,"rt":715.7449999358505,"accuracy":1,"outcome":"+1","keys":[2215.874999994412],"total_keys":1,"block":1,"trial":8,"stimulus":1,"robot":1,"valence":"win","action":"go","sham":1,"trial_type":"pit-trial","trial_index":43,"time_elapsed":636677,"internal_node_id":"0.0-15.0","task_version":"battery-v0.2-trt"},{"rune":"X","rune_set":"bacs2","hex":"#f73b6a7A","correct":-1,"choice":-1,"rt":-1,"accuracy":1,"outcome":"-1","keys":[],"total_keys":0,"block":1,"trial":9,"stimulus":2,"robot":4,"valence":"lose","action":"no-go","sham":0,"trial_type":"pit-trial","trial_index":44,"time_elapsed":640684,"internal_node_id":"0.0-16.0","task_version":"battery-v0.2-trt"},{"rune":"W","rune_set":"bacs2","hex":"#3366ff99","correct":32,"choice":-1,"rt":-1,"accuracy":0,"outcome":"+1","keys":[],"total_keys":0,"block":1,"trial":10,"stimulus":1,"robot":1,"valence":"win","action":"go","sham":0,"trial_type":"pit-trial","trial_index":45,"time_elapsed":644690,"internal_node_id":"0.0-17.0","task_version":"battery-v0.2-trt"},{"rune":"Z","rune_set":"bacs2","hex":"#3366ff99","correct":32,"choice":32,"rt":656.7899999208748,"accuracy":1,"outcome":"+10","keys":[2157.8049999661744],"total_keys":1,"block":1,"trial":11,"stimulus":3,"robot":1,"valence":"win","action":"go","sham":0,"trial_type":"pit-trial","trial_index":46,"time_elapsed":648054,"internal_node_id":"0.0-18.0","task_version":"battery-v0.2-trt"},{"rune":"J","rune_set":"bacs2","hex":"#3366ff99","correct":-1,"choice":-1,"rt":-1,"accuracy":1,"outcome":"+10","keys":[],"total_keys":0,"block":1,"trial":12,"stimulus":0,"robot":2,"valence":"win","action":"no-go","sham":0,"trial_type":"pit-trial","trial_index":47,"time_elapsed":652059,"internal_node_id":"0.0-19.0","task_version":"battery-v0.2-trt"},{"rune":"X","rune_set":"bacs2","hex":"#f73b6a7A","correct":-1,"choice":-1,"rt":-1,"accuracy":1,"outcome":"-10","keys":[],"total_keys":0,"block":1,"trial":13,"stimulus":2,"robot":4,"valence":"lose","action":"no-go","sham":1,"trial_type":"pit-trial","trial_index":48,"time_elapsed":656066,"internal_node_id":"0.0-20.0","task_version":"battery-v0.2-trt"},{"rune":"Z","rune_set":"bacs2","hex":"#3366ff99","correct":32,"choice":32,"rt":1096.3300000876188,"accuracy":1,"outcome":"+10","keys":[2597.2100000362843],"total_keys":1,"block":1,"trial":14,"stimulus":3,"robot":1,"valence":"win","action":"go","sham":0,"trial_type":"pit-trial","trial_index":49,"time_elapsed":659869,"internal_node_id":"0.0-21.0","task_version":"battery-v0.2-trt"},{"rune":"J","rune_set":"bacs2","hex":"#3366ff99","correct":-1,"choice":-1,"rt":-1,"accuracy":1,"outcome":"+10","keys":[],"total_keys":0,"block":1,"trial":15,"stimulus":0,"robot":2,"valence":"win","action":"no-go","sham":0,"trial_type":"pit-trial","trial_index":50,"time_elapsed":663876,"internal_node_id":"0.0-22.0","task_version":"battery-v0.2-trt"},{"rune":"W","rune_set":"bacs2","hex":"#3366ff99","correct":32,"choice":32,"rt":815.2499999850988,"accuracy":1,"outcome":"+10","keys":[2315.5499999411404],"total_keys":1,"block":1,"trial":16,"stimulus":1,"robot":1,"valence":"win","action":"go","sham":0,"trial_type":"pit-trial","trial_index":51,"time_elapsed":667397,"internal_node_id":"0.0-23.0","task_version":"battery-v0.2-trt"},{"rune":"Z","rune_set":"bacs2","hex":"#3366ff99","correct":32,"choice":32,"rt":1038.1750001106411,"accuracy":1,"outcome":"+10","keys":[2538.3299998939037],"total_keys":1,"block":1,"trial":17,"stimulus":3,"robot":1,"valence":"win","action":"go","sham":0,"trial_type":"pit-trial","trial_index":52,"time_elapsed":671140,"internal_node_id":"0.0-24.0","task_version":"battery-v0.2-trt"},{"rune":"X","rune_set":"bacs2","hex":"#f73b6a7A","correct":-1,"choice":-1,"rt":-1,"accuracy":1,"outcome":"-1","keys":[],"total_keys":0,"block":1,"trial":18,"stimulus":2,"robot":4,"valence":"lose","action":"no-go","sham":0,"trial_type":"pit-trial","trial_index":53,"time_elapsed":675147,"internal_node_id":"0.0-25.0","task_version":"battery-v0.2-trt"},{"rune":"J","rune_set":"bacs2","hex":"#3366ff99","correct":-1,"choice":32,"rt":863.08000003919,"accuracy":0,"outcome":"+1","keys":[2364.5399999804795],"total_keys":1,"block":1,"trial":19,"stimulus":0,"robot":2,"valence":"win","action":"no-go","sham":0,"trial_type":"pit-trial","trial_index":54,"time_elapsed":678717,"internal_node_id":"0.0-26.0","task_version":"battery-v0.2-trt"},{"rune":"W","rune_set":"bacs2","hex":"#3366ff99","correct":32,"choice":32,"rt":605.5550000164658,"accuracy":1,"outcome":"+1","keys":[2106.720000039786],"total_keys":1,"block":1,"trial":20,"stimulus":1,"robot":1,"valence":"win","action":"go","sham":1,"trial_type":"pit-trial","trial_index":55,"time_elapsed":682029,"internal_node_id":"0.0-27.0","task_version":"battery-v0.2-trt"},{"rune":"Z","rune_set":"bacs2","hex":"#3366ff99","correct":32,"choice":32,"rt":653.5149998962879,"accuracy":1,"outcome":"+10","keys":[2154.2750000953674],"total_keys":1,"block":1,"trial":21,"stimulus":3,"robot":1,"valence":"win","action":"go","sham":0,"trial_type":"pit-trial","trial_index":56,"time_elapsed":685389,"internal_node_id":"0.0-28.0","task_version":"battery-v0.2-trt"},{"rune":"W","rune_set":"bacs2","hex":"#3366ff99","correct":32,"choice":32,"rt":701.9550001714379,"accuracy":1,"outcome":"+10","keys":[2202.254999894649],"total_keys":1,"block":1,"trial":22,"stimulus":1,"robot":1,"valence":"win","action":"go","sham":0,"trial_type":"pit-trial","trial_index":57,"time_elapsed":688797,"internal_node_id":"0.0-29.0","task_version":"battery-v0.2-trt"},{"rune":"J","rune_set":"bacs2","hex":"#3366ff99","correct":-1,"choice":32,"rt":1189.6399999968708,"accuracy":0,"outcome":"+10","keys":[2689.9199998006225],"total_keys":1,"block":1,"trial":23,"stimulus":0,"robot":2,"valence":"win","action":"no-go","sham":1,"trial_type":"pit-trial","trial_index":58,"time_elapsed":692693,"internal_node_id":"0.0-30.0","task_version":"battery-v0.2-trt"},{"rune":"X","rune_set":"bacs2","hex":"#f73b6a7A","correct":-1,"choice":-1,"rt":-1,"accuracy":1,"outcome":"-1","keys":[],"total_keys":0,"block":1,"trial":24,"stimulus":2,"robot":4,"valence":"lose","action":"no-go","sham":0,"trial_type":"pit-trial","trial_index":59,"time_elapsed":696699,"internal_node_id":"0.0-31.0","task_version":"battery-v0.2-trt"},{"rune":"Z","rune_set":"bacs2","hex":"#3366ff99","correct":32,"choice":32,"rt":1014.9100001435727,"accuracy":1,"outcome":"+1","keys":[2516.489999834448],"total_keys":1,"block":1,"trial":25,"stimulus":3,"robot":1,"valence":"win","action":"go","sham":1,"trial_type":"pit-trial","trial_index":60,"time_elapsed":700421,"internal_node_id":"0.0-32.0","task_version":"battery-v0.2-trt"},{"rune":"J","rune_set":"bacs2","hex":"#3366ff99","correct":-1,"choice":32,"rt":989.7600000258535,"accuracy":0,"outcome":"+10","keys":[2490.974999964237],"total_keys":1,"block":1,"trial":26,"stimulus":0,"robot":2,"valence":"win","action":"no-go","sham":1,"trial_type":"pit-trial","trial_index":61,"time_elapsed":704116,"internal_node_id":"0.0-33.0","task_version":"battery-v0.2-trt"},{"rune":"W","rune_set":"bacs2","hex":"#3366ff99","correct":32,"choice":32,"rt":701.0950001422316,"accuracy":1,"outcome":"+1","keys":[2203.0499998945743],"total_keys":1,"block":1,"trial":27,"stimulus":1,"robot":1,"valence":"win","action":"go","sham":1,"trial_type":"pit-trial","trial_index":62,"time_elapsed":707526,"internal_node_id":"0.0-34.0","task_version":"battery-v0.2-trt"},{"rune":"X","rune_set":"bacs2","hex":"#f73b6a7A","correct":-1,"choice":-1,"rt":-1,"accuracy":1,"outcome":"-1","keys":[],"total_keys":0,"block":1,"trial":28,"stimulus":2,"robot":4,"valence":"lose","action":"no-go","sham":0,"trial_type":"pit-trial","trial_index":63,"time_elapsed":711532,"internal_node_id":"0.0-35.0","task_version":"battery-v0.2-trt"},{"rune":"J","rune_set":"bacs2","hex":"#3366ff99","correct":-1,"choice":32,"rt":717.0600001700222,"accuracy":0,"outcome":"+10","keys":[2217.689999844879],"total_keys":1,"block":1,"trial":29,"stimulus":0,"robot":2,"valence":"win","action":"no-go","sham":1,"trial_type":"pit-trial","trial_index":64,"time_elapsed":714956,"internal_node_id":"0.0-36.0","task_version":"battery-v0.2-trt"},{"rune":"Z","rune_set":"bacs2","hex":"#3366ff99","correct":32,"choice":32,"rt":734.9799999501556,"accuracy":1,"outcome":"+10","keys":[2235.039999941364],"total_keys":1,"block":1,"trial":30,"stimulus":3,"robot":1,"valence":"win","action":"go","sham":0,"trial_type":"pit-trial","trial_index":65,"time_elapsed":718397,"internal_node_id":"0.0-37.0","task_version":"battery-v0.2-trt"},{"rune":"X","rune_set":"bacs2","hex":"#f73b6a7A","correct":-1,"choice":-1,"rt":-1,"accuracy":1,"outcome":"-1","keys":[],"total_keys":0,"block":1,"trial":31,"stimulus":2,"robot":4,"valence":"lose","action":"no-go","sham":0,"trial_type":"pit-trial","trial_index":66,"time_elapsed":722402,"internal_node_id":"0.0-38.0","task_version":"battery-v0.2-trt"},{"rune":"W","rune_set":"bacs2","hex":"#3366ff99","correct":32,"choice":32,"rt":705.2899999544024,"accuracy":1,"outcome":"+10","keys":[2205.3200001828372],"total_keys":1,"block":1,"trial":32,"stimulus":1,"robot":1,"valence":"win","action":"go","sham":0,"trial_type":"pit-trial","trial_index":67,"time_elapsed":725813,"internal_node_id":"0.0-39.0","task_version":"battery-v0.2-trt"},{"rune":"Z","rune_set":"bacs2","hex":"#3366ff99","correct":32,"choice":32,"rt":668.464999878779,"accuracy":1,"outcome":"+10","keys":[2170.26500008069],"total_keys":1,"block":1,"trial":33,"stimulus":3,"robot":1,"valence":"win","action":"go","sham":0,"trial_type":"pit-trial","trial_index":68,"time_elapsed":729188,"internal_node_id":"0.0-40.0","task_version":"battery-v0.2-trt"},{"rune":"X","rune_set":"bacs2","hex":"#f73b6a7A","correct":-1,"choice":-1,"rt":-1,"accuracy":1,"outcome":"-1","keys":[],"total_keys":0,"block":1,"trial":34,"stimulus":2,"robot":4,"valence":"lose","action":"no-go","sham":0,"trial_type":"pit-trial","trial_index":69,"time_elapsed":733194,"internal_node_id":"0.0-41.0","task_version":"battery-v0.2-trt"},{"rune":"G","rune_set":"bacs2","hex":"#3366ff99","correct":32,"choice":32,"rt":960.0700000301003,"accuracy":1,"outcome":"+10","keys":[2460.5649998411536],"total_keys":1,"block":1,"trial":35,"stimulus":4,"robot":1,"valence":"win","action":"go","sham":0,"trial_type":"pit-trial","trial_index":70,"time_elapsed":736860,"internal_node_id":"0.0-42.0","task_version":"battery-v0.2-trt"},{"rune":"J","rune_set":"bacs2","hex":"#3366ff99","correct":-1,"choice":32,"rt":727.1099998615682,"accuracy":0,"outcome":"+1","keys":[2227.405000012368],"total_keys":1,"block":1,"trial":36,"stimulus":0,"robot":2,"valence":"win","action":"no-go","sham":0,"trial_type":"pit-trial","trial_index":71,"time_elapsed":740292,"internal_node_id":"0.0-43.0","task_version":"battery-v0.2-trt"},{"rune":"G","rune_set":"bacs2","hex":"#3366ff99","correct":32,"choice":32,"rt":670.0100000016391,"accuracy":1,"outcome":"+10","keys":[2170.630000066012],"total_keys":1,"block":1,"trial":37,"stimulus":4,"robot":1,"valence":"win","action":"go","sham":0,"trial_type":"pit-trial","trial_index":72,"time_elapsed":743669,"internal_node_id":"0.0-44.0","task_version":"battery-v0.2-trt"},{"rune":"Z","rune_set":"bacs2","hex":"#3366ff99","correct":32,"choice":32,"rt":652.2450000047684,"accuracy":1,"outcome":"+10","keys":[2153.6049998831004],"total_keys":1,"block":1,"trial":38,"stimulus":3,"robot":1,"valence":"win","action":"go","sham":0,"trial_type":"pit-trial","trial_index":73,"time_elapsed":747028,"internal_node_id":"0.0-45.0","task_version":"battery-v0.2-trt"},{"rune":"J","rune_set":"bacs2","hex":"#3366ff99","correct":-1,"choice":32,"rt":781.0949999839067,"accuracy":0,"outcome":"+1","keys":[2282.52000012435],"total_keys":1,"block":1,"trial":39,"stimulus":0,"robot":2,"valence":"win","action":"no-go","sham":0,"trial_type":"pit-trial","trial_index":74,"time_elapsed":750516,"internal_node_id":"0.0-46.0","task_version":"battery-v0.2-trt"},{"rune":"X","rune_set":"bacs2","hex":"#f73b6a7A","correct":-1,"choice":-1,"rt":-1,"accuracy":1,"outcome":"-1","keys":[],"total_keys":0,"block":1,"trial":40,"stimulus":2,"robot":4,"valence":"lose","action":"no-go","sham":0,"trial_type":"pit-trial","trial_index":75,"time_elapsed":754524,"internal_node_id":"0.0-47.0","task_version":"battery-v0.2-trt"},{"rune":"J","rune_set":"bacs2","hex":"#3366ff99","correct":-1,"choice":32,"rt":774.5900000445545,"accuracy":0,"outcome":"+1","keys":[2275.124999927357],"total_keys":1,"block":1,"trial":41,"stimulus":0,"robot":2,"valence":"win","action":"no-go","sham":0,"trial_type":"pit-trial","trial_index":76,"time_elapsed":758005,"internal_node_id":"0.0-48.0","task_version":"battery-v0.2-trt"},{"rune":"C","rune_set":"bacs2","hex":"#f73b6a7A","correct":-1,"choice":32,"rt":1237.1299997903407,"accuracy":0,"outcome":"-10","keys":[2737.5600000377744],"total_keys":1,"block":1,"trial":42,"stimulus":6,"robot":4,"valence":"lose","action":"no-go","sham":0,"trial_type":"pit-trial","trial_index":77,"time_elapsed":761949,"internal_node_id":"0.0-49.0","task_version":"battery-v0.2-trt"},{"rune":"O","rune_set":"bacs2","hex":"#f73b6a7A","correct":32,"choice":32,"rt":901.175000006333,"accuracy":1,"outcome":"-1","keys":[2402.2049999330193],"total_keys":1,"block":1,"trial":43,"stimulus":5,"robot":3,"valence":"lose","action":"go","sham":0,"trial_type":"pit-trial","trial_index":78,"time_elapsed":765556,"internal_node_id":"0.0-50.0","task_version":"battery-v0.2-trt"},{"rune":"G","rune_set":"bacs2","hex":"#3366ff99","correct":32,"choice":32,"rt":789.5349999889731,"accuracy":1,"outcome":"+1","keys":[2290.4049998614937],"total_keys":1,"block":1,"trial":44,"stimulus":4,"robot":1,"valence":"win","action":"go","sham":1,"trial_type":"pit-trial","trial_index":79,"time_elapsed":769053,"internal_node_id":"0.0-51.0","task_version":"battery-v0.2-trt"},{"rune":"C","rune_set":"bacs2","hex":"#f73b6a7A","correct":-1,"choice":-1,"rt":-1,"accuracy":1,"outcome":"-1","keys":[],"total_keys":0,"block":1,"trial":45,"stimulus":6,"robot":4,"valence":"lose","action":"no-go","sham":0,"trial_type":"pit-trial","trial_index":80,"time_elapsed":773059,"internal_node_id":"0.0-52.0","task_version":"battery-v0.2-trt"},{"rune":"J","rune_set":"bacs2","hex":"#3366ff99","correct":-1,"choice":32,"rt":655.229999916628,"accuracy":0,"outcome":"+1","keys":[2156.2049998901784],"total_keys":1,"block":1,"trial":46,"stimulus":0,"robot":2,"valence":"win","action":"no-go","sham":0,"trial_type":"pit-trial","trial_index":81,"time_elapsed":776420,"internal_node_id":"0.0-53.0","task_version":"battery-v0.2-trt"},{"rune":"O","rune_set":"bacs2","hex":"#f73b6a7A","correct":32,"choice":32,"rt":1086.7000001017004,"accuracy":1,"outcome":"-10","keys":[2587.16500014998],"total_keys":1,"block":1,"trial":47,"stimulus":5,"robot":3,"valence":"lose","action":"go","sham":1,"trial_type":"pit-trial","trial_index":82,"time_elapsed":780213,"internal_node_id":"0.0-54.0","task_version":"battery-v0.2-trt"},{"rune":"G","rune_set":"bacs2","hex":"#3366ff99","correct":32,"choice":32,"rt":669.749999884516,"accuracy":1,"outcome":"+10","keys":[2170.4700000118464],"total_keys":1,"block":1,"trial":48,"stimulus":4,"robot":1,"valence":"win","action":"go","sham":0,"trial_type":"pit-trial","trial_index":83,"time_elapsed":783589,"internal_node_id":"0.0-55.0","task_version":"battery-v0.2-trt"},{"rune":"O","rune_set":"bacs2","hex":"#f73b6a7A","correct":32,"choice":-1,"rt":-1,"accuracy":0,"outcome":"-10","keys":[],"total_keys":0,"block":1,"trial":49,"stimulus":5,"robot":3,"valence":"lose","action":"go","sham":0,"trial_type":"pit-trial","trial_index":84,"time_elapsed":787595,"internal_node_id":"0.0-56.0","task_version":"battery-v0.2-trt"},{"rune":"C","rune_set":"bacs2","hex":"#f73b6a7A","correct":-1,"choice":-1,"rt":-1,"accuracy":1,"outcome":"-1","keys":[],"total_keys":0,"block":1,"trial":50,"stimulus":6,"robot":4,"valence":"lose","action":"no-go","sham":0,"trial_type":"pit-trial","trial_index":85,"time_elapsed":791601,"internal_node_id":"0.0-57.0","task_version":"battery-v0.2-trt"},{"rune":"E","rune_set":"bacs2","hex":"#3366ff99","correct":-1,"choice":32,"rt":665.6250001396984,"accuracy":0,"outcome":"+10","keys":[2165.7749998848885],"total_keys":1,"block":1,"trial":51,"stimulus":7,"robot":2,"valence":"win","action":"no-go","sham":1,"trial_type":"pit-trial","trial_index":86,"time_elapsed":794973,"internal_node_id":"0.0-58.0","task_version":"battery-v0.2-trt"},{"rune":"G","rune_set":"bacs2","hex":"#3366ff99","correct":32,"choice":32,"rt":764.7150000557303,"accuracy":1,"outcome":"+10","keys":[2265.7950001303107],"total_keys":1,"block":1,"trial":52,"stimulus":4,"robot":1,"valence":"win","action":"go","sham":0,"trial_type":"pit-trial","trial_index":87,"time_elapsed":798444,"internal_node_id":"0.0-59.0","task_version":"battery-v0.2-trt"},{"rune":"E","rune_set":"bacs2","hex":"#3366ff99","correct":-1,"choice":32,"rt":549.8300001490861,"accuracy":0,"outcome":"+10","keys":[2050.60000019148],"total_keys":1,"block":1,"trial":53,"stimulus":7,"robot":2,"valence":"win","action":"no-go","sham":1,"trial_type":"pit-trial","trial_index":88,"time_elapsed":801700,"internal_node_id":"0.0-60.0","task_version":"battery-v0.2-trt"},{"rune":"O","rune_set":"bacs2","hex":"#f73b6a7A","correct":32,"choice":32,"rt":669.749999884516,"accuracy":1,"outcome":"-1","keys":[2170.6099999137223],"total_keys":1,"block":1,"trial":54,"stimulus":5,"robot":3,"valence":"lose","action":"go","sham":0,"trial_type":"pit-trial","trial_index":89,"time_elapsed":805077,"internal_node_id":"0.0-61.0","task_version":"battery-v0.2-trt"},{"rune":"C","rune_set":"bacs2","hex":"#f73b6a7A","correct":-1,"choice":-1,"rt":-1,"accuracy":1,"outcome":"-1","keys":[],"total_keys":0,"block":1,"trial":55,"stimulus":6,"robot":4,"valence":"lose","action":"no-go","sham":0,"trial_type":"pit-trial","trial_index":90,"time_elapsed":809083,"internal_node_id":"0.0-62.0","task_version":"battery-v0.2-trt"},{"rune":"G","rune_set":"bacs2","hex":"#3366ff99","correct":32,"choice":32,"rt":615.2900001034141,"accuracy":1,"outcome":"+10","keys":[2115.585000021383],"total_keys":1,"block":1,"trial":56,"stimulus":4,"robot":1,"valence":"win","action":"go","sham":0,"trial_type":"pit-trial","trial_index":91,"time_elapsed":812404,"internal_node_id":"0.0-63.0","task_version":"battery-v0.2-trt"},{"rune":"E","rune_set":"bacs2","hex":"#3366ff99","correct":-1,"choice":32,"rt":598.8149999175221,"accuracy":0,"outcome":"+1","keys":[2099.0699999965727],"total_keys":1,"block":1,"trial":57,"stimulus":7,"robot":2,"valence":"win","action":"no-go","sham":0,"trial_type":"pit-trial","trial_index":92,"time_elapsed":815709,"internal_node_id":"0.0-64.0","task_version":"battery-v0.2-trt"},{"rune":"O","rune_set":"bacs2","hex":"#f73b6a7A","correct":32,"choice":32,"rt":701.1200000997633,"accuracy":1,"outcome":"-10","keys":[2202.2550001274794],"total_keys":1,"block":1,"trial":58,"stimulus":5,"robot":3,"valence":"lose","action":"go","sham":1,"trial_type":"pit-trial","trial_index":93,"time_elapsed":819116,"internal_node_id":"0.0-65.0","task_version":"battery-v0.2-trt"},{"rune":"G","rune_set":"bacs2","hex":"#3366ff99","correct":32,"choice":32,"rt":502.32500000856817,"accuracy":1,"outcome":"+10","keys":[2002.8049999382347],"total_keys":1,"block":1,"trial":59,"stimulus":4,"robot":1,"valence":"win","action":"go","sham":0,"trial_type":"pit-trial","trial_index":94,"time_elapsed":822324,"internal_node_id":"0.0-66.0","task_version":"battery-v0.2-trt"},{"rune":"C","rune_set":"bacs2","hex":"#f73b6a7A","correct":-1,"choice":-1,"rt":-1,"accuracy":1,"outcome":"-1","keys":[],"total_keys":0,"block":1,"trial":60,"stimulus":6,"robot":4,"valence":"lose","action":"no-go","sham":0,"trial_type":"pit-trial","trial_index":95,"time_elapsed":826331,"internal_node_id":"0.0-67.0","task_version":"battery-v0.2-trt"},{"rune":"E","rune_set":"bacs2","hex":"#3366ff99","correct":-1,"choice":32,"rt":535.5299999937415,"accuracy":0,"outcome":"+1","keys":[2035.9950000420213],"total_keys":1,"block":1,"trial":61,"stimulus":7,"robot":2,"valence":"win","action":"no-go","sham":0,"trial_type":"pit-trial","trial_index":96,"time_elapsed":829572,"internal_node_id":"0.0-68.0","task_version":"battery-v0.2-trt"},{"rune":"C","rune_set":"bacs2","hex":"#f73b6a7A","correct":-1,"choice":-1,"rt":-1,"accuracy":1,"outcome":"-10","keys":[],"total_keys":0,"block":1,"trial":62,"stimulus":6,"robot":4,"valence":"lose","action":"no-go","sham":1,"trial_type":"pit-trial","trial_index":97,"time_elapsed":833579,"internal_node_id":"0.0-69.0","task_version":"battery-v0.2-trt"},{"rune":"O","rune_set":"bacs2","hex":"#f73b6a7A","correct":32,"choice":-1,"rt":-1,"accuracy":0,"outcome":"-10","keys":[],"total_keys":0,"block":1,"trial":63,"stimulus":5,"robot":3,"valence":"lose","action":"go","sham":0,"trial_type":"pit-trial","trial_index":98,"time_elapsed":837586,"internal_node_id":"0.0-70.0","task_version":"battery-v0.2-trt"},{"rune":"G","rune_set":"bacs2","hex":"#3366ff99","correct":32,"choice":32,"rt":616.6500002145767,"accuracy":1,"outcome":"+10","keys":[2116.969999857247],"total_keys":1,"block":1,"trial":64,"stimulus":4,"robot":1,"valence":"win","action":"go","sham":0,"trial_type":"pit-trial","trial_index":99,"time_elapsed":840909,"internal_node_id":"0.0-71.0","task_version":"battery-v0.2-trt"},{"rune":"O","rune_set":"bacs2","hex":"#f73b6a7A","correct":32,"choice":32,"rt":565.2900000568479,"accuracy":1,"outcome":"-1","keys":[2066.0550000611693],"total_keys":1,"block":1,"trial":65,"stimulus":5,"robot":3,"valence":"lose","action":"go","sham":0,"trial_type":"pit-trial","trial_index":100,"time_elapsed":844181,"internal_node_id":"0.0-72.0","task_version":"battery-v0.2-trt"},{"rune":"C","rune_set":"bacs2","hex":"#f73b6a7A","correct":-1,"choice":32,"rt":477.2900000680238,"accuracy":0,"outcome":"-10","keys":[1979.2400000151247],"total_keys":1,"block":1,"trial":66,"stimulus":6,"robot":4,"valence":"lose","action":"no-go","sham":0,"trial_type":"pit-trial","trial_index":101,"time_elapsed":847365,"internal_node_id":"0.0-73.0","task_version":"battery-v0.2-trt"},{"rune":"G","rune_set":"bacs2","hex":"#3366ff99","correct":32,"choice":32,"rt":548.1799999251962,"accuracy":1,"outcome":"+10","keys":[2049.804999958724],"total_keys":1,"block":1,"trial":67,"stimulus":4,"robot":1,"valence":"win","action":"go","sham":0,"trial_type":"pit-trial","trial_index":102,"time_elapsed":850620,"internal_node_id":"0.0-74.0","task_version":"battery-v0.2-trt"},{"rune":"E","rune_set":"bacs2","hex":"#3366ff99","correct":-1,"choice":32,"rt":582.9600000288337,"accuracy":0,"outcome":"+1","keys":[2082.979999948293],"total_keys":1,"block":1,"trial":68,"stimulus":7,"robot":2,"valence":"win","action":"no-go","sham":0,"trial_type":"pit-trial","trial_index":103,"time_elapsed":853908,"internal_node_id":"0.0-75.0","task_version":"battery-v0.2-trt"},{"rune":"G","rune_set":"bacs2","hex":"#3366ff99","correct":32,"choice":32,"rt":582.35999988392,"accuracy":1,"outcome":"+10","keys":[2082.8700000420213],"total_keys":1,"block":1,"trial":69,"stimulus":4,"robot":1,"valence":"win","action":"go","sham":0,"trial_type":"pit-trial","trial_index":104,"time_elapsed":857196,"internal_node_id":"0.0-76.0","task_version":"battery-v0.2-trt"},{"rune":"O","rune_set":"bacs2","hex":"#f73b6a7A","correct":32,"choice":32,"rt":766.5200000628829,"accuracy":1,"outcome":"-10","keys":[2267.2200000379235],"total_keys":1,"block":1,"trial":70,"stimulus":5,"robot":3,"valence":"lose","action":"go","sham":1,"trial_type":"pit-trial","trial_index":105,"time_elapsed":860668,"internal_node_id":"0.0-77.0","task_version":"battery-v0.2-trt"},{"rune":"E","rune_set":"bacs2","hex":"#3366ff99","correct":-1,"choice":32,"rt":598.6500000581145,"accuracy":0,"outcome":"+1","keys":[2099.024999886751],"total_keys":1,"block":1,"trial":71,"stimulus":7,"robot":2,"valence":"win","action":"no-go","sham":0,"trial_type":"pit-trial","trial_index":106,"time_elapsed":863973,"internal_node_id":"0.0-78.0","task_version":"battery-v0.2-trt"},{"rune":"C","rune_set":"bacs2","hex":"#f73b6a7A","correct":-1,"choice":-1,"rt":-1,"accuracy":1,"outcome":"-1","keys":[],"total_keys":0,"block":1,"trial":72,"stimulus":6,"robot":4,"valence":"lose","action":"no-go","sham":0,"trial_type":"pit-trial","trial_index":107,"time_elapsed":867979,"internal_node_id":"0.0-79.0","task_version":"battery-v0.2-trt"},{"rune":"C","rune_set":"bacs2","hex":"#f73b6a7A","correct":-1,"choice":-1,"rt":-1,"accuracy":1,"outcome":"-1","keys":[],"total_keys":0,"block":1,"trial":73,"stimulus":6,"robot":4,"valence":"lose","action":"no-go","sham":0,"trial_type":"pit-trial","trial_index":108,"time_elapsed":871985,"internal_node_id":"0.0-80.0","task_version":"battery-v0.2-trt"},{"rune":"E","rune_set":"bacs2","hex":"#3366ff99","correct":-1,"choice":32,"rt":649.5449999347329,"accuracy":0,"outcome":"+1","keys":[2150.320000015199],"total_keys":1,"block":1,"trial":74,"stimulus":7,"robot":2,"valence":"win","action":"no-go","sham":0,"trial_type":"pit-trial","trial_index":109,"time_elapsed":875341,"internal_node_id":"0.0-81.0","task_version":"battery-v0.2-trt"},{"rune":"G","rune_set":"bacs2","hex":"#3366ff99","correct":32,"choice":32,"rt":637.7649998757988,"accuracy":1,"outcome":"+1","keys":[2138.495000079274],"total_keys":1,"block":1,"trial":75,"stimulus":4,"robot":1,"valence":"win","action":"go","sham":1,"trial_type":"pit-trial","trial_index":110,"time_elapsed":878685,"internal_node_id":"0.0-82.0","task_version":"battery-v0.2-trt"},{"rune":"H","rune_set":"bacs2","hex":"#f73b6a7A","correct":32,"choice":32,"rt":772.2000000067055,"accuracy":1,"outcome":"-1","keys":[2273.5650001559407],"total_keys":1,"block":1,"trial":76,"stimulus":8,"robot":3,"valence":"lose","action":"go","sham":0,"trial_type":"pit-trial","trial_index":111,"time_elapsed":882164,"internal_node_id":"0.0-83.0","task_version":"battery-v0.2-trt"},{"rune":"E","rune_set":"bacs2","hex":"#3366ff99","correct":-1,"choice":32,"rt":686.744999838993,"accuracy":0,"outcome":"+1","keys":[2187.565000029281],"total_keys":1,"block":1,"trial":77,"stimulus":7,"robot":2,"valence":"win","action":"no-go","sham":0,"trial_type":"pit-trial","trial_index":112,"time_elapsed":885557,"internal_node_id":"0.0-84.0","task_version":"battery-v0.2-trt"},{"rune":"C","rune_set":"bacs2","hex":"#f73b6a7A","correct":-1,"choice":-1,"rt":-1,"accuracy":1,"outcome":"-1","keys":[],"total_keys":0,"block":1,"trial":78,"stimulus":6,"robot":4,"valence":"lose","action":"no-go","sham":0,"trial_type":"pit-trial","trial_index":113,"time_elapsed":889563,"internal_node_id":"0.0-85.0","task_version":"battery-v0.2-trt"},{"rune":"H","rune_set":"bacs2","hex":"#f73b6a7A","correct":32,"choice":32,"rt":743.1600000709295,"accuracy":1,"outcome":"-10","keys":[2244.2449999507517],"total_keys":1,"block":1,"trial":79,"stimulus":8,"robot":3,"valence":"lose","action":"go","sham":1,"trial_type":"pit-trial","trial_index":114,"time_elapsed":893013,"internal_node_id":"0.0-86.0","task_version":"battery-v0.2-trt"},{"rune":"G","rune_set":"bacs2","hex":"#3366ff99","correct":32,"choice":32,"rt":645.1249998062849,"accuracy":1,"outcome":"+1","keys":[2146.435000002384],"total_keys":1,"block":1,"trial":80,"stimulus":4,"robot":1,"valence":"win","action":"go","sham":1,"trial_type":"pit-trial","trial_index":115,"time_elapsed":896364,"internal_node_id":"0.0-87.0","task_version":"battery-v0.2-trt"},{"rune":"H","rune_set":"bacs2","hex":"#f73b6a7A","correct":32,"choice":-1,"rt":-1,"accuracy":0,"outcome":"-10","keys":[],"total_keys":0,"block":1,"trial":81,"stimulus":8,"robot":3,"valence":"lose","action":"go","sham":0,"trial_type":"pit-trial","trial_index":116,"time_elapsed":900383,"internal_node_id":"0.0-88.0","task_version":"battery-v0.2-trt"},{"rune":"C","rune_set":"bacs2","hex":"#f73b6a7A","correct":-1,"choice":-1,"rt":-1,"accuracy":1,"outcome":"-1","keys":[],"total_keys":0,"block":1,"trial":82,"stimulus":6,"robot":4,"valence":"lose","action":"no-go","sham":0,"trial_type":"pit-trial","trial_index":117,"time_elapsed":904390,"internal_node_id":"0.0-89.0","task_version":"battery-v0.2-trt"},{"rune":"E","rune_set":"bacs2","hex":"#3366ff99","correct":-1,"choice":32,"rt":620.9850001614541,"accuracy":0,"outcome":"+1","keys":[2121.9500000588596],"total_keys":1,"block":1,"trial":83,"stimulus":7,"robot":2,"valence":"win","action":"no-go","sham":0,"trial_type":"pit-trial","trial_index":118,"time_elapsed":907717,"internal_node_id":"0.0-90.0","task_version":"battery-v0.2-trt"},{"rune":"Q","rune_set":"bacs2","hex":"#f73b6a7A","correct":32,"choice":32,"rt":1110.4950001463294,"accuracy":1,"outcome":"-10","keys":[2610.6549999676645],"total_keys":1,"block":1,"trial":84,"stimulus":9,"robot":3,"valence":"lose","action":"go","sham":1,"trial_type":"pit-trial","trial_index":119,"time_elapsed":911533,"internal_node_id":"0.0-91.0","task_version":"battery-v0.2-trt"},{"rune":"H","rune_set":"bacs2","hex":"#f73b6a7A","correct":32,"choice":-1,"rt":-1,"accuracy":0,"outcome":"-10","keys":[],"total_keys":0,"block":1,"trial":85,"stimulus":8,"robot":3,"valence":"lose","action":"go","sham":0,"trial_type":"pit-trial","trial_index":120,"time_elapsed":915540,"internal_node_id":"0.0-92.0","task_version":"battery-v0.2-trt"},{"rune":"Q","rune_set":"bacs2","hex":"#f73b6a7A","correct":32,"choice":32,"rt":783.5300001315773,"accuracy":1,"outcome":"-1","keys":[2284.4249999616295],"total_keys":1,"block":1,"trial":86,"stimulus":9,"robot":3,"valence":"lose","action":"go","sham":0,"trial_type":"pit-trial","trial_index":121,"time_elapsed":919030,"internal_node_id":"0.0-93.0","task_version":"battery-v0.2-trt"},{"rune":"E","rune_set":"bacs2","hex":"#3366ff99","correct":-1,"choice":32,"rt":573.450000025332,"accuracy":0,"outcome":"+1","keys":[2074.064999818802],"total_keys":1,"block":1,"trial":87,"stimulus":7,"robot":2,"valence":"win","action":"no-go","sham":0,"trial_type":"pit-trial","trial_index":122,"time_elapsed":922310,"internal_node_id":"0.0-94.0","task_version":"battery-v0.2-trt"},{"rune":"C","rune_set":"bacs2","hex":"#f73b6a7A","correct":-1,"choice":32,"rt":676.5650000888854,"accuracy":0,"outcome":"-10","keys":[2177.8900001663715],"total_keys":1,"block":1,"trial":88,"stimulus":6,"robot":4,"valence":"lose","action":"no-go","sham":0,"trial_type":"pit-trial","trial_index":123,"time_elapsed":925692,"internal_node_id":"0.0-95.0","task_version":"battery-v0.2-trt"},{"rune":"T","rune_set":"bacs2","hex":"#f73b6a7A","correct":-1,"choice":32,"rt":663.1550001911819,"accuracy":0,"outcome":"-10","keys":[2163.715000031516],"total_keys":1,"block":1,"trial":89,"stimulus":10,"robot":4,"valence":"lose","action":"no-go","sham":0,"trial_type":"pit-trial","trial_index":124,"time_elapsed":929062,"internal_node_id":"0.0-96.0","task_version":"battery-v0.2-trt"},{"rune":"Y","rune_set":"bacs2","hex":"#3366ff99","correct":-1,"choice":32,"rt":789.4850000739098,"accuracy":0,"outcome":"+10","keys":[2290.324999950826],"total_keys":1,"block":1,"trial":90,"stimulus":11,"robot":2,"valence":"win","action":"no-go","sham":1,"trial_type":"pit-trial","trial_index":125,"time_elapsed":932557,"internal_node_id":"0.0-97.0","task_version":"battery-v0.2-trt"},{"rune":"Q","rune_set":"bacs2","hex":"#f73b6a7A","correct":32,"choice":32,"rt":805.8650000020862,"accuracy":1,"outcome":"-10","keys":[2306.0600000899285],"total_keys":1,"block":1,"trial":91,"stimulus":9,"robot":3,"valence":"lose","action":"go","sham":1,"trial_type":"pit-trial","trial_index":126,"time_elapsed":936070,"internal_node_id":"0.0-98.0","task_version":"battery-v0.2-trt"},{"rune":"H","rune_set":"bacs2","hex":"#f73b6a7A","correct":32,"choice":-1,"rt":-1,"accuracy":0,"outcome":"-10","keys":[],"total_keys":0,"block":1,"trial":92,"stimulus":8,"robot":3,"valence":"lose","action":"go","sham":0,"trial_type":"pit-trial","trial_index":127,"time_elapsed":940076,"internal_node_id":"0.0-99.0","task_version":"battery-v0.2-trt"},{"rune":"Y","rune_set":"bacs2","hex":"#3366ff99","correct":-1,"choice":32,"rt":478.72000001370907,"accuracy":0,"outcome":"+1","keys":[1979.509999975562],"total_keys":1,"block":1,"trial":93,"stimulus":11,"robot":2,"valence":"win","action":"no-go","sham":0,"trial_type":"pit-trial","trial_index":128,"time_elapsed":943261,"internal_node_id":"0.0-100.0","task_version":"battery-v0.2-trt"},{"rune":"Q","rune_set":"bacs2","hex":"#f73b6a7A","correct":32,"choice":-1,"rt":-1,"accuracy":0,"outcome":"-1","keys":[],"total_keys":0,"block":1,"trial":94,"stimulus":9,"robot":3,"valence":"lose","action":"go","sham":1,"trial_type":"pit-trial","trial_index":129,"time_elapsed":947267,"internal_node_id":"0.0-101.0","task_version":"battery-v0.2-trt"},{"rune":"T","rune_set":"bacs2","hex":"#f73b6a7A","correct":-1,"choice":-1,"rt":-1,"accuracy":1,"outcome":"-1","keys":[],"total_keys":0,"block":1,"trial":95,"stimulus":10,"robot":4,"valence":"lose","action":"no-go","sham":0,"trial_type":"pit-trial","trial_index":130,"time_elapsed":951275,"internal_node_id":"0.0-102.0","task_version":"battery-v0.2-trt"},{"rune":"H","rune_set":"bacs2","hex":"#f73b6a7A","correct":32,"choice":-1,"rt":-1,"accuracy":0,"outcome":"-10","keys":[],"total_keys":0,"block":1,"trial":96,"stimulus":8,"robot":3,"valence":"lose","action":"go","sham":0,"trial_type":"pit-trial","trial_index":131,"time_elapsed":955281,"internal_node_id":"0.0-103.0","task_version":"battery-v0.2-trt"},{"rune":"Q","rune_set":"bacs2","hex":"#f73b6a7A","correct":32,"choice":-1,"rt":-1,"accuracy":0,"outcome":"-10","keys":[],"total_keys":0,"block":1,"trial":97,"stimulus":9,"robot":3,"valence":"lose","action":"go","sham":0,"trial_type":"pit-trial","trial_index":132,"time_elapsed":959296,"internal_node_id":"0.0-104.0","task_version":"battery-v0.2-trt"},{"rune":"Y","rune_set":"bacs2","hex":"#3366ff99","correct":-1,"choice":32,"rt":578.2299998681992,"accuracy":0,"outcome":"+1","keys":[2080.000000074506],"total_keys":1,"block":1,"trial":98,"stimulus":11,"robot":2,"valence":"win","action":"no-go","sham":0,"trial_type":"pit-trial","trial_index":133,"time_elapsed":962581,"internal_node_id":"0.0-105.0","task_version":"battery-v0.2-trt"},{"rune":"H","rune_set":"bacs2","hex":"#f73b6a7A","correct":32,"choice":32,"rt":773.2200000900775,"accuracy":1,"outcome":"-1","keys":[2274.0249999333173],"total_keys":1,"block":1,"trial":99,"stimulus":8,"robot":3,"valence":"lose","action":"go","sham":0,"trial_type":"pit-trial","trial_index":134,"time_elapsed":966061,"internal_node_id":"0.0-106.0","task_version":"battery-v0.2-trt"},{"rune":"T","rune_set":"bacs2","hex":"#f73b6a7A","correct":-1,"choice":-1,"rt":-1,"accuracy":1,"outcome":"-1","keys":[],"total_keys":0,"block":1,"trial":100,"stimulus":10,"robot":4,"valence":"lose","action":"no-go","sham":0,"trial_type":"pit-trial","trial_index":135,"time_elapsed":970068,"internal_node_id":"0.0-107.0","task_version":"battery-v0.2-trt"},{"rune":"T","rune_set":"bacs2","hex":"#f73b6a7A","correct":-1,"choice":-1,"rt":-1,"accuracy":1,"outcome":"-1","keys":[],"total_keys":0,"block":1,"trial":101,"stimulus":10,"robot":4,"valence":"lose","action":"no-go","sham":0,"trial_type":"pit-trial","trial_index":136,"time_elapsed":974075,"internal_node_id":"0.0-108.0","task_version":"battery-v0.2-trt"},{"rune":"Q","rune_set":"bacs2","hex":"#f73b6a7A","correct":32,"choice":-1,"rt":-1,"accuracy":0,"outcome":"-10","keys":[3316.219999920577],"total_keys":1,"block":1,"trial":102,"stimulus":9,"robot":3,"valence":"lose","action":"go","sham":0,"trial_type":"pit-trial","trial_index":137,"time_elapsed":978081,"internal_node_id":"0.0-109.0","task_version":"battery-v0.2-trt"},{"rune":"H","rune_set":"bacs2","hex":"#f73b6a7A","correct":32,"choice":32,"rt":617.2549999319017,"accuracy":1,"outcome":"-1","keys":[2118.1749999523163],"total_keys":1,"block":1,"trial":103,"stimulus":8,"robot":3,"valence":"lose","action":"go","sham":0,"trial_type":"pit-trial","trial_index":138,"time_elapsed":981404,"internal_node_id":"0.0-110.0","task_version":"battery-v0.2-trt"},{"rune":"Y","rune_set":"bacs2","hex":"#3366ff99","correct":-1,"choice":32,"rt":621.3800001423806,"accuracy":0,"outcome":"+1","keys":[2122.9400001466274],"total_keys":1,"block":1,"trial":104,"stimulus":11,"robot":2,"valence":"win","action":"no-go","sham":0,"trial_type":"pit-trial","trial_index":139,"time_elapsed":984733,"internal_node_id":"0.0-111.0","task_version":"battery-v0.2-trt"},{"rune":"H","rune_set":"bacs2","hex":"#f73b6a7A","correct":32,"choice":32,"rt":694.1349999979138,"accuracy":1,"outcome":"-1","keys":[2194.4349999539554],"total_keys":1,"block":1,"trial":105,"stimulus":8,"robot":3,"valence":"lose","action":"go","sham":0,"trial_type":"pit-trial","trial_index":140,"time_elapsed":988133,"internal_node_id":"0.0-112.0","task_version":"battery-v0.2-trt"},{"rune":"T","rune_set":"bacs2","hex":"#f73b6a7A","correct":-1,"choice":32,"rt":709.5349999144673,"accuracy":0,"outcome":"-1","keys":[2210.3399999905378],"total_keys":1,"block":1,"trial":106,"stimulus":10,"robot":4,"valence":"lose","action":"no-go","sham":1,"trial_type":"pit-trial","trial_index":141,"time_elapsed":991548,"internal_node_id":"0.0-113.0","task_version":"battery-v0.2-trt"},{"rune":"Y","rune_set":"bacs2","hex":"#3366ff99","correct":-1,"choice":-1,"rt":-1,"accuracy":1,"outcome":"+10","keys":[],"total_keys":0,"block":1,"trial":107,"stimulus":11,"robot":2,"valence":"win","action":"no-go","sham":0,"trial_type":"pit-trial","trial_index":142,"time_elapsed":995555,"internal_node_id":"0.0-114.0","task_version":"battery-v0.2-trt"},{"rune":"Q","rune_set":"bacs2","hex":"#f73b6a7A","correct":32,"choice":32,"rt":631.485000019893,"accuracy":1,"outcome":"-1","keys":[2131.999999983236],"total_keys":1,"block":1,"trial":108,"stimulus":9,"robot":3,"valence":"lose","action":"go","sham":0,"trial_type":"pit-trial","trial_index":143,"time_elapsed":998892,"internal_node_id":"0.0-115.0","task_version":"battery-v0.2-trt"},{"rune":"H","rune_set":"bacs2","hex":"#f73b6a7A","correct":32,"choice":32,"rt":647.3199999891222,"accuracy":1,"outcome":"-1","keys":[2147.469999967143],"total_keys":1,"block":1,"trial":109,"stimulus":8,"robot":3,"valence":"lose","action":"go","sham":0,"trial_type":"pit-trial","trial_index":144,"time_elapsed":1002245,"internal_node_id":"0.0-116.0","task_version":"battery-v0.2-trt"},{"rune":"Q","rune_set":"bacs2","hex":"#f73b6a7A","correct":32,"choice":32,"rt":653.9100001100451,"accuracy":1,"outcome":"-1","keys":[2153.944999910891],"total_keys":1,"block":1,"trial":110,"stimulus":9,"robot":3,"valence":"lose","action":"go","sham":0,"trial_type":"pit-trial","trial_index":145,"time_elapsed":1005606,"internal_node_id":"0.0-117.0","task_version":"battery-v0.2-trt"},{"rune":"T","rune_set":"bacs2","hex":"#f73b6a7A","correct":-1,"choice":-1,"rt":-1,"accuracy":1,"outcome":"-1","keys":[],"total_keys":0,"block":1,"trial":111,"stimulus":10,"robot":4,"valence":"lose","action":"no-go","sham":0,"trial_type":"pit-trial","trial_index":146,"time_elapsed":1009612,"internal_node_id":"0.0-118.0","task_version":"battery-v0.2-trt"},{"rune":"Y","rune_set":"bacs2","hex":"#3366ff99","correct":-1,"choice":32,"rt":678.7000000476837,"accuracy":0,"outcome":"+1","keys":[2179.3149998411536],"total_keys":1,"block":1,"trial":112,"stimulus":11,"robot":2,"valence":"win","action":"no-go","sham":0,"trial_type":"pit-trial","trial_index":147,"time_elapsed":1012997,"internal_node_id":"0.0-119.0","task_version":"battery-v0.2-trt"},{"rune":"Y","rune_set":"bacs2","hex":"#3366ff99","correct":-1,"choice":-1,"rt":-1,"accuracy":1,"outcome":"+10","keys":[],"total_keys":0,"block":1,"trial":113,"stimulus":11,"robot":2,"valence":"win","action":"no-go","sham":0,"trial_type":"pit-trial","trial_index":148,"time_elapsed":1017004,"internal_node_id":"0.0-120.0","task_version":"battery-v0.2-trt"},{"rune":"T","rune_set":"bacs2","hex":"#f73b6a7A","correct":-1,"choice":-1,"rt":-1,"accuracy":1,"outcome":"-1","keys":[],"total_keys":0,"block":1,"trial":114,"stimulus":10,"robot":4,"valence":"lose","action":"no-go","sham":0,"trial_type":"pit-trial","trial_index":149,"time_elapsed":1021011,"internal_node_id":"0.0-121.0","task_version":"battery-v0.2-trt"},{"rune":"Q","rune_set":"bacs2","hex":"#f73b6a7A","correct":32,"choice":32,"rt":735.0850000511855,"accuracy":1,"outcome":"-1","keys":[2235.8649999368936],"total_keys":1,"block":1,"trial":115,"stimulus":9,"robot":3,"valence":"lose","action":"go","sham":0,"trial_type":"pit-trial","trial_index":150,"time_elapsed":1024453,"internal_node_id":"0.0-122.0","task_version":"battery-v0.2-trt"},{"rune":"H","rune_set":"bacs2","hex":"#f73b6a7A","correct":32,"choice":32,"rt":758.2799999509007,"accuracy":1,"outcome":"-1","keys":[2258.640000130981],"total_keys":1,"block":1,"trial":116,"stimulus":8,"robot":3,"valence":"lose","action":"go","sham":0,"trial_type":"pit-trial","trial_index":151,"time_elapsed":1027917,"internal_node_id":"0.0-123.0","task_version":"battery-v0.2-trt"},{"rune":"Q","rune_set":"bacs2","hex":"#f73b6a7A","correct":32,"choice":32,"rt":676.9850000273436,"accuracy":1,"outcome":"-1","keys":[2177.95000015758],"total_keys":1,"block":1,"trial":117,"stimulus":9,"robot":3,"valence":"lose","action":"go","sham":0,"trial_type":"pit-trial","trial_index":152,"time_elapsed":1031300,"internal_node_id":"0.0-124.0","task_version":"battery-v0.2-trt"},{"rune":"Y","rune_set":"bacs2","hex":"#3366ff99","correct":-1,"choice":-1,"rt":-1,"accuracy":1,"outcome":"+10","keys":[],"total_keys":0,"block":1,"trial":118,"stimulus":11,"robot":2,"valence":"win","action":"no-go","sham":0,"trial_type":"pit-trial","trial_index":153,"time_elapsed":1035306,"internal_node_id":"0.0-125.0","task_version":"battery-v0.2-trt"},{"rune":"T","rune_set":"bacs2","hex":"#f73b6a7A","correct":-1,"choice":-1,"rt":-1,"accuracy":1,"outcome":"-10","keys":[],"total_keys":0,"block":1,"trial":119,"stimulus":10,"robot":4,"valence":"lose","action":"no-go","sham":1,"trial_type":"pit-trial","trial_index":154,"time_elapsed":1039312,"internal_node_id":"0.0-126.0","task_version":"battery-v0.2-trt"},{"rune":"H","rune_set":"bacs2","hex":"#f73b6a7A","correct":32,"choice":32,"rt":602.0949999801815,"accuracy":1,"outcome":"-1","keys":[2103.9599999785423],"total_keys":1,"block":1,"trial":120,"stimulus":8,"robot":3,"valence":"lose","action":"go","sham":0,"trial_type":"pit-trial","trial_index":155,"time_elapsed":1042621,"internal_node_id":"0.0-127.0","task_version":"battery-v0.2-trt"},{"view_history":"[{\"page_index\":0,\"viewing_time\":29997.29000008665},{\"page_index\":1,\"viewing_time\":5767.754999920726}]","rt":35765.485000098124,"trial_type":"pit-instructions","trial_index":156,"time_elapsed":1078390,"internal_node_id":"0.0-128.0","task_version":"battery-v0.2-trt"},{"rune":"F","rune_set":"bacs2","hex":"#f73b6a7A","correct":-1,"choice":32,"rt":947.1050000283867,"accuracy":0,"outcome":"-10","keys":[2447.785000083968],"total_keys":1,"block":2,"trial":121,"stimulus":1,"robot":4,"valence":"lose","action":"no-go","sham":0,"trial_type":"pit-trial","trial_index":157,"time_elapsed":1082044,"internal_node_id":"0.0-129.0","task_version":"battery-v0.2-trt"},{"rune":"U","rune_set":"bacs2","hex":"#3366ff99","correct":-1,"choice":-1,"rt":-1,"accuracy":1,"outcome":"+1","keys":[],"total_keys":0,"block":2,"trial":122,"stimulus":3,"robot":2,"valence":"win","action":"no-go","sham":1,"trial_type":"pit-trial","trial_index":158,"time_elapsed":1086051,"internal_node_id":"0.0-130.0","task_version":"battery-v0.2-trt"},{"rune":"N","rune_set":"bacs2","hex":"#f73b6a7A","correct":-1,"choice":32,"rt":823.2499998994172,"accuracy":0,"outcome":"-1","keys":[2324.049999937415],"total_keys":1,"block":2,"trial":123,"stimulus":0,"robot":4,"valence":"lose","action":"no-go","sham":1,"trial_type":"pit-trial","trial_index":159,"time_elapsed":1089580,"internal_node_id":"0.0-131.0","task_version":"battery-v0.2-trt"},{"rune":"A","rune_set":"bacs2","hex":"#3366ff99","correct":32,"choice":32,"rt":637.9850001540035,"accuracy":1,"outcome":"+10","keys":[2138.6849998962134],"total_keys":1,"block":2,"trial":124,"stimulus":2,"robot":1,"valence":"win","action":"go","sham":0,"trial_type":"pit-trial","trial_index":160,"time_elapsed":1092924,"internal_node_id":"0.0-132.0","task_version":"battery-v0.2-trt"},{"rune":"A","rune_set":"bacs2","hex":"#3366ff99","correct":32,"choice":32,"rt":503.1300000846386,"accuracy":1,"outcome":"+10","keys":[2003.5200000274926],"total_keys":1,"block":2,"trial":125,"stimulus":2,"robot":1,"valence":"win","action":"go","sham":0,"trial_type":"pit-trial","trial_index":161,"time_elapsed":1096133,"internal_node_id":"0.0-133.0","task_version":"battery-v0.2-trt"},{"rune":"U","rune_set":"bacs2","hex":"#3366ff99","correct":-1,"choice":32,"rt":661.8449999950826,"accuracy":0,"outcome":"+10","keys":[2162.565000122413],"total_keys":1,"block":2,"trial":126,"stimulus":3,"robot":2,"valence":"win","action":"no-go","sham":1,"trial_type":"pit-trial","trial_index":162,"time_elapsed":1099501,"internal_node_id":"0.0-134.0","task_version":"battery-v0.2-trt"},{"rune":"F","rune_set":"bacs2","hex":"#f73b6a7A","correct":-1,"choice":32,"rt":838.2999999448657,"accuracy":0,"outcome":"-10","keys":[2338.6599998921156],"total_keys":1,"block":2,"trial":127,"stimulus":1,"robot":4,"valence":"lose","action":"no-go","sham":0,"trial_type":"pit-trial","trial_index":163,"time_elapsed":1103045,"internal_node_id":"0.0-135.0","task_version":"battery-v0.2-trt"},{"rune":"N","rune_set":"bacs2","hex":"#f73b6a7A","correct":-1,"choice":32,"rt":989.3699998501688,"accuracy":0,"outcome":"-10","keys":[2490.6899998895824],"total_keys":1,"block":2,"trial":128,"stimulus":0,"robot":4,"valence":"lose","action":"no-go","sham":0,"trial_type":"pit-trial","trial_index":164,"time_elapsed":1106741,"internal_node_id":"0.0-136.0","task_version":"battery-v0.2-trt"},{"rune":"A","rune_set":"bacs2","hex":"#3366ff99","correct":32,"choice":32,"rt":788.7649999465793,"accuracy":1,"outcome":"+10","keys":[2290.0450001470745],"total_keys":1,"block":2,"trial":129,"stimulus":2,"robot":1,"valence":"win","action":"go","sham":0,"trial_type":"pit-trial","trial_index":165,"time_elapsed":1110236,"internal_node_id":"0.0-137.0","task_version":"battery-v0.2-trt"},{"rune":"F","rune_set":"bacs2","hex":"#f73b6a7A","correct":-1,"choice":-1,"rt":-1,"accuracy":1,"outcome":"-10","keys":[],"total_keys":0,"block":2,"trial":130,"stimulus":1,"robot":4,"valence":"lose","action":"no-go","sham":1,"trial_type":"pit-trial","trial_index":166,"time_elapsed":1114242,"internal_node_id":"0.0-138.0","task_version":"battery-v0.2-trt"},{"rune":"U","rune_set":"bacs2","hex":"#3366ff99","correct":-1,"choice":32,"rt":576.4699999708682,"accuracy":0,"outcome":"+1","keys":[2077.4799999780953],"total_keys":1,"block":2,"trial":131,"stimulus":3,"robot":2,"valence":"win","action":"no-go","sham":0,"trial_type":"pit-trial","trial_index":167,"time_elapsed":1117525,"internal_node_id":"0.0-139.0","task_version":"battery-v0.2-trt"},{"rune":"N","rune_set":"bacs2","hex":"#f73b6a7A","correct":-1,"choice":-1,"rt":-1,"accuracy":1,"outcome":"-10","keys":[],"total_keys":0,"block":2,"trial":132,"stimulus":0,"robot":4,"valence":"lose","action":"no-go","sham":1,"trial_type":"pit-trial","trial_index":168,"time_elapsed":1121531,"internal_node_id":"0.0-140.0","task_version":"battery-v0.2-trt"},{"rune":"U","rune_set":"bacs2","hex":"#3366ff99","correct":-1,"choice":32,"rt":695.0100001413375,"accuracy":0,"outcome":"+10","keys":[2196.2150000035763],"total_keys":1,"block":2,"trial":133,"stimulus":3,"robot":2,"valence":"win","action":"no-go","sham":1,"trial_type":"pit-trial","trial_index":169,"time_elapsed":1124933,"internal_node_id":"0.0-141.0","task_version":"battery-v0.2-trt"},{"rune":"N","rune_set":"bacs2","hex":"#f73b6a7A","correct":-1,"choice":32,"rt":1030.6500000879169,"accuracy":0,"outcome":"-1","keys":[2530.7000000029802],"total_keys":1,"block":2,"trial":134,"stimulus":0,"robot":4,"valence":"lose","action":"no-go","sham":1,"trial_type":"pit-trial","trial_index":170,"time_elapsed":1128669,"internal_node_id":"0.0-142.0","task_version":"battery-v0.2-trt"},{"rune":"A","rune_set":"bacs2","hex":"#3366ff99","correct":32,"choice":32,"rt":829.8250001389533,"accuracy":1,"outcome":"+1","keys":[2330.314999911934],"total_keys":1,"block":2,"trial":135,"stimulus":2,"robot":1,"valence":"win","action":"go","sham":1,"trial_type":"pit-trial","trial_index":171,"time_elapsed":1132205,"internal_node_id":"0.0-143.0","task_version":"battery-v0.2-trt"},{"rune":"F","rune_set":"bacs2","hex":"#f73b6a7A","correct":-1,"choice":32,"rt":901.6500001307577,"accuracy":0,"outcome":"-1","keys":[2402.1750001702458],"total_keys":1,"block":2,"trial":136,"stimulus":1,"robot":4,"valence":"lose","action":"no-go","sham":1,"trial_type":"pit-trial","trial_index":172,"time_elapsed":1135813,"internal_node_id":"0.0-144.0","task_version":"battery-v0.2-trt"},{"rune":"N","rune_set":"bacs2","hex":"#f73b6a7A","correct":-1,"choice":32,"rt":836.9450001046062,"accuracy":0,"outcome":"-10","keys":[2338.624999858439],"total_keys":1,"block":2,"trial":137,"stimulus":0,"robot":4,"valence":"lose","action":"no-go","sham":0,"trial_type":"pit-trial","trial_index":173,"time_elapsed":1139357,"internal_node_id":"0.0-145.0","task_version":"battery-v0.2-trt"},{"rune":"U","rune_set":"bacs2","hex":"#3366ff99","correct":-1,"choice":32,"rt":694.1850001458079,"accuracy":0,"outcome":"+10","keys":[2194.5499998982996],"total_keys":1,"block":2,"trial":138,"stimulus":3,"robot":2,"valence":"win","action":"no-go","sham":1,"trial_type":"pit-trial","trial_index":174,"time_elapsed":1142756,"internal_node_id":"0.0-146.0","task_version":"battery-v0.2-trt"},{"rune":"A","rune_set":"bacs2","hex":"#3366ff99","correct":32,"choice":32,"rt":829.9499999266118,"accuracy":1,"outcome":"+10","keys":[2331.084999954328],"total_keys":1,"block":2,"trial":139,"stimulus":2,"robot":1,"valence":"win","action":"go","sham":0,"trial_type":"pit-trial","trial_index":175,"time_elapsed":1146293,"internal_node_id":"0.0-147.0","task_version":"battery-v0.2-trt"},{"rune":"F","rune_set":"bacs2","hex":"#f73b6a7A","correct":-1,"choice":32,"rt":981.0050001833588,"accuracy":0,"outcome":"-1","keys":[2482.314999913797],"total_keys":1,"block":2,"trial":140,"stimulus":1,"robot":4,"valence":"lose","action":"no-go","sham":1,"trial_type":"pit-trial","trial_index":176,"time_elapsed":1149981,"internal_node_id":"0.0-148.0","task_version":"battery-v0.2-trt"},{"rune":"A","rune_set":"bacs2","hex":"#3366ff99","correct":32,"choice":32,"rt":766.2049999926239,"accuracy":1,"outcome":"+10","keys":[2266.2500001024455],"total_keys":1,"block":2,"trial":141,"stimulus":2,"robot":1,"valence":"win","action":"go","sham":0,"trial_type":"pit-trial","trial_index":177,"time_elapsed":1153453,"internal_node_id":"0.0-149.0","task_version":"battery-v0.2-trt"},{"rune":"F","rune_set":"bacs2","hex":"#f73b6a7A","correct":-1,"choice":32,"rt":773.3350000344217,"accuracy":0,"outcome":"-10","keys":[2274.195000063628],"total_keys":1,"block":2,"trial":142,"stimulus":1,"robot":4,"valence":"lose","action":"no-go","sham":0,"trial_type":"pit-trial","trial_index":178,"time_elapsed":1156932,"internal_node_id":"0.0-150.0","task_version":"battery-v0.2-trt"},{"rune":"N","rune_set":"bacs2","hex":"#f73b6a7A","correct":-1,"choice":32,"rt":669.0400000661612,"accuracy":0,"outcome":"-10","keys":[2170.9300000220537],"total_keys":1,"block":2,"trial":143,"stimulus":0,"robot":4,"valence":"lose","action":"no-go","sham":0,"trial_type":"pit-trial","trial_index":179,"time_elapsed":1160309,"internal_node_id":"0.0-151.0","task_version":"battery-v0.2-trt"},{"rune":"U","rune_set":"bacs2","hex":"#3366ff99","correct":-1,"choice":32,"rt":621.904999949038,"accuracy":0,"outcome":"+1","keys":[2122.4249999504536],"total_keys":1,"block":2,"trial":144,"stimulus":3,"robot":2,"valence":"win","action":"no-go","sham":0,"trial_type":"pit-trial","trial_index":180,"time_elapsed":1163637,"internal_node_id":"0.0-152.0","task_version":"battery-v0.2-trt"},{"rune":"A","rune_set":"bacs2","hex":"#3366ff99","correct":32,"choice":-1,"rt":-1,"accuracy":0,"outcome":"+1","keys":[],"total_keys":0,"block":2,"trial":145,"stimulus":2,"robot":1,"valence":"win","action":"go","sham":0,"trial_type":"pit-trial","trial_index":181,"time_elapsed":1167643,"internal_node_id":"0.0-153.0","task_version":"battery-v0.2-trt"},{"rune":"F","rune_set":"bacs2","hex":"#f73b6a7A","correct":-1,"choice":32,"rt":855.8300000149757,"accuracy":0,"outcome":"-10","keys":[2356.1450000852346],"total_keys":1,"block":2,"trial":146,"stimulus":1,"robot":4,"valence":"lose","action":"no-go","sham":0,"trial_type":"pit-trial","trial_index":182,"time_elapsed":1171205,"internal_node_id":"0.0-154.0","task_version":"battery-v0.2-trt"},{"rune":"N","rune_set":"bacs2","hex":"#f73b6a7A","correct":-1,"choice":-1,"rt":-1,"accuracy":1,"outcome":"-1","keys":[],"total_keys":0,"block":2,"trial":147,"stimulus":0,"robot":4,"valence":"lose","action":"no-go","sham":0,"trial_type":"pit-trial","trial_index":183,"time_elapsed":1175213,"internal_node_id":"0.0-155.0","task_version":"battery-v0.2-trt"},{"rune":"U","rune_set":"bacs2","hex":"#3366ff99","correct":-1,"choice":32,"rt":804.2350001633167,"accuracy":0,"outcome":"+1","keys":[2306.299999821931],"total_keys":1,"block":2,"trial":148,"stimulus":3,"robot":2,"valence":"win","action":"no-go","sham":0,"trial_type":"pit-trial","trial_index":184,"time_elapsed":1178725,"internal_node_id":"0.0-156.0","task_version":"battery-v0.2-trt"},{"rune":"F","rune_set":"bacs2","hex":"#f73b6a7A","correct":-1,"choice":-1,"rt":-1,"accuracy":1,"outcome":"-1","keys":[],"total_keys":0,"block":2,"trial":149,"stimulus":1,"robot":4,"valence":"lose","action":"no-go","sham":0,"trial_type":"pit-trial","trial_index":185,"time_elapsed":1182732,"internal_node_id":"0.0-157.0","task_version":"battery-v0.2-trt"},{"rune":"U","rune_set":"bacs2","hex":"#3366ff99","correct":-1,"choice":-1,"rt":-1,"accuracy":1,"outcome":"+1","keys":[],"total_keys":0,"block":2,"trial":150,"stimulus":3,"robot":2,"valence":"win","action":"no-go","sham":1,"trial_type":"pit-trial","trial_index":186,"time_elapsed":1186739,"internal_node_id":"0.0-158.0","task_version":"battery-v0.2-trt"},{"rune":"N","rune_set":"bacs2","hex":"#f73b6a7A","correct":-1,"choice":-1,"rt":-1,"accuracy":1,"outcome":"-1","keys":[],"total_keys":0,"block":2,"trial":151,"stimulus":0,"robot":4,"valence":"lose","action":"no-go","sham":0,"trial_type":"pit-trial","trial_index":187,"time_elapsed":1190747,"internal_node_id":"0.0-159.0","task_version":"battery-v0.2-trt"},{"rune":"A","rune_set":"bacs2","hex":"#3366ff99","correct":32,"choice":-1,"rt":-1,"accuracy":0,"outcome":"+1","keys":[],"total_keys":0,"block":2,"trial":152,"stimulus":2,"robot":1,"valence":"win","action":"go","sham":0,"trial_type":"pit-trial","trial_index":188,"time_elapsed":1194753,"internal_node_id":"0.0-160.0","task_version":"battery-v0.2-trt"},{"rune":"A","rune_set":"bacs2","hex":"#3366ff99","correct":32,"choice":32,"rt":545.2350000850856,"accuracy":1,"outcome":"+10","keys":[2046.4900000952184],"total_keys":1,"block":2,"trial":153,"stimulus":2,"robot":1,"valence":"win","action":"go","sham":0,"trial_type":"pit-trial","trial_index":189,"time_elapsed":1198004,"internal_node_id":"0.0-161.0","task_version":"battery-v0.2-trt"},{"rune":"S","rune_set":"bacs2","hex":"#f73b6a7A","correct":32,"choice":32,"rt":998.0649999342859,"accuracy":1,"outcome":"-1","keys":[2498.7850000616163],"total_keys":1,"block":2,"trial":154,"stimulus":4,"robot":3,"valence":"lose","action":"go","sham":0,"trial_type":"pit-trial","trial_index":190,"time_elapsed":1201709,"internal_node_id":"0.0-162.0","task_version":"battery-v0.2-trt"},{"rune":"U","rune_set":"bacs2","hex":"#3366ff99","correct":-1,"choice":32,"rt":876.2000000569969,"accuracy":0,"outcome":"+1","keys":[2377.949999878183],"total_keys":1,"block":2,"trial":155,"stimulus":3,"robot":2,"valence":"win","action":"no-go","sham":0,"trial_type":"pit-trial","trial_index":191,"time_elapsed":1205293,"internal_node_id":"0.0-163.0","task_version":"battery-v0.2-trt"},{"rune":"N","rune_set":"bacs2","hex":"#f73b6a7A","correct":-1,"choice":-1,"rt":-1,"accuracy":1,"outcome":"-1","keys":[],"total_keys":0,"block":2,"trial":156,"stimulus":0,"robot":4,"valence":"lose","action":"no-go","sham":0,"trial_type":"pit-trial","trial_index":192,"time_elapsed":1209300,"internal_node_id":"0.0-164.0","task_version":"battery-v0.2-trt"},{"rune":"U","rune_set":"bacs2","hex":"#3366ff99","correct":-1,"choice":-1,"rt":-1,"accuracy":1,"outcome":"+10","keys":[],"total_keys":0,"block":2,"trial":157,"stimulus":3,"robot":2,"valence":"win","action":"no-go","sham":0,"trial_type":"pit-trial","trial_index":193,"time_elapsed":1213309,"internal_node_id":"0.0-165.0","task_version":"battery-v0.2-trt"},{"rune":"S","rune_set":"bacs2","hex":"#f73b6a7A","correct":32,"choice":-1,"rt":-1,"accuracy":0,"outcome":"-1","keys":[],"total_keys":0,"block":2,"trial":158,"stimulus":4,"robot":3,"valence":"lose","action":"go","sham":1,"trial_type":"pit-trial","trial_index":194,"time_elapsed":1217315,"internal_node_id":"0.0-166.0","task_version":"battery-v0.2-trt"},{"rune":"N","rune_set":"bacs2","hex":"#f73b6a7A","correct":-1,"choice":-1,"rt":-1,"accuracy":1,"outcome":"-10","keys":[],"total_keys":0,"block":2,"trial":159,"stimulus":0,"robot":4,"valence":"lose","action":"no-go","sham":1,"trial_type":"pit-trial","trial_index":195,"time_elapsed":1221321,"internal_node_id":"0.0-167.0","task_version":"battery-v0.2-trt"},{"rune":"A","rune_set":"bacs2","hex":"#3366ff99","correct":32,"choice":-1,"rt":-1,"accuracy":0,"outcome":"+1","keys":[],"total_keys":0,"block":2,"trial":160,"stimulus":2,"robot":1,"valence":"win","action":"go","sham":0,"trial_type":"pit-trial","trial_index":196,"time_elapsed":1225328,"internal_node_id":"0.0-168.0","task_version":"battery-v0.2-trt"},{"rune":"L","rune_set":"bacs2","hex":"#3366ff99","correct":-1,"choice":32,"rt":722.4850000347942,"accuracy":0,"outcome":"+1","keys":[2223.7549999263138],"total_keys":1,"block":2,"trial":161,"stimulus":5,"robot":2,"valence":"win","action":"no-go","sham":0,"trial_type":"pit-trial","trial_index":197,"time_elapsed":1228756,"internal_node_id":"0.0-169.0","task_version":"battery-v0.2-trt"},{"rune":"N","rune_set":"bacs2","hex":"#f73b6a7A","correct":-1,"choice":32,"rt":822.8050000034273,"accuracy":0,"outcome":"-10","keys":[2323.164999950677],"total_keys":1,"block":2,"trial":162,"stimulus":0,"robot":4,"valence":"lose","action":"no-go","sham":0,"trial_type":"pit-trial","trial_index":198,"time_elapsed":1232285,"internal_node_id":"0.0-170.0","task_version":"battery-v0.2-trt"},{"rune":"S","rune_set":"bacs2","hex":"#f73b6a7A","correct":32,"choice":-1,"rt":-1,"accuracy":0,"outcome":"-10","keys":[],"total_keys":0,"block":2,"trial":163,"stimulus":4,"robot":3,"valence":"lose","action":"go","sham":0,"trial_type":"pit-trial","trial_index":199,"time_elapsed":1236292,"internal_node_id":"0.0-171.0","task_version":"battery-v0.2-trt"},{"rune":"P","rune_set":"bacs2","hex":"#3366ff99","correct":32,"choice":32,"rt":806.9500001147389,"accuracy":1,"outcome":"+10","keys":[2307.3250001762062],"total_keys":1,"block":2,"trial":164,"stimulus":6,"robot":1,"valence":"win","action":"go","sham":0,"trial_type":"pit-trial","trial_index":200,"time_elapsed":1239805,"internal_node_id":"0.0-172.0","task_version":"battery-v0.2-trt"},{"rune":"L","rune_set":"bacs2","hex":"#3366ff99","correct":-1,"choice":32,"rt":997.7250001393259,"accuracy":0,"outcome":"+10","keys":[2498.124999925494],"total_keys":1,"block":2,"trial":165,"stimulus":5,"robot":2,"valence":"win","action":"no-go","sham":1,"trial_type":"pit-trial","trial_index":201,"time_elapsed":1243509,"internal_node_id":"0.0-173.0","task_version":"battery-v0.2-trt"},{"rune":"N","rune_set":"bacs2","hex":"#f73b6a7A","correct":-1,"choice":32,"rt":966.3750000763685,"accuracy":0,"outcome":"-10","keys":[2466.6100000031292],"total_keys":1,"block":2,"trial":166,"stimulus":0,"robot":4,"valence":"lose","action":"no-go","sham":0,"trial_type":"pit-trial","trial_index":202,"time_elapsed":1247181,"internal_node_id":"0.0-174.0","task_version":"battery-v0.2-trt"},{"rune":"P","rune_set":"bacs2","hex":"#3366ff99","correct":32,"choice":32,"rt":805.4299999494106,"accuracy":1,"outcome":"+10","keys":[2306.605000048876],"total_keys":1,"block":2,"trial":167,"stimulus":6,"robot":1,"valence":"win","action":"go","sham":0,"trial_type":"pit-trial","trial_index":203,"time_elapsed":1250693,"internal_node_id":"0.0-175.0","task_version":"battery-v0.2-trt"},{"rune":"S","rune_set":"bacs2","hex":"#f73b6a7A","correct":32,"choice":-1,"rt":-1,"accuracy":0,"outcome":"-1","keys":[],"total_keys":0,"block":2,"trial":168,"stimulus":4,"robot":3,"valence":"lose","action":"go","sham":1,"trial_type":"pit-trial","trial_index":204,"time_elapsed":1254701,"internal_node_id":"0.0-176.0","task_version":"battery-v0.2-trt"},{"rune":"P","rune_set":"bacs2","hex":"#3366ff99","correct":32,"choice":32,"rt":589.8900001775473,"accuracy":1,"outcome":"+10","keys":[2090.8600001130253],"total_keys":1,"block":2,"trial":169,"stimulus":6,"robot":1,"valence":"win","action":"go","sham":0,"trial_type":"pit-trial","trial_index":205,"time_elapsed":1257998,"internal_node_id":"0.0-177.0","task_version":"battery-v0.2-trt"},{"rune":"L","rune_set":"bacs2","hex":"#3366ff99","correct":-1,"choice":32,"rt":797.2349999472499,"accuracy":0,"outcome":"+1","keys":[2297.814999939874],"total_keys":1,"block":2,"trial":170,"stimulus":5,"robot":2,"valence":"win","action":"no-go","sham":0,"trial_type":"pit-trial","trial_index":206,"time_elapsed":1261501,"internal_node_id":"0.0-178.0","task_version":"battery-v0.2-trt"},{"rune":"S","rune_set":"bacs2","hex":"#f73b6a7A","correct":32,"choice":-1,"rt":-1,"accuracy":0,"outcome":"-10","keys":[],"total_keys":0,"block":2,"trial":171,"stimulus":4,"robot":3,"valence":"lose","action":"go","sham":0,"trial_type":"pit-trial","trial_index":207,"time_elapsed":1265507,"internal_node_id":"0.0-179.0","task_version":"battery-v0.2-trt"},{"rune":"R","rune_set":"bacs2","hex":"#f73b6a7A","correct":-1,"choice":-1,"rt":-1,"accuracy":1,"outcome":"-1","keys":[],"total_keys":0,"block":2,"trial":172,"stimulus":7,"robot":4,"valence":"lose","action":"no-go","sham":0,"trial_type":"pit-trial","trial_index":208,"time_elapsed":1269513,"internal_node_id":"0.0-180.0","task_version":"battery-v0.2-trt"},{"rune":"S","rune_set":"bacs2","hex":"#f73b6a7A","correct":32,"choice":32,"rt":1066.0749999806285,"accuracy":1,"outcome":"-1","keys":[2566.1900001578033],"total_keys":1,"block":2,"trial":173,"stimulus":4,"robot":3,"valence":"lose","action":"go","sham":0,"trial_type":"pit-trial","trial_index":209,"time_elapsed":1273286,"internal_node_id":"0.0-181.0","task_version":"battery-v0.2-trt"},{"rune":"R","rune_set":"bacs2","hex":"#f73b6a7A","correct":-1,"choice":-1,"rt":-1,"accuracy":1,"outcome":"-10","keys":[],"total_keys":0,"block":2,"trial":174,"stimulus":7,"robot":4,"valence":"lose","action":"no-go","sham":1,"trial_type":"pit-trial","trial_index":210,"time_elapsed":1277292,"internal_node_id":"0.0-182.0","task_version":"battery-v0.2-trt"},{"rune":"L","rune_set":"bacs2","hex":"#3366ff99","correct":-1,"choice":32,"rt":950.1600000075996,"accuracy":0,"outcome":"+1","keys":[2450.819999910891],"total_keys":1,"block":2,"trial":175,"stimulus":5,"robot":2,"valence":"win","action":"no-go","sham":0,"trial_type":"pit-trial","trial_index":211,"time_elapsed":1280949,"internal_node_id":"0.0-183.0","task_version":"battery-v0.2-trt"},{"rune":"P","rune_set":"bacs2","hex":"#3366ff99","correct":32,"choice":32,"rt":740.9149999730289,"accuracy":1,"outcome":"+10","keys":[2242.649999912828],"total_keys":1,"block":2,"trial":176,"stimulus":6,"robot":1,"valence":"win","action":"go","sham":0,"trial_type":"pit-trial","trial_index":212,"time_elapsed":1284397,"internal_node_id":"0.0-184.0","task_version":"battery-v0.2-trt"},{"rune":"R","rune_set":"bacs2","hex":"#f73b6a7A","correct":-1,"choice":32,"rt":948.7749999389052,"accuracy":0,"outcome":"-10","keys":[2449.7299999929965],"total_keys":1,"block":2,"trial":177,"stimulus":7,"robot":4,"valence":"lose","action":"no-go","sham":0,"trial_type":"pit-trial","trial_index":213,"time_elapsed":1288052,"internal_node_id":"0.0-185.0","task_version":"battery-v0.2-trt"},{"rune":"S","rune_set":"bacs2","hex":"#f73b6a7A","correct":32,"choice":-1,"rt":-1,"accuracy":0,"outcome":"-10","keys":[],"total_keys":0,"block":2,"trial":178,"stimulus":4,"robot":3,"valence":"lose","action":"go","sham":0,"trial_type":"pit-trial","trial_index":214,"time_elapsed":1292058,"internal_node_id":"0.0-186.0","task_version":"battery-v0.2-trt"},{"rune":"L","rune_set":"bacs2","hex":"#3366ff99","correct":-1,"choice":32,"rt":816.4550000801682,"accuracy":0,"outcome":"+1","keys":[2317.0049998443574],"total_keys":1,"block":2,"trial":179,"stimulus":5,"robot":2,"valence":"win","action":"no-go","sham":0,"trial_type":"pit-trial","trial_index":215,"time_elapsed":1295581,"internal_node_id":"0.0-187.0","task_version":"battery-v0.2-trt"},{"rune":"P","rune_set":"bacs2","hex":"#3366ff99","correct":32,"choice":32,"rt":765.9500001464039,"accuracy":1,"outcome":"+10","keys":[2266.3350000511855],"total_keys":1,"block":2,"trial":180,"stimulus":6,"robot":1,"valence":"win","action":"go","sham":0,"trial_type":"pit-trial","trial_index":216,"time_elapsed":1299053,"internal_node_id":"0.0-188.0","task_version":"battery-v0.2-trt"},{"rune":"P","rune_set":"bacs2","hex":"#3366ff99","correct":32,"choice":32,"rt":838.0950000137091,"accuracy":1,"outcome":"+10","keys":[2338.2049999199808],"total_keys":1,"block":2,"trial":181,"stimulus":6,"robot":1,"valence":"win","action":"go","sham":0,"trial_type":"pit-trial","trial_index":217,"time_elapsed":1302597,"internal_node_id":"0.0-189.0","task_version":"battery-v0.2-trt"},{"rune":"L","rune_set":"bacs2","hex":"#3366ff99","correct":-1,"choice":-1,"rt":-1,"accuracy":1,"outcome":"+1","keys":[],"total_keys":0,"block":2,"trial":182,"stimulus":5,"robot":2,"valence":"win","action":"no-go","sham":1,"trial_type":"pit-trial","trial_index":218,"time_elapsed":1306604,"internal_node_id":"0.0-190.0","task_version":"battery-v0.2-trt"},{"rune":"R","rune_set":"bacs2","hex":"#f73b6a7A","correct":-1,"choice":32,"rt":815.0749998167157,"accuracy":0,"outcome":"-10","keys":[2315.4549999162555],"total_keys":1,"block":2,"trial":183,"stimulus":7,"robot":4,"valence":"lose","action":"no-go","sham":0,"trial_type":"pit-trial","trial_index":219,"time_elapsed":1310125,"internal_node_id":"0.0-191.0","task_version":"battery-v0.2-trt"},{"rune":"S","rune_set":"bacs2","hex":"#f73b6a7A","correct":32,"choice":-1,"rt":-1,"accuracy":0,"outcome":"-10","keys":[],"total_keys":0,"block":2,"trial":184,"stimulus":4,"robot":3,"valence":"lose","action":"go","sham":0,"trial_type":"pit-trial","trial_index":220,"time_elapsed":1314132,"internal_node_id":"0.0-192.0","task_version":"battery-v0.2-trt"},{"rune":"P","rune_set":"bacs2","hex":"#3366ff99","correct":32,"choice":32,"rt":630.5849999189377,"accuracy":1,"outcome":"+10","keys":[2131.1099999584258],"total_keys":1,"block":2,"trial":185,"stimulus":6,"robot":1,"valence":"win","action":"go","sham":0,"trial_type":"pit-trial","trial_index":221,"time_elapsed":1317468,"internal_node_id":"0.0-193.0","task_version":"battery-v0.2-trt"},{"rune":"S","rune_set":"bacs2","hex":"#f73b6a7A","correct":32,"choice":32,"rt":845.2850000467151,"accuracy":1,"outcome":"-10","keys":[2346.9950000289828],"total_keys":1,"block":2,"trial":186,"stimulus":4,"robot":3,"valence":"lose","action":"go","sham":1,"trial_type":"pit-trial","trial_index":222,"time_elapsed":1321022,"internal_node_id":"0.0-194.0","task_version":"battery-v0.2-trt"},{"rune":"R","rune_set":"bacs2","hex":"#f73b6a7A","correct":-1,"choice":32,"rt":852.6849998161197,"accuracy":0,"outcome":"-1","keys":[2353.3049998804927],"total_keys":1,"block":2,"trial":187,"stimulus":7,"robot":4,"valence":"lose","action":"no-go","sham":1,"trial_type":"pit-trial","trial_index":223,"time_elapsed":1324581,"internal_node_id":"0.0-195.0","task_version":"battery-v0.2-trt"},{"rune":"L","rune_set":"bacs2","hex":"#3366ff99","correct":-1,"choice":32,"rt":789.4300001207739,"accuracy":0,"outcome":"+1","keys":[2289.9800001177937],"total_keys":1,"block":2,"trial":188,"stimulus":5,"robot":2,"valence":"win","action":"no-go","sham":0,"trial_type":"pit-trial","trial_index":224,"time_elapsed":1328076,"internal_node_id":"0.0-196.0","task_version":"battery-v0.2-trt"},{"rune":"R","rune_set":"bacs2","hex":"#f73b6a7A","correct":-1,"choice":32,"rt":822.7300001308322,"accuracy":0,"outcome":"-10","keys":[2322.9199999477714],"total_keys":1,"block":2,"trial":189,"stimulus":7,"robot":4,"valence":"lose","action":"no-go","sham":0,"trial_type":"pit-trial","trial_index":225,"time_elapsed":1331605,"internal_node_id":"0.0-197.0","task_version":"battery-v0.2-trt"},{"rune":"P","rune_set":"bacs2","hex":"#3366ff99","correct":32,"choice":32,"rt":588.4800001513213,"accuracy":1,"outcome":"+10","keys":[2090.004999889061],"total_keys":1,"block":2,"trial":190,"stimulus":6,"robot":1,"valence":"win","action":"go","sham":0,"trial_type":"pit-trial","trial_index":226,"time_elapsed":1334901,"internal_node_id":"0.0-198.0","task_version":"battery-v0.2-trt"},{"rune":"L","rune_set":"bacs2","hex":"#3366ff99","correct":-1,"choice":-1,"rt":-1,"accuracy":1,"outcome":"+10","keys":[],"total_keys":0,"block":2,"trial":191,"stimulus":5,"robot":2,"valence":"win","action":"no-go","sham":0,"trial_type":"pit-trial","trial_index":227,"time_elapsed":1338907,"internal_node_id":"0.0-199.0","task_version":"battery-v0.2-trt"},{"rune":"S","rune_set":"bacs2","hex":"#f73b6a7A","correct":32,"choice":-1,"rt":-1,"accuracy":0,"outcome":"-1","keys":[],"total_keys":0,"block":2,"trial":192,"stimulus":4,"robot":3,"valence":"lose","action":"go","sham":1,"trial_type":"pit-trial","trial_index":228,"time_elapsed":1342913,"internal_node_id":"0.0-200.0","task_version":"battery-v0.2-trt"},{"rune":"K","rune_set":"bacs2","hex":"#f73b6a7A","correct":32,"choice":32,"rt":848.5500002279878,"accuracy":1,"outcome":"-1","keys":[2349.5249999687076],"total_keys":1,"block":2,"trial":193,"stimulus":9,"robot":3,"valence":"lose","action":"go","sham":0,"trial_type":"pit-trial","trial_index":229,"time_elapsed":1346468,"internal_node_id":"0.0-201.0","task_version":"battery-v0.2-trt"},{"rune":"L","rune_set":"bacs2","hex":"#3366ff99","correct":-1,"choice":-1,"rt":-1,"accuracy":1,"outcome":"+10","keys":[],"total_keys":0,"block":2,"trial":194,"stimulus":5,"robot":2,"valence":"win","action":"no-go","sham":0,"trial_type":"pit-trial","trial_index":230,"time_elapsed":1350474,"internal_node_id":"0.0-202.0","task_version":"battery-v0.2-trt"},{"rune":"V","rune_set":"bacs2","hex":"#3366ff99","correct":32,"choice":-1,"rt":-1,"accuracy":0,"outcome":"+1","keys":[],"total_keys":0,"block":2,"trial":195,"stimulus":8,"robot":1,"valence":"win","action":"go","sham":0,"trial_type":"pit-trial","trial_index":231,"time_elapsed":1354480,"internal_node_id":"0.0-203.0","task_version":"battery-v0.2-trt"},{"rune":"R","rune_set":"bacs2","hex":"#f73b6a7A","correct":-1,"choice":-1,"rt":-1,"accuracy":1,"outcome":"-1","keys":[],"total_keys":0,"block":2,"trial":196,"stimulus":7,"robot":4,"valence":"lose","action":"no-go","sham":0,"trial_type":"pit-trial","trial_index":232,"time_elapsed":1358487,"internal_node_id":"0.0-204.0","task_version":"battery-v0.2-trt"},{"rune":"V","rune_set":"bacs2","hex":"#3366ff99","correct":32,"choice":32,"rt":723.2300001196563,"accuracy":1,"outcome":"+10","keys":[2223.7999998033047],"total_keys":1,"block":2,"trial":197,"stimulus":8,"robot":1,"valence":"win","action":"go","sham":0,"trial_type":"pit-trial","trial_index":233,"time_elapsed":1361918,"internal_node_id":"0.0-205.0","task_version":"battery-v0.2-trt"},{"rune":"L","rune_set":"bacs2","hex":"#3366ff99","correct":-1,"choice":-1,"rt":-1,"accuracy":1,"outcome":"+1","keys":[],"total_keys":0,"block":2,"trial":198,"stimulus":5,"robot":2,"valence":"win","action":"no-go","sham":1,"trial_type":"pit-trial","trial_index":234,"time_elapsed":1365925,"internal_node_id":"0.0-206.0","task_version":"battery-v0.2-trt"},{"rune":"R","rune_set":"bacs2","hex":"#f73b6a7A","correct":-1,"choice":32,"rt":1022.3550000227988,"accuracy":0,"outcome":"-10","keys":[2522.540000034496],"total_keys":1,"block":2,"trial":199,"stimulus":7,"robot":4,"valence":"lose","action":"no-go","sham":0,"trial_type":"pit-trial","trial_index":235,"time_elapsed":1369653,"internal_node_id":"0.0-207.0","task_version":"battery-v0.2-trt"},{"rune":"K","rune_set":"bacs2","hex":"#f73b6a7A","correct":32,"choice":-1,"rt":-1,"accuracy":0,"outcome":"-10","keys":[],"total_keys":0,"block":2,"trial":200,"stimulus":9,"robot":3,"valence":"lose","action":"go","sham":0,"trial_type":"pit-trial","trial_index":236,"time_elapsed":1373659,"internal_node_id":"0.0-208.0","task_version":"battery-v0.2-trt"},{"rune":"V","rune_set":"bacs2","hex":"#3366ff99","correct":32,"choice":32,"rt":671.6350000351667,"accuracy":1,"outcome":"+10","keys":[2172.169999917969],"total_keys":1,"block":2,"trial":201,"stimulus":8,"robot":1,"valence":"win","action":"go","sham":0,"trial_type":"pit-trial","trial_index":237,"time_elapsed":1377037,"internal_node_id":"0.0-209.0","task_version":"battery-v0.2-trt"},{"rune":"R","rune_set":"bacs2","hex":"#f73b6a7A","correct":-1,"choice":-1,"rt":-1,"accuracy":1,"outcome":"-1","keys":[],"total_keys":0,"block":2,"trial":202,"stimulus":7,"robot":4,"valence":"lose","action":"no-go","sham":0,"trial_type":"pit-trial","trial_index":238,"time_elapsed":1381044,"internal_node_id":"0.0-210.0","task_version":"battery-v0.2-trt"},{"rune":"K","rune_set":"bacs2","hex":"#f73b6a7A","correct":32,"choice":32,"rt":958.4399999585003,"accuracy":1,"outcome":"-1","keys":[2459.1300000902265],"total_keys":1,"block":2,"trial":203,"stimulus":9,"robot":3,"valence":"lose","action":"go","sham":0,"trial_type":"pit-trial","trial_index":239,"time_elapsed":1384709,"internal_node_id":"0.0-211.0","task_version":"battery-v0.2-trt"},{"rune":"L","rune_set":"bacs2","hex":"#3366ff99","correct":-1,"choice":32,"rt":765.5999998096377,"accuracy":0,"outcome":"+1","keys":[2266.9049999676645],"total_keys":1,"block":2,"trial":204,"stimulus":5,"robot":2,"valence":"win","action":"no-go","sham":0,"trial_type":"pit-trial","trial_index":240,"time_elapsed":1388182,"internal_node_id":"0.0-212.0","task_version":"battery-v0.2-trt"},{"rune":"L","rune_set":"bacs2","hex":"#3366ff99","correct":-1,"choice":-1,"rt":-1,"accuracy":1,"outcome":"+10","keys":[],"total_keys":0,"block":2,"trial":205,"stimulus":5,"robot":2,"valence":"win","action":"no-go","sham":0,"trial_type":"pit-trial","trial_index":241,"time_elapsed":1392189,"internal_node_id":"0.0-213.0","task_version":"battery-v0.2-trt"},{"rune":"V","rune_set":"bacs2","hex":"#3366ff99","correct":32,"choice":32,"rt":653.4100000280887,"accuracy":1,"outcome":"+10","keys":[2154.6100000850856],"total_keys":1,"block":2,"trial":206,"stimulus":8,"robot":1,"valence":"win","action":"go","sham":0,"trial_type":"pit-trial","trial_index":242,"time_elapsed":1395549,"internal_node_id":"0.0-214.0","task_version":"battery-v0.2-trt"},{"rune":"K","rune_set":"bacs2","hex":"#f73b6a7A","correct":32,"choice":32,"rt":733.9949999004602,"accuracy":1,"outcome":"-1","keys":[2234.364999923855],"total_keys":1,"block":2,"trial":207,"stimulus":9,"robot":3,"valence":"lose","action":"go","sham":0,"trial_type":"pit-trial","trial_index":243,"time_elapsed":1398990,"internal_node_id":"0.0-215.0","task_version":"battery-v0.2-trt"},{"rune":"R","rune_set":"bacs2","hex":"#f73b6a7A","correct":-1,"choice":-1,"rt":-1,"accuracy":1,"outcome":"-1","keys":[],"total_keys":0,"block":2,"trial":208,"stimulus":7,"robot":4,"valence":"lose","action":"no-go","sham":0,"trial_type":"pit-trial","trial_index":244,"time_elapsed":1402997,"internal_node_id":"0.0-216.0","task_version":"battery-v0.2-trt"},{"rune":"V","rune_set":"bacs2","hex":"#3366ff99","correct":32,"choice":32,"rt":638.2699999958277,"accuracy":1,"outcome":"+1","keys":[2138.939999975264],"total_keys":1,"block":2,"trial":209,"stimulus":8,"robot":1,"valence":"win","action":"go","sham":1,"trial_type":"pit-trial","trial_index":245,"time_elapsed":1406340,"internal_node_id":"0.0-217.0","task_version":"battery-v0.2-trt"},{"rune":"B","rune_set":"bacs2","hex":"#f73b6a7A","correct":32,"choice":32,"rt":855.1050000824034,"accuracy":1,"outcome":"-10","keys":[2355.2950001321733],"total_keys":1,"block":2,"trial":210,"stimulus":10,"robot":3,"valence":"lose","action":"go","sham":1,"trial_type":"pit-trial","trial_index":246,"time_elapsed":1409901,"internal_node_id":"0.0-218.0","task_version":"battery-v0.2-trt"},{"rune":"K","rune_set":"bacs2","hex":"#f73b6a7A","correct":32,"choice":32,"rt":749.5800000615418,"accuracy":1,"outcome":"-1","keys":[2250.3100000321865],"total_keys":1,"block":2,"trial":211,"stimulus":9,"robot":3,"valence":"lose","action":"go","sham":0,"trial_type":"pit-trial","trial_index":247,"time_elapsed":1413357,"internal_node_id":"0.0-219.0","task_version":"battery-v0.2-trt"},{"rune":"M","rune_set":"bacs2","hex":"#3366ff99","correct":-1,"choice":32,"rt":814.4199999514967,"accuracy":0,"outcome":"+1","keys":[2314.9849998299032],"total_keys":1,"block":2,"trial":212,"stimulus":11,"robot":2,"valence":"win","action":"no-go","sham":0,"trial_type":"pit-trial","trial_index":248,"time_elapsed":1416877,"internal_node_id":"0.0-220.0","task_version":"battery-v0.2-trt"},{"rune":"B","rune_set":"bacs2","hex":"#f73b6a7A","correct":32,"choice":-1,"rt":-1,"accuracy":0,"outcome":"-10","keys":[],"total_keys":0,"block":2,"trial":213,"stimulus":10,"robot":3,"valence":"lose","action":"go","sham":0,"trial_type":"pit-trial","trial_index":249,"time_elapsed":1420885,"internal_node_id":"0.0-221.0","task_version":"battery-v0.2-trt"},{"rune":"M","rune_set":"bacs2","hex":"#3366ff99","correct":-1,"choice":32,"rt":717.4800001084805,"accuracy":0,"outcome":"+1","keys":[2218.8949999399483],"total_keys":1,"block":2,"trial":214,"stimulus":11,"robot":2,"valence":"win","action":"no-go","sham":0,"trial_type":"pit-trial","trial_index":250,"time_elapsed":1424312,"internal_node_id":"0.0-222.0","task_version":"battery-v0.2-trt"},{"rune":"K","rune_set":"bacs2","hex":"#f73b6a7A","correct":32,"choice":32,"rt":851.0300000198185,"accuracy":1,"outcome":"-10","keys":[2352.130000013858],"total_keys":1,"block":2,"trial":215,"stimulus":9,"robot":3,"valence":"lose","action":"go","sham":1,"trial_type":"pit-trial","trial_index":251,"time_elapsed":1427869,"internal_node_id":"0.0-223.0","task_version":"battery-v0.2-trt"},{"rune":"V","rune_set":"bacs2","hex":"#3366ff99","correct":32,"choice":-1,"rt":-1,"accuracy":0,"outcome":"+1","keys":[],"total_keys":0,"block":2,"trial":216,"stimulus":8,"robot":1,"valence":"win","action":"go","sham":0,"trial_type":"pit-trial","trial_index":252,"time_elapsed":1431875,"internal_node_id":"0.0-224.0","task_version":"battery-v0.2-trt"},{"rune":"V","rune_set":"bacs2","hex":"#3366ff99","correct":32,"choice":32,"rt":455.5699999909848,"accuracy":1,"outcome":"+10","keys":[1956.4950000494719],"total_keys":1,"block":2,"trial":217,"stimulus":8,"robot":1,"valence":"win","action":"go","sham":0,"trial_type":"pit-trial","trial_index":253,"time_elapsed":1435037,"internal_node_id":"0.0-225.0","task_version":"battery-v0.2-trt"},{"rune":"K","rune_set":"bacs2","hex":"#f73b6a7A","correct":32,"choice":-1,"rt":-1,"accuracy":0,"outcome":"-10","keys":[],"total_keys":0,"block":2,"trial":218,"stimulus":9,"robot":3,"valence":"lose","action":"go","sham":0,"trial_type":"pit-trial","trial_index":254,"time_elapsed":1439044,"internal_node_id":"0.0-226.0","task_version":"battery-v0.2-trt"},{"rune":"B","rune_set":"bacs2","hex":"#f73b6a7A","correct":32,"choice":-1,"rt":-1,"accuracy":0,"outcome":"-10","keys":[],"total_keys":0,"block":2,"trial":219,"stimulus":10,"robot":3,"valence":"lose","action":"go","sham":0,"trial_type":"pit-trial","trial_index":255,"time_elapsed":1443050,"internal_node_id":"0.0-227.0","task_version":"battery-v0.2-trt"},{"rune":"M","rune_set":"bacs2","hex":"#3366ff99","correct":-1,"choice":32,"rt":608.7450000923127,"accuracy":0,"outcome":"+1","keys":[2110.120000084862],"total_keys":1,"block":2,"trial":220,"stimulus":11,"robot":2,"valence":"win","action":"no-go","sham":0,"trial_type":"pit-trial","trial_index":256,"time_elapsed":1446365,"internal_node_id":"0.0-228.0","task_version":"battery-v0.2-trt"},{"rune":"B","rune_set":"bacs2","hex":"#f73b6a7A","correct":32,"choice":32,"rt":821.0799999069422,"accuracy":1,"outcome":"-10","keys":[2322.039999999106],"total_keys":1,"block":2,"trial":221,"stimulus":10,"robot":3,"valence":"lose","action":"go","sham":1,"trial_type":"pit-trial","trial_index":257,"time_elapsed":1449893,"internal_node_id":"0.0-229.0","task_version":"battery-v0.2-trt"},{"rune":"M","rune_set":"bacs2","hex":"#3366ff99","correct":-1,"choice":32,"rt":661.3099998794496,"accuracy":0,"outcome":"+1","keys":[2161.9200001005083],"total_keys":1,"block":2,"trial":222,"stimulus":11,"robot":2,"valence":"win","action":"no-go","sham":0,"trial_type":"pit-trial","trial_index":258,"time_elapsed":1453260,"internal_node_id":"0.0-230.0","task_version":"battery-v0.2-trt"},{"rune":"V","rune_set":"bacs2","hex":"#3366ff99","correct":32,"choice":-1,"rt":-1,"accuracy":0,"outcome":"+1","keys":[],"total_keys":0,"block":2,"trial":223,"stimulus":8,"robot":1,"valence":"win","action":"go","sham":0,"trial_type":"pit-trial","trial_index":259,"time_elapsed":1457266,"internal_node_id":"0.0-231.0","task_version":"battery-v0.2-trt"},{"rune":"K","rune_set":"bacs2","hex":"#f73b6a7A","correct":32,"choice":32,"rt":1089.2949998378754,"accuracy":1,"outcome":"-1","keys":[2589.529999997467],"total_keys":1,"block":2,"trial":224,"stimulus":9,"robot":3,"valence":"lose","action":"go","sham":0,"trial_type":"pit-trial","trial_index":260,"time_elapsed":1461060,"internal_node_id":"0.0-232.0","task_version":"battery-v0.2-trt"},{"rune":"V","rune_set":"bacs2","hex":"#3366ff99","correct":32,"choice":32,"rt":830.8399999514222,"accuracy":1,"outcome":"+10","keys":[2330.945000052452],"total_keys":1,"block":2,"trial":225,"stimulus":8,"robot":1,"valence":"win","action":"go","sham":0,"trial_type":"pit-trial","trial_index":261,"time_elapsed":1464597,"internal_node_id":"0.0-233.0","task_version":"battery-v0.2-trt"},{"rune":"B","rune_set":"bacs2","hex":"#f73b6a7A","correct":32,"choice":32,"rt":940.8299999777228,"accuracy":1,"outcome":"-1","keys":[2441.995000001043],"total_keys":1,"block":2,"trial":226,"stimulus":10,"robot":3,"valence":"lose","action":"go","sham":0,"trial_type":"pit-trial","trial_index":262,"time_elapsed":1468244,"internal_node_id":"0.0-234.0","task_version":"battery-v0.2-trt"},{"rune":"K","rune_set":"bacs2","hex":"#f73b6a7A","correct":32,"choice":32,"rt":845.8450001198798,"accuracy":1,"outcome":"-1","keys":[2347.520000068471],"total_keys":1,"block":2,"trial":227,"stimulus":9,"robot":3,"valence":"lose","action":"go","sham":0,"trial_type":"pit-trial","trial_index":263,"time_elapsed":1471798,"internal_node_id":"0.0-235.0","task_version":"battery-v0.2-trt"},{"rune":"M","rune_set":"bacs2","hex":"#3366ff99","correct":-1,"choice":32,"rt":900.4899999126792,"accuracy":0,"outcome":"+1","keys":[2401.2450000736862],"total_keys":1,"block":2,"trial":228,"stimulus":11,"robot":2,"valence":"win","action":"no-go","sham":0,"trial_type":"pit-trial","trial_index":264,"time_elapsed":1475404,"internal_node_id":"0.0-236.0","task_version":"battery-v0.2-trt"},{"rune":"M","rune_set":"bacs2","hex":"#3366ff99","correct":-1,"choice":-1,"rt":-1,"accuracy":1,"outcome":"+10","keys":[],"total_keys":0,"block":2,"trial":229,"stimulus":11,"robot":2,"valence":"win","action":"no-go","sham":0,"trial_type":"pit-trial","trial_index":265,"time_elapsed":1479411,"internal_node_id":"0.0-237.0","task_version":"battery-v0.2-trt"},{"rune":"V","rune_set":"bacs2","hex":"#3366ff99","correct":32,"choice":32,"rt":895.9650001488626,"accuracy":1,"outcome":"+10","keys":[2396.7049999628216],"total_keys":1,"block":2,"trial":230,"stimulus":8,"robot":1,"valence":"win","action":"go","sham":0,"trial_type":"pit-trial","trial_index":266,"time_elapsed":1483013,"internal_node_id":"0.0-238.0","task_version":"battery-v0.2-trt"},{"rune":"B","rune_set":"bacs2","hex":"#f73b6a7A","correct":32,"choice":32,"rt":893.9249999821186,"accuracy":1,"outcome":"-1","keys":[2394.319999963045],"total_keys":1,"block":2,"trial":231,"stimulus":10,"robot":3,"valence":"lose","action":"go","sham":0,"trial_type":"pit-trial","trial_index":267,"time_elapsed":1486612,"internal_node_id":"0.0-239.0","task_version":"battery-v0.2-trt"},{"rune":"K","rune_set":"bacs2","hex":"#f73b6a7A","correct":32,"choice":32,"rt":725.8550000842661,"accuracy":1,"outcome":"-1","keys":[2226.670000003651],"total_keys":1,"block":2,"trial":232,"stimulus":9,"robot":3,"valence":"lose","action":"go","sham":0,"trial_type":"pit-trial","trial_index":268,"time_elapsed":1490045,"internal_node_id":"0.0-240.0","task_version":"battery-v0.2-trt"},{"rune":"K","rune_set":"bacs2","hex":"#f73b6a7A","correct":32,"choice":32,"rt":877.8049999382347,"accuracy":1,"outcome":"-1","keys":[2378.495000069961],"total_keys":1,"block":2,"trial":233,"stimulus":9,"robot":3,"valence":"lose","action":"go","sham":0,"trial_type":"pit-trial","trial_index":269,"time_elapsed":1493629,"internal_node_id":"0.0-241.0","task_version":"battery-v0.2-trt"},{"rune":"V","rune_set":"bacs2","hex":"#3366ff99","correct":32,"choice":-1,"rt":-1,"accuracy":0,"outcome":"+1","keys":[],"total_keys":0,"block":2,"trial":234,"stimulus":8,"robot":1,"valence":"win","action":"go","sham":0,"trial_type":"pit-trial","trial_index":270,"time_elapsed":1497636,"internal_node_id":"0.0-242.0","task_version":"battery-v0.2-trt"},{"rune":"B","rune_set":"bacs2"