[{"view_history":"[{\"page_index\":0,\"viewing_time\":5684.030000003986}]","rt":5684.4400000118185,"trial_type":"instructions","trial_index":0,"time_elapsed":5710,"internal_node_id":"0.0-0.0","task_version":"battery-v0.2-trt"},{"slider_type":"valence","raw_loc":580,"loc":0.66,"trial_type":"affective-slider","trial_index":1,"time_elapsed":9395,"internal_node_id":"0.0-1.0","task_version":"battery-v0.2-trt"},{"responses":{"Q04":"1","Q08":"3","Q05":"0","Q07":"0","Q06":"0","Q01":"0","Q02":"0","Q03":"0"},"rt":24383.654999997816,"item_order":[3,7,4,6,5,0,1,2],"radio_events":[3328.4399999974994,7045.234999997774,11804.954999999609,16942.4549999967,17414.22999999486,19944.839999996475,21605.394999991404,22788.199999995413],"key_events":[],"mouse_events":[3328.4399999974994,7045.234999997774,11804.954999999609,12710.54999998887,16568.3149999968,16942.4549999967,17414.22999999486,19944.839999996475,21605.394999991404,22788.199999995413,24382.2899999941],"straightlining":0.75,"zigzagging":0.14285714285714285,"survey":"dass_d","trial_type":"survey-template","trial_index":2,"time_elapsed":33784,"internal_node_id":"0.0-2.0","task_version":"battery-v0.2-trt","infrequency":0.5},{"responses":{"Q07":"0","Q01":"0","Q08":"0","Q02":"0","Q05":"0","Q03":"0","Q06":"0","Q04":"0"},"rt":21797.495000006165,"item_order":[6,0,7,1,4,2,5,3],"radio_events":[5384.295000010752,6452.40000000922,8249.815000002855,10452.670000013313,17488.81500000425,18362.2100000066,19499.385000002803,20377.305000001797],"key_events":[],"mouse_events":[5384.295000010752,6452.40000000922,8249.815000002855,10452.670000013313,17488.81500000425,18362.2100000066,19499.385000002803,20377.305000001797,21796.490000007907],"straightlining":1,"zigzagging":0,"survey":"gad7","trial_type":"survey-template","trial_index":3,"time_elapsed":55586,"internal_node_id":"0.0-3.0","task_version":"battery-v0.2-trt","infrequency":0},{"responses":{"Q12":"3","Q05":"3","Q09":"3","Q13":"0","Q01":"3","Q04":"3","Q11":"3","Q03":"3","Q07":"1","Q10":"3","Q08":"3","Q06":"3","Q02":"3"},"rt":46794.82999999891,"item_order":[11,4,8,12,0,3,10,2,6,9,7,5,1],"radio_events":[8488.7000000017,9512.05000000482,11021.705000006477,15057.930000009947,23797.380000003614,24616.284999996424,27241.300000008778,31049.54999999609,35085.49500000663,39711.28499999759,41584.05499999935,43575.72500000242,46023.440000004484],"key_events":[],"mouse_events":[8488.7000000017,9512.05000000482,11021.705000006477,15057.930000009947,23797.380000003614,24616.284999996424,27241.300000008778,31049.54999999609,35085.49500000663,39711.28499999759,40876.16500000877,41584.05499999935,43575.72500000242,45342.270000008284,46023.440000004484,46793.41500000737],"straightlining":0.8461538461538461,"zigzagging":0.16666666666666666,"survey":"bisbas","trial_type":"survey-template","trial_index":4,"time_elapsed":102386,"internal_node_id":"0.0-4.0","task_version":"battery-v0.2-trt","infrequency":0},{"value":[0.5,2.5961538461538463,0.30952380952380953],"trial_type":"call-function","trial_index":5,"time_elapsed":102388,"internal_node_id":"0.0-5.0","task_version":"battery-v0.2-trt"},{"view_history":"[{\"page_index\":0,\"viewing_time\":2292.5650000106543},{\"page_index\":1,\"viewing_time\":2425.6049999967217},{\"page_index\":2,\"viewing_time\":7295.700000002398},{\"page_index\":3,\"viewing_time\":4956.634999995003},{\"page_index\":4,\"viewing_time\":8752.244999996037},{\"page_index\":5,\"viewing_time\":2284.2400000081398},{\"page_index\":6,\"viewing_time\":4082.634999998845},{\"page_index\":7,\"viewing_time\":7991.104999993695},{\"page_index\":8,\"viewing_time\":6968.365000007907},{\"page_index\":9,\"viewing_time\":2758.524999997462}]","rt":49808.21500001184,"trial_type":"pit-instructions","trial_index":6,"time_elapsed":152200,"internal_node_id":"0.0-6.0-0.0","task_version":"battery-v0.2-trt"},{"rune":"1","rune_set":"elianto","hex":"#3366ff99","correct":32,"choice":32,"rt":482.1550000051502,"accuracy":1,"outcome":"+10","keys":[1984.8149999888847],"total_keys":1,"block":0,"practice":1,"trial_type":"pit-trial","trial_index":7,"time_elapsed":155390,"internal_node_id":"0.0-6.0-1.0-0.0","task_version":"battery-v0.2-trt"},{"rune":"1","rune_set":"elianto","hex":"#3366ff99","correct":32,"choice":32,"rt":956.5049999946496,"accuracy":1,"outcome":"+10","keys":[2457.2400000033667],"total_keys":1,"block":0,"practice":1,"trial_type":"pit-trial","trial_index":8,"time_elapsed":159051,"internal_node_id":"0.0-6.0-1.1-0.1","task_version":"battery-v0.2-trt"},{"rune":"1","rune_set":"elianto","hex":"#3366ff99","correct":32,"choice":32,"rt":504.34499999391846,"accuracy":1,"outcome":"+10","keys":[2005.329999999958],"total_keys":1,"block":0,"practice":1,"trial_type":"pit-trial","trial_index":9,"time_elapsed":162260,"internal_node_id":"0.0-6.0-1.2-0.2","task_version":"battery-v0.2-trt"},{"rune":"1","rune_set":"elianto","hex":"#3366ff99","correct":32,"choice":32,"rt":391.07499999227,"accuracy":1,"outcome":"+10","keys":[1891.3849999953527],"total_keys":1,"block":0,"practice":1,"trial_type":"pit-trial","trial_index":10,"time_elapsed":165355,"internal_node_id":"0.0-6.0-1.3-0.3","task_version":"battery-v0.2-trt"},{"trial_type":"call-function","trial_index":11,"time_elapsed":165357,"internal_node_id":"0.0-6.0-2.0","task_version":"battery-v0.2-trt"},{"view_history":"[{\"page_index\":0,\"viewing_time\":4014.295000000857},{\"page_index\":1,\"viewing_time\":2879.1199999977835}]","rt":6893.869999999879,"trial_type":"pit-instructions","trial_index":12,"time_elapsed":172252,"internal_node_id":"0.0-6.0-3.0","task_version":"battery-v0.2-trt"},{"rune":"2","rune_set":"elianto","hex":"#3366ff99","correct":-1,"choice":32,"rt":942.4500000022817,"accuracy":0,"outcome":"+1","keys":[2443.7400000024354],"total_keys":1,"block":0,"practice":2,"trial_type":"pit-trial","trial_index":13,"time_elapsed":175898,"internal_node_id":"0.0-6.0-4.0-0.0","task_version":"battery-v0.2-trt"},{"rune":"2","rune_set":"elianto","hex":"#3366ff99","correct":-1,"choice":-1,"rt":-1,"accuracy":1,"outcome":"+10","keys":[],"total_keys":0,"block":0,"practice":2,"trial_type":"pit-trial","trial_index":14,"time_elapsed":179915,"internal_node_id":"0.0-6.0-4.1-0.1","task_version":"battery-v0.2-trt"},{"rune":"2","rune_set":"elianto","hex":"#3366ff99","correct":-1,"choice":-1,"rt":-1,"accuracy":1,"outcome":"+10","keys":[],"total_keys":0,"block":0,"practice":2,"trial_type":"pit-trial","trial_index":15,"time_elapsed":183922,"internal_node_id":"0.0-6.0-4.2-0.2","task_version":"battery-v0.2-trt"},{"rune":"2","rune_set":"elianto","hex":"#3366ff99","correct":-1,"choice":-1,"rt":-1,"accuracy":1,"outcome":"+10","keys":[],"total_keys":0,"block":0,"practice":2,"trial_type":"pit-trial","trial_index":16,"time_elapsed":187927,"internal_node_id":"0.0-6.0-4.3-0.3","task_version":"battery-v0.2-trt"},{"trial_type":"call-function","trial_index":17,"time_elapsed":187930,"internal_node_id":"0.0-6.0-5.0","task_version":"battery-v0.2-trt"},{"view_history":"[{\"page_index\":0,\"viewing_time\":14109.88499999803},{\"page_index\":1,\"viewing_time\":5960.785000002943}]","rt":20071.149999988847,"trial_type":"pit-instructions","trial_index":18,"time_elapsed":208002,"internal_node_id":"0.0-6.0-6.0","task_version":"battery-v0.2-trt"},{"rune":"3","rune_set":"elianto","hex":"#f73b6a7A","correct":-1,"choice":32,"rt":1015.8399999927497,"accuracy":0,"outcome":"-10","keys":[2517.275000005611],"total_keys":1,"block":0,"practice":3,"trial_type":"pit-trial","trial_index":19,"time_elapsed":211722,"internal_node_id":"0.0-6.0-7.0-0.0","task_version":"battery-v0.2-trt"},{"rune":"3","rune_set":"elianto","hex":"#f73b6a7A","correct":-1,"choice":-1,"rt":-1,"accuracy":1,"outcome":"-1","keys":[],"total_keys":0,"block":0,"practice":3,"trial_type":"pit-trial","trial_index":20,"time_elapsed":215728,"internal_node_id":"0.0-6.0-7.1-0.1","task_version":"battery-v0.2-trt"},{"rune":"3","rune_set":"elianto","hex":"#f73b6a7A","correct":-1,"choice":-1,"rt":-1,"accuracy":1,"outcome":"-1","keys":[],"total_keys":0,"block":0,"practice":3,"trial_type":"pit-trial","trial_index":21,"time_elapsed":219732,"internal_node_id":"0.0-6.0-7.2-0.2","task_version":"battery-v0.2-trt"},{"rune":"3","rune_set":"elianto","hex":"#f73b6a7A","correct":-1,"choice":-1,"rt":-1,"accuracy":1,"outcome":"-1","keys":[],"total_keys":0,"block":0,"practice":3,"trial_type":"pit-trial","trial_index":22,"time_elapsed":223736,"internal_node_id":"0.0-6.0-7.3-0.3","task_version":"battery-v0.2-trt"},{"trial_type":"call-function","trial_index":23,"time_elapsed":223738,"internal_node_id":"0.0-6.0-8.0","task_version":"battery-v0.2-trt"},{"view_history":"[{\"page_index\":0,\"viewing_time\":3526.7949999979464},{\"page_index\":1,\"viewing_time\":2134.810000003199}]","rt":5662.045000004582,"trial_type":"pit-instructions","trial_index":24,"time_elapsed":229401,"internal_node_id":"0.0-6.0-9.0","task_version":"battery-v0.2-trt"},{"rune":"4","rune_set":"elianto","hex":"#f73b6a7A","correct":32,"choice":32,"rt":824.9050000013085,"accuracy":1,"outcome":"-1","keys":[2325.4149999993388],"total_keys":1,"block":0,"practice":4,"trial_type":"pit-trial","trial_index":25,"time_elapsed":232931,"internal_node_id":"0.0-6.0-10.0-0.0","task_version":"battery-v0.2-trt"},{"rune":"4","rune_set":"elianto","hex":"#f73b6a7A","correct":32,"choice":32,"rt":254.0900000021793,"accuracy":1,"outcome":"-1","keys":[1755.1349999994272],"total_keys":1,"block":0,"practice":4,"trial_type":"pit-trial","trial_index":26,"time_elapsed":235889,"internal_node_id":"0.0-6.0-10.1-0.1","task_version":"battery-v0.2-trt"},{"rune":"4","rune_set":"elianto","hex":"#f73b6a7A","correct":32,"choice":32,"rt":312.93500000901986,"accuracy":1,"outcome":"-1","keys":[1813.8299999991432],"total_keys":1,"block":0,"practice":4,"trial_type":"pit-trial","trial_index":27,"time_elapsed":238907,"internal_node_id":"0.0-6.0-10.2-0.2","task_version":"battery-v0.2-trt"},{"rune":"4","rune_set":"elianto","hex":"#f73b6a7A","correct":32,"choice":32,"rt":799.1900000051828,"accuracy":1,"outcome":"-1","keys":[2299.715000001015],"total_keys":1,"block":0,"practice":4,"trial_type":"pit-trial","trial_index":28,"time_elapsed":242410,"internal_node_id":"0.0-6.0-10.3-0.3","task_version":"battery-v0.2-trt"},{"trial_type":"call-function","trial_index":29,"time_elapsed":242411,"internal_node_id":"0.0-6.0-11.0","task_version":"battery-v0.2-trt"},{"view_history":"[{\"page_index\":0,\"viewing_time\":2028.0400000046939},{\"page_index\":1,\"viewing_time\":3093.880000000354},{\"page_index\":2,\"viewing_time\":4906.634999992093},{\"page_index\":3,\"viewing_time\":1463.7650000076974},{\"page_index\":4,\"viewing_time\":1944.0899999899557},{\"page_index\":5,\"viewing_time\":1511.8450000009034}]","rt":14948.789999994915,"trial_type":"pit-instructions","trial_index":30,"time_elapsed":257361,"internal_node_id":"0.0-6.0-12.0","task_version":"battery-v0.2-trt"},{"responses":["Press SPACE","+10","-1","True","True"],"num_errors":0,"rt":16669.13999999815,"trial_type":"pit-comprehension","trial_index":31,"time_elapsed":274034,"internal_node_id":"0.0-6.0-13.0","task_version":"battery-v0.2-trt"},{"view_history":"[{\"page_index\":0,\"viewing_time\":2474.3100000050617},{\"page_index\":1,\"viewing_time\":2186.6399999998976}]","rt":4661.4450000051875,"trial_type":"pit-instructions","trial_index":32,"time_elapsed":278701,"internal_node_id":"0.0-7.0","task_version":"battery-v0.2-trt"},{"rune":"A","rune_set":"bacs1","hex":"#3366ff99","correct":-1,"choice":32,"rt":523.0299999966519,"accuracy":0,"outcome":"+1","keys":[2023.2400000095367],"total_keys":1,"block":1,"trial":1,"stimulus":3,"robot":2,"valence":"win","action":"no-go","sham":0,"trial_type":"pit-trial","trial_index":33,"time_elapsed":281929,"internal_node_id":"0.0-8.0","task_version":"battery-v0.2-trt"},{"rune":"L","rune_set":"bacs1","hex":"#f73b6a7A","correct":-1,"choice":32,"rt":904.804999998305,"accuracy":0,"outcome":"-1","keys":[2405.3700000076788],"total_keys":1,"block":1,"trial":2,"stimulus":1,"robot":4,"valence":"lose","action":"no-go","sham":1,"trial_type":"pit-trial","trial_index":34,"time_elapsed":285538,"internal_node_id":"0.0-9.0","task_version":"battery-v0.2-trt"},{"rune":"Q","rune_set":"bacs1","hex":"#f73b6a7A","correct":-1,"choice":32,"rt":1079.6399999962887,"accuracy":0,"outcome":"-1","keys":[2579.874999995809],"total_keys":1,"block":1,"trial":3,"stimulus":0,"robot":4,"valence":"lose","action":"no-go","sham":1,"trial_type":"pit-trial","trial_index":35,"time_elapsed":289323,"internal_node_id":"0.0-10.0","task_version":"battery-v0.2-trt"},{"rune":"C","rune_set":"bacs1","hex":"#3366ff99","correct":32,"choice":32,"rt":647.1349999919767,"accuracy":1,"outcome":"+10","keys":[2147.2149999899557],"total_keys":1,"block":1,"trial":4,"stimulus":2,"robot":1,"valence":"win","action":"go","sham":0,"trial_type":"pit-trial","trial_index":36,"time_elapsed":292674,"internal_node_id":"0.0-11.0","task_version":"battery-v0.2-trt"},{"rune":"C","rune_set":"bacs1","hex":"#3366ff99","correct":32,"choice":32,"rt":471.42999999050517,"accuracy":1,"outcome":"+10","keys":[1971.8250000005355],"total_keys":1,"block":1,"trial":5,"stimulus":2,"robot":1,"valence":"win","action":"go","sham":0,"trial_type":"pit-trial","trial_index":37,"time_elapsed":295850,"internal_node_id":"0.0-12.0","task_version":"battery-v0.2-trt"},{"rune":"L","rune_set":"bacs1","hex":"#f73b6a7A","correct":-1,"choice":32,"rt":887.8249999979744,"accuracy":0,"outcome":"-10","keys":[2388.890000001993],"total_keys":1,"block":1,"trial":6,"stimulus":1,"robot":4,"valence":"lose","action":"no-go","sham":0,"trial_type":"pit-trial","trial_index":38,"time_elapsed":299442,"internal_node_id":"0.0-13.0","task_version":"battery-v0.2-trt"},{"rune":"A","rune_set":"bacs1","hex":"#3366ff99","correct":-1,"choice":32,"rt":768.725000001723,"accuracy":0,"outcome":"+1","keys":[2269.220000001951],"total_keys":1,"block":1,"trial":7,"stimulus":3,"robot":2,"valence":"win","action":"no-go","sham":0,"trial_type":"pit-trial","trial_index":39,"time_elapsed":302914,"internal_node_id":"0.0-14.0","task_version":"battery-v0.2-trt"},{"rune":"Q","rune_set":"bacs1","hex":"#f73b6a7A","correct":-1,"choice":32,"rt":661.4149999950314,"accuracy":0,"outcome":"-10","keys":[2164.394999999786],"total_keys":1,"block":1,"trial":8,"stimulus":0,"robot":4,"valence":"lose","action":"no-go","sham":0,"trial_type":"pit-trial","trial_index":40,"time_elapsed":306282,"internal_node_id":"0.0-15.0","task_version":"battery-v0.2-trt"},{"rune":"L","rune_set":"bacs1","hex":"#f73b6a7A","correct":-1,"choice":32,"rt":966.9049999938579,"accuracy":0,"outcome":"-10","keys":[2468.254999999772],"total_keys":1,"block":1,"trial":9,"stimulus":1,"robot":4,"valence":"lose","action":"no-go","sham":0,"trial_type":"pit-trial","trial_index":41,"time_elapsed":309955,"internal_node_id":"0.0-16.0","task_version":"battery-v0.2-trt"},{"rune":"Q","rune_set":"bacs1","hex":"#f73b6a7A","correct":-1,"choice":-1,"rt":-1,"accuracy":1,"outcome":"-1","keys":[],"total_keys":0,"block":1,"trial":10,"stimulus":0,"robot":4,"valence":"lose","action":"no-go","sham":0,"trial_type":"pit-trial","trial_index":42,"time_elapsed":313959,"internal_node_id":"0.0-17.0","task_version":"battery-v0.2-trt"},{"rune":"A","rune_set":"bacs1","hex":"#3366ff99","correct":-1,"choice":32,"rt":730.4049999947893,"accuracy":0,"outcome":"+1","keys":[2230.844999998226],"total_keys":1,"block":1,"trial":11,"stimulus":3,"robot":2,"valence":"win","action":"no-go","sham":0,"trial_type":"pit-trial","trial_index":43,"time_elapsed":317394,"internal_node_id":"0.0-18.0","task_version":"battery-v0.2-trt"},{"rune":"C","rune_set":"bacs1","hex":"#3366ff99","correct":32,"choice":32,"rt":735.644999993383,"accuracy":1,"outcome":"+10","keys":[2235.950000002049],"total_keys":1,"block":1,"trial":12,"stimulus":2,"robot":1,"valence":"win","action":"go","sham":0,"trial_type":"pit-trial","trial_index":44,"time_elapsed":320833,"internal_node_id":"0.0-19.0","task_version":"battery-v0.2-trt"},{"rune":"A","rune_set":"bacs1","hex":"#3366ff99","correct":-1,"choice":-1,"rt":-1,"accuracy":1,"outcome":"+10","keys":[],"total_keys":0,"block":1,"trial":13,"stimulus":3,"robot":2,"valence":"win","action":"no-go","sham":0,"trial_type":"pit-trial","trial_index":45,"time_elapsed":324838,"internal_node_id":"0.0-20.0","task_version":"battery-v0.2-trt"},{"rune":"Q","rune_set":"bacs1","hex":"#f73b6a7A","correct":-1,"choice":-1,"rt":-1,"accuracy":1,"outcome":"-1","keys":[],"total_keys":0,"block":1,"trial":14,"stimulus":0,"robot":4,"valence":"lose","action":"no-go","sham":0,"trial_type":"pit-trial","trial_index":46,"time_elapsed":328843,"internal_node_id":"0.0-21.0","task_version":"battery-v0.2-trt"},{"rune":"C","rune_set":"bacs1","hex":"#3366ff99","correct":32,"choice":32,"rt":1085.849999988568,"accuracy":1,"outcome":"+1","keys":[2586.6450000030454],"total_keys":1,"block":1,"trial":15,"stimulus":2,"robot":1,"valence":"win","action":"go","sham":1,"trial_type":"pit-trial","trial_index":47,"time_elapsed":332633,"internal_node_id":"0.0-22.0","task_version":"battery-v0.2-trt"},{"rune":"L","rune_set":"bacs1","hex":"#f73b6a7A","correct":-1,"choice":-1,"rt":-1,"accuracy":1,"outcome":"-1","keys":[],"total_keys":0,"block":1,"trial":16,"stimulus":1,"robot":4,"valence":"lose","action":"no-go","sham":0,"trial_type":"pit-trial","trial_index":48,"time_elapsed":336637,"internal_node_id":"0.0-23.0","task_version":"battery-v0.2-trt"},{"rune":"A","rune_set":"bacs1","hex":"#3366ff99","correct":-1,"choice":-1,"rt":-1,"accuracy":1,"outcome":"+10","keys":[],"total_keys":0,"block":1,"trial":17,"stimulus":3,"robot":2,"valence":"win","action":"no-go","sham":0,"trial_type":"pit-trial","trial_index":49,"time_elapsed":340641,"internal_node_id":"0.0-24.0","task_version":"battery-v0.2-trt"},{"rune":"Q","rune_set":"bacs1","hex":"#f73b6a7A","correct":-1,"choice":-1,"rt":-1,"accuracy":1,"outcome":"-1","keys":[],"total_keys":0,"block":1,"trial":18,"stimulus":0,"robot":4,"valence":"lose","action":"no-go","sham":0,"trial_type":"pit-trial","trial_index":50,"time_elapsed":344647,"internal_node_id":"0.0-25.0","task_version":"battery-v0.2-trt"},{"rune":"L","rune_set":"bacs1","hex":"#f73b6a7A","correct":-1,"choice":-1,"rt":-1,"accuracy":1,"outcome":"-1","keys":[],"total_keys":0,"block":1,"trial":19,"stimulus":1,"robot":4,"valence":"lose","action":"no-go","sham":0,"trial_type":"pit-trial","trial_index":51,"time_elapsed":348652,"internal_node_id":"0.0-26.0","task_version":"battery-v0.2-trt"},{"rune":"C","rune_set":"bacs1","hex":"#3366ff99","correct":32,"choice":-1,"rt":-1,"accuracy":0,"outcome":"+1","keys":[],"total_keys":0,"block":1,"trial":20,"stimulus":2,"robot":1,"valence":"win","action":"go","sham":0,"trial_type":"pit-trial","trial_index":52,"time_elapsed":352657,"internal_node_id":"0.0-27.0","task_version":"battery-v0.2-trt"},{"rune":"C","rune_set":"bacs1","hex":"#3366ff99","correct":32,"choice":32,"rt":694.935000006808,"accuracy":1,"outcome":"+10","keys":[2196.265000005951],"total_keys":1,"block":1,"trial":21,"stimulus":2,"robot":1,"valence":"win","action":"go","sham":0,"trial_type":"pit-trial","trial_index":53,"time_elapsed":356058,"internal_node_id":"0.0-28.0","task_version":"battery-v0.2-trt"},{"rune":"L","rune_set":"bacs1","hex":"#f73b6a7A","correct":-1,"choice":-1,"rt":-1,"accuracy":1,"outcome":"-1","keys":[],"total_keys":0,"block":1,"trial":22,"stimulus":1,"robot":4,"valence":"lose","action":"no-go","sham":0,"trial_type":"pit-trial","trial_index":54,"time_elapsed":360063,"internal_node_id":"0.0-29.0","task_version":"battery-v0.2-trt"},{"rune":"Q","rune_set":"bacs1","hex":"#f73b6a7A","correct":-1,"choice":-1,"rt":-1,"accuracy":1,"outcome":"-10","keys":[],"total_keys":0,"block":1,"trial":23,"stimulus":0,"robot":4,"valence":"lose","action":"no-go","sham":1,"trial_type":"pit-trial","trial_index":55,"time_elapsed":364068,"internal_node_id":"0.0-30.0","task_version":"battery-v0.2-trt"},{"rune":"A","rune_set":"bacs1","hex":"#3366ff99","correct":-1,"choice":-1,"rt":-1,"accuracy":1,"outcome":"+10","keys":[],"total_keys":0,"block":1,"trial":24,"stimulus":3,"robot":2,"valence":"win","action":"no-go","sham":0,"trial_type":"pit-trial","trial_index":56,"time_elapsed":368072,"internal_node_id":"0.0-31.0","task_version":"battery-v0.2-trt"},{"rune":"C","rune_set":"bacs1","hex":"#3366ff99","correct":32,"choice":32,"rt":961.2449999985984,"accuracy":1,"outcome":"+10","keys":[2461.6150000074413],"total_keys":1,"block":1,"trial":25,"stimulus":2,"robot":1,"valence":"win","action":"go","sham":0,"trial_type":"pit-trial","trial_index":57,"time_elapsed":371744,"internal_node_id":"0.0-32.0","task_version":"battery-v0.2-trt"},{"rune":"Q","rune_set":"bacs1","hex":"#f73b6a7A","correct":-1,"choice":-1,"rt":-1,"accuracy":1,"outcome":"-1","keys":[],"total_keys":0,"block":1,"trial":26,"stimulus":0,"robot":4,"valence":"lose","action":"no-go","sham":0,"trial_type":"pit-trial","trial_index":58,"time_elapsed":375749,"internal_node_id":"0.0-33.0","task_version":"battery-v0.2-trt"},{"rune":"L","rune_set":"bacs1","hex":"#f73b6a7A","correct":-1,"choice":-1,"rt":-1,"accuracy":1,"outcome":"-1","keys":[],"total_keys":0,"block":1,"trial":27,"stimulus":1,"robot":4,"valence":"lose","action":"no-go","sham":0,"trial_type":"pit-trial","trial_index":59,"time_elapsed":379753,"internal_node_id":"0.0-34.0","task_version":"battery-v0.2-trt"},{"rune":"A","rune_set":"bacs1","hex":"#3366ff99","correct":-1,"choice":-1,"rt":-1,"accuracy":1,"outcome":"+10","keys":[],"total_keys":0,"block":1,"trial":28,"stimulus":3,"robot":2,"valence":"win","action":"no-go","sham":0,"trial_type":"pit-trial","trial_index":60,"time_elapsed":383759,"internal_node_id":"0.0-35.0","task_version":"battery-v0.2-trt"},{"rune":"C","rune_set":"bacs1","hex":"#3366ff99","correct":32,"choice":32,"rt":768.804999999702,"accuracy":1,"outcome":"+1","keys":[2269.2600000009406],"total_keys":1,"block":1,"trial":29,"stimulus":2,"robot":1,"valence":"win","action":"go","sham":1,"trial_type":"pit-trial","trial_index":61,"time_elapsed":387233,"internal_node_id":"0.0-36.0","task_version":"battery-v0.2-trt"},{"rune":"L","rune_set":"bacs1","hex":"#f73b6a7A","correct":-1,"choice":-1,"rt":-1,"accuracy":1,"outcome":"-1","keys":[203.8650000031339],"total_keys":1,"block":1,"trial":30,"stimulus":1,"robot":4,"valence":"lose","action":"no-go","sham":0,"trial_type":"pit-trial","trial_index":62,"time_elapsed":391237,"internal_node_id":"0.0-37.0","task_version":"battery-v0.2-trt"},{"rune":"A","rune_set":"bacs1","hex":"#3366ff99","correct":-1,"choice":-1,"rt":-1,"accuracy":1,"outcome":"+1","keys":[],"total_keys":0,"block":1,"trial":31,"stimulus":3,"robot":2,"valence":"win","action":"no-go","sham":1,"trial_type":"pit-trial","trial_index":63,"time_elapsed":395241,"internal_node_id":"0.0-38.0","task_version":"battery-v0.2-trt"},{"rune":"Q","rune_set":"bacs1","hex":"#f73b6a7A","correct":-1,"choice":-1,"rt":-1,"accuracy":1,"outcome":"-1","keys":[],"total_keys":0,"block":1,"trial":32,"stimulus":0,"robot":4,"valence":"lose","action":"no-go","sham":0,"trial_type":"pit-trial","trial_index":64,"time_elapsed":399245,"internal_node_id":"0.0-39.0","task_version":"battery-v0.2-trt"},{"rune":"F","rune_set":"bacs1","hex":"#f73b6a7A","correct":32,"choice":32,"rt":1081.3099999941187,"accuracy":1,"outcome":"-1","keys":[2582.110000003013],"total_keys":1,"block":1,"trial":33,"stimulus":4,"robot":3,"valence":"lose","action":"go","sham":0,"trial_type":"pit-trial","trial_index":65,"time_elapsed":403032,"internal_node_id":"0.0-40.0","task_version":"battery-v0.2-trt"},{"rune":"Q","rune_set":"bacs1","hex":"#f73b6a7A","correct":-1,"choice":-1,"rt":-1,"accuracy":1,"outcome":"-1","keys":[],"total_keys":0,"block":1,"trial":34,"stimulus":0,"robot":4,"valence":"lose","action":"no-go","sham":0,"trial_type":"pit-trial","trial_index":66,"time_elapsed":407035,"internal_node_id":"0.0-41.0","task_version":"battery-v0.2-trt"},{"rune":"C","rune_set":"bacs1","hex":"#3366ff99","correct":32,"choice":32,"rt":812.6150000025518,"accuracy":1,"outcome":"+10","keys":[2313.2499999919673],"total_keys":1,"block":1,"trial":35,"stimulus":2,"robot":1,"valence":"win","action":"go","sham":0,"trial_type":"pit-trial","trial_index":67,"time_elapsed":410552,"internal_node_id":"0.0-42.0","task_version":"battery-v0.2-trt"},{"rune":"A","rune_set":"bacs1","hex":"#3366ff99","correct":-1,"choice":-1,"rt":-1,"accuracy":1,"outcome":"+10","keys":[3012.5950000074226],"total_keys":1,"block":1,"trial":36,"stimulus":3,"robot":2,"valence":"win","action":"no-go","sham":0,"trial_type":"pit-trial","trial_index":68,"time_elapsed":414556,"internal_node_id":"0.0-43.0","task_version":"battery-v0.2-trt"},{"rune":"F","rune_set":"bacs1","hex":"#f73b6a7A","correct":32,"choice":32,"rt":852.1550000004936,"accuracy":1,"outcome":"-1","keys":[2352.6399999973364],"total_keys":1,"block":1,"trial":37,"stimulus":4,"robot":3,"valence":"lose","action":"go","sham":0,"trial_type":"pit-trial","trial_index":69,"time_elapsed":418112,"internal_node_id":"0.0-44.0","task_version":"battery-v0.2-trt"},{"rune":"Q","rune_set":"bacs1","hex":"#f73b6a7A","correct":-1,"choice":-1,"rt":-1,"accuracy":1,"outcome":"-1","keys":[],"total_keys":0,"block":1,"trial":38,"stimulus":0,"robot":4,"valence":"lose","action":"no-go","sham":0,"trial_type":"pit-trial","trial_index":70,"time_elapsed":422117,"internal_node_id":"0.0-45.0","task_version":"battery-v0.2-trt"},{"rune":"C","rune_set":"bacs1","hex":"#3366ff99","correct":32,"choice":32,"rt":699.2699999973411,"accuracy":1,"outcome":"+1","keys":[2199.8749999911524],"total_keys":1,"block":1,"trial":39,"stimulus":2,"robot":1,"valence":"win","action":"go","sham":1,"trial_type":"pit-trial","trial_index":71,"time_elapsed":425520,"internal_node_id":"0.0-46.0","task_version":"battery-v0.2-trt"},{"rune":"A","rune_set":"bacs1","hex":"#3366ff99","correct":-1,"choice":-1,"rt":-1,"accuracy":1,"outcome":"+10","keys":[],"total_keys":0,"block":1,"trial":40,"stimulus":3,"robot":2,"valence":"win","action":"no-go","sham":0,"trial_type":"pit-trial","trial_index":72,"time_elapsed":429524,"internal_node_id":"0.0-47.0","task_version":"battery-v0.2-trt"},{"rune":"E","rune_set":"bacs1","hex":"#3366ff99","correct":32,"choice":32,"rt":779.5299999997951,"accuracy":1,"outcome":"+1","keys":[2280.63999999722],"total_keys":1,"block":1,"trial":41,"stimulus":6,"robot":1,"valence":"win","action":"go","sham":1,"trial_type":"pit-trial","trial_index":73,"time_elapsed":433008,"internal_node_id":"0.0-48.0","task_version":"battery-v0.2-trt"},{"rune":"Q","rune_set":"bacs1","hex":"#f73b6a7A","correct":-1,"choice":-1,"rt":-1,"accuracy":1,"outcome":"-10","keys":[],"total_keys":0,"block":1,"trial":42,"stimulus":0,"robot":4,"valence":"lose","action":"no-go","sham":1,"trial_type":"pit-trial","trial_index":74,"time_elapsed":437011,"internal_node_id":"0.0-49.0","task_version":"battery-v0.2-trt"},{"rune":"F","rune_set":"bacs1","hex":"#f73b6a7A","correct":32,"choice":32,"rt":756.4899999997579,"accuracy":1,"outcome":"-1","keys":[2257.310000000871],"total_keys":1,"block":1,"trial":43,"stimulus":4,"robot":3,"valence":"lose","action":"go","sham":0,"trial_type":"pit-trial","trial_index":75,"time_elapsed":440472,"internal_node_id":"0.0-50.0","task_version":"battery-v0.2-trt"},{"rune":"T","rune_set":"bacs1","hex":"#3366ff99","correct":-1,"choice":32,"rt":1206.2149999983376,"accuracy":0,"outcome":"+10","keys":[2707.4399999983143],"total_keys":1,"block":1,"trial":44,"stimulus":5,"robot":2,"valence":"win","action":"no-go","sham":1,"trial_type":"pit-trial","trial_index":76,"time_elapsed":444384,"internal_node_id":"0.0-51.0","task_version":"battery-v0.2-trt"},{"rune":"Q","rune_set":"bacs1","hex":"#f73b6a7A","correct":-1,"choice":-1,"rt":-1,"accuracy":1,"outcome":"-1","keys":[],"total_keys":0,"block":1,"trial":45,"stimulus":0,"robot":4,"valence":"lose","action":"no-go","sham":0,"trial_type":"pit-trial","trial_index":77,"time_elapsed":448389,"internal_node_id":"0.0-52.0","task_version":"battery-v0.2-trt"},{"rune":"T","rune_set":"bacs1","hex":"#3366ff99","correct":-1,"choice":32,"rt":692.3999999999069,"accuracy":0,"outcome":"+1","keys":[2193.7849999958416],"total_keys":1,"block":1,"trial":46,"stimulus":5,"robot":2,"valence":"win","action":"no-go","sham":0,"trial_type":"pit-trial","trial_index":78,"time_elapsed":451786,"internal_node_id":"0.0-53.0","task_version":"battery-v0.2-trt"},{"rune":"F","rune_set":"bacs1","hex":"#f73b6a7A","correct":32,"choice":32,"rt":837.0549999963259,"accuracy":1,"outcome":"-1","keys":[2337.4150000017835],"total_keys":1,"block":1,"trial":47,"stimulus":4,"robot":3,"valence":"lose","action":"go","sham":0,"trial_type":"pit-trial","trial_index":79,"time_elapsed":455328,"internal_node_id":"0.0-54.0","task_version":"battery-v0.2-trt"},{"rune":"E","rune_set":"bacs1","hex":"#3366ff99","correct":32,"choice":-1,"rt":-1,"accuracy":0,"outcome":"+1","keys":[],"total_keys":0,"block":1,"trial":48,"stimulus":6,"robot":1,"valence":"win","action":"go","sham":0,"trial_type":"pit-trial","trial_index":80,"time_elapsed":459332,"internal_node_id":"0.0-55.0","task_version":"battery-v0.2-trt"},{"rune":"E","rune_set":"bacs1","hex":"#3366ff99","correct":32,"choice":-1,"rt":-1,"accuracy":0,"outcome":"+1","keys":[3430.6649999925867],"total_keys":1,"block":1,"trial":49,"stimulus":6,"robot":1,"valence":"win","action":"go","sham":0,"trial_type":"pit-trial","trial_index":81,"time_elapsed":463338,"internal_node_id":"0.0-56.0","task_version":"battery-v0.2-trt"},{"rune":"V","rune_set":"bacs1","hex":"#f73b6a7A","correct":-1,"choice":32,"rt":1012.8550000081304,"accuracy":0,"outcome":"-1","keys":[2513.7400000094203],"total_keys":1,"block":1,"trial":50,"stimulus":7,"robot":4,"valence":"lose","action":"no-go","sham":1,"trial_type":"pit-trial","trial_index":82,"time_elapsed":467055,"internal_node_id":"0.0-57.0","task_version":"battery-v0.2-trt"},{"rune":"F","rune_set":"bacs1","hex":"#f73b6a7A","correct":32,"choice":-1,"rt":-1,"accuracy":0,"outcome":"-10","keys":[],"total_keys":0,"block":1,"trial":51,"stimulus":4,"robot":3,"valence":"lose","action":"go","sham":0,"trial_type":"pit-trial","trial_index":83,"time_elapsed":471060,"internal_node_id":"0.0-58.0","task_version":"battery-v0.2-trt"},{"rune":"T","rune_set":"bacs1","hex":"#3366ff99","correct":-1,"choice":-1,"rt":-1,"accuracy":1,"outcome":"+10","keys":[],"total_keys":0,"block":1,"trial":52,"stimulus":5,"robot":2,"valence":"win","action":"no-go","sham":0,"trial_type":"pit-trial","trial_index":84,"time_elapsed":475064,"internal_node_id":"0.0-59.0","task_version":"battery-v0.2-trt"},{"rune":"V","rune_set":"bacs1","hex":"#f73b6a7A","correct":-1,"choice":32,"rt":935.3200000041397,"accuracy":0,"outcome":"-10","keys":[2435.9350000013364],"total_keys":1,"block":1,"trial":53,"stimulus":7,"robot":4,"valence":"lose","action":"no-go","sham":0,"trial_type":"pit-trial","trial_index":85,"time_elapsed":478703,"internal_node_id":"0.0-60.0","task_version":"battery-v0.2-trt"},{"rune":"F","rune_set":"bacs1","hex":"#f73b6a7A","correct":32,"choice":-1,"rt":-1,"accuracy":0,"outcome":"-10","keys":[],"total_keys":0,"block":1,"trial":54,"stimulus":4,"robot":3,"valence":"lose","action":"go","sham":0,"trial_type":"pit-trial","trial_index":86,"time_elapsed":482708,"internal_node_id":"0.0-61.0","task_version":"battery-v0.2-trt"},{"rune":"T","rune_set":"bacs1","hex":"#3366ff99","correct":-1,"choice":-1,"rt":-1,"accuracy":1,"outcome":"+10","keys":[],"total_keys":0,"block":1,"trial":55,"stimulus":5,"robot":2,"valence":"win","action":"no-go","sham":0,"trial_type":"pit-trial","trial_index":87,"time_elapsed":486712,"internal_node_id":"0.0-62.0","task_version":"battery-v0.2-trt"},{"rune":"E","rune_set":"bacs1","hex":"#3366ff99","correct":32,"choice":-1,"rt":-1,"accuracy":0,"outcome":"+1","keys":[],"total_keys":0,"block":1,"trial":56,"stimulus":6,"robot":1,"valence":"win","action":"go","sham":0,"trial_type":"pit-trial","trial_index":88,"time_elapsed":490716,"internal_node_id":"0.0-63.0","task_version":"battery-v0.2-trt"},{"rune":"T","rune_set":"bacs1","hex":"#3366ff99","correct":-1,"choice":-1,"rt":-1,"accuracy":1,"outcome":"+10","keys":[],"total_keys":0,"block":1,"trial":57,"stimulus":5,"robot":2,"valence":"win","action":"no-go","sham":0,"trial_type":"pit-trial","trial_index":89,"time_elapsed":494720,"internal_node_id":"0.0-64.0","task_version":"battery-v0.2-trt"},{"rune":"E","rune_set":"bacs1","hex":"#3366ff99","correct":32,"choice":-1,"rt":-1,"accuracy":0,"outcome":"+1","keys":[],"total_keys":0,"block":1,"trial":58,"stimulus":6,"robot":1,"valence":"win","action":"go","sham":0,"trial_type":"pit-trial","trial_index":90,"time_elapsed":498725,"internal_node_id":"0.0-65.0","task_version":"battery-v0.2-trt"},{"rune":"V","rune_set":"bacs1","hex":"#f73b6a7A","correct":-1,"choice":-1,"rt":-1,"accuracy":1,"outcome":"-1","keys":[2838.949999990291],"total_keys":1,"block":1,"trial":59,"stimulus":7,"robot":4,"valence":"lose","action":"no-go","sham":0,"trial_type":"pit-trial","trial_index":91,"time_elapsed":502730,"internal_node_id":"0.0-66.0","task_version":"battery-v0.2-trt"},{"rune":"F","rune_set":"bacs1","hex":"#f73b6a7A","correct":32,"choice":-1,"rt":-1,"accuracy":0,"outcome":"-10","keys":[],"total_keys":0,"block":1,"trial":60,"stimulus":4,"robot":3,"valence":"lose","action":"go","sham":0,"trial_type":"pit-trial","trial_index":92,"time_elapsed":506733,"internal_node_id":"0.0-67.0","task_version":"battery-v0.2-trt"},{"rune":"T","rune_set":"bacs1","hex":"#3366ff99","correct":-1,"choice":32,"rt":664.8700000077952,"accuracy":0,"outcome":"+1","keys":[2166.014999995241],"total_keys":1,"block":1,"trial":61,"stimulus":5,"robot":2,"valence":"win","action":"no-go","sham":0,"trial_type":"pit-trial","trial_index":93,"time_elapsed":510103,"internal_node_id":"0.0-68.0","task_version":"battery-v0.2-trt"},{"rune":"E","rune_set":"bacs1","hex":"#3366ff99","correct":32,"choice":-1,"rt":-1,"accuracy":0,"outcome":"+10","keys":[],"total_keys":0,"block":1,"trial":62,"stimulus":6,"robot":1,"valence":"win","action":"go","sham":1,"trial_type":"pit-trial","trial_index":94,"time_elapsed":514108,"internal_node_id":"0.0-69.0","task_version":"battery-v0.2-trt"},{"rune":"V","rune_set":"bacs1","hex":"#f73b6a7A","correct":-1,"choice":32,"rt":866.9750000117347,"accuracy":0,"outcome":"-10","keys":[2367.3649999982445],"total_keys":1,"block":1,"trial":63,"stimulus":7,"robot":4,"valence":"lose","action":"no-go","sham":0,"trial_type":"pit-trial","trial_index":95,"time_elapsed":517679,"internal_node_id":"0.0-70.0","task_version":"battery-v0.2-trt"},{"rune":"F","rune_set":"bacs1","hex":"#f73b6a7A","correct":32,"choice":32,"rt":671.2550000083866,"accuracy":1,"outcome":"-1","keys":[2172.5900000019465],"total_keys":1,"block":1,"trial":64,"stimulus":4,"robot":3,"valence":"lose","action":"go","sham":0,"trial_type":"pit-trial","trial_index":96,"time_elapsed":521055,"internal_node_id":"0.0-71.0","task_version":"battery-v0.2-trt"},{"rune":"E","rune_set":"bacs1","hex":"#3366ff99","correct":32,"choice":-1,"rt":-1,"accuracy":0,"outcome":"+1","keys":[3324.5200000092154],"total_keys":1,"block":1,"trial":65,"stimulus":6,"robot":1,"valence":"win","action":"go","sham":0,"trial_type":"pit-trial","trial_index":97,"time_elapsed":525059,"internal_node_id":"0.0-72.0","task_version":"battery-v0.2-trt"},{"rune":"F","rune_set":"bacs1","hex":"#f73b6a7A","correct":32,"choice":32,"rt":900.1449999923352,"accuracy":1,"outcome":"-1","keys":[1449.3299999885494,2400.8150000008754],"total_keys":2,"block":1,"trial":66,"stimulus":4,"robot":3,"valence":"lose","action":"go","sham":0,"trial_type":"pit-trial","trial_index":98,"time_elapsed":528663,"internal_node_id":"0.0-73.0","task_version":"battery-v0.2-trt"},{"rune":"T","rune_set":"bacs1","hex":"#3366ff99","correct":-1,"choice":-1,"rt":-1,"accuracy":1,"outcome":"+10","keys":[],"total_keys":0,"block":1,"trial":67,"stimulus":5,"robot":2,"valence":"win","action":"no-go","sham":0,"trial_type":"pit-trial","trial_index":99,"time_elapsed":532667,"internal_node_id":"0.0-74.0","task_version":"battery-v0.2-trt"},{"rune":"V","rune_set":"bacs1","hex":"#f73b6a7A","correct":-1,"choice":-1,"rt":-1,"accuracy":1,"outcome":"-1","keys":[],"total_keys":0,"block":1,"trial":68,"stimulus":7,"robot":4,"valence":"lose","action":"no-go","sham":0,"trial_type":"pit-trial","trial_index":100,"time_elapsed":536670,"internal_node_id":"0.0-75.0","task_version":"battery-v0.2-trt"},{"rune":"E","rune_set":"bacs1","hex":"#3366ff99","correct":32,"choice":-1,"rt":-1,"accuracy":0,"outcome":"+1","keys":[],"total_keys":0,"block":1,"trial":69,"stimulus":6,"robot":1,"valence":"win","action":"go","sham":0,"trial_type":"pit-trial","trial_index":101,"time_elapsed":540675,"internal_node_id":"0.0-76.0","task_version":"battery-v0.2-trt"},{"rune":"V","rune_set":"bacs1","hex":"#f73b6a7A","correct":-1,"choice":32,"rt":1163.5950000054436,"accuracy":0,"outcome":"-1","keys":[2664.75999999966],"total_keys":1,"block":1,"trial":70,"stimulus":7,"robot":4,"valence":"lose","action":"no-go","sham":1,"trial_type":"pit-trial","trial_index":102,"time_elapsed":544542,"internal_node_id":"0.0-77.0","task_version":"battery-v0.2-trt"},{"rune":"F","rune_set":"bacs1","hex":"#f73b6a7A","correct":32,"choice":32,"rt":663.3250000013504,"accuracy":1,"outcome":"-1","keys":[2164.7349999984726],"total_keys":1,"block":1,"trial":71,"stimulus":4,"robot":3,"valence":"lose","action":"go","sham":0,"trial_type":"pit-trial","trial_index":103,"time_elapsed":547910,"internal_node_id":"0.0-78.0","task_version":"battery-v0.2-trt"},{"rune":"T","rune_set":"bacs1","hex":"#3366ff99","correct":-1,"choice":-1,"rt":-1,"accuracy":1,"outcome":"+1","keys":[3365.250000002561],"total_keys":1,"block":1,"trial":72,"stimulus":5,"robot":2,"valence":"win","action":"no-go","sham":1,"trial_type":"pit-trial","trial_index":104,"time_elapsed":551913,"internal_node_id":"0.0-79.0","task_version":"battery-v0.2-trt"},{"rune":"V","rune_set":"bacs1","hex":"#f73b6a7A","correct":-1,"choice":32,"rt":716.9250000006286,"accuracy":0,"outcome":"-10","keys":[2218.1300000083866],"total_keys":1,"block":1,"trial":73,"stimulus":7,"robot":4,"valence":"lose","action":"no-go","sham":0,"trial_type":"pit-trial","trial_index":105,"time_elapsed":555334,"internal_node_id":"0.0-80.0","task_version":"battery-v0.2-trt"},{"rune":"T","rune_set":"bacs1","hex":"#3366ff99","correct":-1,"choice":32,"rt":1152.0199999940814,"accuracy":0,"outcome":"+1","keys":[2652.7249999926426],"total_keys":1,"block":1,"trial":74,"stimulus":5,"robot":2,"valence":"win","action":"no-go","sham":0,"trial_type":"pit-trial","trial_index":106,"time_elapsed":559190,"internal_node_id":"0.0-81.0","task_version":"battery-v0.2-trt"},{"rune":"J","rune_set":"bacs1","hex":"#f73b6a7A","correct":32,"choice":32,"rt":1053.780000002007,"accuracy":1,"outcome":"-1","keys":[2556.9499999983236],"total_keys":1,"block":1,"trial":75,"stimulus":9,"robot":3,"valence":"lose","action":"go","sham":0,"trial_type":"pit-trial","trial_index":107,"time_elapsed":562950,"internal_node_id":"0.0-82.0","task_version":"battery-v0.2-trt"},{"rune":"R","rune_set":"bacs1","hex":"#3366ff99","correct":32,"choice":-1,"rt":-1,"accuracy":0,"outcome":"+1","keys":[],"total_keys":0,"block":1,"trial":76,"stimulus":8,"robot":1,"valence":"win","action":"go","sham":0,"trial_type":"pit-trial","trial_index":108,"time_elapsed":566954,"internal_node_id":"0.0-83.0","task_version":"battery-v0.2-trt"},{"rune":"V","rune_set":"bacs1","hex":"#f73b6a7A","correct":-1,"choice":32,"rt":739.914999998291,"accuracy":0,"outcome":"-10","keys":[2240.990000005695,2840.924999996787],"total_keys":2,"block":1,"trial":77,"stimulus":7,"robot":4,"valence":"lose","action":"no-go","sham":0,"trial_type":"pit-trial","trial_index":109,"time_elapsed":570398,"internal_node_id":"0.0-84.0","task_version":"battery-v0.2-trt"},{"rune":"T","rune_set":"bacs1","hex":"#3366ff99","correct":-1,"choice":-1,"rt":-1,"accuracy":1,"outcome":"+10","keys":[],"total_keys":0,"block":1,"trial":78,"stimulus":5,"robot":2,"valence":"win","action":"no-go","sham":0,"trial_type":"pit-trial","trial_index":110,"time_elapsed":574402,"internal_node_id":"0.0-85.0","task_version":"battery-v0.2-trt"},{"rune":"R","rune_set":"bacs1","hex":"#3366ff99","correct":32,"choice":-1,"rt":-1,"accuracy":0,"outcome":"+10","keys":[],"total_keys":0,"block":1,"trial":79,"stimulus":8,"robot":1,"valence":"win","action":"go","sham":1,"trial_type":"pit-trial","trial_index":111,"time_elapsed":578407,"internal_node_id":"0.0-86.0","task_version":"battery-v0.2-trt"},{"rune":"J","rune_set":"bacs1","hex":"#f73b6a7A","correct":32,"choice":-1,"rt":-1,"accuracy":0,"outcome":"-10","keys":[],"total_keys":0,"block":1,"trial":80,"stimulus":9,"robot":3,"valence":"lose","action":"go","sham":0,"trial_type":"pit-trial","trial_index":112,"time_elapsed":582412,"internal_node_id":"0.0-87.0","task_version":"battery-v0.2-trt"},{"rune":"R","rune_set":"bacs1","hex":"#3366ff99","correct":32,"choice":-1,"rt":-1,"accuracy":0,"outcome":"+10","keys":[],"total_keys":0,"block":1,"trial":81,"stimulus":8,"robot":1,"valence":"win","action":"go","sham":1,"trial_type":"pit-trial","trial_index":113,"time_elapsed":586415,"internal_node_id":"0.0-88.0","task_version":"battery-v0.2-trt"},{"rune":"J","rune_set":"bacs1","hex":"#f73b6a7A","correct":32,"choice":32,"rt":390.22499999555293,"accuracy":1,"outcome":"-1","keys":[1891.9350000069244],"total_keys":1,"block":1,"trial":82,"stimulus":9,"robot":3,"valence":"lose","action":"go","sham":0,"trial_type":"pit-trial","trial_index":114,"time_elapsed":589511,"internal_node_id":"0.0-89.0","task_version":"battery-v0.2-trt"},{"rune":"T","rune_set":"bacs1","hex":"#3366ff99","correct":-1,"choice":-1,"rt":-1,"accuracy":1,"outcome":"+10","keys":[],"total_keys":0,"block":1,"trial":83,"stimulus":5,"robot":2,"valence":"win","action":"no-go","sham":0,"trial_type":"pit-trial","trial_index":115,"time_elapsed":593514,"internal_node_id":"0.0-90.0","task_version":"battery-v0.2-trt"},{"rune":"V","rune_set":"bacs1","hex":"#f73b6a7A","correct":-1,"choice":32,"rt":699.1300000081537,"accuracy":0,"outcome":"-10","keys":[2200.3700000059325],"total_keys":1,"block":1,"trial":84,"stimulus":7,"robot":4,"valence":"lose","action":"no-go","sham":0,"trial_type":"pit-trial","trial_index":116,"time_elapsed":596917,"internal_node_id":"0.0-91.0","task_version":"battery-v0.2-trt"},{"rune":"V","rune_set":"bacs1","hex":"#f73b6a7A","correct":-1,"choice":-1,"rt":-1,"accuracy":1,"outcome":"-1","keys":[],"total_keys":0,"block":1,"trial":85,"stimulus":7,"robot":4,"valence":"lose","action":"no-go","sham":0,"trial_type":"pit-trial","trial_index":117,"time_elapsed":600922,"internal_node_id":"0.0-92.0","task_version":"battery-v0.2-trt"},{"rune":"R","rune_set":"bacs1","hex":"#3366ff99","correct":32,"choice":-1,"rt":-1,"accuracy":0,"outcome":"+10","keys":[],"total_keys":0,"block":1,"trial":86,"stimulus":8,"robot":1,"valence":"win","action":"go","sham":1,"trial_type":"pit-trial","trial_index":118,"time_elapsed":604929,"internal_node_id":"0.0-93.0","task_version":"battery-v0.2-trt"},{"rune":"J","rune_set":"bacs1","hex":"#f73b6a7A","correct":32,"choice":32,"rt":738.8349999964703,"accuracy":1,"outcome":"-1","keys":[2241.3999999989755],"total_keys":1,"block":1,"trial":87,"stimulus":9,"robot":3,"valence":"lose","action":"go","sham":0,"trial_type":"pit-trial","trial_index":119,"time_elapsed":608374,"internal_node_id":"0.0-94.0","task_version":"battery-v0.2-trt"},{"rune":"T","rune_set":"bacs1","hex":"#3366ff99","correct":-1,"choice":-1,"rt":-1,"accuracy":1,"outcome":"+10","keys":[],"total_keys":0,"block":1,"trial":88,"stimulus":5,"robot":2,"valence":"win","action":"no-go","sham":0,"trial_type":"pit-trial","trial_index":120,"time_elapsed":612378,"internal_node_id":"0.0-95.0","task_version":"battery-v0.2-trt"},{"rune":"R","rune_set":"bacs1","hex":"#3366ff99","correct":32,"choice":-1,"rt":-1,"accuracy":0,"outcome":"+1","keys":[],"total_keys":0,"block":1,"trial":89,"stimulus":8,"robot":1,"valence":"win","action":"go","sham":0,"trial_type":"pit-trial","trial_index":121,"time_elapsed":616382,"internal_node_id":"0.0-96.0","task_version":"battery-v0.2-trt"},{"rune":"B","rune_set":"bacs1","hex":"#3366ff99","correct":-1,"choice":-1,"rt":-1,"accuracy":1,"outcome":"+10","keys":[],"total_keys":0,"block":1,"trial":90,"stimulus":11,"robot":2,"valence":"win","action":"no-go","sham":0,"trial_type":"pit-trial","trial_index":122,"time_elapsed":620386,"internal_node_id":"0.0-97.0","task_version":"battery-v0.2-trt"},{"rune":"Z","rune_set":"bacs1","hex":"#f73b6a7A","correct":32,"choice":32,"rt":883.7700000003679,"accuracy":1,"outcome":"-1","keys":[2384.2900000017835],"total_keys":1,"block":1,"trial":91,"stimulus":10,"robot":3,"valence":"lose","action":"go","sham":0,"trial_type":"pit-trial","trial_index":123,"time_elapsed":623973,"internal_node_id":"0.0-98.0","task_version":"battery-v0.2-trt"},{"rune":"J","rune_set":"bacs1","hex":"#f73b6a7A","correct":32,"choice":32,"rt":582.0099999982631,"accuracy":1,"outcome":"-1","keys":[2084.3349999922793],"total_keys":1,"block":1,"trial":92,"stimulus":9,"robot":3,"valence":"lose","action":"go","sham":0,"trial_type":"pit-trial","trial_index":124,"time_elapsed":627261,"internal_node_id":"0.0-99.0","task_version":"battery-v0.2-trt"},{"rune":"J","rune_set":"bacs1","hex":"#f73b6a7A","correct":32,"choice":32,"rt":632.6200000039535,"accuracy":1,"outcome":"-1","keys":[2133.079999999609],"total_keys":1,"block":1,"trial":93,"stimulus":9,"robot":3,"valence":"lose","action":"go","sham":0,"trial_type":"pit-trial","trial_index":125,"time_elapsed":630598,"internal_node_id":"0.0-100.0","task_version":"battery-v0.2-trt"},{"rune":"R","rune_set":"bacs1","hex":"#3366ff99","correct":32,"choice":-1,"rt":-1,"accuracy":0,"outcome":"+10","keys":[],"total_keys":0,"block":1,"trial":94,"stimulus":8,"robot":1,"valence":"win","action":"go","sham":1,"trial_type":"pit-trial","trial_index":126,"time_elapsed":634619,"internal_node_id":"0.0-101.0","task_version":"battery-v0.2-trt"},{"rune":"Z","rune_set":"bacs1","hex":"#f73b6a7A","correct":32,"choice":32,"rt":705.7599999970989,"accuracy":1,"outcome":"-1","keys":[2206.000000005588],"total_keys":1,"block":1,"trial":95,"stimulus":10,"robot":3,"valence":"lose","action":"go","sham":0,"trial_type":"pit-trial","trial_index":127,"time_elapsed":638030,"internal_node_id":"0.0-102.0","task_version":"battery-v0.2-trt"},{"rune":"B","rune_set":"bacs1","hex":"#3366ff99","correct":-1,"choice":-1,"rt":-1,"accuracy":1,"outcome":"+10","keys":[],"total_keys":0,"block":1,"trial":96,"stimulus":11,"robot":2,"valence":"win","action":"no-go","sham":0,"trial_type":"pit-trial","trial_index":128,"time_elapsed":642034,"internal_node_id":"0.0-103.0","task_version":"battery-v0.2-trt"},{"rune":"J","rune_set":"bacs1","hex":"#f73b6a7A","correct":32,"choice":32,"rt":530.7949999987613,"accuracy":1,"outcome":"-1","keys":[2031.8550000083633],"total_keys":1,"block":1,"trial":97,"stimulus":9,"robot":3,"valence":"lose","action":"go","sham":0,"trial_type":"pit-trial","trial_index":129,"time_elapsed":645269,"internal_node_id":"0.0-104.0","task_version":"battery-v0.2-trt"},{"rune":"R","rune_set":"bacs1","hex":"#3366ff99","correct":32,"choice":-1,"rt":-1,"accuracy":0,"outcome":"+1","keys":[],"total_keys":0,"block":1,"trial":98,"stimulus":8,"robot":1,"valence":"win","action":"go","sham":0,"trial_type":"pit-trial","trial_index":130,"time_elapsed":649273,"internal_node_id":"0.0-105.0","task_version":"battery-v0.2-trt"},{"rune":"Z","rune_set":"bacs1","hex":"#f73b6a7A","correct":32,"choice":32,"rt":932.4550000019372,"accuracy":1,"outcome":"-1","keys":[2433.0449999979464],"total_keys":1,"block":1,"trial":99,"stimulus":10,"robot":3,"valence":"lose","action":"go","sham":0,"trial_type":"pit-trial","trial_index":131,"time_elapsed":652909,"internal_node_id":"0.0-106.0","task_version":"battery-v0.2-trt"},{"rune":"B","rune_set":"bacs1","hex":"#3366ff99","correct":-1,"choice":-1,"rt":-1,"accuracy":1,"outcome":"+10","keys":[],"total_keys":0,"block":1,"trial":100,"stimulus":11,"robot":2,"valence":"win","action":"no-go","sham":0,"trial_type":"pit-trial","trial_index":132,"time_elapsed":656912,"internal_node_id":"0.0-107.0","task_version":"battery-v0.2-trt"},{"rune":"R","rune_set":"bacs1","hex":"#3366ff99","correct":32,"choice":-1,"rt":-1,"accuracy":0,"outcome":"+1","keys":[],"total_keys":0,"block":1,"trial":101,"stimulus":8,"robot":1,"valence":"win","action":"go","sham":0,"trial_type":"pit-trial","trial_index":133,"time_elapsed":660916,"internal_node_id":"0.0-108.0","task_version":"battery-v0.2-trt"},{"rune":"Z","rune_set":"bacs1","hex":"#f73b6a7A","correct":32,"choice":32,"rt":713.8699999923119,"accuracy":1,"outcome":"-1","keys":[2214.0400000062073],"total_keys":1,"block":1,"trial":102,"stimulus":10,"robot":3,"valence":"lose","action":"go","sham":0,"trial_type":"pit-trial","trial_index":134,"time_elapsed":664333,"internal_node_id":"0.0-109.0","task_version":"battery-v0.2-trt"},{"rune":"J","rune_set":"bacs1","hex":"#f73b6a7A","correct":32,"choice":32,"rt":616.199999989476,"accuracy":1,"outcome":"-10","keys":[2117.259999999078],"total_keys":1,"block":1,"trial":103,"stimulus":9,"robot":3,"valence":"lose","action":"go","sham":1,"trial_type":"pit-trial","trial_index":135,"time_elapsed":667653,"internal_node_id":"0.0-110.0","task_version":"battery-v0.2-trt"},{"rune":"B","rune_set":"bacs1","hex":"#3366ff99","correct":-1,"choice":-1,"rt":-1,"accuracy":1,"outcome":"+10","keys":[],"total_keys":0,"block":1,"trial":104,"stimulus":11,"robot":2,"valence":"win","action":"no-go","sham":0,"trial_type":"pit-trial","trial_index":136,"time_elapsed":671658,"internal_node_id":"0.0-111.0","task_version":"battery-v0.2-trt"},{"rune":"B","rune_set":"bacs1","hex":"#3366ff99","correct":-1,"choice":-1,"rt":-1,"accuracy":1,"outcome":"+1","keys":[],"total_keys":0,"block":1,"trial":105,"stimulus":11,"robot":2,"valence":"win","action":"no-go","sham":1,"trial_type":"pit-trial","trial_index":137,"time_elapsed":675662,"internal_node_id":"0.0-112.0","task_version":"battery-v0.2-trt"},{"rune":"R","rune_set":"bacs1","hex":"#3366ff99","correct":32,"choice":-1,"rt":-1,"accuracy":0,"outcome":"+1","keys":[],"total_keys":0,"block":1,"trial":106,"stimulus":8,"robot":1,"valence":"win","action":"go","sham":0,"trial_type":"pit-trial","trial_index":138,"time_elapsed":679668,"internal_node_id":"0.0-113.0","task_version":"battery-v0.2-trt"},{"rune":"J","rune_set":"bacs1","hex":"#f73b6a7A","correct":32,"choice":32,"rt":536.3450000004377,"accuracy":1,"outcome":"-1","keys":[2037.5349999958416],"total_keys":1,"block":1,"trial":107,"stimulus":9,"robot":3,"valence":"lose","action":"go","sham":0,"trial_type":"pit-trial","trial_index":139,"time_elapsed":682909,"internal_node_id":"0.0-114.0","task_version":"battery-v0.2-trt"},{"rune":"Z","rune_set":"bacs1","hex":"#f73b6a7A","correct":32,"choice":32,"rt":760.1900000008754,"accuracy":1,"outcome":"-1","keys":[2260.8349999936763],"total_keys":1,"block":1,"trial":108,"stimulus":10,"robot":3,"valence":"lose","action":"go","sham":0,"trial_type":"pit-trial","trial_index":140,"time_elapsed":686374,"internal_node_id":"0.0-115.0","task_version":"battery-v0.2-trt"},{"rune":"J","rune_set":"bacs1","hex":"#f73b6a7A","correct":32,"choice":32,"rt":495.67499999830034,"accuracy":1,"outcome":"-1","keys":[1996.0949999949662],"total_keys":1,"block":1,"trial":109,"stimulus":9,"robot":3,"valence":"lose","action":"go","sham":0,"trial_type":"pit-trial","trial_index":141,"time_elapsed":689573,"internal_node_id":"0.0-116.0","task_version":"battery-v0.2-trt"},{"rune":"R","rune_set":"bacs1","hex":"#3366ff99","correct":32,"choice":32,"rt":783.2900000066729,"accuracy":1,"outcome":"+1","keys":[2284.220000001369],"total_keys":1,"block":1,"trial":110,"stimulus":8,"robot":1,"valence":"win","action":"go","sham":1,"trial_type":"pit-trial","trial_index":142,"time_elapsed":693061,"internal_node_id":"0.0-117.0","task_version":"battery-v0.2-trt"},{"rune":"B","rune_set":"bacs1","hex":"#3366ff99","correct":-1,"choice":-1,"rt":-1,"accuracy":1,"outcome":"+1","keys":[],"total_keys":0,"block":1,"trial":111,"stimulus":11,"robot":2,"valence":"win","action":"no-go","sham":1,"trial_type":"pit-trial","trial_index":143,"time_elapsed":697065,"internal_node_id":"0.0-118.0","task_version":"battery-v0.2-trt"},{"rune":"Z","rune_set":"bacs1","hex":"#f73b6a7A","correct":32,"choice":32,"rt":939.6750000014435,"accuracy":1,"outcome":"-1","keys":[2439.7849999950267],"total_keys":1,"block":1,"trial":112,"stimulus":10,"robot":3,"valence":"lose","action":"go","sham":0,"trial_type":"pit-trial","trial_index":144,"time_elapsed":700709,"internal_node_id":"0.0-119.0","task_version":"battery-v0.2-trt"},{"rune":"R","rune_set":"bacs1","hex":"#3366ff99","correct":32,"choice":-1,"rt":-1,"accuracy":0,"outcome":"+1","keys":[],"total_keys":0,"block":1,"trial":113,"stimulus":8,"robot":1,"valence":"win","action":"go","sham":0,"trial_type":"pit-trial","trial_index":145,"time_elapsed":704714,"internal_node_id":"0.0-120.0","task_version":"battery-v0.2-trt"},{"rune":"J","rune_set":"bacs1","hex":"#f73b6a7A","correct":32,"choice":32,"rt":514.0600000013364,"accuracy":1,"outcome":"-1","keys":[2015.1899999909801],"total_keys":1,"block":1,"trial":114,"stimulus":9,"robot":3,"valence":"lose","action":"go","sham":0,"trial_type":"pit-trial","trial_index":146,"time_elapsed":707933,"internal_node_id":"0.0-121.0","task_version":"battery-v0.2-trt"},{"rune":"Z","rune_set":"bacs1","hex":"#f73b6a7A","correct":32,"choice":32,"rt":559.9350000120467,"accuracy":1,"outcome":"-1","keys":[2060.524999993504],"total_keys":1,"block":1,"trial":115,"stimulus":10,"robot":3,"valence":"lose","action":"go","sham":0,"trial_type":"pit-trial","trial_index":147,"time_elapsed":711196,"internal_node_id":"0.0-122.0","task_version":"battery-v0.2-trt"},{"rune":"B","rune_set":"bacs1","hex":"#3366ff99","correct":-1,"choice":32,"rt":728.7649999925634,"accuracy":0,"outcome":"+1","keys":[2229.2949999973644],"total_keys":1,"block":1,"trial":116,"stimulus":11,"robot":2,"valence":"win","action":"no-go","sham":0,"trial_type":"pit-trial","trial_index":148,"time_elapsed":714630,"internal_node_id":"0.0-123.0","task_version":"battery-v0.2-trt"},{"rune":"B","rune_set":"bacs1","hex":"#3366ff99","correct":-1,"choice":-1,"rt":-1,"accuracy":1,"outcome":"+10","keys":[],"total_keys":0,"block":1,"trial":117,"stimulus":11,"robot":2,"valence":"win","action":"no-go","sham":0,"trial_type":"pit-trial","trial_index":149,"time_elapsed":718635,"internal_node_id":"0.0-124.0","task_version":"battery-v0.2-trt"},{"rune":"J","rune_set":"bacs1","hex":"#f73b6a7A","correct":32,"choice":32,"rt":585.0400000053924,"accuracy":1,"outcome":"-1","keys":[2086.059999986901],"total_keys":1,"block":1,"trial":118,"stimulus":9,"robot":3,"valence":"lose","action":"go","sham":0,"trial_type":"pit-trial","trial_index":150,"time_elapsed":721925,"internal_node_id":"0.0-125.0","task_version":"battery-v0.2-trt"},{"rune":"Z","rune_set":"bacs1","hex":"#f73b6a7A","correct":32,"choice":32,"rt":551.3849999988452,"accuracy":1,"outcome":"-1","keys":[2052.1949999965727],"total_keys":1,"block":1,"trial":119,"stimulus":10,"robot":3,"valence":"lose","action":"go","sham":0,"trial_type":"pit-trial","trial_index":151,"time_elapsed":725180,"internal_node_id":"0.0-126.0","task_version":"battery-v0.2-trt"},{"rune":"R","rune_set":"bacs1","hex":"#3366ff99","correct":32,"choice":32,"rt":559.529999998631,"accuracy":1,"outcome":"+10","keys":[2060.844999999972],"total_keys":1,"block":1,"trial":120,"stimulus":8,"robot":1,"valence":"win","action":"go","sham":0,"trial_type":"pit-trial","trial_index":152,"time_elapsed":728445,"internal_node_id":"0.0-127.0","task_version":"battery-v0.2-trt"},{"view_history":"[{\"page_index\":0,\"viewing_time\":21099.519999988843},{\"page_index\":1,\"viewing_time\":2445.045000000391}]","rt":23544.994999989285,"trial_type":"pit-instructions","trial_index":153,"time_elapsed":751992,"internal_node_id":"0.0-128.0","task_version":"battery-v0.2-trt"},{"rune":"Y","rune_set":"bacs1","hex":"#3366ff99","correct":-1,"choice":32,"rt":1018.4600000065984,"accuracy":0,"outcome":"+1","keys":[2519.540000008419],"total_keys":1,"block":2,"trial":121,"stimulus":0,"robot":2,"valence":"win","action":"no-go","sham":0,"trial_type":"pit-trial","trial_index":154,"time_elapsed":755717,"internal_node_id":"0.0-129.0","task_version":"battery-v0.2-trt"},{"rune":"H","rune_set":"bacs1","hex":"#3366ff99","correct":32,"choice":-1,"rt":-1,"accuracy":0,"outcome":"+1","keys":[],"total_keys":0,"block":2,"trial":122,"stimulus":1,"robot":1,"valence":"win","action":"go","sham":0,"trial_type":"pit-trial","trial_index":155,"time_elapsed":759721,"internal_node_id":"0.0-130.0","task_version":"battery-v0.2-trt"},{"rune":"P","rune_set":"bacs1","hex":"#f73b6a7A","correct":-1,"choice":32,"rt":715.2299999870593,"accuracy":0,"outcome":"-10","keys":[2215.779999998631],"total_keys":1,"block":2,"trial":123,"stimulus":2,"robot":4,"valence":"lose","action":"no-go","sham":0,"trial_type":"pit-trial","trial_index":156,"time_elapsed":763140,"internal_node_id":"0.0-131.0","task_version":"battery-v0.2-trt"},{"rune":"M","rune_set":"bacs1","hex":"#3366ff99","correct":32,"choice":-1,"rt":-1,"accuracy":0,"outcome":"+1","keys":[],"total_keys":0,"block":2,"trial":124,"stimulus":3,"robot":1,"valence":"win","action":"go","sham":0,"trial_type":"pit-trial","trial_index":157,"time_elapsed":767144,"internal_node_id":"0.0-132.0","task_version":"battery-v0.2-trt"},{"rune":"H","rune_set":"bacs1","hex":"#3366ff99","correct":32,"choice":-1,"rt":-1,"accuracy":0,"outcome":"+1","keys":[],"total_keys":0,"block":2,"trial":125,"stimulus":1,"robot":1,"valence":"win","action":"go","sham":0,"trial_type":"pit-trial","trial_index":158,"time_elapsed":771148,"internal_node_id":"0.0-133.0","task_version":"battery-v0.2-trt"},{"rune":"M","rune_set":"bacs1","hex":"#3366ff99","correct":32,"choice":-1,"rt":-1,"accuracy":0,"outcome":"+10","keys":[],"total_keys":0,"block":2,"trial":126,"stimulus":3,"robot":1,"valence":"win","action":"go","sham":1,"trial_type":"pit-trial","trial_index":159,"time_elapsed":775152,"internal_node_id":"0.0-134.0","task_version":"battery-v0.2-trt"},{"rune":"Y","rune_set":"bacs1","hex":"#3366ff99","correct":-1,"choice":-1,"rt":-1,"accuracy":1,"outcome":"+10","keys":[],"total_keys":0,"block":2,"trial":127,"stimulus":0,"robot":2,"valence":"win","action":"no-go","sham":0,"trial_type":"pit-trial","trial_index":160,"time_elapsed":779157,"internal_node_id":"0.0-135.0","task_version":"battery-v0.2-trt"},{"rune":"P","rune_set":"bacs1","hex":"#f73b6a7A","correct":-1,"choice":32,"rt":559.0450000017881,"accuracy":0,"outcome":"-10","keys":[2059.27499999234],"total_keys":1,"block":2,"trial":128,"stimulus":2,"robot":4,"valence":"lose","action":"no-go","sham":0,"trial_type":"pit-trial","trial_index":161,"time_elapsed":782420,"internal_node_id":"0.0-136.0","task_version":"battery-v0.2-trt"},{"rune":"M","rune_set":"bacs1","hex":"#3366ff99","correct":32,"choice":-1,"rt":-1,"accuracy":0,"outcome":"+1","keys":[],"total_keys":0,"block":2,"trial":129,"stimulus":3,"robot":1,"valence":"win","action":"go","sham":0,"trial_type":"pit-trial","trial_index":162,"time_elapsed":786422,"internal_node_id":"0.0-137.0","task_version":"battery-v0.2-trt"},{"rune":"Y","rune_set":"bacs1","hex":"#3366ff99","correct":-1,"choice":32,"rt":1133.2899999979418,"accuracy":0,"outcome":"+10","keys":[2634.1949999914505],"total_keys":1,"block":2,"trial":130,"stimulus":0,"robot":2,"valence":"win","action":"no-go","sham":1,"trial_type":"pit-trial","trial_index":163,"time_elapsed":790260,"internal_node_id":"0.0-138.0","task_version":"battery-v0.2-trt"},{"rune":"P","rune_set":"bacs1","hex":"#f73b6a7A","correct":-1,"choice":-1,"rt":-1,"accuracy":1,"outcome":"-1","keys":[],"total_keys":0,"block":2,"trial":131,"stimulus":2,"robot":4,"valence":"lose","action":"no-go","sham":0,"trial_type":"pit-trial","trial_index":164,"time_elapsed":794263,"internal_node_id":"0.0-139.0","task_version":"battery-v0.2-trt"},{"rune":"H","rune_set":"bacs1","hex":"#3366ff99","correct":32,"choice":-1,"rt":-1,"accuracy":0,"outcome":"+1","keys":[],"total_keys":0,"block":2,"trial":132,"stimulus":1,"robot":1,"valence":"win","action":"go","sham":0,"trial_type":"pit-trial","trial_index":165,"time_elapsed":798267,"internal_node_id":"0.0-140.0","task_version":"battery-v0.2-trt"},{"rune":"P","rune_set":"bacs1","hex":"#f73b6a7A","correct":-1,"choice":-1,"rt":-1,"accuracy":1,"outcome":"-1","keys":[3077.980000001844],"total_keys":1,"block":2,"trial":133,"stimulus":2,"robot":4,"valence":"lose","action":"no-go","sham":0,"trial_type":"pit-trial","trial_index":166,"time_elapsed":802270,"internal_node_id":"0.0-141.0","task_version":"battery-v0.2-trt"},{"rune":"M","rune_set":"bacs1","hex":"#3366ff99","correct":32,"choice":-1,"rt":-1,"accuracy":0,"outcome":"+1","keys":[],"total_keys":0,"block":2,"trial":134,"stimulus":3,"robot":1,"valence":"win","action":"go","sham":0,"trial_type":"pit-trial","trial_index":167,"time_elapsed":806274,"internal_node_id":"0.0-142.0","task_version":"battery-v0.2-trt"},{"rune":"Y","rune_set":"bacs1","hex":"#3366ff99","correct":-1,"choice":32,"rt":641.0449999966659,"accuracy":0,"outcome":"+1","keys":[2142.2250000032363],"total_keys":1,"block":2,"trial":135,"stimulus":0,"robot":2,"valence":"win","action":"no-go","sham":0,"trial_type":"pit-trial","trial_index":168,"time_elapsed":809622,"internal_node_id":"0.0-143.0","task_version":"battery-v0.2-trt"},{"rune":"H","rune_set":"bacs1","hex":"#3366ff99","correct":32,"choice":32,"rt":667.8650000103517,"accuracy":1,"outcome":"+10","keys":[2168.9749999932246],"total_keys":1,"block":2,"trial":136,"stimulus":1,"robot":1,"valence":"win","action":"go","sham":0,"trial_type":"pit-trial","trial_index":169,"time_elapsed":812995,"internal_node_id":"0.0-144.0","task_version":"battery-v0.2-trt"},{"rune":"M","rune_set":"bacs1","hex":"#3366ff99","correct":32,"choice":32,"rt":575.5400000052759,"accuracy":1,"outcome":"+10","keys":[2076.954999996815],"total_keys":1,"block":2,"trial":137,"stimulus":3,"robot":1,"valence":"win","action":"go","sham":0,"trial_type":"pit-trial","trial_index":170,"time_elapsed":816275,"internal_node_id":"0.0-145.0","task_version":"battery-v0.2-trt"},{"rune":"H","rune_set":"bacs1","hex":"#3366ff99","correct":32,"choice":32,"rt":518.9749999990454,"accuracy":1,"outcome":"+10","keys":[2019.9950000096578],"total_keys":1,"block":2,"trial":138,"stimulus":1,"robot":1,"valence":"win","action":"go","sham":0,"trial_type":"pit-trial","trial_index":171,"time_elapsed":819499,"internal_node_id":"0.0-146.0","task_version":"battery-v0.2-trt"},{"rune":"P","rune_set":"bacs1","hex":"#f73b6a7A","correct":-1,"choice":-1,"rt":-1,"accuracy":1,"outcome":"-1","keys":[],"total_keys":0,"block":2,"trial":139,"stimulus":2,"robot":4,"valence":"lose","action":"no-go","sham":0,"trial_type":"pit-trial","trial_index":172,"time_elapsed":823502,"internal_node_id":"0.0-147.0","task_version":"battery-v0.2-trt"},{"rune":"Y","rune_set":"bacs1","hex":"#3366ff99","correct":-1,"choice":32,"rt":501.38000000151806,"accuracy":0,"outcome":"+10","keys":[2002.0599999988917],"total_keys":1,"block":2,"trial":140,"stimulus":0,"robot":2,"valence":"win","action":"no-go","sham":1,"trial_type":"pit-trial","trial_index":173,"time_elapsed":826708,"internal_node_id":"0.0-148.0","task_version":"battery-v0.2-trt"},{"rune":"H","rune_set":"bacs1","hex":"#3366ff99","correct":32,"choice":32,"rt":591.6050000087125,"accuracy":1,"outcome":"+10","keys":[2091.8349999992643],"total_keys":1,"block":2,"trial":141,"stimulus":1,"robot":1,"valence":"win","action":"go","sham":0,"trial_type":"pit-trial","trial_index":174,"time_elapsed":830003,"internal_node_id":"0.0-149.0","task_version":"battery-v0.2-trt"},{"rune":"M","rune_set":"bacs1","hex":"#3366ff99","correct":32,"choice":32,"rt":695.8200000080978,"accuracy":1,"outcome":"+10","keys":[2196.9849999877624],"total_keys":1,"block":2,"trial":142,"stimulus":3,"robot":1,"valence":"win","action":"go","sham":0,"trial_type":"pit-trial","trial_index":175,"time_elapsed":833403,"internal_node_id":"0.0-150.0","task_version":"battery-v0.2-trt"},{"rune":"P","rune_set":"bacs1","hex":"#f73b6a7A","correct":-1,"choice":-1,"rt":-1,"accuracy":1,"outcome":"-10","keys":[3685.0049999920884],"total_keys":1,"block":2,"trial":143,"stimulus":2,"robot":4,"valence":"lose","action":"no-go","sham":1,"trial_type":"pit-trial","trial_index":176,"time_elapsed":837407,"internal_node_id":"0.0-151.0","task_version":"battery-v0.2-trt"},{"rune":"Y","rune_set":"bacs1","hex":"#3366ff99","correct":-1,"choice":32,"rt":635.8599999948638,"accuracy":0,"outcome":"+1","keys":[2136.515000005602],"total_keys":1,"block":2,"trial":144,"stimulus":0,"robot":2,"valence":"win","action":"no-go","sham":0,"trial_type":"pit-trial","trial_index":177,"time_elapsed":840747,"internal_node_id":"0.0-152.0","task_version":"battery-v0.2-trt"},{"rune":"Y","rune_set":"bacs1","hex":"#3366ff99","correct":-1,"choice":32,"rt":704.1349999926751,"accuracy":0,"outcome":"+1","keys":[2204.8800000047777],"total_keys":1,"block":2,"trial":145,"stimulus":0,"robot":2,"valence":"win","action":"no-go","sham":0,"trial_type":"pit-trial","trial_index":178,"time_elapsed":844156,"internal_node_id":"0.0-153.0","task_version":"battery-v0.2-trt"},{"rune":"M","rune_set":"bacs1","hex":"#3366ff99","correct":32,"choice":-1,"rt":-1,"accuracy":0,"outcome":"+1","keys":[3579.840000005788],"total_keys":1,"block":2,"trial":146,"stimulus":3,"robot":1,"valence":"win","action":"go","sham":0,"trial_type":"pit-trial","trial_index":179,"time_elapsed":848160,"internal_node_id":"0.0-154.0","task_version":"battery-v0.2-trt"},{"rune":"P","rune_set":"bacs1","hex":"#f73b6a7A","correct":-1,"choice":32,"rt":386.29999999830034,"accuracy":0,"outcome":"-1","keys":[1886.914999995497],"total_keys":1,"block":2,"trial":147,"stimulus":2,"robot":4,"valence":"lose","action":"no-go","sham":1,"trial_type":"pit-trial","trial_index":180,"time_elapsed":851251,"internal_node_id":"0.0-155.0","task_version":"battery-v0.2-trt"},{"rune":"H","rune_set":"bacs1","hex":"#3366ff99","correct":32,"choice":32,"rt":488.2800000050338,"accuracy":1,"outcome":"+10","keys":[1989.3400000000838],"total_keys":1,"block":2,"trial":148,"stimulus":1,"robot":1,"valence":"win","action":"go","sham":0,"trial_type":"pit-trial","trial_index":181,"time_elapsed":854444,"internal_node_id":"0.0-156.0","task_version":"battery-v0.2-trt"},{"rune":"Y","rune_set":"bacs1","hex":"#3366ff99","correct":-1,"choice":32,"rt":567.4899999867193,"accuracy":0,"outcome":"+1","keys":[2068.2249999954365],"total_keys":1,"block":2,"trial":149,"stimulus":0,"robot":2,"valence":"win","action":"no-go","sham":0,"trial_type":"pit-trial","trial_index":182,"time_elapsed":857715,"internal_node_id":"0.0-157.0","task_version":"battery-v0.2-trt"},{"rune":"M","rune_set":"bacs1","hex":"#3366ff99","correct":32,"choice":32,"rt":453.6299999890616,"accuracy":1,"outcome":"+10","keys":[1953.959999998915],"total_keys":1,"block":2,"trial":150,"stimulus":3,"robot":1,"valence":"win","action":"go","sham":0,"trial_type":"pit-trial","trial_index":183,"time_elapsed":860875,"internal_node_id":"0.0-158.0","task_version":"battery-v0.2-trt"},{"rune":"P","rune_set":"bacs1","hex":"#f73b6a7A","correct":-1,"choice":32,"rt":983.7799999950221,"accuracy":0,"outcome":"-10","keys":[2485.094999996363],"total_keys":1,"block":2,"trial":151,"stimulus":2,"robot":4,"valence":"lose","action":"no-go","sham":0,"trial_type":"pit-trial","trial_index":184,"time_elapsed":864564,"internal_node_id":"0.0-159.0","task_version":"battery-v0.2-trt"},{"rune":"H","rune_set":"bacs1","hex":"#3366ff99","correct":32,"choice":-1,"rt":-1,"accuracy":0,"outcome":"+1","keys":[3131.600000007893],"total_keys":1,"block":2,"trial":152,"stimulus":1,"robot":1,"valence":"win","action":"go","sham":0,"trial_type":"pit-trial","trial_index":185,"time_elapsed":868569,"internal_node_id":"0.0-160.0","task_version":"battery-v0.2-trt"},{"rune":"M","rune_set":"bacs1","hex":"#3366ff99","correct":32,"choice":32,"rt":1233.7100000004284,"accuracy":1,"outcome":"+10","keys":[2734.905000004801],"total_keys":1,"block":2,"trial":153,"stimulus":3,"robot":1,"valence":"win","action":"go","sham":0,"trial_type":"pit-trial","trial_index":186,"time_elapsed":872507,"internal_node_id":"0.0-161.0","task_version":"battery-v0.2-trt"},{"rune":"Y","rune_set":"bacs1","hex":"#3366ff99","correct":-1,"choice":32,"rt":559.4199999904959,"accuracy":0,"outcome":"+1","keys":[2059.724999999162],"total_keys":1,"block":2,"trial":154,"stimulus":0,"robot":2,"valence":"win","action":"no-go","sham":0,"trial_type":"pit-trial","trial_index":187,"time_elapsed":875770,"internal_node_id":"0.0-162.0","task_version":"battery-v0.2-trt"},{"rune":"P","rune_set":"bacs1","hex":"#f73b6a7A","correct":-1,"choice":32,"rt":784.574999997858,"accuracy":0,"outcome":"-10","keys":[2285.185000000638],"total_keys":1,"block":2,"trial":155,"stimulus":2,"robot":4,"valence":"lose","action":"no-go","sham":0,"trial_type":"pit-trial","trial_index":188,"time_elapsed":879258,"internal_node_id":"0.0-163.0","task_version":"battery-v0.2-trt"},{"rune":"U","rune_set":"bacs1","hex":"#3366ff99","correct":32,"choice":32,"rt":863.9750000002095,"accuracy":1,"outcome":"+1","keys":[2365.300000004936],"total_keys":1,"block":2,"trial":156,"stimulus":4,"robot":1,"valence":"win","action":"go","sham":1,"trial_type":"pit-trial","trial_index":189,"time_elapsed":882827,"internal_node_id":"0.0-164.0","task_version":"battery-v0.2-trt"},{"rune":"P","rune_set":"bacs1","hex":"#f73b6a7A","correct":-1,"choice":-1,"rt":-1,"accuracy":1,"outcome":"-1","keys":[],"total_keys":0,"block":2,"trial":157,"stimulus":2,"robot":4,"valence":"lose","action":"no-go","sham":0,"trial_type":"pit-trial","trial_index":190,"time_elapsed":886831,"internal_node_id":"0.0-165.0","task_version":"battery-v0.2-trt"},{"rune":"U","rune_set":"bacs1","hex":"#3366ff99","correct":32,"choice":32,"rt":644.1500000073574,"accuracy":1,"outcome":"+10","keys":[2144.4550000014715],"total_keys":1,"block":2,"trial":158,"stimulus":4,"robot":1,"valence":"win","action":"go","sham":0,"trial_type":"pit-trial","trial_index":191,"time_elapsed":890179,"internal_node_id":"0.0-166.0","task_version":"battery-v0.2-trt"},{"rune":"M","rune_set":"bacs1","hex":"#3366ff99","correct":32,"choice":32,"rt":575.2249999932246,"accuracy":1,"outcome":"+10","keys":[2076.499999995576],"total_keys":1,"block":2,"trial":159,"stimulus":3,"robot":1,"valence":"win","action":"go","sham":0,"trial_type":"pit-trial","trial_index":192,"time_elapsed":893459,"internal_node_id":"0.0-167.0","task_version":"battery-v0.2-trt"},{"rune":"Y","rune_set":"bacs1","hex":"#3366ff99","correct":-1,"choice":32,"rt":895.9250000043539,"accuracy":0,"outcome":"+1","keys":[2396.2849999952596],"total_keys":1,"block":2,"trial":160,"stimulus":0,"robot":2,"valence":"win","action":"no-go","sham":0,"trial_type":"pit-trial","trial_index":193,"time_elapsed":897058,"internal_node_id":"0.0-168.0","task_version":"battery-v0.2-trt"},{"rune":"S","rune_set":"bacs1","hex":"#f73b6a7A","correct":32,"choice":-1,"rt":-1,"accuracy":0,"outcome":"-10","keys":[],"total_keys":0,"block":2,"trial":161,"stimulus":5,"robot":3,"valence":"lose","action":"go","sham":0,"trial_type":"pit-trial","trial_index":194,"time_elapsed":901063,"internal_node_id":"0.0-169.0","task_version":"battery-v0.2-trt"},{"rune":"U","rune_set":"bacs1","hex":"#3366ff99","correct":32,"choice":32,"rt":524.3400000035763,"accuracy":1,"outcome":"+10","keys":[2024.7200000012526],"total_keys":1,"block":2,"trial":162,"stimulus":4,"robot":1,"valence":"win","action":"go","sham":0,"trial_type":"pit-trial","trial_index":195,"time_elapsed":904290,"internal_node_id":"0.0-170.0","task_version":"battery-v0.2-trt"},{"rune":"Y","rune_set":"bacs1","hex":"#3366ff99","correct":-1,"choice":32,"rt":464.01999999943655,"accuracy":0,"outcome":"+1","keys":[1965.009999999893],"total_keys":1,"block":2,"trial":163,"stimulus":0,"robot":2,"valence":"win","action":"no-go","sham":0,"trial_type":"pit-trial","trial_index":196,"time_elapsed":907458,"internal_node_id":"0.0-171.0","task_version":"battery-v0.2-trt"},{"rune":"K","rune_set":"bacs1","hex":"#f73b6a7A","correct":-1,"choice":32,"rt":608.6700000014389,"accuracy":0,"outcome":"-1","keys":[2109.004999991157],"total_keys":1,"block":2,"trial":164,"stimulus":6,"robot":4,"valence":"lose","action":"no-go","sham":1,"trial_type":"pit-trial","trial_index":197,"time_elapsed":910771,"internal_node_id":"0.0-172.0","task_version":"battery-v0.2-trt"},{"rune":"Y","rune_set":"bacs1","hex":"#3366ff99","correct":-1,"choice":32,"rt":991.200000004028,"accuracy":0,"outcome":"+1","keys":[2492.564999993192],"total_keys":1,"block":2,"trial":165,"stimulus":0,"robot":2,"valence":"win","action":"no-go","sham":0,"trial_type":"pit-trial","trial_index":198,"time_elapsed":914467,"internal_node_id":"0.0-173.0","task_version":"battery-v0.2-trt"},{"rune":"U","rune_set":"bacs1","hex":"#3366ff99","correct":32,"choice":32,"rt":711.8300000001909,"accuracy":1,"outcome":"+10","keys":[2211.910000012722],"total_keys":1,"block":2,"trial":166,"stimulus":4,"robot":1,"valence":"win","action":"go","sham":0,"trial_type":"pit-trial","trial_index":199,"time_elapsed":917882,"internal_node_id":"0.0-174.0","task_version":"battery-v0.2-trt"},{"rune":"K","rune_set":"bacs1","hex":"#f73b6a7A","correct":-1,"choice":-1,"rt":-1,"accuracy":1,"outcome":"-1","keys":[2885.0250000105007],"total_keys":1,"block":2,"trial":167,"stimulus":6,"robot":4,"valence":"lose","action":"no-go","sham":0,"trial_type":"pit-trial","trial_index":200,"time_elapsed":921886,"internal_node_id":"0.0-175.0","task_version":"battery-v0.2-trt"},{"rune":"S","rune_set":"bacs1","hex":"#f73b6a7A","correct":32,"choice":32,"rt":604.1799999948125,"accuracy":1,"outcome":"-1","keys":[2105.1900000020396],"total_keys":1,"block":2,"trial":168,"stimulus":5,"robot":3,"valence":"lose","action":"go","sham":0,"trial_type":"pit-trial","trial_index":201,"time_elapsed":925194,"internal_node_id":"0.0-176.0","task_version":"battery-v0.2-trt"},{"rune":"D","rune_set":"bacs1","hex":"#3366ff99","correct":-1,"choice":32,"rt":360.67999999795575,"accuracy":0,"outcome":"+1","keys":[1861.190000010538],"total_keys":1,"block":2,"trial":169,"stimulus":7,"robot":2,"valence":"win","action":"no-go","sham":0,"trial_type":"pit-trial","trial_index":202,"time_elapsed":928258,"internal_node_id":"0.0-177.0","task_version":"battery-v0.2-trt"},{"rune":"U","rune_set":"bacs1","hex":"#3366ff99","correct":32,"choice":32,"rt":918.9699999988079,"accuracy":1,"outcome":"+10","keys":[2420.269999987795],"total_keys":1,"block":2,"trial":170,"stimulus":4,"robot":1,"valence":"win","action":"go","sham":0,"trial_type":"pit-trial","trial_index":203,"time_elapsed":931882,"internal_node_id":"0.0-178.0","task_version":"battery-v0.2-trt"},{"rune":"S","rune_set":"bacs1","hex":"#f73b6a7A","correct":32,"choice":32,"rt":711.9649999949615,"accuracy":1,"outcome":"-1","keys":[2212.9299999942305],"total_keys":1,"block":2,"trial":171,"stimulus":5,"robot":3,"valence":"lose","action":"go","sham":0,"trial_type":"pit-trial","trial_index":204,"time_elapsed":935299,"internal_node_id":"0.0-179.0","task_version":"battery-v0.2-trt"},{"rune":"K","rune_set":"bacs1","hex":"#f73b6a7A","correct":-1,"choice":-1,"rt":-1,"accuracy":1,"outcome":"-10","keys":[],"total_keys":0,"block":2,"trial":172,"stimulus":6,"robot":4,"valence":"lose","action":"no-go","sham":1,"trial_type":"pit-trial","trial_index":205,"time_elapsed":939303,"internal_node_id":"0.0-180.0","task_version":"battery-v0.2-trt"},{"rune":"U","rune_set":"bacs1","hex":"#3366ff99","correct":32,"choice":32,"rt":387.08000000042375,"accuracy":1,"outcome":"+10","keys":[1887.5399999960791],"total_keys":1,"block":2,"trial":173,"stimulus":4,"robot":1,"valence":"win","action":"go","sham":0,"trial_type":"pit-trial","trial_index":206,"time_elapsed":942394,"internal_node_id":"0.0-181.0","task_version":"battery-v0.2-trt"},{"rune":"K","rune_set":"bacs1","hex":"#f73b6a7A","correct":-1,"choice":32,"rt":736.5400000126101,"accuracy":0,"outcome":"-10","keys":[2236.9999999937136],"total_keys":1,"block":2,"trial":174,"stimulus":6,"robot":4,"valence":"lose","action":"no-go","sham":0,"trial_type":"pit-trial","trial_index":207,"time_elapsed":945834,"internal_node_id":"0.0-182.0","task_version":"battery-v0.2-trt"},{"rune":"D","rune_set":"bacs1","hex":"#3366ff99","correct":-1,"choice":32,"rt":832.3549999913666,"accuracy":0,"outcome":"+1","keys":[2333.6550000094576],"total_keys":1,"block":2,"trial":175,"stimulus":7,"robot":2,"valence":"win","action":"no-go","sham":0,"trial_type":"pit-trial","trial_index":208,"time_elapsed":949372,"internal_node_id":"0.0-183.0","task_version":"battery-v0.2-trt"},{"rune":"S","rune_set":"bacs1","hex":"#f73b6a7A","correct":32,"choice":-1,"rt":-1,"accuracy":0,"outcome":"-10","keys":[],"total_keys":0,"block":2,"trial":176,"stimulus":5,"robot":3,"valence":"lose","action":"go","sham":0,"trial_type":"pit-trial","trial_index":209,"time_elapsed":953375,"internal_node_id":"0.0-184.0","task_version":"battery-v0.2-trt"},{"rune":"K","rune_set":"bacs1","hex":"#f73b6a7A","correct":-1,"choice":-1,"rt":-1,"accuracy":1,"outcome":"-1","keys":[],"total_keys":0,"block":2,"trial":177,"stimulus":6,"robot":4,"valence":"lose","action":"no-go","sham":0,"trial_type":"pit-trial","trial_index":210,"time_elapsed":957380,"internal_node_id":"0.0-185.0","task_version":"battery-v0.2-trt"},{"rune":"S","rune_set":"bacs1","hex":"#f73b6a7A","correct":32,"choice":-1,"rt":-1,"accuracy":0,"outcome":"-10","keys":[],"total_keys":0,"block":2,"trial":178,"stimulus":5,"robot":3,"valence":"lose","action":"go","sham":0,"trial_type":"pit-trial","trial_index":211,"time_elapsed":961385,"internal_node_id":"0.0-186.0","task_version":"battery-v0.2-trt"},{"rune":"U","rune_set":"bacs1","hex":"#3366ff99","correct":32,"choice":32,"rt":1104.3899999931455,"accuracy":1,"outcome":"+10","keys":[2605.619999987539],"total_keys":1,"block":2,"trial":179,"stimulus":4,"robot":1,"valence":"win","action":"go","sham":0,"trial_type":"pit-trial","trial_index":212,"time_elapsed":965194,"internal_node_id":"0.0-187.0","task_version":"battery-v0.2-trt"},{"rune":"D","rune_set":"bacs1","hex":"#3366ff99","correct":-1,"choice":-1,"rt":-1,"accuracy":1,"outcome":"+1","keys":[],"total_keys":0,"block":2,"trial":180,"stimulus":7,"robot":2,"valence":"win","action":"no-go","sham":1,"trial_type":"pit-trial","trial_index":213,"time_elapsed":969198,"internal_node_id":"0.0-188.0","task_version":"battery-v0.2-trt"},{"rune":"S","rune_set":"bacs1","hex":"#f73b6a7A","correct":32,"choice":32,"rt":307.874999998603,"accuracy":1,"outcome":"-10","keys":[1808.2049999939045],"total_keys":1,"block":2,"trial":181,"stimulus":5,"robot":3,"valence":"lose","action":"go","sham":1,"trial_type":"pit-trial","trial_index":214,"time_elapsed":972210,"internal_node_id":"0.0-189.0","task_version":"battery-v0.2-trt"},{"rune":"D","rune_set":"bacs1","hex":"#3366ff99","correct":-1,"choice":-1,"rt":-1,"accuracy":1,"outcome":"+10","keys":[],"total_keys":0,"block":2,"trial":182,"stimulus":7,"robot":2,"valence":"win","action":"no-go","sham":0,"trial_type":"pit-trial","trial_index":215,"time_elapsed":976213,"internal_node_id":"0.0-190.0","task_version":"battery-v0.2-trt"},{"rune":"U","rune_set":"bacs1","hex":"#3366ff99","correct":32,"choice":-1,"rt":-1,"accuracy":0,"outcome":"+1","keys":[],"total_keys":0,"block":2,"trial":183,"stimulus":4,"robot":1,"valence":"win","action":"go","sham":0,"trial_type":"pit-trial","trial_index":216,"time_elapsed":980217,"internal_node_id":"0.0-191.0","task_version":"battery-v0.2-trt"},{"rune":"K","rune_set":"bacs1","hex":"#f73b6a7A","correct":-1,"choice":-1,"rt":-1,"accuracy":1,"outcome":"-1","keys":[],"total_keys":0,"block":2,"trial":184,"stimulus":6,"robot":4,"valence":"lose","action":"no-go","sham":0,"trial_type":"pit-trial","trial_index":217,"time_elapsed":984221,"internal_node_id":"0.0-192.0","task_version":"battery-v0.2-trt"},{"rune":"S","rune_set":"bacs1","hex":"#f73b6a7A","correct":32,"choice":-1,"rt":-1,"accuracy":0,"outcome":"-10","keys":[],"total_keys":0,"block":2,"trial":185,"stimulus":5,"robot":3,"valence":"lose","action":"go","sham":0,"trial_type":"pit-trial","trial_index":218,"time_elapsed":988226,"internal_node_id":"0.0-193.0","task_version":"battery-v0.2-trt"},{"rune":"K","rune_set":"bacs1","hex":"#f73b6a7A","correct":-1,"choice":-1,"rt":-1,"accuracy":1,"outcome":"-1","keys":[],"total_keys":0,"block":2,"trial":186,"stimulus":6,"robot":4,"valence":"lose","action":"no-go","sham":0,"trial_type":"pit-trial","trial_index":219,"time_elapsed":992231,"internal_node_id":"0.0-194.0","task_version":"battery-v0.2-trt"},{"rune":"D","rune_set":"bacs1","hex":"#3366ff99","correct":-1,"choice":-1,"rt":-1,"accuracy":1,"outcome":"+10","keys":[],"total_keys":0,"block":2,"trial":187,"stimulus":7,"robot":2,"valence":"win","action":"no-go","sham":0,"trial_type":"pit-trial","trial_index":220,"time_elapsed":996235,"internal_node_id":"0.0-195.0","task_version":"battery-v0.2-trt"},{"rune":"U","rune_set":"bacs1","hex":"#3366ff99","correct":32,"choice":-1,"rt":-1,"accuracy":0,"outcome":"+10","keys":[],"total_keys":0,"block":2,"trial":188,"stimulus":4,"robot":1,"valence":"win","action":"go","sham":1,"trial_type":"pit-trial","trial_index":221,"time_elapsed":1000240,"internal_node_id":"0.0-196.0","task_version":"battery-v0.2-trt"},{"rune":"D","rune_set":"bacs1","hex":"#3366ff99","correct":-1,"choice":-1,"rt":-1,"accuracy":1,"outcome":"+10","keys":[],"total_keys":0,"block":2,"trial":189,"stimulus":7,"robot":2,"valence":"win","action":"no-go","sham":0,"trial_type":"pit-trial","trial_index":222,"time_elapsed":1004244,"internal_node_id":"0.0-197.0","task_version":"battery-v0.2-trt"},{"rune":"S","rune_set":"bacs1","hex":"#f73b6a7A","correct":32,"choice":-1,"rt":-1,"accuracy":0,"outcome":"-10","keys":[],"total_keys":0,"block":2,"trial":190,"stimulus":5,"robot":3,"valence":"lose","action":"go","sham":0,"trial_type":"pit-trial","trial_index":223,"time_elapsed":1008250,"internal_node_id":"0.0-198.0","task_version":"battery-v0.2-trt"},{"rune":"U","rune_set":"bacs1","hex":"#3366ff99","correct":32,"choice":-1,"rt":-1,"accuracy":0,"outcome":"+1","keys":[],"total_keys":0,"block":2,"trial":191,"stimulus":4,"robot":1,"valence":"win","action":"go","sham":0,"trial_type":"pit-trial","trial_index":224,"time_elapsed":1012256,"internal_node_id":"0.0-199.0","task_version":"battery-v0.2-trt"},{"rune":"K","rune_set":"bacs1","hex":"#f73b6a7A","correct":-1,"choice":-1,"rt":-1,"accuracy":1,"outcome":"-1","keys":[],"total_keys":0,"block":2,"trial":192,"stimulus":6,"robot":4,"valence":"lose","action":"no-go","sham":0,"trial_type":"pit-trial","trial_index":225,"time_elapsed":1016260,"internal_node_id":"0.0-200.0","task_version":"battery-v0.2-trt"},{"rune":"K","rune_set":"bacs1","hex":"#f73b6a7A","correct":-1,"choice":-1,"rt":-1,"accuracy":1,"outcome":"-1","keys":[],"total_keys":0,"block":2,"trial":193,"stimulus":6,"robot":4,"valence":"lose","action":"no-go","sham":0,"trial_type":"pit-trial","trial_index":226,"time_elapsed":1020263,"internal_node_id":"0.0-201.0","task_version":"battery-v0.2-trt"},{"rune":"D","rune_set":"bacs1","hex":"#3366ff99","correct":-1,"choice":-1,"rt":-1,"accuracy":1,"outcome":"+10","keys":[],"total_keys":0,"block":2,"trial":194,"stimulus":7,"robot":2,"valence":"win","action":"no-go","sham":0,"trial_type":"pit-trial","trial_index":227,"time_elapsed":1024267,"internal_node_id":"0.0-202.0","task_version":"battery-v0.2-trt"},{"rune":"U","rune_set":"bacs1","hex":"#3366ff99","correct":32,"choice":-1,"rt":-1,"accuracy":0,"outcome":"+1","keys":[],"total_keys":0,"block":2,"trial":195,"stimulus":4,"robot":1,"valence":"win","action":"go","sham":0,"trial_type":"pit-trial","trial_index":228,"time_elapsed":1028272,"internal_node_id":"0.0-203.0","task_version":"battery-v0.2-trt"},{"rune":"O","rune_set":"bacs1","hex":"#f73b6a7A","correct":32,"choice":-1,"rt":-1,"accuracy":0,"outcome":"-10","keys":[],"total_keys":0,"block":2,"trial":196,"stimulus":8,"robot":3,"valence":"lose","action":"go","sham":0,"trial_type":"pit-trial","trial_index":229,"time_elapsed":1032277,"internal_node_id":"0.0-204.0","task_version":"battery-v0.2-trt"},{"rune":"D","rune_set":"bacs1","hex":"#3366ff99","correct":-1,"choice":-1,"rt":-1,"accuracy":1,"outcome":"+10","keys":[],"total_keys":0,"block":2,"trial":197,"stimulus":7,"robot":2,"valence":"win","action":"no-go","sham":0,"trial_type":"pit-trial","trial_index":230,"time_elapsed":1036280,"internal_node_id":"0.0-205.0","task_version":"battery-v0.2-trt"},{"rune":"K","rune_set":"bacs1","hex":"#f73b6a7A","correct":-1,"choice":-1,"rt":-1,"accuracy":1,"outcome":"-1","keys":[],"total_keys":0,"block":2,"trial":198,"stimulus":6,"robot":4,"valence":"lose","action":"no-go","sham":0,"trial_type":"pit-trial","trial_index":231,"time_elapsed":1040284,"internal_node_id":"0.0-206.0","task_version":"battery-v0.2-trt"},{"rune":"U","rune_set":"bacs1","hex":"#3366ff99","correct":32,"choice":-1,"rt":-1,"accuracy":0,"outcome":"+1","keys":[],"total_keys":0,"block":2,"trial":199,"stimulus":4,"robot":1,"valence":"win","action":"go","sham":0,"trial_type":"pit-trial","trial_index":232,"time_elapsed":1044288,"internal_node_id":"0.0-207.0","task_version":"battery-v0.2-trt"},{"rune":"O","rune_set":"bacs1","hex":"#f73b6a7A","correct":32,"choice":-1,"rt":-1,"accuracy":0,"outcome":"-1","keys":[],"total_keys":0,"block":2,"trial":200,"stimulus":8,"robot":3,"valence":"lose","action":"go","sham":1,"trial_type":"pit-trial","trial_index":233,"time_elapsed":1048293,"internal_node_id":"0.0-208.0","task_version":"battery-v0.2-trt"},{"rune":"I","rune_set":"bacs1","hex":"#f73b6a7A","correct":32,"choice":-1,"rt":-1,"accuracy":0,"outcome":"-10","keys":[],"total_keys":0,"block":2,"trial":201,"stimulus":9,"robot":3,"valence":"lose","action":"go","sham":0,"trial_type":"pit-trial","trial_index":234,"time_elapsed":1052296,"internal_node_id":"0.0-209.0","task_version":"battery-v0.2-trt"},{"rune":"D","rune_set":"bacs1","hex":"#3366ff99","correct":-1,"choice":-1,"rt":-1,"accuracy":1,"outcome":"+1","keys":[],"total_keys":0,"block":2,"trial":202,"stimulus":7,"robot":2,"valence":"win","action":"no-go","sham":1,"trial_type":"pit-trial","trial_index":235,"time_elapsed":1056303,"internal_node_id":"0.0-210.0","task_version":"battery-v0.2-trt"},{"rune":"K","rune_set":"bacs1","hex":"#f73b6a7A","correct":-1,"choice":-1,"rt":-1,"accuracy":1,"outcome":"-1","keys":[],"total_keys":0,"block":2,"trial":203,"stimulus":6,"robot":4,"valence":"lose","action":"no-go","sham":0,"trial_type":"pit-trial","trial_index":236,"time_elapsed":1060309,"internal_node_id":"0.0-211.0","task_version":"battery-v0.2-trt"},{"rune":"O","rune_set":"bacs1","hex":"#f73b6a7A","correct":32,"choice":-1,"rt":-1,"accuracy":0,"outcome":"-10","keys":[],"total_keys":0,"block":2,"trial":204,"stimulus":8,"robot":3,"valence":"lose","action":"go","sham":0,"trial_type":"pit-trial","trial_index":237,"time_elapsed":1064312,"internal_node_id":"0.0-212.0","task_version":"battery-v0.2-trt"},{"rune":"D","rune_set":"bacs1","hex":"#3366ff99","correct":-1,"choice":-1,"rt":-1,"accuracy":1,"outcome":"+10","keys":[],"total_keys":0,"block":2,"trial":205,"stimulus":7,"robot":2,"valence":"win","action":"no-go","sham":0,"trial_type":"pit-trial","trial_index":238,"time_elapsed":1068316,"internal_node_id":"0.0-213.0","task_version":"battery-v0.2-trt"},{"rune":"O","rune_set":"bacs1","hex":"#f73b6a7A","correct":32,"choice":-1,"rt":-1,"accuracy":0,"outcome":"-10","keys":[],"total_keys":0,"block":2,"trial":206,"stimulus":8,"robot":3,"valence":"lose","action":"go","sham":0,"trial_type":"pit-trial","trial_index":239,"time_elapsed":1072319,"internal_node_id":"0.0-214.0","task_version":"battery-v0.2-trt"},{"rune":"I","rune_set":"bacs1","hex":"#f73b6a7A","correct":32,"choice":-1,"rt":-1,"accuracy":0,"outcome":"-1","keys":[],"total_keys":0,"block":2,"trial":207,"stimulus":9,"robot":3,"valence":"lose","action":"go","sham":1,"trial_type":"pit-trial","trial_index":240,"time_elapsed":1076324,"internal_node_id":"0.0-215.0","task_version":"battery-v0.2-trt"},{"rune":"K","rune_set":"bacs1","hex":"#f73b6a7A","correct":-1,"choice":-1,"rt":-1,"accuracy":1,"outcome":"-1","keys":[],"total_keys":0,"block":2,"trial":208,"stimulus":6,"robot":4,"valence":"lose","action":"no-go","sham":0,"trial_type":"pit-trial","trial_index":241,"time_elapsed":1080331,"internal_node_id":"0.0-216.0","task_version":"battery-v0.2-trt"},{"rune":"O","rune_set":"bacs1","hex":"#f73b6a7A","correct":32,"choice":-1,"rt":-1,"accuracy":0,"outcome":"-1","keys":[],"total_keys":0,"block":2,"trial":209,"stimulus":8,"robot":3,"valence":"lose","action":"go","sham":1,"trial_type":"pit-trial","trial_index":242,"time_elapsed":1084336,"internal_node_id":"0.0-217.0","task_version":"battery-v0.2-trt"},{"rune":"I","rune_set":"bacs1","hex":"#f73b6a7A","correct":32,"choice":-1,"rt":-1,"accuracy":0,"outcome":"-1","keys":[],"total_keys":0,"block":2,"trial":210,"stimulus":9,"robot":3,"valence":"lose","action":"go","sham":1,"trial_type":"pit-trial","trial_index":243,"time_elapsed":1088340,"internal_node_id":"0.0-218.0","task_version":"battery-v0.2-trt"},{"rune":"G","rune_set":"bacs1","hex":"#f73b6a7A","correct":-1,"choice":-1,"rt":-1,"accuracy":1,"outcome":"-1","keys":[],"total_keys":0,"block":2,"trial":211,"stimulus":10,"robot":4,"valence":"lose","action":"no-go","sham":0,"trial_type":"pit-trial","trial_index":244,"time_elapsed":1092345,"internal_node_id":"0.0-219.0","task_version":"battery-v0.2-trt"},{"rune":"N","rune_set":"bacs1","hex":"#3366ff99","correct":-1,"choice":-1,"rt":-1,"accuracy":1,"outcome":"+10","keys":[],"total_keys":0,"block":2,"trial":212,"stimulus":11,"robot":2,"valence":"win","action":"no-go","sham":0,"trial_type":"pit-trial","trial_index":245,"time_elapsed":1096352,"internal_node_id":"0.0-220.0","task_version":"battery-v0.2-trt"},{"rune":"N","rune_set":"bacs1","hex":"#3366ff99","correct":-1,"choice":-1,"rt":-1,"accuracy":1,"outcome":"+1","keys":[],"total_keys":0,"block":2,"trial":213,"stimulus":11,"robot":2,"valence":"win","action":"no-go","sham":1,"trial_type":"pit-trial","trial_index":246,"time_elapsed":1100355,"internal_node_id":"0.0-221.0","task_version":"battery-v0.2-trt"},{"rune":"I","rune_set":"bacs1","hex":"#f73b6a7A","correct":32,"choice":-1,"rt":-1,"accuracy":0,"outcome":"-1","keys":[],"total_keys":0,"block":2,"trial":214,"stimulus":9,"robot":3,"valence":"lose","action":"go","sham":1,"trial_type":"pit-trial","trial_index":247,"time_elapsed":1104359,"internal_node_id":"0.0-222.0","task_version":"battery-v0.2-trt"},{"rune":"G","rune_set":"bacs1","hex":"#f73b6a7A","correct":-1,"choice":-1,"rt":-1,"accuracy":1,"outcome":"-1","keys":[],"total_keys":0,"block":2,"trial":215,"stimulus":10,"robot":4,"valence":"lose","action":"no-go","sham":0,"trial_type":"pit-trial","trial_index":248,"time_elapsed":1108363,"internal_node_id":"0.0-223.0","task_version":"battery-v0.2-trt"},{"rune":"O","rune_set":"bacs1","hex":"#f73b6a7A","correct":32,"choice":-1,"rt":-1,"accuracy":0,"outcome":"-10","keys":[],"total_keys":0,"block":2,"trial":216,"stimulus":8,"robot":3,"valence":"lose","action":"go","sham":0,"trial_type":"pit-trial","trial_index":249,"time_elapsed":1112366,"internal_node_id":"0.0-224.0","task_version":"battery-v0.2-trt"},{"rune":"O","rune_set":"bacs1","hex":"#f73b6a7A","correct":32,"choice":-1,"rt":-1,"accuracy":0,"outcome":"-10","keys":[],"total_keys":0,"block":2,"trial":217,"stimulus":8,"robot":3,"valence":"lose","action":"go","sham":0,"trial_type":"pit-trial","trial_index":250,"time_elapsed":1116371,"internal_node_id":"0.0-225.0","task_version":"battery-v0.2-trt"},{"rune":"N","rune_set":"bacs1","hex":"#3366ff99","correct":-1,"choice":-1,"rt":-1,"accuracy":1,"outcome":"+10","keys":[],"total_keys":0,"block":2,"trial":218,"stimulus":11,"robot":2,"valence":"win","action":"no-go","sham":0,"trial_type":"pit-trial","trial_index":251,"time_elapsed":1120374,"internal_node_id":"0.0-226.0","task_version":"battery-v0.2-trt"},{"rune":"G","rune_set":"bacs1","hex":"#f73b6a7A","correct":-1,"choice":-1,"rt":-1,"accuracy":1,"outcome":"-1","keys":[],"total_keys":0,"block":2,"trial":219,"stimulus":10,"robot":4,"valence":"lose","action":"no-go","sham":0,"trial_type":"pit-trial","trial_index":252,"time_elapsed":1124379,"internal_node_id":"0.0-227.0","task_version":"battery-v0.2-trt"},{"rune":"I","rune_set":"bacs1","hex":"#f73b6a7A","correct":32,"choice":-1,"rt":-1,"accuracy":0,"outcome":"-10","keys":[],"total_keys":0,"block":2,"trial":220,"stimulus":9,"robot":3,"valence":"lose","action":"go","sham":0,"trial_type":"pit-trial","trial_index":253,"time_elapsed":1128382,"internal_node_id":"0.0-228.0","task_version":"battery-v0.2-trt"},{"rune":"O","rune_set":"bacs1","hex":"#f73b6a7A","correct":32,"choice":-1,"rt":-1,"accuracy":0,"outcome":"-10","keys":[],"total_keys":0,"block":2,"trial":221,"stimulus":8,"robot":3,"valence":"lose","action":"go","sham":0,"trial_type":"pit-trial","trial_index":254,"time_elapsed":1132387,"internal_node_id":"0.0-229.0","task_version":"battery-v0.2-trt"},{"rune":"G","rune_set":"bacs1","hex":"#f73b6a7A","correct":-1,"choice":-1,"rt":-1,"accuracy":1,"outcome":"-1","keys":[],"total_keys":0,"block":2,"trial":222,"stimulus":10,"robot":4,"valence":"lose","action":"no-go","sham":0,"trial_type":"pit-trial","trial_index":255,"time_elapsed":1136390,"internal_node_id":"0.0-230.0","task_version":"battery-v0.2-trt"},{"rune":"N","rune_set":"bacs1","hex":"#3366ff99","correct":-1,"choice":-1,"rt":-1,"accuracy":1,"outcome":"+10","keys":[],"total_keys":0,"block":2,"trial":223,"stimulus":11,"robot":2,"valence":"win","action":"no-go","sham":0,"trial_type":"pit-trial","trial_index":256,"time_elapsed":1140394,"internal_node_id":"0.0-231.0","task_version":"battery-v0.2-trt"},{"rune":"I","rune_set":"bacs1","hex":"#f73b6a7A","correct":32,"choice":-1,"rt":-1,"accuracy":0,"outcome":"-10","keys":[],"total_keys":0,"block":2,"trial":224,"stimulus":9,"robot":3,"valence":"lose","action":"go","sham":0,"trial_type":"pit-trial","trial_index":257,"time_elapsed":1144398,"internal_node_id":"0.0-232.0","task_version":"battery-v0.2-trt"},{"rune":"I","rune_set":"bacs1","hex":"#f73b6a7A","correct":32,"choice":-1,"rt":-1,"accuracy":0,"outcome":"-10","keys":[],"total_keys":0,"block":2,"trial":225,"stimulus":9,"robot":3,"valence":"lose","action":"go","sham":0,"trial_type":"pit-trial","trial_index":258,"time_elapsed":1148403,"internal_node_id":"0.0-233.0","task_version":"battery-v0.2-trt"},{"rune":"O","rune_set":"bacs1","hex":"#f73b6a7A","correct":32,"choice":-1,"rt":-1,"accuracy":0,"outcome":"-10","keys":[],"total_keys":0,"block":2,"trial":226,"stimulus":8,"robot":3,"valence":"lose","action":"go","sham":0,"trial_type":"pit-trial","trial_index":259,"time_elapsed":1152408,"internal_node_id":"0.0-234.0","task_version":"battery-v0.2-trt"},{"rune":"N","rune_set":"bacs1","hex":"#3366ff99","correct":-1,"choice":-1,"rt":-1,"accuracy":1,"outcome":"+10","keys":[],"total_keys":0,"block":2,"trial":227,"stimulus":11,"robot":2,"valence":"win","action":"no-go","sham":0,"trial_type":"pit-trial","trial_index":260,"time_elapsed":1156413,"internal_node_id":"0.0-235.0","task_version":"battery-v0.2-trt"},{"rune":"G","rune_set":"bacs1","hex":"#f73b6a7A","correct":-1,"choice":-1,"rt":-1,"accuracy":1,"outcome":"-1","keys":[],"total_keys":0,"block":2,"trial":228,"stimulus":10,"robot":4,"valence":"lose","action":"no-go","sham":0,"trial_type":"pit-trial","trial_index":261,"time_elapsed":1160417,"internal_node_id":"0.0-236.0","task_version":"battery-v0.2-trt"},{"rune":"O","rune_set":"bacs1","hex":"#f73b6a7A","correct":32,"choice":-1,"rt":-1,"accuracy":0,"outcome":"-1","keys":[],"total_keys":0,"block":2,"trial":229,"stimulus":8,"robot":3,"valence":"lose","action":"go","sham":1,"trial_type":"pit-trial","trial_index":262,"time_elapsed":1164422,"internal_node_id":"0.0-237.0","task_version":"battery-v0.2-trt"},{"rune":"G","rune_set":"bacs1","hex":"#f73b6a7A","correct":-1,"choice":-1,"rt":-1,"accuracy":1,"outcome":"-10","keys":[],"total_keys":0,"block":2,"trial":230,"stimulus":10,"robot":4,"valence":"lose","action":"no-go","sham":1,"trial_type":"pit-trial","trial_index":263,"time_elapsed":1168426,"internal_node_id":"0.0-238.0","task_version":"battery-v0.2-trt"},{"rune":"I","rune_set":"bacs1","hex":"#f73b6a7A","correct":32,"choice":-1,"rt":-1,"accuracy":0,"outcome":"-10","keys":[],"total_keys":0,"block":2,"trial":231,"stimulus":9,"robot":3,"valence":"lose","action":"go","sham":0,"trial_type":"pit-trial","trial_index":264,"time_elapsed":1172434,"internal_node_id":"0.0-239.0","task_version":"battery-v0.2-trt"},{"rune":"N","rune_set":"bacs1","hex":"#3366ff99","correct":-1,"choice":-1,"rt":-1,"accuracy":1,"outcome":"+10","keys":[],"total_keys":0,"block":2,"trial":232,"stimulus":11,"robot":2,"valence":"win","action":"no-go","sham":0,"trial_type":"pit-trial","trial_index":265,"time_elapsed":1176438,"internal_node_id":"0.0-240.0","task_version":"battery-v0.2-trt"},{"rune":"O","rune_set":"bacs1","hex":"#f73b6a7A","correct":32,"choice":-1,"rt":-1,"accuracy":0,"outcome":"-10","keys":[],"total_keys":0,"block":2,"trial":233,"stimulus":8,"robot":3,"valence":"lose","action":"go","sham":0,"trial_type":"pit-trial","trial_index":266,"time_elapsed":1180442,"internal_node_id":"0.0-241.0","task_version":"battery-v0.2-trt"},{"rune":"G","rune_set":"bacs1","hex":"#f73b6a7A","correct":-1,"choice":-1,"rt":-1,"accuracy":1,"outcome":"-1","keys":[],"total_keys":0,"block":2,"trial":234,"stimulus":10,"robot":4,"valence":"lose","action":"no-go","sham":0,"trial_type":"pit-trial","trial_index":267,"time_elapsed":1184447,"internal_node_id":"0.0-242.0","task_version":"battery-v0.2-trt"},{"rune":"N","rune_set":"bacs1","hex":"#3366ff99","correct":-1,"choice":-1,"rt":-1,"accuracy":1,"outcome":"+10","keys":[],"total_keys":0,"block":2,"trial":235,"stimulus":11,"robot":2,"valence":"win","action":"no-go","sham":0,"trial_type":"pit-trial","trial_index":268,"time_elapsed":1188452,"internal_node_id":"0.0-243.0","task_version":"battery-v0.2-trt"},{"rune":"I","rune_set":"bacs1","hex":"#f73b6a7A","correct":32,"choice":-1,"rt":-1,"accuracy":0,"outcome":"-10","keys":[],"total_keys":0,"block":2,"trial":236,"stimulus":9,"robot":3,"valence":"lose","action":"go","sham":0,"trial_type":"pit-trial","trial_index":269,"time_elapsed":1192455,"internal_node_id":"0.0-244.0","task_version":"battery-v0.2-trt"},{"rune":"G","rune_set":"bacs1","hex":"#f73b6a7A","correct":-1,"choice":-1,"rt":-1,"accuracy":1,"outcome":"-10","keys":[],"total_keys":0,"block":2,"trial":237,"stimulus":10,"robot":4,"valence":"lose","action":"no-go","sham":1,"trial_type":"pit-trial","trial_index":270,"time_elapsed":1196467,"internal_node_id":"0.0-245.0","task_version":"battery-v0.2-trt"},{"rune":"I","rune_set":"bacs1","hex":"#f73b6a7A","correct":32,"choice":-1,"rt":-1,"accuracy":0,"outcome":"-1","keys":[],"total_keys":0,"block":2,"trial":238,"stimulus":9,"robot":3,"valence":"lose","action":"go","sham":1,"trial_type":"pit-trial","trial_index":271,"time_elapsed":1200472,"internal_node_id":"0.0-246.0","task_version":"battery-v0.2-trt"},{"rune":"O","rune_set":"bacs1","hex":"#f73b6a7A","correct":32,"choice":-1,"rt":-1,"accuracy":0,"outcome":"-1","keys":[],"total_keys":0,"block":2,"trial":239,"stimulus":8,"robot":3,"valence":"lose","action":"go","sham":1,"trial_type":"pit-trial","trial_index":272,"time_elapsed":1204475,"internal_node_id":"0.0-247.0","task_version":"battery-v0.2-trt"},{"rune":"N","rune_set":"bacs1","hex":"#3366ff99","correct":-1,"choice":-1,"rt":-1,"accuracy":1,"outcome":"+10","keys":[],"total_keys":0,"block":2,"trial":240,"stimulus":11,"robot":2,"valence":"win","action":"no-go","sham":0,"trial_type":"pit-trial","trial_index":273,"time_elapsed":1208479,"internal_node_id":"0.0-248.0","task_version":"battery-v0.2-trt"},{"view_history":"[{\"page_index\":0,\"viewing_time\":19637.6700000111}]","rt":19638.344999999506,"trial_type":"pit-instructions","trial_index":274,"time_elapsed":1228120,"internal_node_id":"0.0-249.0","task_version":"battery-v0.2-trt"},{"rt":14017.19499999308,"responses":{"age":"24","gender-categorical":"Male","gender-free-response":"","ethnicity":"Not Hispanic or Latino","race":["Black or African American"],"language":"Yes","fluency":"Very well"},"survey":"demographics","trial_type":"survey-demo","trial_index":275,"time_elapsed":1242141,"internal_node_i