[{"view_history":"[{\"page_index\":0,\"viewing_time\":4017.2300001140684}]","rt":4017.865000059828,"trial_type":"instructions","trial_index":0,"time_elapsed":4034,"internal_node_id":"0.0-0.0","task_version":"battery-v0.2-trt"},{"slider_type":"valence","raw_loc":389,"loc":0.278,"trial_type":"affective-slider","trial_index":1,"time_elapsed":8561,"internal_node_id":"0.0-1.0","task_version":"battery-v0.2-trt"},{"responses":{"Q06":"2","Q10":"1","Q05":"2","Q08":"2","Q11":"1","Q13":"0","Q07":"3","Q02":"3","Q12":"0","Q01":"3","Q03":"3","Q09":"1","Q04":"3"},"rt":36626.35500007309,"item_order":[5,9,4,7,10,12,6,1,11,0,2,8,3],"radio_events":[4940.510000102222,7356.584999943152,9798.859999980778,12122.385000111535,14238.475000020117,18410.71500000544,19568.865000037476,24520.484999986365,26984.43499999121,29124.4950001128,31156.30999999121,33828.325000125915,35767.70500000566],"key_events":[],"mouse_events":[4940.510000102222,7356.584999943152,9798.859999980778,12122.385000111535,14238.475000020117,17236.380000133067,18410.71500000544,19568.865000037476,24520.484999986365,26984.43499999121,29124.4950001128,31156.30999999121,33828.325000125915,35767.70500000566,36624.59000013769],"straightlining":0.38461538461538464,"zigzagging":0.5833333333333334,"survey":"bisbas","trial_type":"survey-template","trial_index":2,"time_elapsed":45193,"internal_node_id":"0.0-2.0","task_version":"battery-v0.2-trt","infrequency":0},{"responses":{"Q03":"2","Q02":"2","Q07":"2","Q06":"3","Q08":"3","Q01":"1","Q04":"2","Q05":"1"},"rt":38214.11000005901,"item_order":[2,1,6,5,7,0,3,4],"radio_events":[3447.0349999610335,5454.884999897331,7178.894999902695,9549.159999936819,13574.88500000909,18471.089999889955,19922.86999989301,22456.989999860525],"key_events":[],"mouse_events":[3447.0349999610335,5454.884999897331,7178.894999902695,9549.159999936819,13574.88500000909,17251.20499986224,18471.089999889955,19922.86999989301,22456.989999860525,38213.22500007227],"straightlining":0.5,"zigzagging":0.42857142857142855,"survey":"dass_d","trial_type":"survey-template","trial_index":3,"time_elapsed":83409,"internal_node_id":"0.0-3.0","task_version":"battery-v0.2-trt","infrequency":0.5},{"responses":{"Q04":"1","Q08":"0","Q07":"2","Q01":"2","Q06":"0","Q03":"2","Q05":"0","Q02":"1"},"rt":19793.15000004135,"item_order":[3,7,6,0,5,2,4,1],"radio_events":[3386.5950000472367,6066.090000094846,7766.645000083372,9194.154999917373,10894.104999955744,12594.220000086352,13960.190000012517,16510.114999953657],"key_events":[],"mouse_events":[3386.5950000472367,6066.090000094846,7766.645000083372,9194.154999917373,10894.104999955744,12594.220000086352,13960.190000012517,15520.454999990761,16510.114999953657,19792.265000054613],"straightlining":0.375,"zigzagging":0.2857142857142857,"survey":"gad7","trial_type":"survey-template","trial_index":4,"time_elapsed":103205,"internal_node_id":"0.0-4.0","task_version":"battery-v0.2-trt","infrequency":0},{"value":[0.5,1.2596153846153846,1.2976190476190474],"trial_type":"call-function","trial_index":5,"time_elapsed":103208,"internal_node_id":"0.0-5.0","task_version":"battery-v0.2-trt"},{"view_history":"[{\"page_index\":0,\"viewing_time\":8173.105000052601},{\"page_index\":1,\"viewing_time\":5516.120000043884},{\"page_index\":2,\"viewing_time\":4279.644999885932},{\"page_index\":3,\"viewing_time\":7028.050000080839},{\"page_index\":4,\"viewing_time\":7718.09499990195},{\"page_index\":5,\"viewing_time\":3883.769999956712},{\"page_index\":6,\"viewing_time\":5059.915000107139},{\"page_index\":7,\"viewing_time\":9764.160000020638},{\"page_index\":8,\"viewing_time\":6022.839999990538},{\"page_index\":9,\"viewing_time\":5049.454999854788}]","rt":62495.66000001505,"trial_type":"pit-instructions","trial_index":6,"time_elapsed":165706,"internal_node_id":"0.0-6.0-0.0","task_version":"battery-v0.2-trt"},{"rune":"1","rune_set":"elianto","hex":"#3366ff99","correct":32,"choice":32,"rt":479.7899997793138,"accuracy":1,"outcome":"+10","keys":[868.4499999508262,1980.2999999374151],"total_keys":2,"block":0,"practice":1,"trial_type":"pit-trial","trial_index":7,"time_elapsed":168890,"internal_node_id":"0.0-6.0-1.0-0.0","task_version":"battery-v0.2-trt"},{"rune":"1","rune_set":"elianto","hex":"#3366ff99","correct":32,"choice":32,"rt":260.39499999023974,"accuracy":1,"outcome":"+10","keys":[1761.180000146851],"total_keys":1,"block":0,"practice":1,"trial_type":"pit-trial","trial_index":8,"time_elapsed":171859,"internal_node_id":"0.0-6.0-1.1-0.1","task_version":"battery-v0.2-trt"},{"rune":"1","rune_set":"elianto","hex":"#3366ff99","correct":32,"choice":32,"rt":343.4399999678135,"accuracy":1,"outcome":"+10","keys":[1844.2899999208748],"total_keys":1,"block":0,"practice":1,"trial_type":"pit-trial","trial_index":9,"time_elapsed":174908,"internal_node_id":"0.0-6.0-1.2-0.2","task_version":"battery-v0.2-trt"},{"rune":"1","rune_set":"elianto","hex":"#3366ff99","correct":32,"choice":-1,"rt":-1,"accuracy":0,"outcome":"+1","keys":[],"total_keys":0,"block":0,"practice":1,"trial_type":"pit-trial","trial_index":10,"time_elapsed":178915,"internal_node_id":"0.0-6.0-1.3-0.3","task_version":"battery-v0.2-trt"},{"rune":"1","rune_set":"elianto","hex":"#3366ff99","correct":32,"choice":-1,"rt":-1,"accuracy":0,"outcome":"+1","keys":[],"total_keys":0,"block":0,"practice":1,"trial_type":"pit-trial","trial_index":11,"time_elapsed":182923,"internal_node_id":"0.0-6.0-1.4-0.4","task_version":"battery-v0.2-trt"},{"rune":"1","rune_set":"elianto","hex":"#3366ff99","correct":32,"choice":32,"rt":595.9599998313934,"accuracy":1,"outcome":"+10","keys":[2097.774999914691],"total_keys":1,"block":0,"practice":1,"trial_type":"pit-trial","trial_index":12,"time_elapsed":186226,"internal_node_id":"0.0-6.0-1.5-0.5","task_version":"battery-v0.2-trt"},{"rune":"1","rune_set":"elianto","hex":"#3366ff99","correct":32,"choice":32,"rt":709.8300000652671,"accuracy":1,"outcome":"+10","keys":[2210.6250000651926],"total_keys":1,"block":0,"practice":1,"trial_type":"pit-trial","trial_index":13,"time_elapsed":189641,"internal_node_id":"0.0-6.0-1.6-0.6","task_version":"battery-v0.2-trt"},{"rune":"1","rune_set":"elianto","hex":"#3366ff99","correct":32,"choice":32,"rt":1167.9000000003725,"accuracy":1,"outcome":"+10","keys":[2668.1000001262873],"total_keys":1,"block":0,"practice":1,"trial_type":"pit-trial","trial_index":14,"time_elapsed":193515,"internal_node_id":"0.0-6.0-1.7-0.7","task_version":"battery-v0.2-trt"},{"trial_type":"call-function","trial_index":15,"time_elapsed":193516,"internal_node_id":"0.0-6.0-2.0","task_version":"battery-v0.2-trt"},{"view_history":"[{\"page_index\":0,\"viewing_time\":12665.069999871776},{\"page_index\":1,\"viewing_time\":4517.3049999866635}]","rt":17182.86499986425,"trial_type":"pit-instructions","trial_index":16,"time_elapsed":210700,"internal_node_id":"0.0-6.0-3.0","task_version":"battery-v0.2-trt"},{"rune":"2","rune_set":"elianto","hex":"#3366ff99","correct":-1,"choice":32,"rt":743.5099999420345,"accuracy":0,"outcome":"+1","keys":[2243.7749998643994],"total_keys":1,"block":0,"practice":2,"trial_type":"pit-trial","trial_index":17,"time_elapsed":214148,"internal_node_id":"0.0-6.0-4.0-0.0","task_version":"battery-v0.2-trt"},{"rune":"2","rune_set":"elianto","hex":"#3366ff99","correct":-1,"choice":-1,"rt":-1,"accuracy":1,"outcome":"+10","keys":[],"total_keys":0,"block":0,"practice":2,"trial_type":"pit-trial","trial_index":18,"time_elapsed":218152,"internal_node_id":"0.0-6.0-4.1-0.1","task_version":"battery-v0.2-trt"},{"rune":"2","rune_set":"elianto","hex":"#3366ff99","correct":-1,"choice":-1,"rt":-1,"accuracy":1,"outcome":"+10","keys":[],"total_keys":0,"block":0,"practice":2,"trial_type":"pit-trial","trial_index":19,"time_elapsed":222158,"internal_node_id":"0.0-6.0-4.2-0.2","task_version":"battery-v0.2-trt"},{"rune":"2","rune_set":"elianto","hex":"#3366ff99","correct":-1,"choice":-1,"rt":-1,"accuracy":1,"outcome":"+10","keys":[],"total_keys":0,"block":0,"practice":2,"trial_type":"pit-trial","trial_index":20,"time_elapsed":226164,"internal_node_id":"0.0-6.0-4.3-0.3","task_version":"battery-v0.2-trt"},{"trial_type":"call-function","trial_index":21,"time_elapsed":226167,"internal_node_id":"0.0-6.0-5.0","task_version":"battery-v0.2-trt"},{"view_history":"[{\"page_index\":0,\"viewing_time\":10461.859999923036},{\"page_index\":1,\"viewing_time\":6218.91999989748}]","rt":16681.199999991804,"trial_type":"pit-instructions","trial_index":22,"time_elapsed":242849,"internal_node_id":"0.0-6.0-6.0","task_version":"battery-v0.2-trt"},{"rune":"3","rune_set":"elianto","hex":"#f73b6a7A","correct":-1,"choice":32,"rt":442.4499999731779,"accuracy":0,"outcome":"-10","keys":[1942.574999993667],"total_keys":1,"block":0,"practice":3,"trial_type":"pit-trial","trial_index":23,"time_elapsed":245997,"internal_node_id":"0.0-6.0-7.0-0.0","task_version":"battery-v0.2-trt"},{"rune":"3","rune_set":"elianto","hex":"#f73b6a7A","correct":-1,"choice":-1,"rt":-1,"accuracy":1,"outcome":"-1","keys":[],"total_keys":0,"block":0,"practice":3,"trial_type":"pit-trial","trial_index":24,"time_elapsed":250005,"internal_node_id":"0.0-6.0-7.1-0.1","task_version":"battery-v0.2-trt"},{"rune":"3","rune_set":"elianto","hex":"#f73b6a7A","correct":-1,"choice":-1,"rt":-1,"accuracy":1,"outcome":"-1","keys":[],"total_keys":0,"block":0,"practice":3,"trial_type":"pit-trial","trial_index":25,"time_elapsed":254011,"internal_node_id":"0.0-6.0-7.2-0.2","task_version":"battery-v0.2-trt"},{"rune":"3","rune_set":"elianto","hex":"#f73b6a7A","correct":-1,"choice":-1,"rt":-1,"accuracy":1,"outcome":"-1","keys":[],"total_keys":0,"block":0,"practice":3,"trial_type":"pit-trial","trial_index":26,"time_elapsed":258016,"internal_node_id":"0.0-6.0-7.3-0.3","task_version":"battery-v0.2-trt"},{"trial_type":"call-function","trial_index":27,"time_elapsed":258018,"internal_node_id":"0.0-6.0-8.0","task_version":"battery-v0.2-trt"},{"view_history":"[{\"page_index\":0,\"viewing_time\":5920.6900000572205},{\"page_index\":1,\"viewing_time\":6287.639999995008}]","rt":12208.774999948218,"trial_type":"pit-instructions","trial_index":28,"time_elapsed":270228,"internal_node_id":"0.0-6.0-9.0","task_version":"battery-v0.2-trt"},{"rune":"4","rune_set":"elianto","hex":"#f73b6a7A","correct":32,"choice":32,"rt":606.3149999827147,"accuracy":1,"outcome":"-1","keys":[2106.540000066161],"total_keys":1,"block":0,"practice":4,"trial_type":"pit-trial","trial_index":29,"time_elapsed":273538,"internal_node_id":"0.0-6.0-10.0-0.0","task_version":"battery-v0.2-trt"},{"rune":"4","rune_set":"elianto","hex":"#f73b6a7A","correct":32,"choice":32,"rt":413.050000090152,"accuracy":1,"outcome":"-1","keys":[1915.1049999054521],"total_keys":1,"block":0,"practice":4,"trial_type":"pit-trial","trial_index":30,"time_elapsed":276659,"internal_node_id":"0.0-6.0-10.1-0.1","task_version":"battery-v0.2-trt"},{"rune":"4","rune_set":"elianto","hex":"#f73b6a7A","correct":32,"choice":32,"rt":374.4900000747293,"accuracy":1,"outcome":"-1","keys":[1875.3649999853224],"total_keys":1,"block":0,"practice":4,"trial_type":"pit-trial","trial_index":31,"time_elapsed":279739,"internal_node_id":"0.0-6.0-10.2-0.2","task_version":"battery-v0.2-trt"},{"rune":"4","rune_set":"elianto","hex":"#f73b6a7A","correct":32,"choice":32,"rt":238.58499992638826,"accuracy":1,"outcome":"-1","keys":[1739.1300001181662],"total_keys":1,"block":0,"practice":4,"trial_type":"pit-trial","trial_index":32,"time_elapsed":282682,"internal_node_id":"0.0-6.0-10.3-0.3","task_version":"battery-v0.2-trt"},{"trial_type":"call-function","trial_index":33,"time_elapsed":282683,"internal_node_id":"0.0-6.0-11.0","task_version":"battery-v0.2-trt"},{"view_history":"[{\"page_index\":0,\"viewing_time\":2189.02499997057},{\"page_index\":1,\"viewing_time\":6521.29999990575},{\"page_index\":2,\"viewing_time\":4139.775000046939},{\"page_index\":3,\"viewing_time\":1863.08000003919},{\"page_index\":4,\"viewing_time\":2687.1899999678135},{\"page_index\":5,\"viewing_time\":1799.8949999455363}]","rt":19200.62999986112,"trial_type":"pit-instructions","trial_index":34,"time_elapsed":301884,"internal_node_id":"0.0-6.0-12.0","task_version":"battery-v0.2-trt"},{"responses":["Press SPACE","+10","-1","True","True"],"num_errors":0,"rt":18112.280000001192,"trial_type":"pit-comprehension","trial_index":35,"time_elapsed":319999,"internal_node_id":"0.0-6.0-13.0","task_version":"battery-v0.2-trt"},{"view_history":"[{\"page_index\":0,\"viewing_time\":2174.2199999280274},{\"page_index\":1,\"viewing_time\":5763.800000073388}]","rt":7938.395000062883,"trial_type":"pit-instructions","trial_index":36,"time_elapsed":327940,"internal_node_id":"0.0-7.0","task_version":"battery-v0.2-trt"},{"rune":"A","rune_set":"bacs2","hex":"#3366ff99","correct":32,"choice":32,"rt":605.6150000076741,"accuracy":1,"outcome":"+10","keys":[2105.9350001160055],"total_keys":1,"block":1,"trial":1,"stimulus":2,"robot":1,"valence":"win","action":"go","sham":0,"trial_type":"pit-trial","trial_index":37,"time_elapsed":331250,"internal_node_id":"0.0-8.0","task_version":"battery-v0.2-trt"},{"rune":"U","rune_set":"bacs2","hex":"#3366ff99","correct":-1,"choice":32,"rt":614.534999942407,"accuracy":0,"outcome":"+1","keys":[2114.954999880865],"total_keys":1,"block":1,"trial":2,"stimulus":3,"robot":2,"valence":"win","action":"no-go","sham":0,"trial_type":"pit-trial","trial_index":38,"time_elapsed":334571,"internal_node_id":"0.0-9.0","task_version":"battery-v0.2-trt"},{"rune":"N","rune_set":"bacs2","hex":"#f73b6a7A","correct":-1,"choice":32,"rt":964.0350001864135,"accuracy":0,"outcome":"-10","keys":[2465.950000099838],"total_keys":1,"block":1,"trial":3,"stimulus":0,"robot":4,"valence":"lose","action":"no-go","sham":0,"trial_type":"pit-trial","trial_index":39,"time_elapsed":338242,"internal_node_id":"0.0-10.0","task_version":"battery-v0.2-trt"},{"rune":"F","rune_set":"bacs2","hex":"#f73b6a7A","correct":-1,"choice":32,"rt":606.8799998611212,"accuracy":0,"outcome":"-10","keys":[2107.645000098273],"total_keys":1,"block":1,"trial":4,"stimulus":1,"robot":4,"valence":"lose","action":"no-go","sham":0,"trial_type":"pit-trial","trial_index":40,"time_elapsed":341555,"internal_node_id":"0.0-11.0","task_version":"battery-v0.2-trt"},{"rune":"A","rune_set":"bacs2","hex":"#3366ff99","correct":32,"choice":32,"rt":630.6399998720735,"accuracy":1,"outcome":"+10","keys":[2132.3850001208484],"total_keys":1,"block":1,"trial":5,"stimulus":2,"robot":1,"valence":"win","action":"go","sham":0,"trial_type":"pit-trial","trial_index":41,"time_elapsed":344891,"internal_node_id":"0.0-12.0","task_version":"battery-v0.2-trt"},{"rune":"U","rune_set":"bacs2","hex":"#3366ff99","correct":-1,"choice":-1,"rt":-1,"accuracy":1,"outcome":"+10","keys":[],"total_keys":0,"block":1,"trial":6,"stimulus":3,"robot":2,"valence":"win","action":"no-go","sham":0,"trial_type":"pit-trial","trial_index":42,"time_elapsed":348897,"internal_node_id":"0.0-13.0","task_version":"battery-v0.2-trt"},{"rune":"N","rune_set":"bacs2","hex":"#f73b6a7A","correct":-1,"choice":-1,"rt":-1,"accuracy":1,"outcome":"-1","keys":[],"total_keys":0,"block":1,"trial":7,"stimulus":0,"robot":4,"valence":"lose","action":"no-go","sham":0,"trial_type":"pit-trial","trial_index":43,"time_elapsed":352902,"internal_node_id":"0.0-14.0","task_version":"battery-v0.2-trt"},{"rune":"F","rune_set":"bacs2","hex":"#f73b6a7A","correct":-1,"choice":-1,"rt":-1,"accuracy":1,"outcome":"-1","keys":[],"total_keys":0,"block":1,"trial":8,"stimulus":1,"robot":4,"valence":"lose","action":"no-go","sham":0,"trial_type":"pit-trial","trial_index":44,"time_elapsed":356907,"internal_node_id":"0.0-15.0","task_version":"battery-v0.2-trt"},{"rune":"N","rune_set":"bacs2","hex":"#f73b6a7A","correct":-1,"choice":-1,"rt":-1,"accuracy":1,"outcome":"-1","keys":[],"total_keys":0,"block":1,"trial":9,"stimulus":0,"robot":4,"valence":"lose","action":"no-go","sham":0,"trial_type":"pit-trial","trial_index":45,"time_elapsed":360913,"internal_node_id":"0.0-16.0","task_version":"battery-v0.2-trt"},{"rune":"U","rune_set":"bacs2","hex":"#3366ff99","correct":-1,"choice":-1,"rt":-1,"accuracy":1,"outcome":"+1","keys":[],"total_keys":0,"block":1,"trial":10,"stimulus":3,"robot":2,"valence":"win","action":"no-go","sham":1,"trial_type":"pit-trial","trial_index":46,"time_elapsed":364919,"internal_node_id":"0.0-17.0","task_version":"battery-v0.2-trt"},{"rune":"A","rune_set":"bacs2","hex":"#3366ff99","correct":32,"choice":32,"rt":978.9150001015514,"accuracy":1,"outcome":"+1","keys":[2479.2000001762062],"total_keys":1,"block":1,"trial":11,"stimulus":2,"robot":1,"valence":"win","action":"go","sham":1,"trial_type":"pit-trial","trial_index":47,"time_elapsed":368603,"internal_node_id":"0.0-18.0","task_version":"battery-v0.2-trt"},{"rune":"F","rune_set":"bacs2","hex":"#f73b6a7A","correct":-1,"choice":-1,"rt":-1,"accuracy":1,"outcome":"-1","keys":[],"total_keys":0,"block":1,"trial":12,"stimulus":1,"robot":4,"valence":"lose","action":"no-go","sham":0,"trial_type":"pit-trial","trial_index":48,"time_elapsed":372607,"internal_node_id":"0.0-19.0","task_version":"battery-v0.2-trt"},{"rune":"U","rune_set":"bacs2","hex":"#3366ff99","correct":-1,"choice":32,"rt":624.9900001566857,"accuracy":0,"outcome":"+1","keys":[2126.6550000291318],"total_keys":1,"block":1,"trial":13,"stimulus":3,"robot":2,"valence":"win","action":"no-go","sham":0,"trial_type":"pit-trial","trial_index":49,"time_elapsed":375939,"internal_node_id":"0.0-20.0","task_version":"battery-v0.2-trt"},{"rune":"A","rune_set":"bacs2","hex":"#3366ff99","correct":32,"choice":32,"rt":429.1449999436736,"accuracy":1,"outcome":"+10","keys":[1930.5699998512864],"total_keys":1,"block":1,"trial":14,"stimulus":2,"robot":1,"valence":"win","action":"go","sham":0,"trial_type":"pit-trial","trial_index":50,"time_elapsed":379075,"internal_node_id":"0.0-21.0","task_version":"battery-v0.2-trt"},{"rune":"F","rune_set":"bacs2","hex":"#f73b6a7A","correct":-1,"choice":32,"rt":726.1749999597669,"accuracy":0,"outcome":"-10","keys":[2226.429999805987],"total_keys":1,"block":1,"trial":15,"stimulus":1,"robot":4,"valence":"lose","action":"no-go","sham":0,"trial_type":"pit-trial","trial_index":51,"time_elapsed":382506,"internal_node_id":"0.0-22.0","task_version":"battery-v0.2-trt"},{"rune":"N","rune_set":"bacs2","hex":"#f73b6a7A","correct":-1,"choice":-1,"rt":-1,"accuracy":1,"outcome":"-1","keys":[],"total_keys":0,"block":1,"trial":16,"stimulus":0,"robot":4,"valence":"lose","action":"no-go","sham":0,"trial_type":"pit-trial","trial_index":52,"time_elapsed":386511,"internal_node_id":"0.0-23.0","task_version":"battery-v0.2-trt"},{"rune":"U","rune_set":"bacs2","hex":"#3366ff99","correct":-1,"choice":32,"rt":521.7049999628216,"accuracy":0,"outcome":"+1","keys":[2022.4899998866022],"total_keys":1,"block":1,"trial":17,"stimulus":3,"robot":2,"valence":"win","action":"no-go","sham":0,"trial_type":"pit-trial","trial_index":53,"time_elapsed":389738,"internal_node_id":"0.0-24.0","task_version":"battery-v0.2-trt"},{"rune":"F","rune_set":"bacs2","hex":"#f73b6a7A","correct":-1,"choice":-1,"rt":-1,"accuracy":1,"outcome":"-1","keys":[],"total_keys":0,"block":1,"trial":18,"stimulus":1,"robot":4,"valence":"lose","action":"no-go","sham":0,"trial_type":"pit-trial","trial_index":54,"time_elapsed":393745,"internal_node_id":"0.0-25.0","task_version":"battery-v0.2-trt"},{"rune":"A","rune_set":"bacs2","hex":"#3366ff99","correct":32,"choice":32,"rt":416.6999999433756,"accuracy":1,"outcome":"+10","keys":[1917.3650001175702],"total_keys":1,"block":1,"trial":19,"stimulus":2,"robot":1,"valence":"win","action":"go","sham":0,"trial_type":"pit-trial","trial_index":55,"time_elapsed":396867,"internal_node_id":"0.0-26.0","task_version":"battery-v0.2-trt"},{"rune":"N","rune_set":"bacs2","hex":"#f73b6a7A","correct":-1,"choice":-1,"rt":-1,"accuracy":1,"outcome":"-1","keys":[],"total_keys":0,"block":1,"trial":20,"stimulus":0,"robot":4,"valence":"lose","action":"no-go","sham":0,"trial_type":"pit-trial","trial_index":56,"time_elapsed":400873,"internal_node_id":"0.0-27.0","task_version":"battery-v0.2-trt"},{"rune":"U","rune_set":"bacs2","hex":"#3366ff99","correct":-1,"choice":32,"rt":615.3450000565499,"accuracy":0,"outcome":"+10","keys":[2115.585000021383],"total_keys":1,"block":1,"trial":21,"stimulus":3,"robot":2,"valence":"win","action":"no-go","sham":1,"trial_type":"pit-trial","trial_index":57,"time_elapsed":404192,"internal_node_id":"0.0-28.0","task_version":"battery-v0.2-trt"},{"rune":"A","rune_set":"bacs2","hex":"#3366ff99","correct":32,"choice":32,"rt":474.3900001049042,"accuracy":1,"outcome":"+10","keys":[1974.7750000096858],"total_keys":1,"block":1,"trial":22,"stimulus":2,"robot":1,"valence":"win","action":"go","sham":0,"trial_type":"pit-trial","trial_index":58,"time_elapsed":407370,"internal_node_id":"0.0-29.0","task_version":"battery-v0.2-trt"},{"rune":"N","rune_set":"bacs2","hex":"#f73b6a7A","correct":-1,"choice":-1,"rt":-1,"accuracy":1,"outcome":"-1","keys":[],"total_keys":0,"block":1,"trial":23,"stimulus":0,"robot":4,"valence":"lose","action":"no-go","sham":0,"trial_type":"pit-trial","trial_index":59,"time_elapsed":411377,"internal_node_id":"0.0-30.0","task_version":"battery-v0.2-trt"},{"rune":"F","rune_set":"bacs2","hex":"#f73b6a7A","correct":-1,"choice":-1,"rt":-1,"accuracy":1,"outcome":"-1","keys":[],"total_keys":0,"block":1,"trial":24,"stimulus":1,"robot":4,"valence":"lose","action":"no-go","sham":0,"trial_type":"pit-trial","trial_index":60,"time_elapsed":415385,"internal_node_id":"0.0-31.0","task_version":"battery-v0.2-trt"},{"rune":"A","rune_set":"bacs2","hex":"#3366ff99","correct":32,"choice":32,"rt":311.2049999181181,"accuracy":1,"outcome":"+1","keys":[1811.2299998756498],"total_keys":1,"block":1,"trial":25,"stimulus":2,"robot":1,"valence":"win","action":"go","sham":1,"trial_type":"pit-trial","trial_index":61,"time_elapsed":418402,"internal_node_id":"0.0-32.0","task_version":"battery-v0.2-trt"},{"rune":"F","rune_set":"bacs2","hex":"#f73b6a7A","correct":-1,"choice":-1,"rt":-1,"accuracy":1,"outcome":"-1","keys":[],"total_keys":0,"block":1,"trial":26,"stimulus":1,"robot":4,"valence":"lose","action":"no-go","sham":0,"trial_type":"pit-trial","trial_index":62,"time_elapsed":422408,"internal_node_id":"0.0-33.0","task_version":"battery-v0.2-trt"},{"rune":"U","rune_set":"bacs2","hex":"#3366ff99","correct":-1,"choice":32,"rt":512.2199999168515,"accuracy":0,"outcome":"+10","keys":[2013.3099998347461],"total_keys":1,"block":1,"trial":27,"stimulus":3,"robot":2,"valence":"win","action":"no-go","sham":1,"trial_type":"pit-trial","trial_index":63,"time_elapsed":425626,"internal_node_id":"0.0-34.0","task_version":"battery-v0.2-trt"},{"rune":"N","rune_set":"bacs2","hex":"#f73b6a7A","correct":-1,"choice":-1,"rt":-1,"accuracy":1,"outcome":"-1","keys":[],"total_keys":0,"block":1,"trial":28,"stimulus":0,"robot":4,"valence":"lose","action":"no-go","sham":0,"trial_type":"pit-trial","trial_index":64,"time_elapsed":429637,"internal_node_id":"0.0-35.0","task_version":"battery-v0.2-trt"},{"rune":"N","rune_set":"bacs2","hex":"#f73b6a7A","correct":-1,"choice":-1,"rt":-1,"accuracy":1,"outcome":"-1","keys":[],"total_keys":0,"block":1,"trial":29,"stimulus":0,"robot":4,"valence":"lose","action":"no-go","sham":0,"trial_type":"pit-trial","trial_index":65,"time_elapsed":433643,"internal_node_id":"0.0-36.0","task_version":"battery-v0.2-trt"},{"rune":"U","rune_set":"bacs2","hex":"#3366ff99","correct":-1,"choice":32,"rt":412.00500004924834,"accuracy":0,"outcome":"+10","keys":[1914.0449999831617],"total_keys":1,"block":1,"trial":30,"stimulus":3,"robot":2,"valence":"win","action":"no-go","sham":1,"trial_type":"pit-trial","trial_index":66,"time_elapsed":436761,"internal_node_id":"0.0-37.0","task_version":"battery-v0.2-trt"},{"rune":"F","rune_set":"bacs2","hex":"#f73b6a7A","correct":-1,"choice":-1,"rt":-1,"accuracy":1,"outcome":"-10","keys":[],"total_keys":0,"block":1,"trial":31,"stimulus":1,"robot":4,"valence":"lose","action":"no-go","sham":1,"trial_type":"pit-trial","trial_index":67,"time_elapsed":440768,"internal_node_id":"0.0-38.0","task_version":"battery-v0.2-trt"},{"rune":"A","rune_set":"bacs2","hex":"#3366ff99","correct":32,"choice":32,"rt":439.07999992370605,"accuracy":1,"outcome":"+10","keys":[1940.3500000480562],"total_keys":1,"block":1,"trial":32,"stimulus":2,"robot":1,"valence":"win","action":"go","sham":0,"trial_type":"pit-trial","trial_index":68,"time_elapsed":443914,"internal_node_id":"0.0-39.0","task_version":"battery-v0.2-trt"},{"rune":"U","rune_set":"bacs2","hex":"#3366ff99","correct":-1,"choice":32,"rt":543.0099999066442,"accuracy":0,"outcome":"+1","keys":[2043.2400000281632],"total_keys":1,"block":1,"trial":33,"stimulus":3,"robot":2,"valence":"win","action":"no-go","sham":0,"trial_type":"pit-trial","trial_index":69,"time_elapsed":447161,"internal_node_id":"0.0-40.0","task_version":"battery-v0.2-trt"},{"rune":"N","rune_set":"bacs2","hex":"#f73b6a7A","correct":-1,"choice":32,"rt":680.1500001456589,"accuracy":0,"outcome":"-1","keys":[2180.7150000240654],"total_keys":1,"block":1,"trial":34,"stimulus":0,"robot":4,"valence":"lose","action":"no-go","sham":1,"trial_type":"pit-trial","trial_index":70,"time_elapsed":450548,"internal_node_id":"0.0-41.0","task_version":"battery-v0.2-trt"},{"rune":"S","rune_set":"bacs2","hex":"#f73b6a7A","correct":32,"choice":32,"rt":876.3999999500811,"accuracy":1,"outcome":"-10","keys":[2378.0249999836087],"total_keys":1,"block":1,"trial":35,"stimulus":4,"robot":3,"valence":"lose","action":"go","sham":1,"trial_type":"pit-trial","trial_index":71,"time_elapsed":454131,"internal_node_id":"0.0-42.0","task_version":"battery-v0.2-trt"},{"rune":"A","rune_set":"bacs2","hex":"#3366ff99","correct":32,"choice":32,"rt":518.6950000934303,"accuracy":1,"outcome":"+10","keys":[2019.2950000055134],"total_keys":1,"block":1,"trial":36,"stimulus":2,"robot":1,"valence":"win","action":"go","sham":0,"trial_type":"pit-trial","trial_index":72,"time_elapsed":457354,"internal_node_id":"0.0-43.0","task_version":"battery-v0.2-trt"},{"rune":"N","rune_set":"bacs2","hex":"#f73b6a7A","correct":-1,"choice":32,"rt":655.0900000147521,"accuracy":0,"outcome":"-10","keys":[2155.479999957606],"total_keys":1,"block":1,"trial":37,"stimulus":0,"robot":4,"valence":"lose","action":"no-go","sham":0,"trial_type":"pit-trial","trial_index":73,"time_elapsed":460714,"internal_node_id":"0.0-44.0","task_version":"battery-v0.2-trt"},{"rune":"S","rune_set":"bacs2","hex":"#f73b6a7A","correct":32,"choice":32,"rt":741.5549999568611,"accuracy":1,"outcome":"-1","keys":[2243.030000012368],"total_keys":1,"block":1,"trial":38,"stimulus":4,"robot":3,"valence":"lose","action":"go","sham":0,"trial_type":"pit-trial","trial_index":74,"time_elapsed":464162,"internal_node_id":"0.0-45.0","task_version":"battery-v0.2-trt"},{"rune":"U","rune_set":"bacs2","hex":"#3366ff99","correct":-1,"choice":32,"rt":445.8749999757856,"accuracy":0,"outcome":"+1","keys":[1946.4649998117238],"total_keys":1,"block":1,"trial":39,"stimulus":3,"robot":2,"valence":"win","action":"no-go","sham":0,"trial_type":"pit-trial","trial_index":75,"time_elapsed":467313,"internal_node_id":"0.0-46.0","task_version":"battery-v0.2-trt"},{"rune":"A","rune_set":"bacs2","hex":"#3366ff99","correct":32,"choice":32,"rt":302.8100000228733,"accuracy":1,"outcome":"+10","keys":[1804.149999981746],"total_keys":1,"block":1,"trial":40,"stimulus":2,"robot":1,"valence":"win","action":"go","sham":0,"trial_type":"pit-trial","trial_index":76,"time_elapsed":470321,"internal_node_id":"0.0-47.0","task_version":"battery-v0.2-trt"},{"rune":"N","rune_set":"bacs2","hex":"#f73b6a7A","correct":-1,"choice":32,"rt":663.399999961257,"accuracy":0,"outcome":"-10","keys":[2164.7850000299513],"total_keys":1,"block":1,"trial":41,"stimulus":0,"robot":4,"valence":"lose","action":"no-go","sham":0,"trial_type":"pit-trial","trial_index":77,"time_elapsed":473690,"internal_node_id":"0.0-48.0","task_version":"battery-v0.2-trt"},{"rune":"P","rune_set":"bacs2","hex":"#3366ff99","correct":32,"choice":32,"rt":718.129999935627,"accuracy":1,"outcome":"+10","keys":[2219.0499999560416],"total_keys":1,"block":1,"trial":42,"stimulus":6,"robot":1,"valence":"win","action":"go","sham":0,"trial_type":"pit-trial","trial_index":78,"time_elapsed":477115,"internal_node_id":"0.0-49.0","task_version":"battery-v0.2-trt"},{"rune":"S","rune_set":"bacs2","hex":"#f73b6a7A","correct":32,"choice":32,"rt":757.4399998411536,"accuracy":1,"outcome":"-1","keys":[2258.0099999904633],"total_keys":1,"block":1,"trial":43,"stimulus":4,"robot":3,"valence":"lose","action":"go","sham":0,"trial_type":"pit-trial","trial_index":79,"time_elapsed":480578,"internal_node_id":"0.0-50.0","task_version":"battery-v0.2-trt"},{"rune":"L","rune_set":"bacs2","hex":"#3366ff99","correct":-1,"choice":32,"rt":766.7450001463294,"accuracy":0,"outcome":"+1","keys":[2267.374999821186],"total_keys":1,"block":1,"trial":44,"stimulus":5,"robot":2,"valence":"win","action":"no-go","sham":0,"trial_type":"pit-trial","trial_index":80,"time_elapsed":484050,"internal_node_id":"0.0-51.0","task_version":"battery-v0.2-trt"},{"rune":"N","rune_set":"bacs2","hex":"#f73b6a7A","correct":-1,"choice":-1,"rt":-1,"accuracy":1,"outcome":"-1","keys":[],"total_keys":0,"block":1,"trial":45,"stimulus":0,"robot":4,"valence":"lose","action":"no-go","sham":0,"trial_type":"pit-trial","trial_index":81,"time_elapsed":488056,"internal_node_id":"0.0-52.0","task_version":"battery-v0.2-trt"},{"rune":"L","rune_set":"bacs2","hex":"#3366ff99","correct":-1,"choice":32,"rt":761.3299998920411,"accuracy":0,"outcome":"+1","keys":[2262.170000001788],"total_keys":1,"block":1,"trial":46,"stimulus":5,"robot":2,"valence":"win","action":"no-go","sham":0,"trial_type":"pit-trial","trial_index":82,"time_elapsed":491524,"internal_node_id":"0.0-53.0","task_version":"battery-v0.2-trt"},{"rune":"S","rune_set":"bacs2","hex":"#f73b6a7A","correct":32,"choice":32,"rt":764.1600000206381,"accuracy":1,"outcome":"-1","keys":[2265.4099999926984],"total_keys":1,"block":1,"trial":47,"stimulus":4,"robot":3,"valence":"lose","action":"go","sham":0,"trial_type":"pit-trial","trial_index":83,"time_elapsed":494993,"internal_node_id":"0.0-54.0","task_version":"battery-v0.2-trt"},{"rune":"P","rune_set":"bacs2","hex":"#3366ff99","correct":32,"choice":32,"rt":738.1500001065433,"accuracy":1,"outcome":"+10","keys":[2238.18500014022],"total_keys":1,"block":1,"trial":48,"stimulus":6,"robot":1,"valence":"win","action":"go","sham":0,"trial_type":"pit-trial","trial_index":84,"time_elapsed":498435,"internal_node_id":"0.0-55.0","task_version":"battery-v0.2-trt"},{"rune":"L","rune_set":"bacs2","hex":"#3366ff99","correct":-1,"choice":32,"rt":590.0050001218915,"accuracy":0,"outcome":"+1","keys":[2090.3549999929965],"total_keys":1,"block":1,"trial":49,"stimulus":5,"robot":2,"valence":"win","action":"no-go","sham":0,"trial_type":"pit-trial","trial_index":85,"time_elapsed":501728,"internal_node_id":"0.0-56.0","task_version":"battery-v0.2-trt"},{"rune":"P","rune_set":"bacs2","hex":"#3366ff99","correct":32,"choice":32,"rt":706.0799999162555,"accuracy":1,"outcome":"+10","keys":[2206.7149998620152],"total_keys":1,"block":1,"trial":50,"stimulus":6,"robot":1,"valence":"win","action":"go","sham":0,"trial_type":"pit-trial","trial_index":86,"time_elapsed":505139,"internal_node_id":"0.0-57.0","task_version":"battery-v0.2-trt"},{"rune":"R","rune_set":"bacs2","hex":"#f73b6a7A","correct":-1,"choice":32,"rt":799.7850000392646,"accuracy":0,"outcome":"-1","keys":[2300.074999919161],"total_keys":1,"block":1,"trial":51,"stimulus":7,"robot":4,"valence":"lose","action":"no-go","sham":1,"trial_type":"pit-trial","trial_index":87,"time_elapsed":508642,"internal_node_id":"0.0-58.0","task_version":"battery-v0.2-trt"},{"rune":"S","rune_set":"bacs2","hex":"#f73b6a7A","correct":32,"choice":32,"rt":685.8549998141825,"accuracy":1,"outcome":"-1","keys":[2186.6099999751896],"total_keys":1,"block":1,"trial":52,"stimulus":4,"robot":3,"valence":"lose","action":"go","sham":0,"trial_type":"pit-trial","trial_index":88,"time_elapsed":512034,"internal_node_id":"0.0-59.0","task_version":"battery-v0.2-trt"},{"rune":"R","rune_set":"bacs2","hex":"#f73b6a7A","correct":-1,"choice":32,"rt":663.9050000812858,"accuracy":0,"outcome":"-1","keys":[2164.439999964088],"total_keys":1,"block":1,"trial":53,"stimulus":7,"robot":4,"valence":"lose","action":"no-go","sham":1,"trial_type":"pit-trial","trial_index":89,"time_elapsed":515403,"internal_node_id":"0.0-60.0","task_version":"battery-v0.2-trt"},{"rune":"P","rune_set":"bacs2","hex":"#3366ff99","correct":32,"choice":32,"rt":628.484999993816,"accuracy":1,"outcome":"+10","keys":[2129.630000097677],"total_keys":1,"block":1,"trial":54,"stimulus":6,"robot":1,"valence":"win","action":"go","sham":0,"trial_type":"pit-trial","trial_index":90,"time_elapsed":518739,"internal_node_id":"0.0-61.0","task_version":"battery-v0.2-trt"},{"rune":"S","rune_set":"bacs2","hex":"#f73b6a7A","correct":32,"choice":32,"rt":598.0150001123548,"accuracy":1,"outcome":"-1","keys":[2099.0400000009686],"total_keys":1,"block":1,"trial":55,"stimulus":4,"robot":3,"valence":"lose","action":"go","sham":0,"trial_type":"pit-trial","trial_index":91,"time_elapsed":522043,"internal_node_id":"0.0-62.0","task_version":"battery-v0.2-trt"},{"rune":"L","rune_set":"bacs2","hex":"#3366ff99","correct":-1,"choice":-1,"rt":-1,"accuracy":1,"outcome":"+10","keys":[],"total_keys":0,"block":1,"trial":56,"stimulus":5,"robot":2,"valence":"win","action":"no-go","sham":0,"trial_type":"pit-trial","trial_index":92,"time_elapsed":526049,"internal_node_id":"0.0-63.0","task_version":"battery-v0.2-trt"},{"rune":"L","rune_set":"bacs2","hex":"#3366ff99","correct":-1,"choice":-1,"rt":-1,"accuracy":1,"outcome":"+10","keys":[],"total_keys":0,"block":1,"trial":57,"stimulus":5,"robot":2,"valence":"win","action":"no-go","sham":0,"trial_type":"pit-trial","trial_index":93,"time_elapsed":530054,"internal_node_id":"0.0-64.0","task_version":"battery-v0.2-trt"},{"rune":"S","rune_set":"bacs2","hex":"#f73b6a7A","correct":32,"choice":32,"rt":491.21999996714294,"accuracy":1,"outcome":"-1","keys":[1991.670000134036],"total_keys":1,"block":1,"trial":58,"stimulus":4,"robot":3,"valence":"lose","action":"go","sham":0,"trial_type":"pit-trial","trial_index":94,"time_elapsed":533249,"internal_node_id":"0.0-65.0","task_version":"battery-v0.2-trt"},{"rune":"R","rune_set":"bacs2","hex":"#f73b6a7A","correct":-1,"choice":32,"rt":573.9800001028925,"accuracy":0,"outcome":"-10","keys":[2075.349999824539],"total_keys":1,"block":1,"trial":59,"stimulus":7,"robot":4,"valence":"lose","action":"no-go","sham":0,"trial_type":"pit-trial","trial_index":95,"time_elapsed":536529,"internal_node_id":"0.0-66.0","task_version":"battery-v0.2-trt"},{"rune":"P","rune_set":"bacs2","hex":"#3366ff99","correct":32,"choice":32,"rt":520.1349998824298,"accuracy":1,"outcome":"+10","keys":[2020.4150001518428],"total_keys":1,"block":1,"trial":60,"stimulus":6,"robot":1,"valence":"win","action":"go","sham":0,"trial_type":"pit-trial","trial_index":96,"time_elapsed":539754,"internal_node_id":"0.0-67.0","task_version":"battery-v0.2-trt"},{"rune":"L","rune_set":"bacs2","hex":"#3366ff99","correct":-1,"choice":-1,"rt":-1,"accuracy":1,"outcome":"+10","keys":[],"total_keys":0,"block":1,"trial":61,"stimulus":5,"robot":2,"valence":"win","action":"no-go","sham":0,"trial_type":"pit-trial","trial_index":97,"time_elapsed":543760,"internal_node_id":"0.0-68.0","task_version":"battery-v0.2-trt"},{"rune":"S","rune_set":"bacs2","hex":"#f73b6a7A","correct":32,"choice":32,"rt":607.334999833256,"accuracy":1,"outcome":"-10","keys":[2108.9250000659376],"total_keys":1,"block":1,"trial":62,"stimulus":4,"robot":3,"valence":"lose","action":"go","sham":1,"trial_type":"pit-trial","trial_index":98,"time_elapsed":547072,"internal_node_id":"0.0-69.0","task_version":"battery-v0.2-trt"},{"rune":"P","rune_set":"bacs2","hex":"#3366ff99","correct":32,"choice":32,"rt":1058.6099999491125,"accuracy":1,"outcome":"+10","keys":[2558.7000001687557],"total_keys":1,"block":1,"trial":63,"stimulus":6,"robot":1,"valence":"win","action":"go","sham":0,"trial_type":"pit-trial","trial_index":99,"time_elapsed":550835,"internal_node_id":"0.0-70.0","task_version":"battery-v0.2-trt"},{"rune":"R","rune_set":"bacs2","hex":"#f73b6a7A","correct":-1,"choice":32,"rt":875.9899998549372,"accuracy":0,"outcome":"-10","keys":[2377.769999904558],"total_keys":1,"block":1,"trial":64,"stimulus":7,"robot":4,"valence":"lose","action":"no-go","sham":0,"trial_type":"pit-trial","trial_index":100,"time_elapsed":554418,"internal_node_id":"0.0-71.0","task_version":"battery-v0.2-trt"},{"rune":"P","rune_set":"bacs2","hex":"#3366ff99","correct":32,"choice":32,"rt":631.1900001019239,"accuracy":1,"outcome":"+10","keys":[2133.1549999304116],"total_keys":1,"block":1,"trial":65,"stimulus":6,"robot":1,"valence":"win","action":"go","sham":0,"trial_type":"pit-trial","trial_index":101,"time_elapsed":557755,"internal_node_id":"0.0-72.0","task_version":"battery-v0.2-trt"},{"rune":"L","rune_set":"bacs2","hex":"#3366ff99","correct":-1,"choice":-1,"rt":-1,"accuracy":1,"outcome":"+10","keys":[],"total_keys":0,"block":1,"trial":66,"stimulus":5,"robot":2,"valence":"win","action":"no-go","sham":0,"trial_type":"pit-trial","trial_index":102,"time_elapsed":561759,"internal_node_id":"0.0-73.0","task_version":"battery-v0.2-trt"},{"rune":"R","rune_set":"bacs2","hex":"#f73b6a7A","correct":-1,"choice":-1,"rt":-1,"accuracy":1,"outcome":"-10","keys":[],"total_keys":0,"block":1,"trial":67,"stimulus":7,"robot":4,"valence":"lose","action":"no-go","sham":1,"trial_type":"pit-trial","trial_index":103,"time_elapsed":565767,"internal_node_id":"0.0-74.0","task_version":"battery-v0.2-trt"},{"rune":"S","rune_set":"bacs2","hex":"#f73b6a7A","correct":32,"choice":32,"rt":585.1499999407679,"accuracy":1,"outcome":"-1","keys":[2085.525000002235],"total_keys":1,"block":1,"trial":68,"stimulus":4,"robot":3,"valence":"lose","action":"go","sham":0,"trial_type":"pit-trial","trial_index":104,"time_elapsed":569058,"internal_node_id":"0.0-75.0","task_version":"battery-v0.2-trt"},{"rune":"L","rune_set":"bacs2","hex":"#3366ff99","correct":-1,"choice":-1,"rt":-1,"accuracy":1,"outcome":"+10","keys":[],"total_keys":0,"block":1,"trial":69,"stimulus":5,"robot":2,"valence":"win","action":"no-go","sham":0,"trial_type":"pit-trial","trial_index":105,"time_elapsed":573063,"internal_node_id":"0.0-76.0","task_version":"battery-v0.2-trt"},{"rune":"P","rune_set":"bacs2","hex":"#3366ff99","correct":32,"choice":32,"rt":498.30499989911914,"accuracy":1,"outcome":"+10","keys":[2000.264999922365],"total_keys":1,"block":1,"trial":70,"stimulus":6,"robot":1,"valence":"win","action":"go","sham":0,"trial_type":"pit-trial","trial_index":106,"time_elapsed":576267,"internal_node_id":"0.0-77.0","task_version":"battery-v0.2-trt"},{"rune":"R","rune_set":"bacs2","hex":"#f73b6a7A","correct":-1,"choice":32,"rt":949.1599998436868,"accuracy":0,"outcome":"-10","keys":[2449.2450000252575],"total_keys":1,"block":1,"trial":71,"stimulus":7,"robot":4,"valence":"lose","action":"no-go","sham":0,"trial_type":"pit-trial","trial_index":107,"time_elapsed":579921,"internal_node_id":"0.0-78.0","task_version":"battery-v0.2-trt"},{"rune":"S","rune_set":"bacs2","hex":"#f73b6a7A","correct":32,"choice":-1,"rt":-1,"accuracy":0,"outcome":"-10","keys":[],"total_keys":0,"block":1,"trial":72,"stimulus":4,"robot":3,"valence":"lose","action":"go","sham":0,"trial_type":"pit-trial","trial_index":108,"time_elapsed":583926,"internal_node_id":"0.0-79.0","task_version":"battery-v0.2-trt"},{"rune":"R","rune_set":"bacs2","hex":"#f73b6a7A","correct":-1,"choice":32,"rt":987.4849999323487,"accuracy":0,"outcome":"-10","keys":[2487.944999942556],"total_keys":1,"block":1,"trial":73,"stimulus":7,"robot":4,"valence":"lose","action":"no-go","sham":0,"trial_type":"pit-trial","trial_index":109,"time_elapsed":587618,"internal_node_id":"0.0-80.0","task_version":"battery-v0.2-trt"},{"rune":"L","rune_set":"bacs2","hex":"#3366ff99","correct":-1,"choice":-1,"rt":-1,"accuracy":1,"outcome":"+10","keys":[],"total_keys":0,"block":1,"trial":74,"stimulus":5,"robot":2,"valence":"win","action":"no-go","sham":0,"trial_type":"pit-trial","trial_index":110,"time_elapsed":591622,"internal_node_id":"0.0-81.0","task_version":"battery-v0.2-trt"},{"rune":"V","rune_set":"bacs2","hex":"#3366ff99","correct":32,"choice":32,"rt":673.86500001885,"accuracy":1,"outcome":"+10","keys":[2175.6550001446158],"total_keys":1,"block":1,"trial":75,"stimulus":8,"robot":1,"valence":"win","action":"go","sham":0,"trial_type":"pit-trial","trial_index":111,"time_elapsed":595000,"internal_node_id":"0.0-82.0","task_version":"battery-v0.2-trt"},{"rune":"K","rune_set":"bacs2","hex":"#f73b6a7A","correct":32,"choice":32,"rt":1032.9050000291318,"accuracy":1,"outcome":"-1","keys":[2533.310000086203],"total_keys":1,"block":1,"trial":76,"stimulus":9,"robot":3,"valence":"lose","action":"go","sham":0,"trial_type":"pit-trial","trial_index":112,"time_elapsed":598738,"internal_node_id":"0.0-83.0","task_version":"battery-v0.2-trt"},{"rune":"K","rune_set":"bacs2","hex":"#f73b6a7A","correct":32,"choice":32,"rt":559.6800001803786,"accuracy":1,"outcome":"-10","keys":[2060.1599998772144],"total_keys":1,"block":1,"trial":77,"stimulus":9,"robot":3,"valence":"lose","action":"go","sham":1,"trial_type":"pit-trial","trial_index":113,"time_elapsed":602002,"internal_node_id":"0.0-84.0","task_version":"battery-v0.2-trt"},{"rune":"L","rune_set":"bacs2","hex":"#3366ff99","correct":-1,"choice":-1,"rt":-1,"accuracy":1,"outcome":"+10","keys":[],"total_keys":0,"block":1,"trial":78,"stimulus":5,"robot":2,"valence":"win","action":"no-go","sham":0,"trial_type":"pit-trial","trial_index":114,"time_elapsed":606006,"internal_node_id":"0.0-85.0","task_version":"battery-v0.2-trt"},{"rune":"R","rune_set":"bacs2","hex":"#f73b6a7A","correct":-1,"choice":-1,"rt":-1,"accuracy":1,"outcome":"-10","keys":[2885.4300000239164],"total_keys":1,"block":1,"trial":79,"stimulus":7,"robot":4,"valence":"lose","action":"no-go","sham":1,"trial_type":"pit-trial","trial_index":115,"time_elapsed":610013,"internal_node_id":"0.0-86.0","task_version":"battery-v0.2-trt"},{"rune":"V","rune_set":"bacs2","hex":"#3366ff99","correct":32,"choice":32,"rt":957.010000012815,"accuracy":1,"outcome":"+10","keys":[2457.0349999703467],"total_keys":1,"block":1,"trial":80,"stimulus":8,"robot":1,"valence":"win","action":"go","sham":0,"trial_type":"pit-trial","trial_index":116,"time_elapsed":613674,"internal_node_id":"0.0-87.0","task_version":"battery-v0.2-trt"},{"rune":"K","rune_set":"bacs2","hex":"#f73b6a7A","correct":32,"choice":32,"rt":1096.2449999060482,"accuracy":1,"outcome":"-1","keys":[2597.279999870807],"total_keys":1,"block":1,"trial":81,"stimulus":9,"robot":3,"valence":"lose","action":"go","sham":0,"trial_type":"pit-trial","trial_index":117,"time_elapsed":617476,"internal_node_id":"0.0-88.0","task_version":"battery-v0.2-trt"},{"rune":"L","rune_set":"bacs2","hex":"#3366ff99","correct":-1,"choice":-1,"rt":-1,"accuracy":1,"outcome":"+10","keys":[],"total_keys":0,"block":1,"trial":82,"stimulus":5,"robot":2,"valence":"win","action":"no-go","sham":0,"trial_type":"pit-trial","trial_index":118,"time_elapsed":621481,"internal_node_id":"0.0-89.0","task_version":"battery-v0.2-trt"},{"rune":"R","rune_set":"bacs2","hex":"#f73b6a7A","correct":-1,"choice":-1,"rt":-1,"accuracy":1,"outcome":"-1","keys":[],"total_keys":0,"block":1,"trial":83,"stimulus":7,"robot":4,"valence":"lose","action":"no-go","sham":0,"trial_type":"pit-trial","trial_index":119,"time_elapsed":625487,"internal_node_id":"0.0-90.0","task_version":"battery-v0.2-trt"},{"rune":"V","rune_set":"bacs2","hex":"#3366ff99","correct":32,"choice":32,"rt":570.7499999552965,"accuracy":1,"outcome":"+10","keys":[2071.2150000035763],"total_keys":1,"block":1,"trial":84,"stimulus":8,"robot":1,"valence":"win","action":"go","sham":0,"trial_type":"pit-trial","trial_index":120,"time_elapsed":628761,"internal_node_id":"0.0-91.0","task_version":"battery-v0.2-trt"},{"rune":"K","rune_set":"bacs2","hex":"#f73b6a7A","correct":32,"choice":32,"rt":552.2900000214577,"accuracy":1,"outcome":"-10","keys":[2053.330000024289],"total_keys":1,"block":1,"trial":85,"stimulus":9,"robot":3,"valence":"lose","action":"go","sham":1,"trial_type":"pit-trial","trial_index":121,"time_elapsed":632019,"internal_node_id":"0.0-92.0","task_version":"battery-v0.2-trt"},{"rune":"L","rune_set":"bacs2","hex":"#3366ff99","correct":-1,"choice":-1,"rt":-1,"accuracy":1,"outcome":"+10","keys":[],"total_keys":0,"block":1,"trial":86,"stimulus":5,"robot":2,"valence":"win","action":"no-go","sham":0,"trial_type":"pit-trial","trial_index":122,"time_elapsed":636024,"internal_node_id":"0.0-93.0","task_version":"battery-v0.2-trt"},{"rune":"V","rune_set":"bacs2","hex":"#3366ff99","correct":32,"choice":32,"rt":537.1200002264231,"accuracy":1,"outcome":"+10","keys":[2038.7500000651926],"total_keys":1,"block":1,"trial":87,"stimulus":8,"robot":1,"valence":"win","action":"go","sham":0,"trial_type":"pit-trial","trial_index":123,"time_elapsed":639267,"internal_node_id":"0.0-94.0","task_version":"battery-v0.2-trt"},{"rune":"R","rune_set":"bacs2","hex":"#f73b6a7A","correct":-1,"choice":-1,"rt":-1,"accuracy":1,"outcome":"-1","keys":[],"total_keys":0,"block":1,"trial":88,"stimulus":7,"robot":4,"valence":"lose","action":"no-go","sham":0,"trial_type":"pit-trial","trial_index":124,"time_elapsed":643271,"internal_node_id":"0.0-95.0","task_version":"battery-v0.2-trt"},{"rune":"B","rune_set":"bacs2","hex":"#f73b6a7A","correct":32,"choice":32,"rt":801.1000000406057,"accuracy":1,"outcome":"-1","keys":[2301.6599998809397],"total_keys":1,"block":1,"trial":89,"stimulus":10,"robot":3,"valence":"lose","action":"go","sham":0,"trial_type":"pit-trial","trial_index":125,"time_elapsed":646779,"internal_node_id":"0.0-96.0","task_version":"battery-v0.2-trt"},{"rune":"M","rune_set":"bacs2","hex":"#3366ff99","correct":-1,"choice":32,"rt":885.3349999990314,"accuracy":0,"outcome":"+1","keys":[2387.0649999007583],"total_keys":1,"block":1,"trial":90,"stimulus":11,"robot":2,"valence":"win","action":"no-go","sham":0,"trial_type":"pit-trial","trial_index":126,"time_elapsed":650371,"internal_node_id":"0.0-97.0","task_version":"battery-v0.2-trt"},{"rune":"K","rune_set":"bacs2","hex":"#f73b6a7A","correct":32,"choice":-1,"rt":-1,"accuracy":0,"outcome":"-10","keys":[],"total_keys":0,"block":1,"trial":91,"stimulus":9,"robot":3,"valence":"lose","action":"go","sham":0,"trial_type":"pit-trial","trial_index":127,"time_elapsed":654378,"internal_node_id":"0.0-98.0","task_version":"battery-v0.2-trt"},{"rune":"V","rune_set":"bacs2","hex":"#3366ff99","correct":32,"choice":32,"rt":573.0299998540431,"accuracy":1,"outcome":"+1","keys":[2073.8300001248717],"total_keys":1,"block":1,"trial":92,"stimulus":8,"robot":1,"valence":"win","action":"go","sham":1,"trial_type":"pit-trial","trial_index":128,"time_elapsed":657656,"internal_node_id":"0.0-99.0","task_version":"battery-v0.2-trt"},{"rune":"M","rune_set":"bacs2","hex":"#3366ff99","correct":-1,"choice":32,"rt":1169.349999865517,"accuracy":0,"outcome":"+1","keys":[2670.0450000353158],"total_keys":1,"block":1,"trial":93,"stimulus":11,"robot":2,"valence":"win","action":"no-go","sham":0,"trial_type":"pit-trial","trial_index":129,"time_elapsed":661529,"internal_node_id":"0.0-100.0","task_version":"battery-v0.2-trt"},{"rune":"V","rune_set":"bacs2","hex":"#3366ff99","correct":32,"choice":32,"rt":646.7150000389665,"accuracy":1,"outcome":"+10","keys":[2147.4850000813603],"total_keys":1,"block":1,"trial":94,"stimulus":8,"robot":1,"valence":"win","action":"go","sham":0,"trial_type":"pit-trial","trial_index":130,"time_elapsed":664882,"internal_node_id":"0.0-101.0","task_version":"battery-v0.2-trt"},{"rune":"K","rune_set":"bacs2","hex":"#f73b6a7A","correct":32,"choice":-1,"rt":-1,"accuracy":0,"outcome":"-10","keys":[],"total_keys":0,"block":1,"trial":95,"stimulus":9,"robot":3,"valence":"lose","action":"go","sham":0,"trial_type":"pit-trial","trial_index":131,"time_elapsed":668888,"internal_node_id":"0.0-102.0","task_version":"battery-v0.2-trt"},{"rune":"B","rune_set":"bacs2","hex":"#f73b6a7A","correct":32,"choice":32,"rt":728.815000038594,"accuracy":1,"outcome":"-10","keys":[2229.7249999828637],"total_keys":1,"block":1,"trial":96,"stimulus":10,"robot":3,"valence":"lose","action":"go","sham":1,"trial_type":"pit-trial","trial_index":132,"time_elapsed":672321,"internal_node_id":"0.0-103.0","task_version":"battery-v0.2-trt"},{"rune":"V","rune_set":"bacs2","hex":"#3366ff99","correct":32,"choice":32,"rt":807.5699999462813,"accuracy":1,"outcome":"+10","keys":[2309.099999954924],"total_keys":1,"block":1,"trial":97,"stimulus":8,"robot":1,"valence":"win","action":"go","sham":0,"trial_type":"pit-trial","trial_index":133,"time_elapsed":675835,"internal_node_id":"0.0-104.0","task_version":"battery-v0.2-trt"},{"rune":"M","rune_set":"bacs2","hex":"#3366ff99","correct":-1,"choice":32,"rt":868.6600001528859,"accuracy":0,"outcome":"+10","keys":[2369.7600001469254],"total_keys":1,"block":1,"trial":98,"stimulus":11,"robot":2,"valence":"win","action":"no-go","sham":1,"trial_type":"pit-trial","trial_index":134,"time_elapsed":679410,"internal_node_id":"0.0-105.0","task_version":"battery-v0.2-trt"},{"rune":"B","rune_set":"bacs2","hex":"#f73b6a7A","correct":32,"choice":32,"rt":614.8099999409169,"accuracy":1,"outcome":"-1","keys":[2115.49499980174],"total_keys":1,"block":1,"trial":99,"stimulus":10,"robot":3,"valence":"lose","action":"go","sham":0,"trial_type":"pit-trial","trial_index":135,"time_elapsed":682730,"internal_node_id":"0.0-106.0","task_version":"battery-v0.2-trt"},{"rune":"K","rune_set":"bacs2","hex":"#f73b6a7A","correct":32,"choice":-1,"rt":-1,"accuracy":0,"outcome":"-10","keys":[],"total_keys":0,"block":1,"trial":100,"stimulus":9,"robot":3,"valence":"lose","action":"go","sham":0,"trial_type":"pit-trial","trial_index":136,"time_elapsed":686737,"internal_node_id":"0.0-107.0","task_version":"battery-v0.2-trt"},{"rune":"M","rune_set":"bacs2","hex":"#3366ff99","correct":-1,"choice":32,"rt":855.9350001160055,"accuracy":0,"outcome":"+1","keys":[2357.7050000894815],"total_keys":1,"block":1,"trial":101,"stimulus":11,"robot":2,"valence":"win","action":"no-go","sham":0,"trial_type":"pit-trial","trial_index":137,"time_elapsed":690298,"internal_node_id":"0.0-108.0","task_version":"battery-v0.2-trt"},{"rune":"B","rune_set":"bacs2","hex":"#f73b6a7A","correct":32,"choice":32,"rt":805.2700001280755,"accuracy":1,"outcome":"-1","keys":[2307.0500001776963],"total_keys":1,"block":1,"trial":102,"stimulus":10,"robot":3,"valence":"lose","action":"go","sham":0,"trial_type":"pit-trial","trial_index":138,"time_elapsed":693810,"internal_node_id":"0.0-109.0","task_version":"battery-v0.2-trt"},{"rune":"V","rune_set":"bacs2","hex":"#3366ff99","correct":32,"choice":32,"rt":1021.5799999423325,"accuracy":1,"outcome":"+10","keys":[2522.6849999744445],"total_keys":1,"block":1,"trial":103,"stimulus":8,"robot":1,"valence":"win","action":"go","sham":0,"trial_type":"pit-trial","trial_index":139,"time_elapsed":697539,"internal_node_id":"0.0-110.0","task_version":"battery-v0.2-trt"},{"rune":"K","rune_set":"bacs2","hex":"#f73b6a7A","correct":32,"choice":-1,"rt":-1,"accuracy":0,"outcome":"-10","keys":[],"total_keys":0,"block":1,"trial":104,"stimulus":9,"robot":3,"valence":"lose","action":"go","sham":0,"trial_type":"pit-trial","trial_index":140,"time_elapsed":701545,"internal_node_id":"0.0-111.0","task_version":"battery-v0.2-trt"},{"rune":"M","rune_set":"bacs2","hex":"#3366ff99","correct":-1,"choice":32,"rt":629.9149999395013,"accuracy":0,"outcome":"+1","keys":[2131.114999996498],"total_keys":1,"block":1,"trial":105,"stimulus":11,"robot":2,"valence":"win","action":"no-go","sham":0,"trial_type":"pit-trial","trial_index":141,"time_elapsed":704881,"internal_node_id":"0.0-112.0","task_version":"battery-v0.2-trt"},{"rune":"V","rune_set":"bacs2","hex":"#3366ff99","correct":32,"choice":32,"rt":640.8599999267608,"accuracy":1,"outcome":"+10","keys":[2142.7250001579523],"total_keys":1,"block":1,"trial":106,"stimulus":8,"robot":1,"valence":"win","action":"go","sham":0,"trial_type":"pit-trial","trial_index":142,"time_elapsed":708227,"internal_node_id":"0.0-113.0","task_version":"battery-v0.2-trt"},{"rune":"B","rune_set":"bacs2","hex":"#f73b6a7A","correct":32,"choice":32,"rt":533.640000037849,"accuracy":1,"outcome":"-1","keys":[2034.104999853298],"total_keys":1,"block":1,"trial":107,"stimulus":10,"robot":3,"valence":"lose","action":"go","sham":0,"trial_type":"pit-trial","trial_index":143,"time_elapsed":711466,"internal_node_id":"0.0-114.0","task_version":"battery-v0.2-trt"},{"rune":"K","rune_set":"bacs2","hex":"#f73b6a7A","correct":32,"choice":32,"rt":887.8750000149012,"accuracy":1,"outcome":"-1","keys":[2388.844999950379],"total_keys":1,"block":1,"trial":108,"stimulus":9,"robot":3,"valence":"lose","action":"go","sham":0,"trial_type":"pit-trial","trial_index":144,"time_elapsed":715059,"internal_node_id":"0.0-115.0","task_version":"battery-v0.2-trt"},{"rune":"K","rune_set":"bacs2","hex":"#f73b6a7A","correct":32,"choice":32,"rt":629.1000000201166,"accuracy":1,"outcome":"-1","keys":[2129.799999995157],"total_keys":1,"block":1,"trial":109,"stimulus":9,"robot":3,"valence":"lose","action":"go","sham":0,"trial_type":"pit-trial","trial_index":145,"time_elapsed":718394,"internal_node_id":"0.0-116.0","task_version":"battery-v0.2-trt"},{"rune":"M","rune_set":"bacs2","hex":"#3366ff99","correct":-1,"choice":32,"rt":839.1650000121444,"accuracy":0,"outcome":"+1","keys":[2339.5350000355393],"total_keys":1,"block":1,"trial":110,"stimulus":11,"robot":2,"valence":"win","action":"no-go","sham":0,"trial_type":"pit-trial","trial_index":146,"time_elapsed":721939,"internal_node_id":"0.0-117.0","task_version":"battery-v0.2-trt"},{"rune":"B","rune_set":"bacs2","hex":"#f73b6a7A","correct":32,"choice":32,"rt":775.5149998702109,"accuracy":1,"outcome":"-1","keys":[2275.8799998555332],"total_keys":1,"block":1,"trial":111,"stimulus":10,"robot":3,"valence":"lose","action":"go","sham":0,"trial_type":"pit-trial","trial_index":147,"time_elapsed":725419,"internal_node_id":"0.0-118.0","task_version":"battery-v0.2-trt"},{"rune":"V","rune_set":"bacs2","hex":"#3366ff99","correct":32,"choice":32,"rt":786.0300000756979,"accuracy":1,"outcome":"+10","keys":[2287.314999848604],"total_keys":1,"block":1,"trial":112,"stimulus":8,"robot":1,"valence":"win","action":"go","sham":0,"trial_type":"pit-trial","trial_index":148,"time_elapsed":728913,"internal_node_id":"0.0-119.0","task_version":"battery-v0.2-trt"},{"rune":"V","rune_set":"bacs2","hex":"#3366ff99","correct":32,"choice":32,"rt":469.8900000657886,"accuracy":1,"outcome":"+10","keys":[1970.4199999105185],"total_keys":1,"block":1,"trial":113,"stimulus":8,"robot":1,"valence":"win","action":"go","sham":0,"trial_type":"pit-trial","trial_index":149,"time_elapsed":732090,"internal_node_id":"0.0-120.0","task_version":"battery-v0.2-trt"},{"rune":"K","rune_set":"bacs2","hex":"#f73b6a7A","correct":32,"choice":-1,"rt":-1,"accuracy":0,"outcome":"-10","keys":[],"total_keys":0,"block":1,"trial":114,"stimulus":9,"robot":3,"valence":"lose","action":"go","sham":0,"trial_type":"pit-trial","trial_index":150,"time_elapsed":736096,"internal_node_id":"0.0-121.0","task_version":"battery-v0.2-trt"},{"rune":"M","rune_set":"bacs2","hex":"#3366ff99","correct":-1,"choice":-1,"rt":-1,"accuracy":1,"outcome":"+10","keys":[],"total_keys":0,"block":1,"trial":115,"stimulus":11,"robot":2,"valence":"win","action":"no-go","sham":0,"trial_type":"pit-trial","trial_index":151,"time_elapsed":740101,"internal_node_id":"0.0-122.0","task_version":"battery-v0.2-trt"},{"rune":"B","rune_set":"bacs2","hex":"#f73b6a7A","correct":32,"choice":32,"rt":755.9950000140816,"accuracy":1,"outcome":"-1","keys":[2256.644999841228],"total_keys":1,"block":1,"trial":116,"stimulus":10,"robot":3,"valence":"lose","action":"go","sham":0,"trial_type":"pit-trial","trial_index":152,"time_elapsed":743561,"internal_node_id":"0.0-123.0","task_version":"battery-v0.2-trt"},{"rune":"B","rune_set":"bacs2","hex":"#f73b6a7A","correct":32,"choice":32,"rt":620.8349999506027,"accuracy":1,"outcome":"-1","keys":[2122.4350000265986],"total_keys":1,"block":1,"trial":117,"stimulus":10,"robot":3,"valence":"lose","action":"go","sham":0,"trial_type":"pit-trial","trial_index":153,"time_elapsed":746890,"internal_node_id":"0.0-124.0","task_version":"battery-v0.2-trt"},{"rune":"M","rune_set":"bacs2","hex":"#3366ff99","correct":-1,"choice":-1,"rt":-1,"accuracy":1,"outcome":"+1","keys":[],"total_keys":0,"block":1,"trial":118,"stimulus":11,"robot":2,"valence":"win","action":"no-go","sham":1,"trial_type":"pit-trial","trial_index":154,"time_elapsed":750895,"internal_node_id":"0.0-125.0","task_version":"battery-v0.2-trt"},{"rune":"K","rune_set":"bacs2","hex":"#f73b6a7A","correct":32,"choice":32,"rt":864.8350001312792,"accuracy":1,"outcome":"-1","keys":[2365.8849999774247],"total_keys":1,"block":1,"trial":119,"stimulus":9,"robot":3,"valence":"lose","action":"go","sham":0,"trial_type":"pit-trial","trial_index":155,"time_elapsed":754467,"internal_node_id":"0.0-126.0","task_version":"battery-v0.2-trt"},{"rune":"V","rune_set":"bacs2","hex":"#3366ff99","correct":32,"choice":32,"rt":804.0399998426437,"accuracy":1,"outcome":"+1","keys":[2305.794999934733],"total_keys":1,"block":1,"trial":120,"stimulus":8,"robot":1,"valence":"win","action":"go","sham":1,"trial_type":"pit-trial","trial_index":156,"time_elapsed":757978,"internal_node_id":"0.0-127.0","task_version":"battery-v0.2-trt"},{"view_history":"[{\"page_index\":0,\"viewing_time\":84312.42499989457},{\"page_index\":1,\"viewing_time\":78150.03499994054}]","rt":162462.84499997273,"trial_type":"pit-instructions","trial_index":157,"time_elapsed":920443,"internal_node_id":"0.0-128.0","task_version":"battery-v0.2-trt"},{"rune":"T","rune_set":"bacs2","hex":"#3366ff99","correct":32,"choice":32,"rt":582.0950001943856,"accuracy":1,"outcome":"+10","keys":[2082.4800000991672],"total_keys":1,"block":2,"trial":121,"stimulus":1,"robot":1,"valence":"win","action":"go","sham":0,"trial_type":"pit-trial","trial_index":158,"time_elapsed":923730,"internal_node_id":"0.0-129.0","task_version":"battery-v0.2-trt"},{"rune":"Q","rune_set":"bacs2","hex":"#f73b6a7A","correct":-1,"choice":32,"rt":685.0249997805804,"accuracy":0,"outcome":"-10","keys":[2186.1650000791997],"total_keys":1,"block":2,"trial":122,"stimulus":2,"robot":4,"valence":"lose","action":"no-go","sham":0,"trial_type":"pit-trial","trial_index":159,"time_elapsed":927120,"internal_node_id":"0.0-130.0","task_version":"battery-v0.2-trt"},{"rune":"H","rune_set":"bacs2","hex":"#3366ff99","correct":32,"choice":32,"rt":695.1599998865277,"accuracy":1,"outcome":"+1","keys":[2195.8850000519305],"total_keys":1,"block":2,"trial":123,"stimulus":3,"robot":1,"valence":"win","action":"go","sham":1,"trial_type":"pit-trial","trial_index":160,"time_elapsed":930520,"internal_node_id":"0.0-131.0","task_version":"battery-v0.2-trt"},{"rune":"Y","rune_set":"bacs2","hex":"#3366ff99","correct":-1,"choice":32,"rt":633.0150000285357,"accuracy":0,"outcome":"+1","keys":[2133.265000069514],"total_keys":1,"block":2,"trial":124,"stimulus":0,"robot":2,"valence":"win","action":"no-go","sham":0,"trial_type":"pit-trial","trial_index":161,"time_elapsed":933857,"internal_node_id":"0.0-132.0","task_version":"battery-v0.2-trt"},{"rune":"T","rune_set":"bacs2","hex":"#3366ff99","correct":32,"choice":32,"rt":525.8900001645088,"accuracy":1,"outcome":"+10","keys":[2026.3999998569489],"total_keys":1,"block":2,"trial":125,"stimulus":1,"robot":1,"valence":"win","action":"go","sham":0,"trial_type":"pit-trial","trial_index":162,"time_elapsed":937089,"internal_node_id":"0.0-133.0","task_version":"battery-v0.2-trt"},{"rune":"H","rune_set":"bacs2","hex":"#3366ff99","correct":32,"choice":-1,"rt":-1,"accuracy":0,"outcome":"+10","keys":[],"total_keys":0,"block":2,"trial":126,"stimulus":3,"robot":1,"valence":"win","action":"go","sham":1,"trial_type":"pit-trial","trial_index":163,"time_elapsed":941095,"internal_node_id":"0.0-134.0","task_version":"battery-v0.2-trt"},{"rune":"Q","rune_set":"bacs2","hex":"#f73b6a7A","correct":-1,"choice":-1,"rt":-1,"accuracy":1,"outcome":"-1","keys":[],"total_keys":0,"block":2,"trial":127,"stimulus":2,"robot":4,"valence":"lose","action":"no-go","sham":0,"trial_type":"pit-trial","trial_index":164,"time_elapsed":945102,"internal_node_id":"0.0-135.0","task_version":"battery-v0.2-trt"},{"rune":"Y","rune_set":"bacs2","hex":"#3366ff99","correct":-1,"choice":-1,"rt":-1,"accuracy":1,"outcome":"+10","keys":[],"total_keys":0,"block":2,"trial":128,"stimulus":0,"robot":2,"valence":"win","action":"no-go","sham":0,"trial_type":"pit-trial","trial_index":165,"time_elapsed":949106,"internal_node_id":"0.0-136.0","task_version":"battery-v0.2-trt"},{"rune":"Q","rune_set":"bacs2","hex":"#f73b6a7A","correct":-1,"choice":-1,"rt":-1,"accuracy":1,"outcome":"-1","keys":[],"total_keys":0,"block":2,"trial":129,"stimulus":2,"robot":4,"valence":"lose","action":"no-go","sham":0,"trial_type":"pit-trial","trial_index":166,"time_elapsed":953111,"internal_node_id":"0.0-137.0","task_version":"battery-v0.2-trt"},{"rune":"T","rune_set":"bacs2","hex":"#3366ff99","correct":32,"choice":32,"rt":584.6950002014637,"accuracy":1,"outcome":"+10","keys":[2085.8099998440593],"total_keys":1,"block":2,"trial":130,"stimulus":1,"robot":1,"valence":"win","action":"go","sham":0,"trial_type":"pit-trial","trial_index":167,"time_elapsed":956401,"internal_node_id":"0.0-138.0","task_version":"battery-v0.2-trt"},{"rune":"Y","rune_set":"bacs2","hex":"#3366ff99","correct":-1,"choice":-1,"rt":-1,"accuracy":1,"outcome":"+10","keys":[],"total_keys":0,"block":2,"trial":131,"stimulus":0,"robot":2,"valence":"win","action":"no-go","sham":0,"trial_type":"pit-trial","trial_index":168,"time_elapsed":960406,"internal_node_id":"0.0-139.0","task_version":"battery-v0.2-trt"},{"rune":"H","rune_set":"bacs2","hex":"#3366ff99","correct":32,"choice":-1,"rt":-1,"accuracy":0,"outcome":"+10","keys":[],"total_keys":0,"block":2,"trial":132,"stimulus":3,"robot":1,"valence":"win","action":"go","sham":1,"trial_type":"pit-trial","trial_index":169,"time_elapsed":964413,"internal_node_id":"0.0-140.0","task_version":"battery-v0.2-trt"},{"rune":"Q","rune_set":"bacs2","hex":"#f73b6a7A","correct":-1,"choice":32,"rt":795.0850001070648,"accuracy":0,"outcome":"-10","keys":[2295.1299999840558],"total_keys":1,"block":2,"trial":133,"stimulus":2,"robot":4,"valence":"lose","action":"no-go","sham":0,"trial_type":"pit-trial","trial_index":170,"time_elapsed":967913,"internal_node_id":"0.0-141.0","task_version":"battery-v0.2-trt"},{"rune":"H","rune_set":"bacs2","hex":"#3366ff99","correct":32,"choice":-1,"rt":-1,"accuracy":0,"outcome":"+1","keys":[],"total_keys":0,"block":2,"trial":134,"stimulus":3,"robot":1,"valence":"win","action":"go","sham":0,"trial_type":"pit-trial","trial_index":171,"time_elapsed":971919,"internal_node_id":"0.0-142.0","task_version":"battery-v0.2-trt"},{"rune":"Y","rune_set":"bacs2","hex":"#3366ff99","correct":-1,"choice":32,"rt":584.525000071153,"accuracy":0,"outcome":"+1","keys":[2084.8999998997897],"total_keys":1,"block":2,"trial":135,"stimulus":0,"robot":2,"valence":"win","action":"no-go","sham":0,"trial_type":"pit-trial","trial_index":172,"time_elapsed":975208,"internal_node_id":"0.0-143.0","task_version":"battery-v0.2-trt"},{"rune":"T","rune_set":"bacs2","hex":"#3366ff99","correct":32,"choice":32,"rt":551.5850000083447,"accuracy":1,"outcome":"+1","keys":[2052.329999860376],"total_keys":1,"block":2,"trial":136,"stimulus":1,"robot":1,"valence":"win","action":"go","sham":1,"trial_type":"pit-trial","trial_index":173,"time_elapsed":978466,"internal_node_id":"0.0-144.0","task_version":"battery-v0.2-trt"},{"rune":"Q","rune_set":"bacs2","hex":"#f73b6a7A","correct":-1,"choice":32,"rt":679.9699999392033,"accuracy":0,"outcome":"-1","keys":[2181.605000048876],"total_keys":1,"block":2,"trial":137,"stimulus":2,"robot":4,"valence":"lose","action":"no-go","sham":1,"trial_type":"pit-trial","trial_index":174,"time_elapsed":981851,"internal_node_id":"0.0-145.0","task_version":"battery-v0.2-trt"},{"rune":"H","rune_set":"bacs2","hex":"#3366ff99","correct":32,"choice":32,"rt":635.6600001454353,"accuracy":1,"outcome":"+10","keys":[2137.5450000632554],"total_keys":1,"block":2,"trial":138,"stimulus":3,"robot":1,"valence":"win","action":"go","sham":0,"trial_type":"pit-trial","trial_index":175,"time_elapsed":985194,"internal_node_id":"0.0-146.0","task_version":"battery-v0.2-trt"},{"rune":"T","rune_set":"bacs2","hex":"#3366ff99","correct":32,"choice":-1,"rt":-1,"accuracy":0,"outcome":"+10","keys":[],"total_keys":0,"block":2,"trial":139,"stimulus":1,"robot":1,"valence":"win","action":"go","sham":1,"trial_type":"pit-trial","trial_index":176,"time_elapsed":989200,"internal_node_id":"0.0-147.0","task_version":"battery-v0.2-trt"},{"rune":"Y","rune_set":"bacs2","hex":"#3366ff99","correct":-1,"choice":32,"rt":496.93999998271465,"accuracy":0,"outcome":"+1","keys":[1997.0850001554936],"total_keys":1,"block":2,"trial":140,"stimulus":0,"robot":2,"valence":"win","action":"no-go","sham":0,"trial_type":"pit-trial","trial_index":177,"time_elapsed":992401,"internal_node_id":"0.0-148.0","task_version":"battery-v0.2-trt"},{"rune":"T","rune_set":"bacs2","hex":"#3366ff99","correct":32,"choice":-1,"rt":-1,"accuracy":0,"outcome":"+1","keys":[],"total_keys":0,"block":2,"trial":141,"stimulus":1,"robot":1,"valence":"win","action":"go","sham":0,"trial_type":"pit-trial","trial_index":178,"time_elapsed":996406,"internal_node_id":"0.0-149.0","task_version":"battery-v0.2-trt"},{"rune":"Q","rune_set":"bacs2","hex":"#f73b6a7A","correct":-1,"choice":-1,"rt":-1,"accuracy":1,"outcome":"-1","keys":[],"total_keys":0,"block":2,"trial":142,"stimulus":2,"robot":4,"valence":"lose","action":"no-go","sham":0,"trial_type":"pit-trial","trial_index":179,"time_elapsed":1000412,"internal_node_id":"0.0-150.0","task_version":"battery-v0.2-trt"},{"rune":"Y","rune_set":"bacs2","hex":"#3366ff99","correct":-1,"choice":32,"rt":1003.6599999293685,"accuracy":0,"outcome":"+1","keys":[2504.220000002533],"total_keys":1,"block":2,"trial":143,"stimulus":0,"robot":2,"valence":"win","action":"no-go","sham":0,"trial_type":"pit-trial","trial_index":180,"time_elapsed":1004122,"internal_node_id":"0.0-151.0","task_version":"battery-v0.2-trt"},{"rune":"H","rune_set":"bacs2","hex":"#3366ff99","correct":32,"choice":32,"rt":942.5600001122802,"accuracy":1,"outcome":"+10","keys":[2442.670000018552],"total_keys":1,"block":2,"trial":144,"stimulus":3,"robot":1,"valence":"win","action":"go","sham":0,"trial_type":"pit-trial","trial_index":181,"time_elapsed":1007771,"internal_node_id":"0.0-152.0","task_version":"battery-v0.2-trt"},{"rune":"Y","rune_set":"bacs2","hex":"#3366ff99","correct":-1,"choice":-1,"rt":-1,"accuracy":1,"outcome":"+10","keys":[],"total_keys":0,"block":2,"trial":145,"stimulus":0,"robot":2,"valence":"win","action":"no-go","sham":0,"trial_type":"pit-trial","trial_index":182,"time_elapsed":1011777,"internal_node_id":"0.0-153.0","task_version":"battery-v0.2-trt"},{"rune":"T","rune_set":"bacs2","hex":"#3366ff99","correct":32,"choice":32,"rt":372.3100000061095,"accuracy":1,"outcome":"+10","keys":[1872.9400001466274],"total_keys":1,"block":2,"trial":146,"stimulus":1,"robot":1,"valence":"win","action":"go","sham":0,"trial_type":"pit-trial","trial_index":183,"time_elapsed":1014858,"internal_node_id":"0.0-154.0","task_version":"battery-v0.2-trt"},{"rune":"Q","rune_set":"bacs2","hex":"#f73b6a7A","correct":-1,"choice":32,"rt":621.8250000383705,"accuracy":0,"outcome":"-1","keys":[2123.060000129044],"total_keys":1,"block":2,"trial":147,"stimulus":2,"robot":4,"valence":"lose","action":"no-go","sham":1,"trial_type":"pit-trial","trial_index":184,"time_elapsed":1018186,"internal_node_id":"0.0-155.0","task_version":"battery-v0.2-trt"},{"rune":"H","rune_set":"bacs2","hex":"#3366ff99","correct":32,"choice":-1,"rt":-1,"accuracy":0,"outcome":"+10","keys":[],"total_keys":0,"block":2,"trial":148,"stimulus":3,"robot":1,"valence":"win","action":"go","sham":1,"trial_type":"pit-trial","trial_index":185,"time_elapsed":1022191,"internal_node_id":"0.0-156.0","task_version":"battery-v0.2-trt"},{"rune":"H","rune_set":"bacs2","hex":"#3366ff99","correct":32,"choice":-1,"rt":-1,"accuracy":0,"outcome":"+1","keys":[],"total_keys":0,"block":2,"trial":149,"stimulus":3,"robot":1,"valence":"win","action":"go","sham":0,"trial_type":"pit-trial","trial_index":186,"time_elapsed":1026198,"internal_node_id":"0.0-157.0","task_version":"battery-v0.2-trt"},{"rune":"Y","rune_set":"bacs2","hex":"#3366ff99","correct":-1,"choice":32,"rt":699.0399998612702,"accuracy":0,"outcome":"+1","keys":[2199.354999931529],"total_keys":1,"block":2,"trial":150,"stimulus":0,"robot":2,"valence":"win","action":"no-go","sham":0,"trial_type":"pit-trial","trial_index":187,"time_elapsed":1029602,"internal_node_id":"0.0-158.0","task_version":"battery-v0.2-trt"},{"rune":"Q","rune_set":"bacs2","hex":"#f73b6a7A","correct":-1,"choice":32,"rt":597.5249998737127,"accuracy":0,"outcome":"-10","keys":[2098.784999921918],"total_keys":1,"block":2,"trial":151,"stimulus":2,"robot":4,"valence":"lose","action":"no-go","sham":0,"trial_type":"pit-trial","trial_index":188,"time_elapsed":1032905,"internal_node_id":"0.0-159.0","task_version":"battery-v0.2-trt"},{"rune":"T","rune_set":"bacs2","hex":"#3366ff99","correct":32,"choice":32,"rt":668.6750000808388,"accuracy":1,"outcome":"+10","keys":[2170.2600000426173],"total_keys":1,"block":2,"trial":152,"stimulus":1,"robot":1,"valence":"win","action":"go","sham":0,"trial_type":"pit-trial","trial_index":189,"time_elapsed":1036280,"internal_node_id":"0.0-160.0","task_version":"battery-v0.2-trt"},{"rune":"Q","rune_set":"bacs2","hex":"#f73b6a7A","correct":-1,"choice":-1,"rt":-1,"accuracy":1,"outcome":"-1","keys":[],"total_keys":0,"block":2,"trial":153,"stimulus":2,"robot":4,"valence":"lose","action":"no-go","sham":0,"trial_type":"pit-trial","trial_index":190,"time_elapsed":1040283,"internal_node_id":"0.0-161.0","task_version":"battery-v0.2-trt"},{"rune":"Y","rune_set":"bacs2","hex":"#3366ff99","correct":-1,"choice":32,"rt":596.929999999702,"accuracy":0,"outcome":"+10","keys":[2098.00500003621],"total_keys":1,"block":2,"trial":154,"stimulus":0,"robot":2,"valence":"win","action":"no-go","sham":1,"trial_type":"pit-trial","trial_index":191,"time_elapsed":1043586,"internal_node_id":"0.0-162.0","task_version":"battery-v0.2-trt"},{"rune":"E","rune_set":"bacs2","hex":"#3366ff99","correct":32,"choice":32,"rt":724.9499999452382,"accuracy":1,"outcome":"+10","keys":[2226.9499998074025],"total_keys":1,"block":2,"trial":155,"stimulus":4,"robot":1,"valence":"win","action":"go","sham":0,"trial_type":"pit-trial","trial_index":192,"time_elapsed":1047017,"internal_node_id":"0.0-163.0","task_version":"battery-v0.2-trt"},{"rune":"H","rune_set":"bacs2","hex":"#3366ff99","correct":32,"choice":-1,"rt":-1,"accuracy":0,"outcome":"+10","keys":[],"total_keys":0,"block":2,"trial":156,"stimulus":3,"robot":1,"valence":"win","action":"go","sham":1,"trial_type":"pit-trial","trial_index":193,"time_elapsed":1051024,"internal_node_id":"0.0-164.0","task_version":"battery-v0.2-trt"},{"rune":"Q","rune_set":"bacs2","hex":"#f73b6a7A","correct":-1,"choice":-1,"rt":-1,"accuracy":1,"outcome":"-10","keys":[],"total_keys":0,"block":2,"trial":157,"stimulus":2,"robot":4,"valence":"lose","action":"no-go","sham":1,"trial_type":"pit-trial","trial_index":194,"time_elapsed":1055029,"internal_node_id":"0.0-165.0","task_version":"battery-v0.2-trt"},{"rune":"Y","rune_set":"bacs2","hex":"#3366ff99","correct":-1,"choice":32,"rt":444.5150000974536,"accuracy":0,"outcome":"+1","keys":[1945.1500000432134],"total_keys":1,"block":2,"trial":158,"stimulus":0,"robot":2,"valence":"win","action":"no-go","sham":0,"trial_type":"pit-trial","trial_index":195,"time_elapsed":1058179,"internal_node_id":"0.0-166.0","task_version":"battery-v0.2-trt"},{"rune":"E","rune_set":"bacs2","hex":"#3366ff99","correct":32,"choice":32,"rt":607.4000000953674,"accuracy":1,"outcome":"+10","keys":[2107.7050000894815],"total_keys":1,"block":2,"trial":159,"stimulus":4,"robot":1,"valence":"win","action":"go","sham":0,"trial_type":"pit-trial","trial_index":196,"time_elapsed":1061490,"internal_node_id":"0.0-167.0","task_version":"battery-v0.2-trt"},{"rune":"H","rune_set":"bacs2","hex":"#3366ff99","correct":32,"choice":-1,"rt":-1,"accuracy":0,"outcome":"+10","keys":[],"total_keys":0,"block":2,"trial":160,"stimulus":3,"robot":1,"valence":"win","action":"go","sham":1,"trial_type":"pit-trial","trial_index":197,"time_elapsed":1065497,"internal_node_id":"0.0-168.0","task_version":"battery-v0.2-trt"},{"rune":"Y","rune_set":"bacs2","hex":"#3366ff99","correct":-1,"choice":32,"rt":753.885000012815,"accuracy":0,"outcome":"+1","keys":[2254.200000083074],"total_keys":1,"block":2,"trial":161,"stimulus":0,"robot":2,"valence":"win","action":"no-go","sham":0,"trial_type":"pit-trial","trial_index":198,"time_elapsed":1068955,"internal_node_id":"0.0-169.0","task_version":"battery-v0.2-trt"},{"rune":"E","rune_set":"bacs2","hex":"#3366ff99","correct":32,"choice":32,"rt":597.0599998254329,"accuracy":1,"outcome":"+10","keys":[2097.9599999263883],"total_keys":1,"block":2,"trial":162,"stimulus":4,"robot":1,"valence":"win","action":"go","sham":0,"trial_type":"pit-trial","trial_index":199,"time_elapsed":1072257,"internal_node_id":"0.0-170.0","task_version":"battery-v0.2-trt"},{"rune":"C","rune_set":"bacs2","hex":"#f73b6a7A","correct":32,"choice":32,"rt":959.6349999774247,"accuracy":1,"outcome":"-10","keys":[2459.9950001575053],"total_keys":1,"block":2,"trial":163,"stimulus":5,"robot":3,"valence":"lose","action":"go","sham":1,"trial_type":"pit-trial","trial_index":200,"time_elapsed":1075921,"internal_node_id":"0.0-171.0","task_version":"battery-v0.2-trt"},{"rune":"O","rune_set":"bacs2","hex":"#f73b6a7A","correct":-1,"choice":32,"rt":902.6300001423806,"accuracy":0,"outcome":"-10","keys":[2404.5899999327958],"total_keys":1,"block":2,"trial":164,"stimulus":6,"robot":4,"valence":"lose","action":"no-go","sham":0,"trial_type":"pit-trial","trial_index":201,"time_elapsed":1079528,"internal_node_id":"0.0-172.0","task_version":"battery-v0.2-trt"},{"rune":"Y","rune_set":"bacs2","hex":"#3366ff99","correct":-1,"choice":32,"rt":679.9800000153482,"accuracy":0,"outcome":"+1","keys":[2180.6399999186397],"total_keys":1,"block":2,"trial":165,"stimulus":0,"robot":2,"valence":"win","action":"no-go","sham":0,"trial_type":"pit-trial","trial_index":202,"time_elapsed":1082912,"internal_node_id":"0.0-173.0","task_version":"battery-v0.2-trt"},{"rune":"E","rune_set":"bacs2","hex":"#3366ff99","correct":32,"choice":32,"rt":584.3099998310208,"accuracy":1,"outcome":"+10","keys":[2085.5749999172986],"total_keys":1,"block":2,"trial":166,"stimulus":4,"robot":1,"valence":"win","action":"go","sham":0,"trial_type":"pit-trial","trial_index":203,"time_elapsed":1086200,"internal_node_id":"0.0-174.0","task_version":"battery-v0.2-trt"},{"rune":"C","rune_set":"bacs2","hex":"#f73b6a7A","correct":32,"choice":-1,"rt":-1,"accuracy":0,"outcome":"-10","keys":[],"total_keys":0,"block":2,"trial":167,"stimulus":5,"robot":3,"valence":"lose","action":"go","sham":0,"trial_type":"pit-trial","trial_index":204,"time_elapsed":1090206,"internal_node_id":"0.0-175.0","task_version":"battery-v0.2-trt"},{"rune":"O","rune_set":"bacs2","hex":"#f73b6a7A","correct":-1,"choice":-1,"rt":-1,"accuracy":1,"outcome":"-1","keys":[],"total_keys":0,"block":2,"trial":168,"stimulus":6,"robot":4,"valence":"lose","action":"no-go","sham":0,"trial_type":"pit-trial","trial_index":205,"time_elapsed":1094212,"internal_node_id":"0.0-176.0","task_version":"battery-v0.2-trt"},{"rune":"C","rune_set":"bacs2","hex":"#f73b6a7A","correct":32,"choice":-1,"rt":-1,"accuracy":0,"outcome":"-10","keys":[],"total_keys":0,"block":2,"trial":169,"stimulus":5,"robot":3,"valence":"lose","action":"go","sham":0,"trial_type":"pit-trial","trial_index":206,"time_elapsed":1098217,"internal_node_id":"0.0-177.0","task_version":"battery-v0.2-trt"},{"rune":"G","rune_set":"bacs2","hex":"#3366ff99","correct":-1,"choice":32,"rt":735.1150000467896,"accuracy":0,"outcome":"+1","keys":[2235.3900000452995],"total_keys":1,"block":2,"trial":170,"stimulus":7,"robot":2,"valence":"win","action":"no-go","sham":0,"trial_type":"pit-trial","trial_index":207,"time_elapsed":1101657,"internal_node_id":"0.0-178.0","task_version":"battery-v0.2-trt"},{"rune":"E","rune_set":"bacs2","hex":"#3366ff99","correct":32,"choice":32,"rt":591.6100000031292,"accuracy":1,"outcome":"+10","keys":[2091.9049999210984],"total_keys":1,"block":2,"trial":171,"stimulus":4,"robot":1,"valence":"win","action":"go","sham":0,"trial_type":"pit-trial","trial_index":208,"time_elapsed":1104953,"internal_node_id":"0.0-179.0","task_version":"battery-v0.2-trt"},{"rune":"O","rune_set":"bacs2","hex":"#f73b6a7A","correct":-1,"choice":-1,"rt":-1,"accuracy":1,"outcome":"-1","keys":[],"total_keys":0,"block":2,"trial":172,"stimulus":6,"robot":4,"valence":"lose","action":"no-go","sham":0,"trial_type":"pit-trial","trial_index":209,"time_elapsed":1108960,"internal_node_id":"0.0-180.0","task_version":"battery-v0.2-trt"},{"rune":"O","rune_set":"bacs2","hex":"#f73b6a7A","correct":-1,"choice":-1,"rt":-1,"accuracy":1,"outcome":"-10","keys":[],"total_keys":0,"block":2,"trial":173,"stimulus":6,"robot":4,"valence":"lose","action":"no-go","sham":1,"trial_type":"pit-trial","trial_index":210,"time_elapsed":1112967,"internal_node_id":"0.0-181.0","task_version":"battery-v0.2-trt"},{"rune":"E","rune_set":"bacs2","hex":"#3366ff99","correct":32,"choice":32,"rt":520.4249999951571,"accuracy":1,"outcome":"+1","keys":[2021.7999999877065],"total_keys":1,"block":2,"trial":174,"stimulus":4,"robot":1,"valence":"win","action":"go","sham":1,"trial_type":"pit-trial","trial_index":211,"time_elapsed":1116195,"internal_node_id":"0.0-182.0","task_version":"battery-v0.2-trt"},{"rune":"G","rune_set":"bacs2","hex":"#3366ff99","correct":-1,"choice":32,"rt":758.7049999274313,"accuracy":0,"outcome":"+1","keys":[2258.990000002086],"total_keys":1,"block":2,"trial":175,"stimulus":7,"robot":2,"valence":"win","action":"no-go","sham":0,"trial_type":"pit-trial","trial_index":212,"time_elapsed":1119658,"internal_node_id":"0.0-183.0","task_version":"battery-v0.2-trt"},{"rune":"C","rune_set":"bacs2","hex":"#f73b6a7A","correct":32,"choice":32,"rt":636.9549999944866,"accuracy":1,"outcome":"-10","keys":[2137.8599999006838],"total_keys":1,"block":2,"trial":176,"stimulus":5,"robot":3,"valence":"lose","action":"go","sham":1,"trial_type":"pit-trial","trial_index":213,"time_elapsed":1123001,"internal_node_id":"0.0-184.0","task_version":"battery-v0.2-trt"},{"rune":"C","rune_set":"bacs2","hex":"#f73b6a7A","correct":32,"choice":32,"rt":681.5849998965859,"accuracy":1,"outcome":"-1","keys":[2182.1550000458956],"total_keys":1,"block":2,"trial":177,"stimulus":5,"robot":3,"valence":"lose","action":"go","sham":0,"trial_type":"pit-trial","trial_index":214,"time_elapsed":1126388,"internal_node_id":"0.0-185.0","task_version":"battery-v0.2-trt"},{"rune":"O","rune_set":"bacs2","hex":"#f73b6a7A","correct":-1,"choice":-1,"rt":-1,"accuracy":1,"outcome":"-10","keys":[],"total_keys":0,"block":2,"trial":178,"stimulus":6,"robot":4,"valence":"lose","action":"no-go","sham":1,"trial_type":"pit-trial","trial_index":215,"time_elapsed":1130394,"internal_node_id":"0.0-186.0","task_version":"battery-v0.2-trt"},{"rune":"E","rune_set":"bacs2","hex":"#3366ff99","correct":32,"choice":32,"rt":616.5849999524653,"accuracy":1,"outcome":"+10","keys":[2116.7300001252443],"total_keys":1,"block":2,"trial":179,"stimulus":4,"robot":1,"valence":"win","action":"go","sham":0,"trial_type":"pit-trial","trial_index":216,"time_elapsed":1133715,"internal_node_id":"0.0-187.0","task_version":"battery-v0.2-trt"},{"rune":"G","rune_set":"bacs2","hex":"#3366ff99","correct":-1,"choice":-1,"rt":-1,"accuracy":1,"outcome":"+10","keys":[],"total_keys":0,"block":2,"trial":180,"stimulus":7,"robot":2,"valence":"win","action":"no-go","sham":0,"trial_type":"pit-trial","trial_index":217,"time_elapsed":1137720,"internal_node_id":"0.0-188.0","task_version":"battery-v0.2-trt"},{"rune":"G","rune_set":"bacs2","hex":"#3366ff99","correct":-1,"choice":-1,"rt":-1,"accuracy":1,"outcome":"+10","keys":[],"total_keys":0,"block":2,"trial":181,"stimulus":7,"robot":2,"valence":"win","action":"no-go","sham":0,"trial_type":"pit-trial","trial_index":218,"time_elapsed":1141726,"internal_node_id":"0.0-189.0","task_version":"battery-v0.2-trt"},{"rune":"C","rune_set":"bacs2","hex":"#f73b6a7A","correct":32,"choice":32,"rt":856.6000000573695,"accuracy":1,"outcome":"-1","keys":[2357.869999948889],"total_keys":1,"block":2,"trial":182,"stimulus":5,"robot":3,"valence":"lose","action":"go","sham":0,"trial_type":"pit-trial","trial_index":219,"time_elapsed":1145290,"internal_node_id":"0.0-190.0","task_version":"battery-v0.2-trt"},{"rune":"E","rune_set":"bacs2","hex":"#3366ff99","correct":32,"choice":32,"rt":749.6300002094358,"accuracy":1,"outcome":"+10","keys":[2249.7600000351667],"total_keys":1,"block":2,"trial":183,"stimulus":4,"robot":1,"valence":"win","action":"go","sham":0,"trial_type":"pit-trial","trial_index":220,"time_elapsed":1148746,"internal_node_id":"0.0-191.0","task_version":"battery-v0.2-trt"},{"rune":"O","rune_set":"bacs2","hex":"#f73b6a7A","correct":-1,"choice":-1,"rt":-1,"accuracy":1,"outcome":"-10","keys":[],"total_keys":0,"block":2,"trial":184,"stimulus":6,"robot":4,"valence":"lose","action":"no-go","sham":1,"trial_type":"pit-trial","trial_index":221,"time_elapsed":1152753,"internal_node_id":"0.0-192.0","task_version":"battery-v0.2-trt"},{"rune":"G","rune_set":"bacs2","hex":"#3366ff99","correct":-1,"choice":-1,"rt":-1,"accuracy":1,"outcome":"+10","keys":[],"total_keys":0,"block":2,"trial":185,"stimulus":7,"robot":2,"valence":"win","action":"no-go","sham":0,"trial_type":"pit-trial","trial_index":222,"time_elapsed":1156761,"internal_node_id":"0.0-193.0","task_version":"battery-v0.2-trt"},{"rune":"O","rune_set":"bacs2","hex":"#f73b6a7A","correct":-1,"choice":32,"rt":689.9049999192357,"accuracy":0,"outcome":"-1","keys":[2191.54499983415],"total_keys":1,"block":2,"trial":186,"stimulus":6,"robot":4,"valence":"lose","action":"no-go","sham":1,"trial_type":"pit-trial","trial_index":223,"time_elapsed":1160156,"internal_node_id":"0.0-194.0","task_version":"battery-v0.2-trt"},{"rune":"E","rune_set":"bacs2","hex":"#3366ff99","correct":32,"choice":32,"rt":962.5949999317527,"accuracy":1,"outcome":"+10","keys":[2463.990000076592],"total_keys":1,"block":2,"trial":187,"stimulus":4,"robot":1,"valence":"win","action":"go","sham":0,"trial_type":"pit-trial","trial_index":224,"time_elapsed":1163824,"internal_node_id":"0.0-195.0","task_version":"battery-v0.2-trt"},{"rune":"C","rune_set":"bacs2","hex":"#f73b6a7A","correct":32,"choice":32,"rt":814.6650001872331,"accuracy":1,"outcome":"-1","keys":[2315.4400000348687],"total_keys":1,"block":2,"trial":188,"stimulus":5,"robot":3,"valence":"lose","action":"go","sham":0,"trial_type":"pit-trial","trial_index":225,"time_elapsed":1167345,"internal_node_id":"0.0-196.0","task_version":"battery-v0.2-trt"},{"rune":"E","rune_set":"bacs2","hex":"#3366ff99","correct":32,"choice":32,"rt":926.1799999512732,"accuracy":1,"outcome":"+10","keys":[2426.5749999321997],"total_keys":1,"block":2,"trial":189,"stimulus":4,"robot":1,"valence":"win","action":"go","sham":0,"trial_type":"pit-trial","trial_index":226,"time_elapsed":1170976,"internal_node_id":"0.0-197.0","task_version":"battery-v0.2-trt"},{"rune":"O","rune_set":"bacs2","hex":"#f73b6a7A","correct":-1,"choice":32,"rt":735.9899999573827,"accuracy":0,"outcome":"-10","keys":[2236.130000092089],"total_keys":1,"block":2,"trial":190,"stimulus":6,"robot":4,"valence":"lose","action":"no-go","sham":0,"trial_type":"pit-trial","trial_index":227,"time_elapsed":1174417,"internal_node_id":"0.0-198.0","task_version":"battery-v0.2-trt"},{"rune":"C","rune_set":"bacs2","hex":"#f73b6a7A","correct":32,"choice":32,"rt":911.8650001473725,"accuracy":1,"outcome":"-1","keys":[2412.2049999423325],"total_keys":1,"block":2,"trial":191,"stimulus":5,"robot":3,"valence":"lose","action":"go","sham":0,"trial_type":"pit-trial","trial_index":228,"time_elapsed":1178034,"internal_node_id":"0.0-199.0","task_version":"battery-v0.2-trt"},{"rune":"G","rune_set":"bacs2","hex":"#3366ff99","correct":-1,"choice":-1,"rt":-1,"accuracy":1,"outcome":"+1","keys":[],"total_keys":0,"block":2,"trial":192,"stimulus":7,"robot":2,"valence":"win","action":"no-go","sham":1,"trial_type":"pit-trial","trial_index":229,"time_elapsed":1182040,"internal_node_id":"0.0-200.0","task_version":"battery-v0.2-trt"},{"rune":"E","rune_set":"bacs2","hex":"#3366ff99","correct":32,"choice":32,"rt":799.8500000685453,"accuracy":1,"outcome":"+10","keys":[2300.7200001738966],"total_keys":1,"block":2,"trial":193,"stimulus":4,"robot":1,"valence":"win","action":"go","sham":0,"trial_type":"pit-trial","trial_index":230,"time_elapsed":1185545,"internal_node_id":"0.0-201.0","task_version":"battery-v0.2-trt"},{"rune":"Z","rune_set":"bacs2","hex":"#f73b6a7A","correct":32,"choice":32,"rt":846.9750001095235,"accuracy":1,"outcome":"-1","keys":[2348.5100001562387],"total_keys":1,"block":2,"trial":194,"stimulus":8,"robot":3,"valence":"lose","action":"go","sham":0,"trial_type":"pit-trial","trial_index":231,"time_elapsed":1189097,"internal_node_id":"0.0-202.0","task_version":"battery-v0.2-trt"},{"rune":"G","rune_set":"bacs2","hex":"#3366ff99","correct":-1,"choice":-1,"rt":-1,"accuracy":1,"outcome":"+10","keys":[],"total_keys":0,"block":2,"trial":195,"stimulus":7,"robot":2,"valence":"win","action":"no-go","sham":0,"trial_type":"pit-trial","trial_index":232,"time_elapsed":1193101,"internal_node_id":"0.0-203.0","task_version":"battery-v0.2-trt"},{"rune":"O","rune_set":"bacs2","hex":"#f73b6a7A","correct":-1,"choice":32,"rt":714.60000006482,"accuracy":0,"outcome":"-10","keys":[2214.930000016466],"total_keys":1,"block":2,"trial":196,"stimulus":6,"robot":4,"valence":"lose","action":"no-go","sham":0,"trial_type":"pit-trial","trial_index":233,"time_elapsed":1196521,"internal_node_id":"0.0-204.0","task_version":"battery-v0.2-trt"},{"rune":"G","rune_set":"bacs2","hex":"#3366ff99","correct":-1,"choice":-1,"rt":-1,"accuracy":1,"outcome":"+10","keys":[],"total_keys":0,"block":2,"trial":197,"stimulus":7,"robot":2,"valence":"win","action":"no-go","sham":0,"trial_type":"pit-trial","trial_index":234,"time_elapsed":1200527,"internal_node_id":"0.0-205.0","task_version":"battery-v0.2-trt"},{"rune":"E","rune_set":"bacs2","hex":"#3366ff99","correct":32,"choice":32,"rt":719.8700001463294,"accuracy":1,"outcome":"+10","keys":[2221.6399998869747],"total_keys":1,"block":2,"trial":198,"stimulus":4,"robot":1,"valence":"win","action":"go","sham":0,"trial_type":"pit-trial","trial_index":235,"time_elapsed":1203952,"internal_node_id":"0.0-206.0","task_version":"battery-v0.2-trt"},{"rune":"O","rune_set":"bacs2","hex":"#f73b6a7A","correct":-1,"choice":-1,"rt":-1,"accuracy":1,"outcome":"-1","keys":[],"total_keys":0,"block":2,"trial":199,"stimulus":6,"robot":4,"valence":"lose","action":"no-go","sham":0,"trial_type":"pit-trial","trial_index":236,"time_elapsed":1207959,"internal_node_id":"0.0-207.0","task_version":"battery-v0.2-trt"},{"rune":"Z","rune_set":"bacs2","hex":"#f73b6a7A","correct":32,"choice":32,"rt":720.7599999383092,"accuracy":1,"outcome":"-1","keys":[2221.720000030473],"total_keys":1,"block":2,"trial":200,"stimulus":8,"robot":3,"valence":"lose","action":"go","sham":0,"trial_type":"pit-trial","trial_index":237,"time_elapsed":1211386,"internal_node_id":"0.0-208.0","task_version":"battery-v0.2-trt"},{"rune":"O","rune_set":"bacs2","hex":"#f73b6a7A","correct":-1,"choice":-1,"rt":-1,"accuracy":1,"outcome":"-1","keys":[],"total_keys":0,"block":2,"trial":201,"stimulus":6,"robot":4,"valence":"lose","action":"no-go","sham":0,"trial_type":"pit-trial","trial_index":238,"time_elapsed":1215392,"internal_node_id":"0.0-209.0","task_version":"battery-v0.2-trt"},{"rune":"X","rune_set":"bacs2","hex":"#f73b6a7A","correct":32,"choice":32,"rt":783.6150000803173,"accuracy":1,"outcome":"-1","keys":[2283.8349998928607],"total_keys":1,"block":2,"trial":202,"stimulus":9,"robot":3,"valence":"lose","action":"go","sham":0,"trial_type":"pit-trial","trial_index":239,"time_elapsed":1218881,"internal_node_id":"0.0-210.0","task_version":"battery-v0.2-trt"},{"rune":"G","rune_set":"bacs2","hex":"#3366ff99","correct":-1,"choice":-1,"rt":-1,"accuracy":1,"outcome":"+1","keys":[],"total_keys":0,"block":2,"trial":203,"stimulus":7,"robot":2,"valence":"win","action":"no-go","sham":1,"trial_type":"pit-trial","trial_index":240,"time_elapsed":1222888,"internal_node_id":"0.0-211.0","task_version":"battery-v0.2-trt"},{"rune":"Z","rune_set":"bacs2","hex":"#f73b6a7A","correct":32,"choice":32,"rt":776.6399998217821,"accuracy":1,"outcome":"-1","keys":[2276.8099999520928],"total_keys":1,"block":2,"trial":204,"stimulus":8,"robot":3,"valence":"lose","action":"go","sham":0,"trial_type":"pit-trial","trial_index":241,"time_elapsed":1226370,"internal_node_id":"0.0-212.0","task_version":"battery-v0.2-trt"},{"rune":"G","rune_set":"bacs2","hex":"#3366ff99","correct":-1,"choice":32,"rt":717.9399998858571,"accuracy":0,"outcome":"+1","keys":[2218.85500010103],"total_keys":1,"block":2,"trial":205,"stimulus":7,"robot":2,"valence":"win","action":"no-go","sham":0,"trial_type":"pit-trial","trial_index":242,"time_elapsed":1229794,"internal_node_id":"0.0-213.0","task_version":"battery-v0.2-trt"},{"rune":"X","rune_set":"bacs2","hex":"#f73b6a7A","correct":32,"choice":32,"rt":758.6949998512864,"accuracy":1,"outcome":"-1","keys":[2258.769999956712],"total_keys":1,"block":2,"trial":206,"stimulus":9,"robot":3,"valence":"lose","action":"go","sham":0,"trial_type":"pit-trial","trial_index":243,"time_elapsed":1233257,"internal_node_id":"0.0-214.0","task_version":"battery-v0.2-trt"},{"rune":"O","rune_set":"bacs2","hex":"#f73b6a7A","correct":-1,"choice":-1,"rt":-1,"accuracy":1,"outcome":"-1","keys":[],"total_keys":0,"block":2,"trial":207,"stimulus":6,"robot":4,"valence":"lose","action":"no-go","sham":0,"trial_type":"pit-trial","trial_index":244,"time_elapsed":1237264,"internal_node_id":"0.0-215.0","task_version":"battery-v0.2-trt"},{"rune":"Z","rune_set":"bacs2","hex":"#f73b6a7A","correct":32,"choice":32,"rt":663.704999955371,"accuracy":1,"outcome":"-10","keys":[2165.6650002114475],"total_keys":1,"block":2,"trial":208,"stimulus":8,"robot":3,"valence":"lose","action":"go","sham":1,"trial_type":"pit-trial","trial_index":245,"time_elapsed":1240634,"internal_node_id":"0.0-216.0","task_version":"battery-v0.2-trt"},{"rune":"Z","rune_set":"bacs2","hex":"#f73b6a7A","correct":32,"choice":-1,"rt":-1,"accuracy":0,"outcome":"-10","keys":[],"total_keys":0,"block":2,"trial":209,"stimulus":8,"robot":3,"valence":"lose","action":"go","sham":0,"trial_type":"pit-trial","trial_index":246,"time_elapsed":1244638,"internal_node_id":"0.0-217.0","task_version":"battery-v0.2-trt"},{"rune":"W","rune_set":"bacs2","hex":"#f73b6a7A","correct":-1,"choice":32,"rt":707.6149999629706,"accuracy":0,"outcome":"-10","keys":[2208.104999968782],"total_keys":1,"block":2,"trial":210,"stimulus":10,"robot":4,"valence":"lose","action":"no-go","sham":0,"trial_type":"pit-trial","trial_index":247,"time_elapsed":1248049,"internal_node_id":"0.0-218.0","task_version":"battery-v0.2-trt"},{"rune":"X","rune_set":"bacs2","hex":"#f73b6a7A","correct":32,"choice":32,"rt":751.1150001082569,"accuracy":1,"outcome":"-1","keys":[2252.989999949932],"total_keys":1,"block":2,"trial":211,"stimulus":9,"robot":3,"valence":"lose","action":"go","sham":0,"trial_type":"pit-trial","trial_index":248,"time_elapsed":1251506,"internal_node_id":"0.0-219.0","task_version":"battery-v0.2-trt"},{"rune":"J","rune_set":"bacs2","hex":"#3366ff99","correct":-1,"choice":32,"rt":910.9900000039488,"accuracy":0,"outcome":"+1","keys":[2411.1200000625104],"total_keys":1,"block":2,"trial":212,"stimulus":11,"robot":2,"valence":"win","action":"no-go","sham":0,"trial_type":"pit-trial","trial_index":249,"time_elapsed":1255122,"internal_node_id":"0.0-220.0","task_version":"battery-v0.2-trt"},{"rune":"J","rune_set":"bacs2","hex":"#3366ff99","correct":-1,"choice":-1,"rt":-1,"accuracy":1,"outcome":"+10","keys":[],"total_keys":0,"block":2,"trial":213,"stimulus":11,"robot":2,"valence":"win","action":"no-go","sham":0,"trial_type":"pit-trial","trial_index":250,"time_elapsed":1259127,"internal_node_id":"0.0-221.0","task_version":"battery-v0.2-trt"},{"rune":"W","rune_set":"bacs2","hex":"#f73b6a7A","correct":-1,"choice":32,"rt":880.0449999980628,"accuracy":0,"outcome":"-10","keys":[2380.760000087321],"total_keys":1,"block":2,"trial":214,"stimulus":10,"robot":4,"valence":"lose","action":"no-go","sham":0,"trial_type":"pit-trial","trial_index":251,"time_elapsed":1262713,"internal_node_id":"0.0-222.0","task_version":"battery-v0.2-trt"},{"rune":"X","rune_set":"bacs2","hex":"#f73b6a7A","correct":32,"choice":32,"rt":936.7750000674278,"accuracy":1,"outcome":"-1","keys":[2437.079999828711],"total_keys":1,"block":2,"trial":215,"stimulus":9,"robot":3,"valence":"lose","action":"go","sham":0,"trial_type":"pit-trial","trial_index":252,"time_elapsed":1266355,"internal_node_id":"0.0-223.0","task_version":"battery-v0.2-trt"},{"rune":"Z","rune_set":"bacs2","hex":"#f73b6a7A","correct":32,"choice":32,"rt":605.015000095591,"accuracy":1,"outcome":"-1","keys":[2105.879999930039],"total_keys":1,"block":2,"trial":216,"stimulus":8,"robot":3,"valence":"lose","action":"go","sham":0,"trial_type":"pit-trial","trial_index":253,"time_elapsed":1269666,"internal_node_id":"0.0-224.0","task_version":"battery-v0.2-trt"},{"rune":"X","rune_set":"bacs2","hex":"#f73b6a7A","correct":32,"choice":32,"rt":797.7799999061972,"accuracy":1,"outcome":"-1","keys":[2298.1149998959154],"total_keys":1,"block":2,"trial":217,"stimulus":9,"robot":3,"valence":"lose","action":"go","sham":0,"trial_type":"pit-trial","trial_index":254,"time_elapsed":1273169,"internal_node_id":"0.0-225.0","task_version":"battery-v0.2-trt"},{"rune":"Z","rune_set":"bacs2","hex":"#f73b6a7A","correct":32,"choice":32,"rt":671.7699998989701,"accuracy":1,"outcome":"-10","keys":[2172.905000159517],"total_keys":1,"block":2,"trial":218,"stimulus":8,"robot":3,"valence":"lose","action":"go","sham":1,"trial_type":"pit-trial","trial_index":255,"time_elapsed":1276545,"internal_node_id":"0.0-226.0","task_version":"battery-v0.2-trt"},{"rune":"J","rune_set":"bacs2","hex":"#3366ff99","correct":-1,"choice":-1,"rt":-1,"accuracy":1,"outcome":"+10","keys":[],"total_keys":0,"block":2,"trial":219,"stimulus":11,"robot":2,"valence":"win","action":"no-go","sham":0,"trial_type":"pit-trial","trial_index":256,"time_elapsed":1280550,"internal_node_id":"0.0-227.0","task_version":"battery-v0.2-trt"},{"rune":"W","rune_set":"bacs2","hex":"#f73b6a7A","correct":-1,"choice":-1,"rt":-1,"accuracy":1,"outcome":"-1","keys":[2808.90000006184],"total_keys":1,"block":2,"trial":220,"stimulus":10,"robot":4,"valence":"lose","action":"no-go","sham":0,"trial_type":"pit-trial","trial_index":257,"time_elapsed":1284555,"internal_node_id":"0.0-228.0","task_version":"battery-v0.2-trt"},{"rune":"W","rune_set":"bacs2","hex":"#f73b6a7A","correct":-1,"choice":32,"rt":869.535000063479,"accuracy":0,"outcome":"-1","keys":[2370.8249998744577],"total_keys":1,"block":2,"trial":221,"stimulus":10,"robot":4,"valence":"lose","action":"no-go","sham":1,"trial_type":"pit-trial","trial_index":258,"time_elapsed":1288130,"internal_node_id":"0.0-229.0","task_version":"battery-v0.2-trt"},{"rune":"J","rune_set":"bacs2","hex":"#3366ff99","correct":-1,"choice":32,"rt":1244.9900000356138,"accuracy":0,"outcome":"+1","keys":[2745.915000094101],"total_keys":1,"block":2,"trial":222,"stimulus":11,"robot":2,"valence":"win","action":"no-go","sham":0,"trial_type":"pit-trial","trial_index":259,"time_elapsed":1292081,"internal_node_id":"0.0-230.0","task_version":"battery-v0.2-trt"},{"rune":"Z","rune_set":"bacs2","hex":"#f73b6a7A","correct":32,"choice":32,"rt":725.0000000931323,"accuracy":1,"outcome":"-1","keys":[2225.9049999993294],"total_keys":1,"block":2,"trial":223,"stimulus":8,"robot":3,"valence":"lose","action":"go","sham":0,"trial_type":"pit-trial","trial_index":260,"time_elapsed":1295513,"internal_node_id":"0.0-231.0","task_version":"battery-v0.2-trt"},{"rune":"X","rune_set":"bacs2","hex":"#f73b6a7A","correct":32,"choice":32,"rt":685.6400000397116,"accuracy":1,"outcome":"-10","keys":[2186.574999941513],"total_keys":1,"block":2,"trial":224,"stimulus":9,"robot":3,"valence":"lose","action":"go","sham":1,"trial_type":"pit-trial","trial_index":261,"time_elapsed":1298905,"internal_node_id":"0.0-232.0","task_version":"battery-v0.2-trt"},{"rune":"J","rune_set":"bacs2","hex":"#3366ff99","correct":-1,"choice":-1,"rt":-1,"accuracy":1,"outcome":"+10","keys":[],"total_keys":0,"block":2,"trial":225,"stimulus":11,"robot":2,"valence":"win","action":"no-go","sham":0,"trial_type":"pit-trial","trial_index":262,"time_elapsed":1302911,"internal_node_id":"0.0-233.0","task_version":"battery-v0.2-trt"},{"rune":"X","rune_set":"bacs2","hex":"#f73b6a7A","correct":32,"choice":-1,"rt":-1,"accuracy":0,"outcome":"-10","keys":[],"total_keys":0,"block":2,"trial":226,"stimulus":9,"robot":3,"valence":"lose","action":"go","sham":0,"trial_type":"pit-trial","trial_index":263,"time_elapsed":1306918,"internal_node_id":"0.0-234.0","task_version":"battery-v0.2-trt"},{"rune":"W","rune_set":"bacs2","hex":"#f73b6a7A","correct":-1,"choice":32,"rt":641.6050000116229,"accuracy":0,"outcome":"-1","keys":[2142.119999974966],"total_keys":1,"block":2,"trial":227,"stimulus":10,"robot":4,"valence":"lose","action":"no-go","sham":1,"trial_type":"pit-trial","trial_index":264,"time_elapsed":1310265,"internal_node_id":"0.0-235.0","task_version":"battery-v0.2-trt"},{"rune":"Z","rune_set":"bacs2","hex":"#f73b6a7A","correct":32,"choice":32,"rt":790.2649999596179,"accuracy":1,"outcome":"-10","keys":[2290.389999980107],"total_keys":1,"block":2,"trial":228,"stimulus":8,"robot":3,"valence":"lose","action":"go","sham":1,"trial_type":"pit-trial","trial_index":265,"time_elapsed":1313760,"internal_node_id":"0.0-236.0","task_version":"battery-v0.2-trt"},{"rune":"X","rune_set":"bacs2","hex":"#f73b6a7A","correct":32,"choice":32,"rt":854.9650001805276,"accuracy":1,"outcome":"-1","keys":[2355.3499998524785],"total_keys":1,"block":2,"trial":229,"stimulus":9,"robot":3,"valence":"lose","action":"go","sham":0,"trial_type":"pit-trial","trial_index":266,"time_elapsed":1317320,"internal_node_id":"0.0-237.0","task_version":"battery-v0.2-trt"},{"rune":"Z","rune_set":"bacs2","hex":"#f73b6a7A","correct":32,"choice":-1,"rt":-1,"accuracy":0,"outcome":"-10","keys":[],"total_keys":0,"block":2,"trial":230,"stimulus":8,"robot":3,"valence":"lose","action":"go","sham":0,"trial_type":"pit-trial","trial_index":267,"time_elapsed":1321324,"internal_node_id":"0.0-238.0","task_version":"battery-v0.2-trt"},{"rune":"W","rune_set":"bacs2","hex":"#f73b6a7A","correct":-1,"choice":32,"rt":762.8249998670071,"accuracy":0,"outcome":"-10","keys":[2264.329999918118],"total_keys":1,"block":2,"trial":231,"stimulus":10,"robot":4,"valence":"lose","action":"no-go","sham":0,"trial_type":"pit-trial","trial_index":268,"time_elapsed":1324792,"internal_node_id":"0.0-239.0","task_version":"battery-v0.2-trt"},{"rune":"J","rune_set":"bacs2","hex":"#3366ff99","correct":-1,"choice":-1,"rt":-1,"accuracy":1,"outcome":"+10","keys":[],"total_keys":0,"block":2,"trial":232,"stimulus":11,"robot":2,"valence":"win","action":"no-go","sham":0,"trial_type":"pit-trial","trial_index":269,"time_elapsed":1328800,"internal_node_id":"0.0-240.0","task_version":"battery-v0.2-trt"},{"rune":"J","rune_set":"bacs2","hex":"#3366ff99","correct":-1,"choice":-1,"rt":-1,"accuracy":1,"outcome":"+10","keys":[],"total_keys":0,"block":2,"trial":233,"stimulus":11,"robot":2,"valence":"win","action":"no-go","sham":0,"trial_type":"pit-trial","trial_index":270,"time_elapsed":1332806,"internal_node_id":"0.0-241.0","task_version":"battery-v0.2-trt"},{"rune":"X","rune_set":"bacs2","hex":"#f73b6a7A","correct":32,"choice":32,"rt":6