[{"view_history":"[{\"page_index\":0,\"viewing_time\":18489}]","rt":18490,"trial_type":"instructions","trial_index":0,"time_elapsed":18491,"internal_node_id":"0.0-0.0","task_version":"battery-v0.2-trt"},{"slider_type":"valence","raw_loc":655,"loc":0.81,"trial_type":"affective-slider","trial_index":1,"time_elapsed":23445,"internal_node_id":"0.0-1.0","task_version":"battery-v0.2-trt"},{"responses":{"Q01":"0","Q02":"0","Q06":"0","Q03":"0","Q07":"0","Q05":"0","Q08":"3","Q04":"0"},"rt":11606,"item_order":[0,1,5,2,6,4,7,3],"radio_events":[2980,3901,4590,5613,6342,7177,9554,10782],"key_events":[],"mouse_events":[2980,3901,4590,5613,6342,7177,9087,9554,10782,11606],"straightlining":0.875,"zigzagging":0.2857142857142857,"survey":"dass_d","trial_type":"survey-template","trial_index":2,"time_elapsed":35056,"internal_node_id":"0.0-2.0","task_version":"battery-v0.2-trt","infrequency":0.5},{"responses":{"Q02":"0","Q01":"0","Q05":"0","Q07":"0","Q06":"0","Q03":"0","Q08":"0","Q04":"0"},"rt":70428,"item_order":[1,0,4,6,5,2,7,3],"radio_events":[2853,3518,7577,8476,9102,10654,11982,13898],"key_events":[],"mouse_events":[2853,3518,7235,7577,8476,9102,10654,11982,13898,66763,70428],"straightlining":1,"zigzagging":0,"survey":"gad7","trial_type":"survey-template","trial_index":3,"time_elapsed":105487,"internal_node_id":"0.0-3.0","task_version":"battery-v0.2-trt","infrequency":0},{"responses":{"Q05":"2","Q01":"2","Q10":"1","Q09":"1","Q04":"2","Q03":"3","Q07":"3","Q12":"1","Q11":"1","Q06":"3","Q02":"2","Q13":"0","Q08":"2"},"rt":217183,"item_order":[4,0,9,8,3,2,6,11,10,5,1,12,7],"radio_events":[29893,157185,159600,162590,167129,168724,169539,202512,206891,208290,210221,210945,211809,214367,216385],"key_events":[],"mouse_events":[29476,29893,131945,157185,159600,162590,167129,168724,169539,201514,202194,202512,206891,208290,210221,210945,211809,214367,216385,217181],"straightlining":0.38461538461538464,"zigzagging":0.3333333333333333,"survey":"bisbas","trial_type":"survey-template","trial_index":4,"time_elapsed":322674,"internal_node_id":"0.0-4.0","task_version":"battery-v0.2-trt","infrequency":0},{"value":[0.5,2.2596153846153846,0.6190476190476191],"trial_type":"call-function","trial_index":5,"time_elapsed":322676,"internal_node_id":"0.0-5.0","task_version":"battery-v0.2-trt"},{"view_history":"[{\"page_index\":0,\"viewing_time\":2126},{\"page_index\":1,\"viewing_time\":2403},{\"page_index\":2,\"viewing_time\":2585},{\"page_index\":3,\"viewing_time\":3909},{\"page_index\":4,\"viewing_time\":4390},{\"page_index\":5,\"viewing_time\":2800},{\"page_index\":6,\"viewing_time\":4055},{\"page_index\":7,\"viewing_time\":4412},{\"page_index\":8,\"viewing_time\":4979},{\"page_index\":9,\"viewing_time\":3293}]","rt":34952,"trial_type":"pit-instructions","trial_index":6,"time_elapsed":357630,"internal_node_id":"0.0-6.0-0.0","task_version":"battery-v0.2-trt"},{"rune":"1","rune_set":"elianto","hex":"#3366ff99","correct":32,"choice":-1,"rt":-1,"accuracy":0,"outcome":"+1","keys":[],"total_keys":0,"block":0,"practice":1,"trial_type":"pit-trial","trial_index":7,"time_elapsed":361634,"internal_node_id":"0.0-6.0-1.0-0.0","task_version":"battery-v0.2-trt"},{"rune":"1","rune_set":"elianto","hex":"#3366ff99","correct":32,"choice":32,"rt":628,"accuracy":1,"outcome":"+10","keys":[2129],"total_keys":1,"block":0,"practice":1,"trial_type":"pit-trial","trial_index":8,"time_elapsed":364966,"internal_node_id":"0.0-6.0-1.1-0.1","task_version":"battery-v0.2-trt"},{"rune":"1","rune_set":"elianto","hex":"#3366ff99","correct":32,"choice":32,"rt":503,"accuracy":1,"outcome":"+10","keys":[2004],"total_keys":1,"block":0,"practice":1,"trial_type":"pit-trial","trial_index":9,"time_elapsed":368172,"internal_node_id":"0.0-6.0-1.2-0.2","task_version":"battery-v0.2-trt"},{"rune":"1","rune_set":"elianto","hex":"#3366ff99","correct":32,"choice":32,"rt":689,"accuracy":1,"outcome":"+10","keys":[2189],"total_keys":1,"block":0,"practice":1,"trial_type":"pit-trial","trial_index":10,"time_elapsed":371563,"internal_node_id":"0.0-6.0-1.3-0.3","task_version":"battery-v0.2-trt"},{"trial_type":"call-function","trial_index":11,"time_elapsed":371565,"internal_node_id":"0.0-6.0-2.0","task_version":"battery-v0.2-trt"},{"view_history":"[{\"page_index\":0,\"viewing_time\":4360},{\"page_index\":1,\"viewing_time\":1336}]","rt":5696,"trial_type":"pit-instructions","trial_index":12,"time_elapsed":377262,"internal_node_id":"0.0-6.0-3.0","task_version":"battery-v0.2-trt"},{"rune":"2","rune_set":"elianto","hex":"#3366ff99","correct":-1,"choice":-1,"rt":-1,"accuracy":1,"outcome":"+10","keys":[],"total_keys":0,"block":0,"practice":2,"trial_type":"pit-trial","trial_index":13,"time_elapsed":381265,"internal_node_id":"0.0-6.0-4.0-0.0","task_version":"battery-v0.2-trt"},{"rune":"2","rune_set":"elianto","hex":"#3366ff99","correct":-1,"choice":32,"rt":796,"accuracy":0,"outcome":"+1","keys":[2297],"total_keys":1,"block":0,"practice":2,"trial_type":"pit-trial","trial_index":14,"time_elapsed":384764,"internal_node_id":"0.0-6.0-4.1-0.1","task_version":"battery-v0.2-trt"},{"rune":"2","rune_set":"elianto","hex":"#3366ff99","correct":-1,"choice":32,"rt":729,"accuracy":0,"outcome":"+1","keys":[2231],"total_keys":1,"block":0,"practice":2,"trial_type":"pit-trial","trial_index":15,"time_elapsed":388197,"internal_node_id":"0.0-6.0-4.2-0.2","task_version":"battery-v0.2-trt"},{"rune":"2","rune_set":"elianto","hex":"#3366ff99","correct":-1,"choice":32,"rt":481,"accuracy":0,"outcome":"+1","keys":[1982],"total_keys":1,"block":0,"practice":2,"trial_type":"pit-trial","trial_index":16,"time_elapsed":391382,"internal_node_id":"0.0-6.0-4.3-0.3","task_version":"battery-v0.2-trt"},{"rune":"2","rune_set":"elianto","hex":"#3366ff99","correct":-1,"choice":32,"rt":576,"accuracy":0,"outcome":"+1","keys":[2076],"total_keys":1,"block":0,"practice":2,"trial_type":"pit-trial","trial_index":17,"time_elapsed":394662,"internal_node_id":"0.0-6.0-4.4-0.4","task_version":"battery-v0.2-trt"},{"rune":"2","rune_set":"elianto","hex":"#3366ff99","correct":-1,"choice":-1,"rt":-1,"accuracy":1,"outcome":"+10","keys":[],"total_keys":0,"block":0,"practice":2,"trial_type":"pit-trial","trial_index":18,"time_elapsed":398665,"internal_node_id":"0.0-6.0-4.5-0.5","task_version":"battery-v0.2-trt"},{"rune":"2","rune_set":"elianto","hex":"#3366ff99","correct":-1,"choice":-1,"rt":-1,"accuracy":1,"outcome":"+10","keys":[],"total_keys":0,"block":0,"practice":2,"trial_type":"pit-trial","trial_index":19,"time_elapsed":402668,"internal_node_id":"0.0-6.0-4.6-0.6","task_version":"battery-v0.2-trt"},{"rune":"2","rune_set":"elianto","hex":"#3366ff99","correct":-1,"choice":-1,"rt":-1,"accuracy":1,"outcome":"+10","keys":[],"total_keys":0,"block":0,"practice":2,"trial_type":"pit-trial","trial_index":20,"time_elapsed":406673,"internal_node_id":"0.0-6.0-4.7-0.7","task_version":"battery-v0.2-trt"},{"trial_type":"call-function","trial_index":21,"time_elapsed":406674,"internal_node_id":"0.0-6.0-5.0","task_version":"battery-v0.2-trt"},{"view_history":"[{\"page_index\":0,\"viewing_time\":6520},{\"page_index\":1,\"viewing_time\":6865}]","rt":13386,"trial_type":"pit-instructions","trial_index":22,"time_elapsed":420061,"internal_node_id":"0.0-6.0-6.0","task_version":"battery-v0.2-trt"},{"rune":"3","rune_set":"elianto","hex":"#f73b6a7A","correct":-1,"choice":32,"rt":99,"accuracy":0,"outcome":"-10","keys":[1600],"total_keys":1,"block":0,"practice":3,"trial_type":"pit-trial","trial_index":23,"time_elapsed":422862,"internal_node_id":"0.0-6.0-7.0-0.0","task_version":"battery-v0.2-trt"},{"rune":"3","rune_set":"elianto","hex":"#f73b6a7A","correct":-1,"choice":-1,"rt":-1,"accuracy":1,"outcome":"-1","keys":[],"total_keys":0,"block":0,"practice":3,"trial_type":"pit-trial","trial_index":24,"time_elapsed":426866,"internal_node_id":"0.0-6.0-7.1-0.1","task_version":"battery-v0.2-trt"},{"rune":"3","rune_set":"elianto","hex":"#f73b6a7A","correct":-1,"choice":-1,"rt":-1,"accuracy":1,"outcome":"-1","keys":[],"total_keys":0,"block":0,"practice":3,"trial_type":"pit-trial","trial_index":25,"time_elapsed":430869,"internal_node_id":"0.0-6.0-7.2-0.2","task_version":"battery-v0.2-trt"},{"rune":"3","rune_set":"elianto","hex":"#f73b6a7A","correct":-1,"choice":-1,"rt":-1,"accuracy":1,"outcome":"-1","keys":[],"total_keys":0,"block":0,"practice":3,"trial_type":"pit-trial","trial_index":26,"time_elapsed":434871,"internal_node_id":"0.0-6.0-7.3-0.3","task_version":"battery-v0.2-trt"},{"trial_type":"call-function","trial_index":27,"time_elapsed":434873,"internal_node_id":"0.0-6.0-8.0","task_version":"battery-v0.2-trt"},{"view_history":"[{\"page_index\":0,\"viewing_time\":2993},{\"page_index\":1,\"viewing_time\":1417}]","rt":4411,"trial_type":"pit-instructions","trial_index":28,"time_elapsed":439284,"internal_node_id":"0.0-6.0-9.0","task_version":"battery-v0.2-trt"},{"rune":"4","rune_set":"elianto","hex":"#f73b6a7A","correct":32,"choice":32,"rt":818,"accuracy":1,"outcome":"-1","keys":[2318],"total_keys":1,"block":0,"practice":4,"trial_type":"pit-trial","trial_index":29,"time_elapsed":442806,"internal_node_id":"0.0-6.0-10.0-0.0","task_version":"battery-v0.2-trt"},{"rune":"4","rune_set":"elianto","hex":"#f73b6a7A","correct":32,"choice":32,"rt":481,"accuracy":1,"outcome":"-1","keys":[1981],"total_keys":1,"block":0,"practice":4,"trial_type":"pit-trial","trial_index":30,"time_elapsed":445991,"internal_node_id":"0.0-6.0-10.1-0.1","task_version":"battery-v0.2-trt"},{"rune":"4","rune_set":"elianto","hex":"#f73b6a7A","correct":32,"choice":32,"rt":433,"accuracy":1,"outcome":"-1","keys":[1933],"total_keys":1,"block":0,"practice":4,"trial_type":"pit-trial","trial_index":31,"time_elapsed":449125,"internal_node_id":"0.0-6.0-10.2-0.2","task_version":"battery-v0.2-trt"},{"rune":"4","rune_set":"elianto","hex":"#f73b6a7A","correct":32,"choice":32,"rt":187,"accuracy":1,"outcome":"-1","keys":[1686],"total_keys":1,"block":0,"practice":4,"trial_type":"pit-trial","trial_index":32,"time_elapsed":452014,"internal_node_id":"0.0-6.0-10.3-0.3","task_version":"battery-v0.2-trt"},{"trial_type":"call-function","trial_index":33,"time_elapsed":452015,"internal_node_id":"0.0-6.0-11.0","task_version":"battery-v0.2-trt"},{"view_history":"[{\"page_index\":0,\"viewing_time\":1337},{\"page_index\":1,\"viewing_time\":2824},{\"page_index\":2,\"viewing_time\":3678},{\"page_index\":3,\"viewing_time\":2346},{\"page_index\":4,\"viewing_time\":2569},{\"page_index\":5,\"viewing_time\":1194}]","rt":13948,"trial_type":"pit-instructions","trial_index":34,"time_elapsed":465965,"internal_node_id":"0.0-6.0-12.0","task_version":"battery-v0.2-trt"},{"responses":["Press SPACE","+10","-1","True","True"],"num_errors":0,"rt":17287,"trial_type":"pit-comprehension","trial_index":35,"time_elapsed":483255,"internal_node_id":"0.0-6.0-13.0","task_version":"battery-v0.2-trt"},{"view_history":"[{\"page_index\":0,\"viewing_time\":2024},{\"page_index\":1,\"viewing_time\":1956}]","rt":3980,"trial_type":"pit-instructions","trial_index":36,"time_elapsed":487238,"internal_node_id":"0.0-7.0","task_version":"battery-v0.2-trt"},{"rune":"Q","rune_set":"bacs1","hex":"#f73b6a7A","correct":-1,"choice":32,"rt":826,"accuracy":0,"outcome":"-10","keys":[2326],"total_keys":1,"block":1,"trial":1,"stimulus":0,"robot":4,"valence":"lose","action":"no-go","sham":0,"trial_type":"pit-trial","trial_index":37,"time_elapsed":490766,"internal_node_id":"0.0-8.0","task_version":"battery-v0.2-trt"},{"rune":"L","rune_set":"bacs1","hex":"#f73b6a7A","correct":-1,"choice":32,"rt":698,"accuracy":0,"outcome":"-1","keys":[2198],"total_keys":1,"block":1,"trial":2,"stimulus":1,"robot":4,"valence":"lose","action":"no-go","sham":1,"trial_type":"pit-trial","trial_index":38,"time_elapsed":494167,"internal_node_id":"0.0-9.0","task_version":"battery-v0.2-trt"},{"rune":"A","rune_set":"bacs1","hex":"#3366ff99","correct":-1,"choice":32,"rt":642,"accuracy":0,"outcome":"+1","keys":[2142],"total_keys":1,"block":1,"trial":3,"stimulus":3,"robot":2,"valence":"win","action":"no-go","sham":0,"trial_type":"pit-trial","trial_index":39,"time_elapsed":497511,"internal_node_id":"0.0-10.0","task_version":"battery-v0.2-trt"},{"rune":"C","rune_set":"bacs1","hex":"#3366ff99","correct":32,"choice":32,"rt":616,"accuracy":1,"outcome":"+10","keys":[2118],"total_keys":1,"block":1,"trial":4,"stimulus":2,"robot":1,"valence":"win","action":"go","sham":0,"trial_type":"pit-trial","trial_index":40,"time_elapsed":500832,"internal_node_id":"0.0-11.0","task_version":"battery-v0.2-trt"},{"rune":"A","rune_set":"bacs1","hex":"#3366ff99","correct":-1,"choice":-1,"rt":-1,"accuracy":1,"outcome":"+10","keys":[],"total_keys":0,"block":1,"trial":5,"stimulus":3,"robot":2,"valence":"win","action":"no-go","sham":0,"trial_type":"pit-trial","trial_index":41,"time_elapsed":504836,"internal_node_id":"0.0-12.0","task_version":"battery-v0.2-trt"},{"rune":"C","rune_set":"bacs1","hex":"#3366ff99","correct":32,"choice":32,"rt":795,"accuracy":1,"outcome":"+10","keys":[2297],"total_keys":1,"block":1,"trial":6,"stimulus":2,"robot":1,"valence":"win","action":"go","sham":0,"trial_type":"pit-trial","trial_index":42,"time_elapsed":508335,"internal_node_id":"0.0-13.0","task_version":"battery-v0.2-trt"},{"rune":"Q","rune_set":"bacs1","hex":"#f73b6a7A","correct":-1,"choice":-1,"rt":-1,"accuracy":1,"outcome":"-1","keys":[],"total_keys":0,"block":1,"trial":7,"stimulus":0,"robot":4,"valence":"lose","action":"no-go","sham":0,"trial_type":"pit-trial","trial_index":43,"time_elapsed":512340,"internal_node_id":"0.0-14.0","task_version":"battery-v0.2-trt"},{"rune":"L","rune_set":"bacs1","hex":"#f73b6a7A","correct":-1,"choice":-1,"rt":-1,"accuracy":1,"outcome":"-10","keys":[],"total_keys":0,"block":1,"trial":8,"stimulus":1,"robot":4,"valence":"lose","action":"no-go","sham":1,"trial_type":"pit-trial","trial_index":44,"time_elapsed":516344,"internal_node_id":"0.0-15.0","task_version":"battery-v0.2-trt"},{"rune":"C","rune_set":"bacs1","hex":"#3366ff99","correct":32,"choice":32,"rt":664,"accuracy":1,"outcome":"+10","keys":[2165],"total_keys":1,"block":1,"trial":9,"stimulus":2,"robot":1,"valence":"win","action":"go","sham":0,"trial_type":"pit-trial","trial_index":45,"time_elapsed":519712,"internal_node_id":"0.0-16.0","task_version":"battery-v0.2-trt"},{"rune":"A","rune_set":"bacs1","hex":"#3366ff99","correct":-1,"choice":-1,"rt":-1,"accuracy":1,"outcome":"+10","keys":[],"total_keys":0,"block":1,"trial":10,"stimulus":3,"robot":2,"valence":"win","action":"no-go","sham":0,"trial_type":"pit-trial","trial_index":46,"time_elapsed":523715,"internal_node_id":"0.0-17.0","task_version":"battery-v0.2-trt"},{"rune":"L","rune_set":"bacs1","hex":"#f73b6a7A","correct":-1,"choice":-1,"rt":-1,"accuracy":1,"outcome":"-10","keys":[],"total_keys":0,"block":1,"trial":11,"stimulus":1,"robot":4,"valence":"lose","action":"no-go","sham":1,"trial_type":"pit-trial","trial_index":47,"time_elapsed":527720,"internal_node_id":"0.0-18.0","task_version":"battery-v0.2-trt"},{"rune":"Q","rune_set":"bacs1","hex":"#f73b6a7A","correct":-1,"choice":-1,"rt":-1,"accuracy":1,"outcome":"-1","keys":[],"total_keys":0,"block":1,"trial":12,"stimulus":0,"robot":4,"valence":"lose","action":"no-go","sham":0,"trial_type":"pit-trial","trial_index":48,"time_elapsed":531723,"internal_node_id":"0.0-19.0","task_version":"battery-v0.2-trt"},{"rune":"A","rune_set":"bacs1","hex":"#3366ff99","correct":-1,"choice":-1,"rt":-1,"accuracy":1,"outcome":"+1","keys":[],"total_keys":0,"block":1,"trial":13,"stimulus":3,"robot":2,"valence":"win","action":"no-go","sham":1,"trial_type":"pit-trial","trial_index":49,"time_elapsed":535726,"internal_node_id":"0.0-20.0","task_version":"battery-v0.2-trt"},{"rune":"L","rune_set":"bacs1","hex":"#f73b6a7A","correct":-1,"choice":-1,"rt":-1,"accuracy":1,"outcome":"-1","keys":[],"total_keys":0,"block":1,"trial":14,"stimulus":1,"robot":4,"valence":"lose","action":"no-go","sham":0,"trial_type":"pit-trial","trial_index":50,"time_elapsed":539729,"internal_node_id":"0.0-21.0","task_version":"battery-v0.2-trt"},{"rune":"Q","rune_set":"bacs1","hex":"#f73b6a7A","correct":-1,"choice":32,"rt":782,"accuracy":0,"outcome":"-10","keys":[2284],"total_keys":1,"block":1,"trial":15,"stimulus":0,"robot":4,"valence":"lose","action":"no-go","sham":0,"trial_type":"pit-trial","trial_index":51,"time_elapsed":543217,"internal_node_id":"0.0-22.0","task_version":"battery-v0.2-trt"},{"rune":"C","rune_set":"bacs1","hex":"#3366ff99","correct":32,"choice":32,"rt":617,"accuracy":1,"outcome":"+10","keys":[2117],"total_keys":1,"block":1,"trial":16,"stimulus":2,"robot":1,"valence":"win","action":"go","sham":0,"trial_type":"pit-trial","trial_index":52,"time_elapsed":546536,"internal_node_id":"0.0-23.0","task_version":"battery-v0.2-trt"},{"rune":"Q","rune_set":"bacs1","hex":"#f73b6a7A","correct":-1,"choice":32,"rt":802,"accuracy":0,"outcome":"-10","keys":[2301],"total_keys":1,"block":1,"trial":17,"stimulus":0,"robot":4,"valence":"lose","action":"no-go","sham":0,"trial_type":"pit-trial","trial_index":53,"time_elapsed":550041,"internal_node_id":"0.0-24.0","task_version":"battery-v0.2-trt"},{"rune":"C","rune_set":"bacs1","hex":"#3366ff99","correct":32,"choice":32,"rt":561,"accuracy":1,"outcome":"+10","keys":[2061],"total_keys":1,"block":1,"trial":18,"stimulus":2,"robot":1,"valence":"win","action":"go","sham":0,"trial_type":"pit-trial","trial_index":54,"time_elapsed":553304,"internal_node_id":"0.0-25.0","task_version":"battery-v0.2-trt"},{"rune":"A","rune_set":"bacs1","hex":"#3366ff99","correct":-1,"choice":-1,"rt":-1,"accuracy":1,"outcome":"+1","keys":[],"total_keys":0,"block":1,"trial":19,"stimulus":3,"robot":2,"valence":"win","action":"no-go","sham":1,"trial_type":"pit-trial","trial_index":55,"time_elapsed":557307,"internal_node_id":"0.0-26.0","task_version":"battery-v0.2-trt"},{"rune":"L","rune_set":"bacs1","hex":"#f73b6a7A","correct":-1,"choice":32,"rt":886,"accuracy":0,"outcome":"-1","keys":[2387],"total_keys":1,"block":1,"trial":20,"stimulus":1,"robot":4,"valence":"lose","action":"no-go","sham":1,"trial_type":"pit-trial","trial_index":56,"time_elapsed":560897,"internal_node_id":"0.0-27.0","task_version":"battery-v0.2-trt"},{"rune":"Q","rune_set":"bacs1","hex":"#f73b6a7A","correct":-1,"choice":-1,"rt":-1,"accuracy":1,"outcome":"-1","keys":[],"total_keys":0,"block":1,"trial":21,"stimulus":0,"robot":4,"valence":"lose","action":"no-go","sham":0,"trial_type":"pit-trial","trial_index":57,"time_elapsed":564899,"internal_node_id":"0.0-28.0","task_version":"battery-v0.2-trt"},{"rune":"A","rune_set":"bacs1","hex":"#3366ff99","correct":-1,"choice":-1,"rt":-1,"accuracy":1,"outcome":"+10","keys":[],"total_keys":0,"block":1,"trial":22,"stimulus":3,"robot":2,"valence":"win","action":"no-go","sham":0,"trial_type":"pit-trial","trial_index":58,"time_elapsed":568903,"internal_node_id":"0.0-29.0","task_version":"battery-v0.2-trt"},{"rune":"L","rune_set":"bacs1","hex":"#f73b6a7A","correct":-1,"choice":32,"rt":683,"accuracy":0,"outcome":"-10","keys":[2183],"total_keys":1,"block":1,"trial":23,"stimulus":1,"robot":4,"valence":"lose","action":"no-go","sham":0,"trial_type":"pit-trial","trial_index":59,"time_elapsed":572289,"internal_node_id":"0.0-30.0","task_version":"battery-v0.2-trt"},{"rune":"C","rune_set":"bacs1","hex":"#3366ff99","correct":32,"choice":32,"rt":553,"accuracy":1,"outcome":"+10","keys":[2053],"total_keys":1,"block":1,"trial":24,"stimulus":2,"robot":1,"valence":"win","action":"go","sham":0,"trial_type":"pit-trial","trial_index":60,"time_elapsed":575545,"internal_node_id":"0.0-31.0","task_version":"battery-v0.2-trt"},{"rune":"A","rune_set":"bacs1","hex":"#3366ff99","correct":-1,"choice":32,"rt":591,"accuracy":0,"outcome":"+10","keys":[2093],"total_keys":1,"block":1,"trial":25,"stimulus":3,"robot":2,"valence":"win","action":"no-go","sham":1,"trial_type":"pit-trial","trial_index":61,"time_elapsed":578841,"internal_node_id":"0.0-32.0","task_version":"battery-v0.2-trt"},{"rune":"C","rune_set":"bacs1","hex":"#3366ff99","correct":32,"choice":32,"rt":720,"accuracy":1,"outcome":"+10","keys":[2221],"total_keys":1,"block":1,"trial":26,"stimulus":2,"robot":1,"valence":"win","action":"go","sham":0,"trial_type":"pit-trial","trial_index":62,"time_elapsed":582266,"internal_node_id":"0.0-33.0","task_version":"battery-v0.2-trt"},{"rune":"L","rune_set":"bacs1","hex":"#f73b6a7A","correct":-1,"choice":32,"rt":617,"accuracy":0,"outcome":"-10","keys":[2117],"total_keys":1,"block":1,"trial":27,"stimulus":1,"robot":4,"valence":"lose","action":"no-go","sham":0,"trial_type":"pit-trial","trial_index":63,"time_elapsed":585585,"internal_node_id":"0.0-34.0","task_version":"battery-v0.2-trt"},{"rune":"Q","rune_set":"bacs1","hex":"#f73b6a7A","correct":-1,"choice":32,"rt":833,"accuracy":0,"outcome":"-10","keys":[2333],"total_keys":1,"block":1,"trial":28,"stimulus":0,"robot":4,"valence":"lose","action":"no-go","sham":0,"trial_type":"pit-trial","trial_index":64,"time_elapsed":589121,"internal_node_id":"0.0-35.0","task_version":"battery-v0.2-trt"},{"rune":"Q","rune_set":"bacs1","hex":"#f73b6a7A","correct":-1,"choice":-1,"rt":-1,"accuracy":1,"outcome":"-1","keys":[],"total_keys":0,"block":1,"trial":29,"stimulus":0,"robot":4,"valence":"lose","action":"no-go","sham":0,"trial_type":"pit-trial","trial_index":65,"time_elapsed":593124,"internal_node_id":"0.0-36.0","task_version":"battery-v0.2-trt"},{"rune":"A","rune_set":"bacs1","hex":"#3366ff99","correct":-1,"choice":32,"rt":630,"accuracy":0,"outcome":"+1","keys":[2130],"total_keys":1,"block":1,"trial":30,"stimulus":3,"robot":2,"valence":"win","action":"no-go","sham":0,"trial_type":"pit-trial","trial_index":66,"time_elapsed":596458,"internal_node_id":"0.0-37.0","task_version":"battery-v0.2-trt"},{"rune":"C","rune_set":"bacs1","hex":"#3366ff99","correct":32,"choice":32,"rt":577,"accuracy":1,"outcome":"+10","keys":[2077],"total_keys":1,"block":1,"trial":31,"stimulus":2,"robot":1,"valence":"win","action":"go","sham":0,"trial_type":"pit-trial","trial_index":67,"time_elapsed":599738,"internal_node_id":"0.0-38.0","task_version":"battery-v0.2-trt"},{"rune":"L","rune_set":"bacs1","hex":"#f73b6a7A","correct":-1,"choice":-1,"rt":-1,"accuracy":1,"outcome":"-1","keys":[],"total_keys":0,"block":1,"trial":32,"stimulus":1,"robot":4,"valence":"lose","action":"no-go","sham":0,"trial_type":"pit-trial","trial_index":68,"time_elapsed":603741,"internal_node_id":"0.0-39.0","task_version":"battery-v0.2-trt"},{"rune":"Q","rune_set":"bacs1","hex":"#f73b6a7A","correct":-1,"choice":-1,"rt":-1,"accuracy":1,"outcome":"-1","keys":[],"total_keys":0,"block":1,"trial":33,"stimulus":0,"robot":4,"valence":"lose","action":"no-go","sham":0,"trial_type":"pit-trial","trial_index":69,"time_elapsed":607745,"internal_node_id":"0.0-40.0","task_version":"battery-v0.2-trt"},{"rune":"A","rune_set":"bacs1","hex":"#3366ff99","correct":-1,"choice":32,"rt":506,"accuracy":0,"outcome":"+10","keys":[2007],"total_keys":1,"block":1,"trial":34,"stimulus":3,"robot":2,"valence":"win","action":"no-go","sham":1,"trial_type":"pit-trial","trial_index":70,"time_elapsed":610955,"internal_node_id":"0.0-41.0","task_version":"battery-v0.2-trt"},{"rune":"C","rune_set":"bacs1","hex":"#3366ff99","correct":32,"choice":32,"rt":521,"accuracy":1,"outcome":"+10","keys":[2021],"total_keys":1,"block":1,"trial":35,"stimulus":2,"robot":1,"valence":"win","action":"go","sham":0,"trial_type":"pit-trial","trial_index":71,"time_elapsed":614179,"internal_node_id":"0.0-42.0","task_version":"battery-v0.2-trt"},{"rune":"F","rune_set":"bacs1","hex":"#f73b6a7A","correct":32,"choice":-1,"rt":-1,"accuracy":0,"outcome":"-10","keys":[],"total_keys":0,"block":1,"trial":36,"stimulus":4,"robot":3,"valence":"lose","action":"go","sham":0,"trial_type":"pit-trial","trial_index":72,"time_elapsed":618181,"internal_node_id":"0.0-43.0","task_version":"battery-v0.2-trt"},{"rune":"F","rune_set":"bacs1","hex":"#f73b6a7A","correct":32,"choice":32,"rt":551,"accuracy":1,"outcome":"-10","keys":[2051],"total_keys":1,"block":1,"trial":37,"stimulus":4,"robot":3,"valence":"lose","action":"go","sham":1,"trial_type":"pit-trial","trial_index":73,"time_elapsed":621435,"internal_node_id":"0.0-44.0","task_version":"battery-v0.2-trt"},{"rune":"C","rune_set":"bacs1","hex":"#3366ff99","correct":32,"choice":32,"rt":456,"accuracy":1,"outcome":"+1","keys":[1956],"total_keys":1,"block":1,"trial":38,"stimulus":2,"robot":1,"valence":"win","action":"go","sham":1,"trial_type":"pit-trial","trial_index":74,"time_elapsed":624595,"internal_node_id":"0.0-45.0","task_version":"battery-v0.2-trt"},{"rune":"Q","rune_set":"bacs1","hex":"#f73b6a7A","correct":-1,"choice":-1,"rt":-1,"accuracy":1,"outcome":"-10","keys":[],"total_keys":0,"block":1,"trial":39,"stimulus":0,"robot":4,"valence":"lose","action":"no-go","sham":1,"trial_type":"pit-trial","trial_index":75,"time_elapsed":628598,"internal_node_id":"0.0-46.0","task_version":"battery-v0.2-trt"},{"rune":"A","rune_set":"bacs1","hex":"#3366ff99","correct":-1,"choice":32,"rt":557,"accuracy":0,"outcome":"+1","keys":[2057],"total_keys":1,"block":1,"trial":40,"stimulus":3,"robot":2,"valence":"win","action":"no-go","sham":0,"trial_type":"pit-trial","trial_index":76,"time_elapsed":631859,"internal_node_id":"0.0-47.0","task_version":"battery-v0.2-trt"},{"rune":"F","rune_set":"bacs1","hex":"#f73b6a7A","correct":32,"choice":-1,"rt":-1,"accuracy":0,"outcome":"-10","keys":[],"total_keys":0,"block":1,"trial":41,"stimulus":4,"robot":3,"valence":"lose","action":"go","sham":0,"trial_type":"pit-trial","trial_index":77,"time_elapsed":635864,"internal_node_id":"0.0-48.0","task_version":"battery-v0.2-trt"},{"rune":"E","rune_set":"bacs1","hex":"#3366ff99","correct":32,"choice":32,"rt":931,"accuracy":1,"outcome":"+10","keys":[2432],"total_keys":1,"block":1,"trial":42,"stimulus":6,"robot":1,"valence":"win","action":"go","sham":0,"trial_type":"pit-trial","trial_index":78,"time_elapsed":639499,"internal_node_id":"0.0-49.0","task_version":"battery-v0.2-trt"},{"rune":"T","rune_set":"bacs1","hex":"#3366ff99","correct":-1,"choice":32,"rt":760,"accuracy":0,"outcome":"+1","keys":[2261],"total_keys":1,"block":1,"trial":43,"stimulus":5,"robot":2,"valence":"win","action":"no-go","sham":0,"trial_type":"pit-trial","trial_index":79,"time_elapsed":642963,"internal_node_id":"0.0-50.0","task_version":"battery-v0.2-trt"},{"rune":"Q","rune_set":"bacs1","hex":"#f73b6a7A","correct":-1,"choice":32,"rt":785,"accuracy":0,"outcome":"-10","keys":[2285],"total_keys":1,"block":1,"trial":44,"stimulus":0,"robot":4,"valence":"lose","action":"no-go","sham":0,"trial_type":"pit-trial","trial_index":80,"time_elapsed":646450,"internal_node_id":"0.0-51.0","task_version":"battery-v0.2-trt"},{"rune":"Q","rune_set":"bacs1","hex":"#f73b6a7A","correct":-1,"choice":32,"rt":834,"accuracy":0,"outcome":"-10","keys":[2333],"total_keys":1,"block":1,"trial":45,"stimulus":0,"robot":4,"valence":"lose","action":"no-go","sham":0,"trial_type":"pit-trial","trial_index":81,"time_elapsed":649987,"internal_node_id":"0.0-52.0","task_version":"battery-v0.2-trt"},{"rune":"E","rune_set":"bacs1","hex":"#3366ff99","correct":32,"choice":32,"rt":641,"accuracy":1,"outcome":"+1","keys":[2141],"total_keys":1,"block":1,"trial":46,"stimulus":6,"robot":1,"valence":"win","action":"go","sham":1,"trial_type":"pit-trial","trial_index":82,"time_elapsed":653330,"internal_node_id":"0.0-53.0","task_version":"battery-v0.2-trt"},{"rune":"T","rune_set":"bacs1","hex":"#3366ff99","correct":-1,"choice":32,"rt":570,"accuracy":0,"outcome":"+1","keys":[2070],"total_keys":1,"block":1,"trial":47,"stimulus":5,"robot":2,"valence":"win","action":"no-go","sham":0,"trial_type":"pit-trial","trial_index":83,"time_elapsed":656604,"internal_node_id":"0.0-54.0","task_version":"battery-v0.2-trt"},{"rune":"F","rune_set":"bacs1","hex":"#f73b6a7A","correct":32,"choice":32,"rt":759,"accuracy":1,"outcome":"-1","keys":[2261],"total_keys":1,"block":1,"trial":48,"stimulus":4,"robot":3,"valence":"lose","action":"go","sham":0,"trial_type":"pit-trial","trial_index":84,"time_elapsed":660067,"internal_node_id":"0.0-55.0","task_version":"battery-v0.2-trt"},{"rune":"V","rune_set":"bacs1","hex":"#f73b6a7A","correct":-1,"choice":-1,"rt":-1,"accuracy":1,"outcome":"-1","keys":[],"total_keys":0,"block":1,"trial":49,"stimulus":7,"robot":4,"valence":"lose","action":"no-go","sham":0,"trial_type":"pit-trial","trial_index":85,"time_elapsed":664071,"internal_node_id":"0.0-56.0","task_version":"battery-v0.2-trt"},{"rune":"E","rune_set":"bacs1","hex":"#3366ff99","correct":32,"choice":-1,"rt":-1,"accuracy":0,"outcome":"+1","keys":[],"total_keys":0,"block":1,"trial":50,"stimulus":6,"robot":1,"valence":"win","action":"go","sham":0,"trial_type":"pit-trial","trial_index":86,"time_elapsed":668072,"internal_node_id":"0.0-57.0","task_version":"battery-v0.2-trt"},{"rune":"F","rune_set":"bacs1","hex":"#f73b6a7A","correct":32,"choice":32,"rt":700,"accuracy":1,"outcome":"-1","keys":[2200],"total_keys":1,"block":1,"trial":51,"stimulus":4,"robot":3,"valence":"lose","action":"go","sham":0,"trial_type":"pit-trial","trial_index":87,"time_elapsed":671476,"internal_node_id":"0.0-58.0","task_version":"battery-v0.2-trt"},{"rune":"T","rune_set":"bacs1","hex":"#3366ff99","correct":-1,"choice":32,"rt":592,"accuracy":0,"outcome":"+1","keys":[2093],"total_keys":1,"block":1,"trial":52,"stimulus":5,"robot":2,"valence":"win","action":"no-go","sham":0,"trial_type":"pit-trial","trial_index":88,"time_elapsed":674772,"internal_node_id":"0.0-59.0","task_version":"battery-v0.2-trt"},{"rune":"T","rune_set":"bacs1","hex":"#3366ff99","correct":-1,"choice":32,"rt":616,"accuracy":0,"outcome":"+1","keys":[2116],"total_keys":1,"block":1,"trial":53,"stimulus":5,"robot":2,"valence":"win","action":"no-go","sham":0,"trial_type":"pit-trial","trial_index":89,"time_elapsed":678091,"internal_node_id":"0.0-60.0","task_version":"battery-v0.2-trt"},{"rune":"V","rune_set":"bacs1","hex":"#f73b6a7A","correct":-1,"choice":-1,"rt":-1,"accuracy":1,"outcome":"-1","keys":[],"total_keys":0,"block":1,"trial":54,"stimulus":7,"robot":4,"valence":"lose","action":"no-go","sham":0,"trial_type":"pit-trial","trial_index":90,"time_elapsed":682094,"internal_node_id":"0.0-61.0","task_version":"battery-v0.2-trt"},{"rune":"F","rune_set":"bacs1","hex":"#f73b6a7A","correct":32,"choice":-1,"rt":-1,"accuracy":0,"outcome":"-1","keys":[],"total_keys":0,"block":1,"trial":55,"stimulus":4,"robot":3,"valence":"lose","action":"go","sham":1,"trial_type":"pit-trial","trial_index":91,"time_elapsed":686097,"internal_node_id":"0.0-62.0","task_version":"battery-v0.2-trt"},{"rune":"E","rune_set":"bacs1","hex":"#3366ff99","correct":32,"choice":-1,"rt":-1,"accuracy":0,"outcome":"+1","keys":[],"total_keys":0,"block":1,"trial":56,"stimulus":6,"robot":1,"valence":"win","action":"go","sham":0,"trial_type":"pit-trial","trial_index":92,"time_elapsed":690102,"internal_node_id":"0.0-63.0","task_version":"battery-v0.2-trt"},{"rune":"E","rune_set":"bacs1","hex":"#3366ff99","correct":32,"choice":32,"rt":616,"accuracy":1,"outcome":"+10","keys":[2116],"total_keys":1,"block":1,"trial":57,"stimulus":6,"robot":1,"valence":"win","action":"go","sham":0,"trial_type":"pit-trial","trial_index":93,"time_elapsed":693420,"internal_node_id":"0.0-64.0","task_version":"battery-v0.2-trt"},{"rune":"F","rune_set":"bacs1","hex":"#f73b6a7A","correct":32,"choice":-1,"rt":-1,"accuracy":0,"outcome":"-10","keys":[],"total_keys":0,"block":1,"trial":58,"stimulus":4,"robot":3,"valence":"lose","action":"go","sham":0,"trial_type":"pit-trial","trial_index":94,"time_elapsed":697425,"internal_node_id":"0.0-65.0","task_version":"battery-v0.2-trt"},{"rune":"T","rune_set":"bacs1","hex":"#3366ff99","correct":-1,"choice":32,"rt":1045,"accuracy":0,"outcome":"+1","keys":[2546],"total_keys":1,"block":1,"trial":59,"stimulus":5,"robot":2,"valence":"win","action":"no-go","sham":0,"trial_type":"pit-trial","trial_index":95,"time_elapsed":701173,"internal_node_id":"0.0-66.0","task_version":"battery-v0.2-trt"},{"rune":"V","rune_set":"bacs1","hex":"#f73b6a7A","correct":-1,"choice":-1,"rt":-1,"accuracy":1,"outcome":"-1","keys":[],"total_keys":0,"block":1,"trial":60,"stimulus":7,"robot":4,"valence":"lose","action":"no-go","sham":0,"trial_type":"pit-trial","trial_index":96,"time_elapsed":705176,"internal_node_id":"0.0-67.0","task_version":"battery-v0.2-trt"},{"rune":"T","rune_set":"bacs1","hex":"#3366ff99","correct":-1,"choice":32,"rt":957,"accuracy":0,"outcome":"+1","keys":[2457],"total_keys":1,"block":1,"trial":61,"stimulus":5,"robot":2,"valence":"win","action":"no-go","sham":0,"trial_type":"pit-trial","trial_index":97,"time_elapsed":708837,"internal_node_id":"0.0-68.0","task_version":"battery-v0.2-trt"},{"rune":"V","rune_set":"bacs1","hex":"#f73b6a7A","correct":-1,"choice":-1,"rt":-1,"accuracy":1,"outcome":"-1","keys":[],"total_keys":0,"block":1,"trial":62,"stimulus":7,"robot":4,"valence":"lose","action":"no-go","sham":0,"trial_type":"pit-trial","trial_index":98,"time_elapsed":712839,"internal_node_id":"0.0-69.0","task_version":"battery-v0.2-trt"},{"rune":"F","rune_set":"bacs1","hex":"#f73b6a7A","correct":32,"choice":32,"rt":710,"accuracy":1,"outcome":"-1","keys":[2211],"total_keys":1,"block":1,"trial":63,"stimulus":4,"robot":3,"valence":"lose","action":"go","sham":0,"trial_type":"pit-trial","trial_index":99,"time_elapsed":716253,"internal_node_id":"0.0-70.0","task_version":"battery-v0.2-trt"},{"rune":"E","rune_set":"bacs1","hex":"#3366ff99","correct":32,"choice":32,"rt":809,"accuracy":1,"outcome":"+10","keys":[2308],"total_keys":1,"block":1,"trial":64,"stimulus":6,"robot":1,"valence":"win","action":"go","sham":0,"trial_type":"pit-trial","trial_index":100,"time_elapsed":719764,"internal_node_id":"0.0-71.0","task_version":"battery-v0.2-trt"},{"rune":"F","rune_set":"bacs1","hex":"#f73b6a7A","correct":32,"choice":-1,"rt":-1,"accuracy":0,"outcome":"-10","keys":[],"total_keys":0,"block":1,"trial":65,"stimulus":4,"robot":3,"valence":"lose","action":"go","sham":0,"trial_type":"pit-trial","trial_index":101,"time_elapsed":723768,"internal_node_id":"0.0-72.0","task_version":"battery-v0.2-trt"},{"rune":"E","rune_set":"bacs1","hex":"#3366ff99","correct":32,"choice":32,"rt":1094,"accuracy":1,"outcome":"+10","keys":[2595],"total_keys":1,"block":1,"trial":66,"stimulus":6,"robot":1,"valence":"win","action":"go","sham":0,"trial_type":"pit-trial","trial_index":102,"time_elapsed":727565,"internal_node_id":"0.0-73.0","task_version":"battery-v0.2-trt"},{"rune":"V","rune_set":"bacs1","hex":"#f73b6a7A","correct":-1,"choice":-1,"rt":-1,"accuracy":1,"outcome":"-1","keys":[],"total_keys":0,"block":1,"trial":67,"stimulus":7,"robot":4,"valence":"lose","action":"no-go","sham":0,"trial_type":"pit-trial","trial_index":103,"time_elapsed":731568,"internal_node_id":"0.0-74.0","task_version":"battery-v0.2-trt"},{"rune":"T","rune_set":"bacs1","hex":"#3366ff99","correct":-1,"choice":-1,"rt":-1,"accuracy":1,"outcome":"+10","keys":[],"total_keys":0,"block":1,"trial":68,"stimulus":5,"robot":2,"valence":"win","action":"no-go","sham":0,"trial_type":"pit-trial","trial_index":104,"time_elapsed":735571,"internal_node_id":"0.0-75.0","task_version":"battery-v0.2-trt"},{"rune":"T","rune_set":"bacs1","hex":"#3366ff99","correct":-1,"choice":-1,"rt":-1,"accuracy":1,"outcome":"+10","keys":[],"total_keys":0,"block":1,"trial":69,"stimulus":5,"robot":2,"valence":"win","action":"no-go","sham":0,"trial_type":"pit-trial","trial_index":105,"time_elapsed":739574,"internal_node_id":"0.0-76.0","task_version":"battery-v0.2-trt"},{"rune":"F","rune_set":"bacs1","hex":"#f73b6a7A","correct":32,"choice":32,"rt":737,"accuracy":1,"outcome":"-1","keys":[2237],"total_keys":1,"block":1,"trial":70,"stimulus":4,"robot":3,"valence":"lose","action":"go","sham":0,"trial_type":"pit-trial","trial_index":106,"time_elapsed":743013,"internal_node_id":"0.0-77.0","task_version":"battery-v0.2-trt"},{"rune":"E","rune_set":"bacs1","hex":"#3366ff99","correct":32,"choice":-1,"rt":-1,"accuracy":0,"outcome":"+1","keys":[],"total_keys":0,"block":1,"trial":71,"stimulus":6,"robot":1,"valence":"win","action":"go","sham":0,"trial_type":"pit-trial","trial_index":107,"time_elapsed":747017,"internal_node_id":"0.0-78.0","task_version":"battery-v0.2-trt"},{"rune":"V","rune_set":"bacs1","hex":"#f73b6a7A","correct":-1,"choice":-1,"rt":-1,"accuracy":1,"outcome":"-10","keys":[],"total_keys":0,"block":1,"trial":72,"stimulus":7,"robot":4,"valence":"lose","action":"no-go","sham":1,"trial_type":"pit-trial","trial_index":108,"time_elapsed":751020,"internal_node_id":"0.0-79.0","task_version":"battery-v0.2-trt"},{"rune":"V","rune_set":"bacs1","hex":"#f73b6a7A","correct":-1,"choice":32,"rt":578,"accuracy":0,"outcome":"-10","keys":[2078],"total_keys":1,"block":1,"trial":73,"stimulus":7,"robot":4,"valence":"lose","action":"no-go","sham":0,"trial_type":"pit-trial","trial_index":109,"time_elapsed":754302,"internal_node_id":"0.0-80.0","task_version":"battery-v0.2-trt"},{"rune":"R","rune_set":"bacs1","hex":"#3366ff99","correct":32,"choice":32,"rt":600,"accuracy":1,"outcome":"+10","keys":[2101],"total_keys":1,"block":1,"trial":74,"stimulus":8,"robot":1,"valence":"win","action":"go","sham":0,"trial_type":"pit-trial","trial_index":110,"time_elapsed":757606,"internal_node_id":"0.0-81.0","task_version":"battery-v0.2-trt"},{"rune":"J","rune_set":"bacs1","hex":"#f73b6a7A","correct":32,"choice":32,"rt":912,"accuracy":1,"outcome":"-1","keys":[2413],"total_keys":1,"block":1,"trial":75,"stimulus":9,"robot":3,"valence":"lose","action":"go","sham":0,"trial_type":"pit-trial","trial_index":111,"time_elapsed":761222,"internal_node_id":"0.0-82.0","task_version":"battery-v0.2-trt"},{"rune":"T","rune_set":"bacs1","hex":"#3366ff99","correct":-1,"choice":32,"rt":792,"accuracy":0,"outcome":"+1","keys":[2294],"total_keys":1,"block":1,"trial":76,"stimulus":5,"robot":2,"valence":"win","action":"no-go","sham":0,"trial_type":"pit-trial","trial_index":112,"time_elapsed":764719,"internal_node_id":"0.0-83.0","task_version":"battery-v0.2-trt"},{"rune":"T","rune_set":"bacs1","hex":"#3366ff99","correct":-1,"choice":-1,"rt":-1,"accuracy":1,"outcome":"+10","keys":[],"total_keys":0,"block":1,"trial":77,"stimulus":5,"robot":2,"valence":"win","action":"no-go","sham":0,"trial_type":"pit-trial","trial_index":113,"time_elapsed":768721,"internal_node_id":"0.0-84.0","task_version":"battery-v0.2-trt"},{"rune":"J","rune_set":"bacs1","hex":"#f73b6a7A","correct":32,"choice":-1,"rt":-1,"accuracy":0,"outcome":"-10","keys":[],"total_keys":0,"block":1,"trial":78,"stimulus":9,"robot":3,"valence":"lose","action":"go","sham":0,"trial_type":"pit-trial","trial_index":114,"time_elapsed":772726,"internal_node_id":"0.0-85.0","task_version":"battery-v0.2-trt"},{"rune":"R","rune_set":"bacs1","hex":"#3366ff99","correct":32,"choice":32,"rt":669,"accuracy":1,"outcome":"+10","keys":[2170],"total_keys":1,"block":1,"trial":79,"stimulus":8,"robot":1,"valence":"win","action":"go","sham":0,"trial_type":"pit-trial","trial_index":115,"time_elapsed":776098,"internal_node_id":"0.0-86.0","task_version":"battery-v0.2-trt"},{"rune":"V","rune_set":"bacs1","hex":"#f73b6a7A","correct":-1,"choice":32,"rt":876,"accuracy":0,"outcome":"-10","keys":[2377],"total_keys":1,"block":1,"trial":80,"stimulus":7,"robot":4,"valence":"lose","action":"no-go","sham":0,"trial_type":"pit-trial","trial_index":116,"time_elapsed":779679,"internal_node_id":"0.0-87.0","task_version":"battery-v0.2-trt"},{"rune":"V","rune_set":"bacs1","hex":"#f73b6a7A","correct":-1,"choice":32,"rt":650,"accuracy":0,"outcome":"-10","keys":[2150],"total_keys":1,"block":1,"trial":81,"stimulus":7,"robot":4,"valence":"lose","action":"no-go","sham":0,"trial_type":"pit-trial","trial_index":117,"time_elapsed":783031,"internal_node_id":"0.0-88.0","task_version":"battery-v0.2-trt"},{"rune":"R","rune_set":"bacs1","hex":"#3366ff99","correct":32,"choice":32,"rt":880,"accuracy":1,"outcome":"+10","keys":[2382],"total_keys":1,"block":1,"trial":82,"stimulus":8,"robot":1,"valence":"win","action":"go","sham":0,"trial_type":"pit-trial","trial_index":118,"time_elapsed":786615,"internal_node_id":"0.0-89.0","task_version":"battery-v0.2-trt"},{"rune":"T","rune_set":"bacs1","hex":"#3366ff99","correct":-1,"choice":32,"rt":856,"accuracy":0,"outcome":"+1","keys":[2356],"total_keys":1,"block":1,"trial":83,"stimulus":5,"robot":2,"valence":"win","action":"no-go","sham":0,"trial_type":"pit-trial","trial_index":119,"time_elapsed":790174,"internal_node_id":"0.0-90.0","task_version":"battery-v0.2-trt"},{"rune":"J","rune_set":"bacs1","hex":"#f73b6a7A","correct":32,"choice":32,"rt":715,"accuracy":1,"outcome":"-10","keys":[2215],"total_keys":1,"block":1,"trial":84,"stimulus":9,"robot":3,"valence":"lose","action":"go","sham":1,"trial_type":"pit-trial","trial_index":120,"time_elapsed":793592,"internal_node_id":"0.0-91.0","task_version":"battery-v0.2-trt"},{"rune":"R","rune_set":"bacs1","hex":"#3366ff99","correct":32,"choice":32,"rt":690,"accuracy":1,"outcome":"+1","keys":[2190],"total_keys":1,"block":1,"trial":85,"stimulus":8,"robot":1,"valence":"win","action":"go","sham":1,"trial_type":"pit-trial","trial_index":121,"time_elapsed":796982,"internal_node_id":"0.0-92.0","task_version":"battery-v0.2-trt"},{"rune":"J","rune_set":"bacs1","hex":"#f73b6a7A","correct":32,"choice":-1,"rt":-1,"accuracy":0,"outcome":"-10","keys":[],"total_keys":0,"block":1,"trial":86,"stimulus":9,"robot":3,"valence":"lose","action":"go","sham":0,"trial_type":"pit-trial","trial_index":122,"time_elapsed":800986,"internal_node_id":"0.0-93.0","task_version":"battery-v0.2-trt"},{"rune":"T","rune_set":"bacs1","hex":"#3366ff99","correct":-1,"choice":32,"rt":875,"accuracy":0,"outcome":"+10","keys":[2378],"total_keys":1,"block":1,"trial":87,"stimulus":5,"robot":2,"valence":"win","action":"no-go","sham":1,"trial_type":"pit-trial","trial_index":123,"time_elapsed":804568,"internal_node_id":"0.0-94.0","task_version":"battery-v0.2-trt"},{"rune":"V","rune_set":"bacs1","hex":"#f73b6a7A","correct":-1,"choice":-1,"rt":-1,"accuracy":1,"outcome":"-10","keys":[],"total_keys":0,"block":1,"trial":88,"stimulus":7,"robot":4,"valence":"lose","action":"no-go","sham":1,"trial_type":"pit-trial","trial_index":124,"time_elapsed":808572,"internal_node_id":"0.0-95.0","task_version":"battery-v0.2-trt"},{"rune":"R","rune_set":"bacs1","hex":"#3366ff99","correct":32,"choice":32,"rt":868,"accuracy":1,"outcome":"+10","keys":[2369],"total_keys":1,"block":1,"trial":89,"stimulus":8,"robot":1,"valence":"win","action":"go","sham":0,"trial_type":"pit-trial","trial_index":125,"time_elapsed":812145,"internal_node_id":"0.0-96.0","task_version":"battery-v0.2-trt"},{"rune":"Z","rune_set":"bacs1","hex":"#f73b6a7A","correct":32,"choice":32,"rt":880,"accuracy":1,"outcome":"-1","keys":[2381],"total_keys":1,"block":1,"trial":90,"stimulus":10,"robot":3,"valence":"lose","action":"go","sham":0,"trial_type":"pit-trial","trial_index":126,"time_elapsed":815727,"internal_node_id":"0.0-97.0","task_version":"battery-v0.2-trt"},{"rune":"B","rune_set":"bacs1","hex":"#3366ff99","correct":-1,"choice":32,"rt":617,"accuracy":0,"outcome":"+1","keys":[2117],"total_keys":1,"block":1,"trial":91,"stimulus":11,"robot":2,"valence":"win","action":"no-go","sham":0,"trial_type":"pit-trial","trial_index":127,"time_elapsed":819048,"internal_node_id":"0.0-98.0","task_version":"battery-v0.2-trt"},{"rune":"J","rune_set":"bacs1","hex":"#f73b6a7A","correct":32,"choice":-1,"rt":-1,"accuracy":0,"outcome":"-10","keys":[],"total_keys":0,"block":1,"trial":92,"stimulus":9,"robot":3,"valence":"lose","action":"go","sham":0,"trial_type":"pit-trial","trial_index":128,"time_elapsed":823051,"internal_node_id":"0.0-99.0","task_version":"battery-v0.2-trt"},{"rune":"R","rune_set":"bacs1","hex":"#3366ff99","correct":32,"choice":32,"rt":789,"accuracy":1,"outcome":"+10","keys":[2290],"total_keys":1,"block":1,"trial":93,"stimulus":8,"robot":1,"valence":"win","action":"go","sham":0,"trial_type":"pit-trial","trial_index":129,"time_elapsed":826543,"internal_node_id":"0.0-100.0","task_version":"battery-v0.2-trt"},{"rune":"J","rune_set":"bacs1","hex":"#f73b6a7A","correct":32,"choice":32,"rt":972,"accuracy":1,"outcome":"-1","keys":[2472],"total_keys":1,"block":1,"trial":94,"stimulus":9,"robot":3,"valence":"lose","action":"go","sham":0,"trial_type":"pit-trial","trial_index":130,"time_elapsed":830215,"internal_node_id":"0.0-101.0","task_version":"battery-v0.2-trt"},{"rune":"B","rune_set":"bacs1","hex":"#3366ff99","correct":-1,"choice":32,"rt":697,"accuracy":0,"outcome":"+1","keys":[2198],"total_keys":1,"block":1,"trial":95,"stimulus":11,"robot":2,"valence":"win","action":"no-go","sham":0,"trial_type":"pit-trial","trial_index":131,"time_elapsed":833616,"internal_node_id":"0.0-102.0","task_version":"battery-v0.2-trt"},{"rune":"Z","rune_set":"bacs1","hex":"#f73b6a7A","correct":32,"choice":32,"rt":689,"accuracy":1,"outcome":"-1","keys":[2190],"total_keys":1,"block":1,"trial":96,"stimulus":10,"robot":3,"valence":"lose","action":"go","sham":0,"trial_type":"pit-trial","trial_index":132,"time_elapsed":837007,"internal_node_id":"0.0-103.0","task_version":"battery-v0.2-trt"},{"rune":"B","rune_set":"bacs1","hex":"#3366ff99","correct":-1,"choice":32,"rt":578,"accuracy":0,"outcome":"+1","keys":[2079],"total_keys":1,"block":1,"trial":97,"stimulus":11,"robot":2,"valence":"win","action":"no-go","sham":0,"trial_type":"pit-trial","trial_index":133,"time_elapsed":840288,"internal_node_id":"0.0-104.0","task_version":"battery-v0.2-trt"},{"rune":"J","rune_set":"bacs1","hex":"#f73b6a7A","correct":32,"choice":32,"rt":688,"accuracy":1,"outcome":"-1","keys":[2190],"total_keys":1,"block":1,"trial":98,"stimulus":9,"robot":3,"valence":"lose","action":"go","sham":0,"trial_type":"pit-trial","trial_index":134,"time_elapsed":843679,"internal_node_id":"0.0-105.0","task_version":"battery-v0.2-trt"},{"rune":"Z","rune_set":"bacs1","hex":"#f73b6a7A","correct":32,"choice":32,"rt":714,"accuracy":1,"outcome":"-1","keys":[2214],"total_keys":1,"block":1,"trial":99,"stimulus":10,"robot":3,"valence":"lose","action":"go","sham":0,"trial_type":"pit-trial","trial_index":135,"time_elapsed":847097,"internal_node_id":"0.0-106.0","task_version":"battery-v0.2-trt"},{"rune":"R","rune_set":"bacs1","hex":"#3366ff99","correct":32,"choice":32,"rt":601,"accuracy":1,"outcome":"+1","keys":[2101],"total_keys":1,"block":1,"trial":100,"stimulus":8,"robot":1,"valence":"win","action":"go","sham":1,"trial_type":"pit-trial","trial_index":136,"time_elapsed":850401,"internal_node_id":"0.0-107.0","task_version":"battery-v0.2-trt"},{"rune":"B","rune_set":"bacs1","hex":"#3366ff99","correct":-1,"choice":32,"rt":576,"accuracy":0,"outcome":"+1","keys":[2077],"total_keys":1,"block":1,"trial":101,"stimulus":11,"robot":2,"valence":"win","action":"no-go","sham":0,"trial_type":"pit-trial","trial_index":137,"time_elapsed":853680,"internal_node_id":"0.0-108.0","task_version":"battery-v0.2-trt"},{"rune":"J","rune_set":"bacs1","hex":"#f73b6a7A","correct":32,"choice":32,"rt":577,"accuracy":1,"outcome":"-1","keys":[2077],"total_keys":1,"block":1,"trial":102,"stimulus":9,"robot":3,"valence":"lose","action":"go","sham":0,"trial_type":"pit-trial","trial_index":138,"time_elapsed":856960,"internal_node_id":"0.0-109.0","task_version":"battery-v0.2-trt"},{"rune":"R","rune_set":"bacs1","hex":"#3366ff99","correct":32,"choice":32,"rt":562,"accuracy":1,"outcome":"+10","keys":[2063],"total_keys":1,"block":1,"trial":103,"stimulus":8,"robot":1,"valence":"win","action":"go","sham":0,"trial_type":"pit-trial","trial_index":139,"time_elapsed":860225,"internal_node_id":"0.0-110.0","task_version":"battery-v0.2-trt"},{"rune":"Z","rune_set":"bacs1","hex":"#f73b6a7A","correct":32,"choice":-1,"rt":-1,"accuracy":0,"outcome":"-10","keys":[],"total_keys":0,"block":1,"trial":104,"stimulus":10,"robot":3,"valence":"lose","action":"go","sham":0,"trial_type":"pit-trial","trial_index":140,"time_elapsed":864229,"internal_node_id":"0.0-111.0","task_version":"battery-v0.2-trt"},{"rune":"B","rune_set":"bacs1","hex":"#3366ff99","correct":-1,"choice":32,"rt":542,"accuracy":0,"outcome":"+1","keys":[2042],"total_keys":1,"block":1,"trial":105,"stimulus":11,"robot":2,"valence":"win","action":"no-go","sham":0,"trial_type":"pit-trial","trial_index":141,"time_elapsed":867473,"internal_node_id":"0.0-112.0","task_version":"battery-v0.2-trt"},{"rune":"R","rune_set":"bacs1","hex":"#3366ff99","correct":32,"choice":32,"rt":728,"accuracy":1,"outcome":"+10","keys":[2229],"total_keys":1,"block":1,"trial":106,"stimulus":8,"robot":1,"valence":"win","action":"go","sham":0,"trial_type":"pit-trial","trial_index":142,"time_elapsed":870906,"internal_node_id":"0.0-113.0","task_version":"battery-v0.2-trt"},{"rune":"Z","rune_set":"bacs1","hex":"#f73b6a7A","correct":32,"choice":32,"rt":984,"accuracy":1,"outcome":"-10","keys":[2484],"total_keys":1,"block":1,"trial":107,"stimulus":10,"robot":3,"valence":"lose","action":"go","sham":1,"trial_type":"pit-trial","trial_index":143,"time_elapsed":874592,"internal_node_id":"0.0-114.0","task_version":"battery-v0.2-trt"},{"rune":"J","rune_set":"bacs1","hex":"#f73b6a7A","correct":32,"choice":32,"rt":594,"accuracy":1,"outcome":"-1","keys":[2094],"total_keys":1,"block":1,"trial":108,"stimulus":9,"robot":3,"valence":"lose","action":"go","sham":0,"trial_type":"pit-trial","trial_index":144,"time_elapsed":877889,"internal_node_id":"0.0-115.0","task_version":"battery-v0.2-trt"},{"rune":"J","rune_set":"bacs1","hex":"#f73b6a7A","correct":32,"choice":32,"rt":520,"accuracy":1,"outcome":"-1","keys":[2021],"total_keys":1,"block":1,"trial":109,"stimulus":9,"robot":3,"valence":"lose","action":"go","sham":0,"trial_type":"pit-trial","trial_index":145,"time_elapsed":881113,"internal_node_id":"0.0-116.0","task_version":"battery-v0.2-trt"},{"rune":"Z","rune_set":"bacs1","hex":"#f73b6a7A","correct":32,"choice":-1,"rt":-1,"accuracy":0,"outcome":"-10","keys":[],"total_keys":0,"block":1,"trial":110,"stimulus":10,"robot":3,"valence":"lose","action":"go","sham":0,"trial_type":"pit-trial","trial_index":146,"time_elapsed":885115,"internal_node_id":"0.0-117.0","task_version":"battery-v0.2-trt"},{"rune":"R","rune_set":"bacs1","hex":"#3366ff99","correct":32,"choice":32,"rt":526,"accuracy":1,"outcome":"+10","keys":[2028],"total_keys":1,"block":1,"trial":111,"stimulus":8,"robot":1,"valence":"win","action":"go","sham":0,"trial_type":"pit-trial","trial_index":147,"time_elapsed":888345,"internal_node_id":"0.0-118.0","task_version":"battery-v0.2-trt"},{"rune":"B","rune_set":"bacs1","hex":"#3366ff99","correct":-1,"choice":32,"rt":608,"accuracy":0,"outcome":"+10","keys":[2108],"total_keys":1,"block":1,"trial":112,"stimulus":11,"robot":2,"valence":"win","action":"no-go","sham":1,"trial_type":"pit-trial","trial_index":148,"time_elapsed":891657,"internal_node_id":"0.0-119.0","task_version":"battery-v0.2-trt"},{"rune":"R","rune_set":"bacs1","hex":"#3366ff99","correct":32,"choice":32,"rt":546,"accuracy":1,"outcome":"+10","keys":[2045],"total_keys":1,"block":1,"trial":113,"stimulus":8,"robot":1,"valence":"win","action":"go","sham":0,"trial_type":"pit-trial","trial_index":149,"time_elapsed":894906,"internal_node_id":"0.0-120.0","task_version":"battery-v0.2-trt"},{"rune":"J","rune_set":"bacs1","hex":"#f73b6a7A","correct":32,"choice":32,"rt":1089,"accuracy":1,"outcome":"-1","keys":[2590],"total_keys":1,"block":1,"trial":114,"stimulus":9,"robot":3,"valence":"lose","action":"go","sham":0,"trial_type":"pit-trial","trial_index":150,"time_elapsed":898697,"internal_node_id":"0.0-121.0","task_version":"battery-v0.2-trt"},{"rune":"Z","rune_set":"bacs1","hex":"#f73b6a7A","correct":32,"choice":32,"rt":721,"accuracy":1,"outcome":"-1","keys":[2222],"total_keys":1,"block":1,"trial":115,"stimulus":10,"robot":3,"valence":"lose","action":"go","sham":0,"trial_type":"pit-trial","trial_index":151,"time_elapsed":902121,"internal_node_id":"0.0-122.0","task_version":"battery-v0.2-trt"},{"rune":"B","rune_set":"bacs1","hex":"#3366ff99","correct":-1,"choice":32,"rt":592,"accuracy":0,"outcome":"+10","keys":[2093],"total_keys":1,"block":1,"trial":116,"stimulus":11,"robot":2,"valence":"win","action":"no-go","sham":1,"trial_type":"pit-trial","trial_index":152,"time_elapsed":905417,"internal_node_id":"0.0-123.0","task_version":"battery-v0.2-trt"},{"rune":"J","rune_set":"bacs1","hex":"#f73b6a7A","correct":32,"choice":32,"rt":787,"accuracy":1,"outcome":"-1","keys":[2286],"total_keys":1,"block":1,"trial":117,"stimulus":9,"robot":3,"valence":"lose","action":"go","sham":0,"trial_type":"pit-trial","trial_index":153,"time_elapsed":908906,"internal_node_id":"0.0-124.0","task_version":"battery-v0.2-trt"},{"rune":"R","rune_set":"bacs1","hex":"#3366ff99","correct":32,"choice":-1,"rt":-1,"accuracy":0,"outcome":"+1","keys":[],"total_keys":0,"block":1,"trial":118,"stimulus":8,"robot":1,"valence":"win","action":"go","sham":0,"trial_type":"pit-trial","trial_index":154,"time_elapsed":912909,"internal_node_id":"0.0-125.0","task_version":"battery-v0.2-trt"},{"rune":"Z","rune_set":"bacs1","hex":"#f73b6a7A","correct":32,"choice":32,"rt":709,"accuracy":1,"outcome":"-1","keys":[2210],"total_keys":1,"block":1,"trial":119,"stimulus":10,"robot":3,"valence":"lose","action":"go","sham":0,"trial_type":"pit-trial","trial_index":155,"time_elapsed":916322,"internal_node_id":"0.0-126.0","task_version":"battery-v0.2-trt"},{"rune":"B","rune_set":"bacs1","hex":"#3366ff99","correct":-1,"choice":32,"rt":465,"accuracy":0,"outcome":"+1","keys":[1965],"total_keys":1,"block":1,"trial":120,"stimulus":11,"robot":2,"valence":"win","action":"no-go","sham":0,"trial_type":"pit-trial","trial_index":156,"time_elapsed":919490,"internal_node_id":"0.0-127.0","task_version":"battery-v0.2-trt"},{"view_history":"[{\"page_index\":0,\"viewing_time\":2923},{\"page_index\":1,\"viewing_time\":2040}]","rt":4964,"trial_type":"pit-instructions","trial_index":157,"time_elapsed":924455,"internal_node_id":"0.0-128.0","task_version":"battery-v0.2-trt"},{"rune":"N","rune_set":"bacs1","hex":"#3366ff99","correct":-1,"choice":32,"rt":459,"accuracy":0,"outcome":"+1","keys":[1960],"total_keys":1,"block":2,"trial":121,"stimulus":0,"robot":2,"valence":"win","action":"no-go","sham":0,"trial_type":"pit-trial","trial_index":158,"time_elapsed":927618,"internal_node_id":"0.0-129.0","task_version":"battery-v0.2-trt"},{"rune":"G","rune_set":"bacs1","hex":"#3366ff99","correct":32,"choice":32,"rt":695,"accuracy":1,"outcome":"+10","keys":[2197],"total_keys":1,"block":2,"trial":122,"stimulus":1,"robot":1,"valence":"win","action":"go","sham":0,"trial_type":"pit-trial","trial_index":159,"time_elapsed":931020,"internal_node_id":"0.0-130.0","task_version":"battery-v0.2-trt"},{"rune":"I","rune_set":"bacs1","hex":"#f73b6a7A","correct":-1,"choice":32,"rt":543,"accuracy":0,"outcome":"-10","keys":[2043],"total_keys":1,"block":2,"trial":123,"stimulus":2,"robot":4,"valence":"lose","action":"no-go","sham":0,"trial_type":"pit-trial","trial_index":160,"time_elapsed":934266,"internal_node_id":"0.0-131.0","task_version":"battery-v0.2-trt"},{"rune":"O","rune_set":"bacs1","hex":"#3366ff99","correct":32,"choice":-1,"rt":-1,"accuracy":0,"outcome":"+10","keys":[],"total_keys":0,"block":2,"trial":124,"stimulus":3,"robot":1,"valence":"win","action":"go","sham":1,"trial_type":"pit-trial","trial_index":161,"time_elapsed":938269,"internal_node_id":"0.0-132.0","task_version":"battery-v0.2-trt"},{"rune":"G","rune_set":"bacs1","hex":"#3366ff99","correct":32,"choice":32,"rt":584,"accuracy":1,"outcome":"+10","keys":[2082],"total_keys":1,"block":2,"trial":125,"stimulus":1,"robot":1,"valence":"win","action":"go","sham":0,"trial_type":"pit-trial","trial_index":162,"time_elapsed":941554,"internal_node_id":"0.0-133.0","task_version":"battery-v0.2-trt"},{"rune":"I","rune_set":"bacs1","hex":"#f73b6a7A","correct":-1,"choice":-1,"rt":-1,"accuracy":1,"outcome":"-1","keys":[],"total_keys":0,"block":2,"trial":126,"stimulus":2,"robot":4,"valence":"lose","action":"no-go","sham":0,"trial_type":"pit-trial","trial_index":163,"time_elapsed":945559,"internal_node_id":"0.0-134.0","task_version":"battery-v0.2-trt"},{"rune":"N","rune_set":"bacs1","hex":"#3366ff99","correct":-1,"choice":32,"rt":644,"accuracy":0,"outcome":"+1","keys":[2146],"total_keys":1,"block":2,"trial":127,"stimulus":0,"robot":2,"valence":"win","action":"no-go","sham":0,"trial_type":"pit-trial","trial_index":164,"time_elapsed":948907,"internal_node_id":"0.0-135.0","task_version":"battery-v0.2-trt"},{"rune":"O","rune_set":"bacs1","hex":"#3366ff99","correct":32,"choice":32,"rt":553,"accuracy":1,"outcome":"+10","keys":[2053],"total_keys":1,"block":2,"trial":128,"stimulus":3,"robot":1,"valence":"win","action":"go","sham":0,"trial_type":"pit-trial","trial_index":165,"time_elapsed":952163,"internal_node_id":"0.0-136.0","task_version":"battery-v0.2-trt"},{"rune":"O","rune_set":"bacs1","hex":"#3366ff99","correct":32,"choice":32,"rt":433,"accuracy":1,"outcome":"+10","keys":[1933],"total_keys":1,"block":2,"trial":129,"stimulus":3,"robot":1,"valence":"win","action":"go","sham":0,"trial_type":"pit-trial","trial_index":166,"time_elapsed":955299,"internal_node_id":"0.0-137.0","task_version":"battery-v0.2-trt"},{"rune":"I","rune_set":"bacs1","hex":"#f73b6a7A","correct":-1,"choice":-1,"rt":-1,"accuracy":1,"outcome":"-1","keys":[],"total_keys":0,"block":2,"trial":130,"stimulus":2,"robot":4,"valence":"lose","action":"no-go","sham":0,"trial_type":"pit-trial","trial_index":167,"time_elapsed":959302,"internal_node_id":"0.0-138.0","task_version":"battery-v0.2-trt"},{"rune":"N","rune_set":"bacs1","hex":"#3366ff99","correct":-1,"choice":32,"rt":479,"accuracy":0,"outcome":"+10","keys":[1978],"total_keys":1,"block":2,"trial":131,"stimulus":0,"robot":2,"valence":"win","action":"no-go","sham":1,"trial_type":"pit-trial","trial_index":168,"time_elapsed":962483,"internal_node_id":"0.0-139.0","task_version":"battery-v0.2-trt"},{"rune":"G","rune_set":"bacs1","hex":"#3366ff99","correct":32,"choice":32,"rt":543,"accuracy":1,"outcome":"+1","keys":[2044],"total_keys":1,"block":2,"trial":132,"stimulus":1,"robot":1,"valence":"win","action":"go","sham":1,"trial_type":"pit-trial","trial_index":169,"time_elapsed":965732,"internal_node_id":"0.0-140.0","task_version":"battery-v0.2-trt"},{"rune":"N","rune_set":"bacs1","hex":"#3366ff99","correct":-1,"choice":32,"rt":457,"accuracy":0,"outcome":"+1","keys":[1958],"total_keys":1,"block":2,"trial":133,"stimulus":0,"robot":2,"valence":"win","action":"no-go","sham":0,"trial_type":"pit-trial","trial_index":170,"time_elapsed":968891,"internal_node_id":"0.0-141.0","task_version":"battery-v0.2-trt"},{"rune":"G","rune_set":"bacs1","hex":"#3366ff99","correct":32,"choice":32,"rt":864,"accuracy":1,"outcome":"+10","keys":[2365],"total_keys":1,"block":2,"trial":134,"stimulus":1,"robot":1,"valence":"win","action":"go","sham":0,"trial_type":"pit-trial","trial_index":171,"time_elapsed":972461,"internal_node_id":"0.0-142.0","task_version":"battery-v0.2-trt"},{"rune":"O","rune_set":"bacs1","hex":"#3366ff99","correct":32,"choice":32,"rt":590,"accuracy":1,"outcome":"+10","keys":[2092],"total_keys":1,"block":2,"trial":135,"stimulus":3,"robot":1,"valence":"win","action":"go","sham":0,"trial_type":"pit-trial","trial_index":172,"time_elapsed":975757,"internal_node_id":"0.0-143.0","task_version":"battery-v0.2-trt"},{"rune":"I","rune_set":"bacs1","hex":"#f73b6a7A","correct":-1,"choice":-1,"rt":-1,"accuracy":1,"outcome":"-1","keys":[],"total_keys":0,"block":2,"trial":136,"stimulus":2,"robot":4,"valence":"lose","action":"no-go","sham":0,"trial_type":"pit-trial","trial_index":173,"time_elapsed":979759,"internal_node_id":"0.0-144.0","task_version":"battery-v0.2-trt"},{"rune":"I","rune_set":"bacs1","hex":"#f73b6a7A","correct":-1,"choice":-1,"rt":-1,"accuracy":1,"outcome":"-1","keys":[],"total_keys":0,"block":2,"trial":137,"stimulus":2,"robot":4,"valence":"lose","action":"no-go","sham":0,"trial_type":"pit-trial","trial_index":174,"time_elapsed":983761,"internal_node_id":"0.0-145.0","task_version":"battery-v0.2-trt"},{"rune":"O","rune_set":"bacs1","hex":"#3366ff99","correct":32,"choice":32,"rt":434,"accuracy":1,"outcome":"+10","keys":[1934],"total_keys":1,"block":2,"trial":138,"stimulus":3,"robot":1,"valence":"win","action":"go","sham":0,"trial_type":"pit-trial","trial_index":175,"time_elapsed":986900,"internal_node_id":"0.0-146.0","task_version":"battery-v0.2-trt"},{"rune":"N","rune_set":"bacs1","hex":"#3366ff99","correct":-1,"choice":32,"rt":929,"accuracy":0,"outcome":"+1","keys":[2430],"total_keys":1,"block":2,"trial":139,"stimulus":0,"robot":2,"valence":"win","action":"no-go","sham":0,"trial_type":"pit-trial","trial_index":176,"time_elapsed":990532,"internal_node_id":"0.0-147.0","task_version":"battery-v0.2-trt"},{"rune":"G","rune_set":"bacs1","hex":"#3366ff99","correct":32,"choice":32,"rt":520,"accuracy":1,"outcome":"+10","keys":[2022],"total_keys":1,"block":2,"trial":140,"stimulus":1,"robot":1,"valence":"win","action":"go","sham":0,"trial_type":"pit-trial","trial_index":177,"time_elapsed":993756,"internal_node_id":"0.0-148.0","task_version":"battery-v0.2-trt"},{"rune":"O","rune_set":"bacs1","hex":"#3366ff99","correct":32,"choice":32,"rt":563,"accuracy":1,"outcome":"+10","keys":[2063],"total_keys":1,"block":2,"trial":141,"stimulus":3,"robot":1,"valence":"win","action":"go","sham":0,"trial_type":"pit-trial","trial_index":178,"time_elapsed":997021,"internal_node_id":"0.0-149.0","task_version":"battery-v0.2-trt"},{"rune":"G","rune_set":"bacs1","hex":"#3366ff99","correct":32,"choice":32,"rt":471,"accuracy":1,"outcome":"+10","keys":[1972],"total_keys":1,"block":2,"trial":142,"stimulus":1,"robot":1,"valence":"win","action":"go","sham":0,"trial_type":"pit-trial","trial_index":179,"time_elapsed":1000197,"internal_node_id":"0.0-150.0","task_version":"battery-v0.2-trt"},{"rune":"N","rune_set":"bacs1","hex":"#3366ff99","correct":-1,"choice":-1,"rt":-1,"accuracy":1,"outcome":"+1","keys":[],"total_keys":0,"block":2,"trial":143,"stimulus":0,"robot":2,"valence":"win","action":"no-go","sham":1,"trial_type":"pit-trial","trial_index":180,"time_elapsed":1004200,"internal_node_id":"0.0-151.0","task_version":"battery-v0.2-trt"},{"rune":"I","rune_set":"bacs1","hex":"#f73b6a7A","correct":-1,"choice":-1,"rt":-1,"accuracy":1,"outcome":"-1","keys":[],"total_keys":0,"block":2,"trial":144,"stimulus":2,"robot":4,"valence":"lose","action":"no-go","sham":0,"trial_type":"pit-trial","trial_index":181,"time_elapsed":1008206,"internal_node_id":"0.0-152.0","task_version":"battery-v0.2-trt"},{"rune":"G","rune_set":"bacs1","hex":"#3366ff99","correct":32,"choice":32,"rt":504,"accuracy":1,"outcome":"+10","keys":[2004],"total_keys":1,"block":2,"trial":145,"stimulus":1,"robot":1,"valence":"win","action":"go","sham":0,"trial_type":"pit-trial","trial_index":182,"time_elapsed":1011413,"internal_node_id":"0.0-153.0","task_version":"battery-v0.2-trt"},{"rune":"O","rune_set":"bacs1","hex":"#3366ff99","correct":32,"choice":32,"rt":457,"accuracy":1,"outcome":"+10","keys":[1956],"total_keys":1,"block":2,"trial":146,"stimulus":3,"robot":1,"valence":"win","action":"go","sham":0,"trial_type":"pit-trial","trial_index":183,"time_elapsed":1014572,"internal_node_id":"0.0-154.0","task_version":"battery-v0.2-trt"},{"rune":"N","rune_set":"bacs1","hex":"#3366ff99","correct":-1,"choice":32,"rt":600,"accuracy":0,"outcome":"+10","keys":[2101],"total_keys":1,"block":2,"trial":147,"stimulus":0,"robot":2,"valence":"win","action":"no-go","sham":1,"trial_type":"pit-trial","trial_index":184,"time_elapsed":1017877,"internal_node_id":"0.0-155.0","task_version":"battery-v0.2-trt"},{"rune":"I","rune_set":"bacs1","hex":"#f73b6a7A","correct":-1,"choice":-1,"rt":-1,"accuracy":1,"outcome":"-1","keys":[],"total_keys":0,"block":2,"trial":148,"stimulus":2,"robot":4,"valence":"lose","action":"no-go","sham":0,"trial_type":"pit-trial","trial_index":185,"time_elapsed":1021880,"internal_node_id":"0.0-156.0","task_version":"battery-v0.2-trt"},{"rune":"I","rune_set":"bacs1","hex":"#f73b6a7A","correct":-1,"choice":-1,"rt":-1,"accuracy":1,"outcome":"-1","keys":[],"total_keys":0,"block":2,"trial":149,"stimulus":2,"robot":4,"valence":"lose","action":"no-go","sham":0,"trial_type":"pit-trial","trial_index":186,"time_elapsed":1025883,"internal_node_id":"0.0-157.0","task_version":"battery-v0.2-trt"},{"rune":"N","rune_set":"bacs1","hex":"#3366ff99","correct":-1,"choice":32,"rt":481,"accuracy":0,"outcome":"+1","keys":[1983],"total_keys":1,"block":2,"trial":150,"stimulus":0,"robot":2,"valence":"win","action":"no-go","sham":0,"trial_type":"pit-trial","trial_index":187,"time_elapsed":1029069,"internal_node_id":"0.0-158.0","task_version":"battery-v0.2-trt"},{"rune":"O","rune_set":"bacs1","hex":"#3366ff99","correct":32,"choice":32,"rt":467,"accuracy":1,"outcome":"+10","keys":[1967],"total_keys":1,"block":2,"trial":151,"stimulus":3,"robot":1,"valence":"win","action":"go","sham":0,"trial_type":"pit-trial","trial_index":188,"time_elapsed":1032239,"internal_node_id":"0.0-159.0","task_version":"battery-v0.2-trt"},{"rune":"G","rune_set":"bacs1","hex":"#3366ff99","correct":32,"choice":32,"rt":439,"accuracy":1,"outcome":"+10","keys":[1939],"total_keys":1,"block":2,"trial":152,"stimulus":1,"robot":1,"valence":"win","action":"go","sham":0,"trial_type":"pit-trial","trial_index":189,"time_elapsed":1035381,"internal_node_id":"0.0-160.0","task_version":"battery-v0.2-trt"},{"rune":"D","rune_set":"bacs1","hex":"#3366ff99","correct":32,"choice":32,"rt":912,"accuracy":1,"outcome":"+10","keys":[2413],"total_keys":1,"block":2,"trial":153,"stimulus":4,"robot":1,"valence":"win","action":"go","sham":0,"trial_type":"pit-trial","trial_index":190,"time_elapsed":1038997,"internal_node_id":"0.0-161.0","task_version":"battery-v0.2-trt"},{"rune":"O","rune_set":"bacs1","hex":"#3366ff99","correct":32,"choice":32,"rt":482,"accuracy":1,"outcome":"+1","keys":[1981],"total_keys":1,"block":2,"trial":154,"stimulus":3,"robot":1,"valence":"win","action":"go","sham":1,"trial_type":"pit-trial","trial_index":191,"time_elapsed":1042181,"internal_node_id":"0.0-162.0","task_version":"battery-v0.2-trt"},{"rune":"N","rune_set":"bacs1","hex":"#3366ff99","correct":-1,"choice":32,"rt":537,"accuracy":0,"outcome":"+1","keys":[2038],"total_keys":1,"block":2,"trial":155,"stimulus":0,"robot":2,"valence":"win","action":"no-go","sham":0,"trial_type":"pit-trial","trial_index":192,"time_elapsed":1045422,"internal_node_id":"0.0-163.0","task_version":"battery-v0.2-trt"},{"rune":"I","rune_set":"bacs1","hex":"#f73b6a7A","correct":-1,"choice":-1,"rt":-1,"accuracy":1,"outcome":"-1","keys":[],"total_keys":0,"block":2,"trial":156,"stimulus":2,"robot":4,"valence":"lose","action":"no-go","sham":0,"trial_type":"pit-trial","trial_index":193,"time_elapsed":1049425,"internal_node_id":"0.0-164.0","task_version":"battery-v0.2-trt"},{"rune":"D","rune_set":"bacs1","hex":"#3366ff99","correct":32,"choice":32,"rt":469,"accuracy":1,"outcome":"+10","keys":[1969],"total_keys":1,"block":2,"trial":157,"stimulus":4,"robot":1,"valence":"win","action":"go","sham":0,"trial_type":"pit-trial","trial_index":194,"time_elapsed":1052599,"internal_node_id":"0.0-165.0","task_version":"battery-v0.2-trt"},{"rune":"I","rune_set":"bacs1","hex":"#f73b6a7A","correct":-1,"choice":-1,"rt":-1,"accuracy":1,"outcome":"-1","keys":[],"total_keys":0,"block":2,"trial":158,"stimulus":2,"robot":4,"valence":"lose","action":"no-go","sham":0,"trial_type":"pit-trial","trial_index":195,"time_elapsed":1056602,"internal_node_id":"0.0-166.0","task_version":"battery-v0.2-trt"},{"rune":"O","rune_set":"bacs1","hex":"#3366ff99","correct":32,"choice":32,"rt":462,"accuracy":1,"outcome":"+10","keys":[1961],"total_keys":1,"block":2,"trial":159,"stimulus":3,"robot":1,"valence":"win","action":"go","sham":0,"trial_type":"pit-trial","trial_index":196,"time_elapsed":1059765,"internal_node_id":"0.0-167.0","task_version":"battery-v0.2-trt"},{"rune":"N","rune_set":"bacs1","hex":"#3366ff99","correct":-1,"choice":32,"rt":475,"accuracy":0,"outcome":"+1","keys":[1975],"total_keys":1,"block":2,"trial":160,"stimulus":0,"robot":2,"valence":"win","action":"no-go","sham":0,"trial_type":"pit-trial","trial_index":197,"time_elapsed":1062943,"internal_node_id":"0.0-168.0","task_version":"battery-v0.2-trt"},{"rune":"N","rune_set":"bacs1","hex":"#3366ff99","correct":-1,"choice":32,"rt":504,"accuracy":0,"outcome":"+10","keys":[2004],"total_keys":1,"block":2,"trial":161,"stimulus":0,"robot":2,"valence":"win","action":"no-go","sham":1,"trial_type":"pit-trial","trial_index":198,"time_elapsed":1066150,"internal_node_id":"0.0-169.0","task_version":"battery-v0.2-trt"},{"rune":"D","rune_set":"bacs1","hex":"#3366ff99","correct":32,"choice":32,"rt":434,"accuracy":1,"outcome":"+10","keys":[1933],"total_keys":1,"block":2,"trial":162,"stimulus":4,"robot":1,"valence":"win","action":"go","sham":0,"trial_type":"pit-trial","trial_index":199,"time_elapsed":1069286,"internal_node_id":"0.0-170.0","task_version":"battery-v0.2-trt"},{"rune":"S","rune_set":"bacs1","hex":"#f73b6a7A","correct":-1,"choice":32,"rt":858,"accuracy":0,"outcome":"-10","keys":[2358],"total_keys":1,"block":2,"trial":163,"stimulus":6,"robot":4,"valence":"lose","action":"no-go","sham":0,"trial_type":"pit-trial","trial_index":200,"time_elapsed":1072845,"internal_node_id":"0.0-171.0","task_version":"battery-v0.2-trt"},{"rune":"K","rune_set":"bacs1","hex":"#f73b6a7A","correct":32,"choice":-1,"rt":-1,"accuracy":0,"outcome":"-10","keys":[],"total_keys":0,"block":2,"trial":164,"stimulus":5,"robot":3,"valence":"lose","action":"go","sham":0,"trial_type":"pit-trial","trial_index":201,"time_elapsed":1076848,"internal_node_id":"0.0-172.0","task_version":"battery-v0.2-trt"},{"rune":"N","rune_set":"bacs1","hex":"#3366ff99","correct":-1,"choice":-1,"rt":-1,"accuracy":1,"outcome":"+10","keys":[],"total_keys":0,"block":2,"trial":165,"stimulus":0,"robot":2,"valence":"win","action":"no-go","sham":0,"trial_type":"pit-trial","trial_index":202,"time_elapsed":1080853,"internal_node_id":"0.0-173.0","task_version":"battery-v0.2-trt"},{"rune":"K","rune_set":"bacs1","hex":"#f73b6a7A","correct":32,"choice":32,"rt":747,"accuracy":1,"outcome":"-1","keys":[2246],"total_keys":1,"block":2,"trial":166,"stimulus":5,"robot":3,"valence":"lose","action":"go","sham":0,"trial_type":"pit-trial","trial_index":203,"time_elapsed":1084302,"internal_node_id":"0.0-174.0","task_version":"battery-v0.2-trt"},{"rune":"D","rune_set":"bacs1","hex":"#3366ff99","correct":32,"choice":32,"rt":754,"accuracy":1,"outcome":"+10","keys":[2255],"total_keys":1,"block":2,"trial":167,"stimulus":4,"robot":1,"valence":"win","action":"go","sham":0,"trial_type":"pit-trial","trial_index":204,"time_elapsed":1087758,"internal_node_id":"0.0-175.0","task_version":"battery-v0.2-trt"},{"rune":"S","rune_set":"bacs1","hex":"#f73b6a7A","correct":-1,"choice":32,"rt":721,"accuracy":0,"outcome":"-10","keys":[2221],"total_keys":1,"block":2,"trial":168,"stimulus":6,"robot":4,"valence":"lose","action":"no-go","sham":0,"trial_type":"pit-trial","trial_index":205,"time_elapsed":1091182,"internal_node_id":"0.0-176.0","task_version":"battery-v0.2-trt"},{"rune":"K","rune_set":"bacs1","hex":"#f73b6a7A","correct":32,"choice":32,"rt":713,"accuracy":1,"outcome":"-1","keys":[2213],"total_keys":1,"block":2,"trial":169,"stimulus":5,"robot":3,"valence":"lose","action":"go","sham":0,"trial_type":"pit-trial","trial_index":206,"time_elapsed":1094599,"internal_node_id":"0.0-177.0","task_version":"battery-v0.2-trt"},{"rune":"U","rune_set":"bacs1","hex":"#3366ff99","correct":-1,"choice":32,"rt":736,"accuracy":0,"outcome":"+1","keys":[2236],"total_keys":1,"block":2,"trial":170,"stimulus":7,"robot":2,"valence":"win","action":"no-go","sham":0,"trial_type":"pit-trial","trial_index":207,"time_elapsed":1098039,"internal_node_id":"0.0-178.0","task_version":"battery-v0.2-trt"},{"rune":"D","rune_set":"bacs1","hex":"#3366ff99","correct":32,"choice":32,"rt":641,"accuracy":1,"outcome":"+1","keys":[2141],"total_keys":1,"block":2,"trial":171,"stimulus":4,"robot":1,"valence":"win","action":"go","sham":1,"trial_type":"pit-trial","trial_index":208,"time_elapsed":1101383,"internal_node_id":"0.0-179.0","task_version":"battery-v0.2-trt"},{"rune":"S","rune_set":"bacs1","hex":"#f73b6a7A","correct":-1,"choice":-1,"rt":-1,"accuracy":1,"outcome":"-1","keys":[],"total_keys":0,"block":2,"trial":172,"stimulus":6,"robot":4,"valence":"lose","action":"no-go","sham":0,"trial_type":"pit-trial","trial_index":209,"time_elapsed":1105388,"internal_node_id":"0.0-180.0","task_version":"battery-v0.2-trt"},{"rune":"K","rune_set":"bacs1","hex":"#f73b6a7A","correct":32,"choice":32,"rt":1021,"accuracy":1,"outcome":"-1","keys":[2521],"total_keys":1,"block":2,"trial":173,"stimulus":5,"robot":3,"valence":"lose","action":"go","sham":0,"trial_type":"pit-trial","trial_index":210,"time_elapsed":1109112,"internal_node_id":"0.0-181.0","task_version":"battery-v0.2-trt"},{"rune":"S","rune_set":"bacs1","hex":"#f73b6a7A","correct":-1,"choice":-1,"rt":-1,"accuracy":1,"outcome":"-1","keys":[],"total_keys":0,"block":2,"trial":174,"stimulus":6,"robot":4,"valence":"lose","action":"no-go","sham":0,"trial_type":"pit-trial","trial_index":211,"time_elapsed":1113115,"internal_node_id":"0.0-182.0","task_version":"battery-v0.2-trt"},{"rune":"D","rune_set":"bacs1","hex":"#3366ff99","correct":32,"choice":-1,"rt":-1,"accuracy":0,"outcome":"+1","keys":[],"total_keys":0,"block":2,"trial":175,"stimulus":4,"robot":1,"valence":"win","action":"go","sham":0,"trial_type":"pit-trial","trial_index":212,"time_elapsed":1117119,"internal_node_id":"0.0-183.0","task_version":"battery-v0.2-trt"},{"rune":"U","rune_set":"bacs1","hex":"#3366ff99","correct":-1,"choice":32,"rt":617,"accuracy":0,"outcome":"+1","keys":[2117],"total_keys":1,"block":2,"trial":176,"stimulus":7,"robot":2,"valence":"win","action":"no-go","sham":0,"trial_type":"pit-trial","trial_index":213,"time_elapsed":1120440,"internal_node_id":"0.0-184.0","task_version":"battery-v0.2-trt"},{"rune":"D","rune_set":"bacs1","hex":"#3366ff99","correct":32,"choice":32,"rt":911,"accuracy":1,"outcome":"+10","keys":[2412],"total_keys":1,"block":2,"trial":177,"stimulus":4,"robot":1,"valence":"win","action":"go","sham":0,"trial_type":"pit-trial","trial_index":214,"time_elapsed":1124055,"internal_node_id":"0.0-185.0","task_version":"battery-v0.2-trt"},{"rune":"S","rune_set":"bacs1","hex":"#f73b6a7A","correct":-1,"choice":-1,"rt":-1,"accuracy":1,"outcome":"-10","keys":[],"total_keys":0,"block":2,"trial":178,"stimulus":6,"robot":4,"valence":"lose","action":"no-go","sham":1,"trial_type":"pit-trial","trial_index":215,"time_elapsed":1128058,"internal_node_id":"0.0-186.0","task_version":"battery-v0.2-trt"},{"rune":"U","rune_set":"bacs1","hex":"#3366ff99","correct":-1,"choice":32,"rt":630,"accuracy":0,"outcome":"+1","keys":[2130],"total_keys":1,"block":2,"trial":179,"stimulus":7,"robot":2,"valence":"win","action":"no-go","sham":0,"trial_type":"pit-trial","trial_index":216,"time_elapsed":1131392,"internal_node_id":"0.0-187.0","task_version":"battery-v0.2-trt"},{"rune":"K","rune_set":"bacs1","hex":"#f73b6a7A","correct":32,"choice":-1,"rt":-1,"accuracy":0,"outcome":"-10","keys":[],"total_keys":0,"block":2,"trial":180,"stimulus":5,"robot":3,"valence":"lose","action":"go","sham":0,"trial_type":"pit-trial","trial_index":217,"time_elapsed":1135395,"internal_node_id":"0.0-188.0","task_version":"battery-v0.2-trt"},{"rune":"D","rune_set":"bacs1","hex":"#3366ff99","correct":32,"choice":32,"rt":862,"accuracy":1,"outcome":"+10","keys":[2362],"total_keys":1,"block":2,"trial":181,"stimulus":4,"robot":1,"valence":"win","action":"go","sham":0,"trial_type":"pit-trial","trial_index":218,"time_elapsed":1138959,"internal_node_id":"0.0-189.0","task_version":"battery-v0.2-trt"},{"rune":"U","rune_set":"bacs1","hex":"#3366ff99","correct":-1,"choice":-1,"rt":-1,"accuracy":1,"outcome":"+10","keys":[],"total_keys":0,"block":2,"trial":182,"stimulus":7,"robot":2,"valence":"win","action":"no-go","sham":0,"trial_type":"pit-trial","trial_index":219,"time_elapsed":1142965,"internal_node_id":"0.0-190.0","task_version":"battery-v0.2-trt"},{"rune":"K","rune_set":"bacs1","hex":"#f73b6a7A","correct":32,"choice":-1,"rt":-1,"accuracy":0,"outcome":"-10","keys":[2823],"total_keys":1,"block":2,"trial":183,"stimulus":5,"robot":3,"valence":"lose","action":"go","sham":0,"trial_type":"pit-trial","trial_index":220,"time_elapsed":1146968,"internal_node_id":"0.0-191.0","task_version":"battery-v0.2-trt"},{"rune":"S","rune_set":"bacs1","hex":"#f73b6a7A","correct":-1,"choice":32,"rt":672,"accuracy":0,"outcome":"-10","keys":[2172],"total_keys":1,"block":2,"trial":184,"stimulus":6,"robot":4,"valence":"lose","action":"no-go","sham":0,"trial_type":"pit-trial","trial_index":221,"time_elapsed":1150345,"internal_node_id":"0.0-192.0","task_version":"battery-v0.2-trt"},{"rune":"S","rune_set":"bacs1","hex":"#f73b6a7A","correct":-1,"choice":32,"rt":527,"accuracy":0,"outcome":"-10","keys":[2028],"total_keys":1,"block":2,"trial":185,"stimulus":6,"robot":4,"valence":"lose","action":"no-go","sham":0,"trial_type":"pit-trial","trial_index":222,"time_elapsed":1153576,"internal_node_id":"0.0-193.0","task_version":"battery-v0.2-trt"},{"rune":"U","rune_set":"bacs1","hex":"#3366ff99","correct":-1,"choice":32,"rt":752,"accuracy":0,"outcome":"+1","keys":[2253],"total_keys":1,"block":2,"trial":186,"stimulus":7,"robot":2,"valence":"win","action":"no-go","sham":0,"trial_type":"pit-trial","trial_index":223,"time_elapsed":1157032,"internal_node_id":"0.0-194.0","task_version":"battery-v0.2-trt"},{"rune":"D","rune_set":"bacs1","hex":"#3366ff99","correct":32,"choice":32,"rt":744,"accuracy":1,"outcome":"+1","keys":[2245],"total_keys":1,"block":2,"trial":187,"stimulus":4,"robot":1,"valence":"win","action":"go","sham":1,"trial_type":"pit-trial","trial_index":224,"time_elapsed":1160482,"internal_node_id":"0.0-195.0","task_version":"battery-v0.2-trt"},{"rune":"K","rune_set":"bacs1","hex":"#f73b6a7A","correct":32,"choice":-1,"rt":-1,"accuracy":0,"outcome":"-10","keys":[],"total_keys":0,"block":2,"trial":188,"stimulus":5,"robot":3,"valence":"lose","action":"go","sham":0,"trial_type":"pit-trial","trial_index":225,"time_elapsed":1164486,"internal_node_id":"0.0-196.0","task_version":"battery-v0.2-trt"},{"rune":"S","rune_set":"bacs1","hex":"#f73b6a7A","correct":-1,"choice":32,"rt":877,"accuracy":0,"outcome":"-1","keys":[2377],"total_keys":1,"block":2,"trial":189,"stimulus":6,"robot":4,"valence":"lose","action":"no-go","sham":1,"trial_type":"pit-trial","trial_index":226,"time_elapsed":1168065,"internal_node_id":"0.0-197.0","task_version":"battery-v0.2-trt"},{"rune":"U","rune_set":"bacs1","hex":"#3366ff99","correct":-1,"choice":32,"rt":841,"accuracy":0,"outcome":"+1","keys":[2343],"total_keys":1,"block":2,"trial":190,"stimulus":7,"robot":2,"valence":"win","action":"no-go","sham":0,"trial_type":"pit-trial","trial_index":227,"time_elapsed":1171609,"internal_node_id":"0.0-198.0","task_version":"battery-v0.2-trt"},{"rune":"D","rune_set":"bacs1","hex":"#3366ff99","correct":32,"choice":32,"rt":1064,"accuracy":1,"outcome":"+10","keys":[2565],"total_keys":1,"block":2,"trial":191,"stimulus":4,"robot":1,"valence":"win","action":"go","sham":0,"trial_type":"pit-trial","trial_index":228,"time_elapsed":1175378,"internal_node_id":"0.0-199.0","task_version":"battery-v0.2-trt"},{"rune":"K","rune_set":"bacs1","hex":"#f73b6a7A","correct":32,"choice":32,"rt":808,"accuracy":1,"outcome":"-1","keys":[2308],"total_keys":1,"block":2,"trial":192,"stimulus":5,"robot":3,"valence":"lose","action":"go","sham":0,"trial_type":"pit-trial","trial_index":229,"time_elapsed":1178889,"internal_node_id":"0.0-200.0","task_version":"battery-v0.2-trt"},{"rune":"U","rune_set":"bacs1","hex":"#3366ff99","correct":-1,"choice":32,"rt":713,"accuracy":0,"outcome":"+1","keys":[2214],"total_keys":1,"block":2,"trial":193,"stimulus":7,"robot":2,"valence":"win","action":"no-go","sham":0,"trial_type":"pit-trial","trial_index":230,"time_elapsed":1182305,"internal_node_id":"0.0-201.0","task_version":"battery-v0.2-trt"},{"rune":"D","rune_set":"bacs1","hex":"#3366ff99","correct":32,"choice":32,"rt":930,"accuracy":1,"outcome":"+10","keys":[2430],"total_keys":1,"block":2,"trial":194,"stimulus":4,"robot":1,"valence":"win","action":"go","sham":0,"trial_type":"pit-trial","trial_index":231,"time_elapsed":1185937,"internal_node_id":"0.0-202.0","task_version":"battery-v0.2-trt"},{"rune":"M","rune_set":"bacs1","hex":"#f73b6a7A","correct":32,"choice":32,"rt":704,"accuracy":1,"outcome":"-10","keys":[2204],"total_keys":1,"block":2,"trial":195,"stimulus":8,"robot":3,"valence":"lose","action":"go","sham":1,"trial_type":"pit-trial","trial_index":232,"time_elapsed":1189345,"internal_node_id":"0.0-203.0","task_version":"battery-v0.2-trt"},{"rune":"S","rune_set":"bacs1","hex":"#f73b6a7A","correct":-1,"choice":32,"rt":808,"accuracy":0,"outcome":"-10","keys":[2308],"total_keys":1,"block":2,"trial":196,"stimulus":6,"robot":4,"valence":"lose","action":"no-go","sham":0,"trial_type":"pit-trial","trial_index":233,"time_elapsed":1192856,"internal_node_id":"0.0-204.0","task_version":"battery-v0.2-trt"},{"rune":"M","rune_set":"bacs1","hex":"#f73b6a7A","correct":32,"choice":-1,"rt":-1,"accuracy":0,"outcome":"-10","keys":[],"total_keys":0,"block":2,"trial":197,"stimulus":8,"robot":3,"valence":"lose","action":"go","sham":0,"trial_type":"pit-trial","trial_index":234,"time_elapsed":1196860,"internal_node_id":"0.0-205.0","task_version":"battery-v0.2-trt"},{"rune":"D","rune_set":"bacs1","hex":"#3366ff99","correct":32,"choice":32,"rt":656,"accuracy":1,"outcome":"+10","keys":[2154],"total_keys":1,"block":2,"trial":198,"stimulus":4,"robot":1,"valence":"win","action":"go","sham":0,"trial_type":"pit-trial","trial_index":235,"time_elapsed":1200217,"internal_node_id":"0.0-206.0","task_version":"battery-v0.2-trt"},{"rune":"U","rune_set":"bacs1","hex":"#3366ff99","correct":-1,"choice":32,"rt":905,"accuracy":0,"outcome":"+1","keys":[2404],"total_keys":1,"block":2,"trial":199,"stimulus":7,"robot":2,"valence":"win","action":"no-go","sham":0,"trial_type":"pit-trial","trial_index":236,"time_elapsed":1203826,"internal_node_id":"0.0-207.0","task_version":"battery-v0.2-trt"},{"rune":"S","rune_set":"bacs1","hex":"#f73b6a7A","correct":-1,"choice":-1,"rt":-1,"accuracy":1,"outcome":"-10","keys":[],"total_keys":0,"block":2,"trial":200,"stimulus":6,"robot":4,"valence":"lose","action":"no-go","sham":1,"trial_type":"pit-trial","trial_index":237,"time_elapsed":1207830,"internal_node_id":"0.0-208.0","task_version":"battery-v0.2-trt"},{"rune":"U","rune_set":"bacs1","hex":"#3366ff99","correct":-1,"choice":32,"rt":732,"accuracy":0,"outcome":"+10","keys":[2232],"total_keys":1,"block":2,"trial":201,"stimulus":7,"robot":2,"valence":"win","action":"no-go","sham":1,"trial_type":"pit-trial","trial_index":238,"time_elapsed":1211265,"internal_node_id":"0.0-209.0","task_version":"battery-v0.2-trt"},{"rune":"M","rune_set":"bacs1","hex":"#f73b6a7A","correct":32,"choice":32,"rt":746,"accuracy":1,"outcome":"-1","keys":[2244],"total_keys":1,"block":2,"trial":202,"stimulus":8,"robot":3,"valence":"lose","action":"go","sham":0,"trial_type":"pit-trial","trial_index":239,"time_elapsed":1214713,"internal_node_id":"0.0-210.0","task_version":"battery-v0.2-trt"},{"rune":"P","rune_set":"bacs1","hex":"#f73b6a7A","correct":32,"choice":-1,"rt":-1,"accuracy":0,"outcome":"-10","keys":[],"total_keys":0,"block":2,"trial":203,"stimulus":9,"robot":3,"valence":"lose","action":"go","sham":0,"trial_type":"pit-trial","trial_index":240,"time_elapsed":1218716,"internal_node_id":"0.0-211.0","task_version":"battery-v0.2-trt"},{"rune":"S","rune_set":"bacs1","hex":"#f73b6a7A","correct":-1,"choice":32,"rt":527,"accuracy":0,"outcome":"-10","keys":[2027],"total_keys":1,"block":2,"trial":204,"stimulus":6,"robot":4,"valence":"lose","action":"no-go","sham":0,"trial_type":"pit-trial","trial_index":241,"time_elapsed":1221946,"internal_node_id":"0.0-212.0","task_version":"battery-v0.2-trt"},{"rune":"M","rune_set":"bacs1","hex":"#f73b6a7A","correct":32,"choice":32,"rt":504,"accuracy":1,"outcome":"-1","keys":[2006],"total_keys":1,"block":2,"trial":205,"stimulus":8,"robot":3,"valence":"lose","action":"go","sham":0,"trial_type":"pit-trial","trial_index":242,"time_elapsed":1225154,"internal_node_id":"0.0-213.0","task_version":"battery-v0.2-trt"},{"rune":"S","rune_set":"bacs1","hex":"#f73b6a7A","correct":-1,"choice":32,"rt":458,"accuracy":0,"outcome":"-10","keys":[1957],"total_keys":1,"block":2,"trial":206,"stimulus":6,"robot":4,"valence":"lose","action":"no-go","sham":0,"trial_type":"pit-trial","trial_index":243,"time_elapsed":1228314,"internal_node_id":"0.0-214.0","task_version":"battery-v0.2-trt"},{"rune":"P","rune_set":"bacs1","hex":"#f73b6a7A","correct":32,"choice":32,"rt":520,"accuracy":1,"outcome":"-1","keys":[2021],"total_keys":1,"block":2,"trial":207,"stimulus":9,"robot":3,"valence":"lose","action":"go","sham":0,"trial_type":"pit-trial","trial_index":244,"time_elapsed":1231539,"internal_node_id":"0.0-215.0","task_version":"battery-v0.2-trt"},{"rune":"U","rune_set":"bacs1","hex":"#3366ff99","correct":-1,"choice":32,"rt":545,"accuracy":0,"outcome":"+10","keys":[2045],"total_keys":1,"block":2,"trial":208,"stimulus":7,"robot":2,"valence":"win","action":"no-go","sham":1,"trial_type":"pit-trial","trial_index":245,"time_elapsed":1234787,"internal_node_id":"0.0-216.0","task_version":"battery-v0.2-trt"},{"rune":"H","rune_set":"bacs1","hex":"#f73b6a7A","correct":-1,"choice":32,"rt":696,"accuracy":0,"outcome":"-1","keys":[2196],"total_keys":1,"block":2,"trial":209,"stimulus":10,"robot":4,"valence":"lose","action":"no-go","sham":1,"trial_type":"pit-trial","trial_index":246,"time_elapsed":1238185,"internal_node_id":"0.0-217.0","task_version":"battery-v0.2-trt"},{"rune":"P","rune_set":"bacs1","hex":"#f73b6a7A","correct":32,"choice":32,"rt":659,"accuracy":1,"outcome":"-1","keys":[2158],"total_keys":1,"block":2,"trial":210,"stimulus":9,"robot":3,"valence":"lose","action":"go","sham":0,"trial_type":"pit-trial","trial_index":247,"time_elapsed":1241547,"internal_node_id":"0.0-218.0","task_version":"battery-v0.2-trt"},{"rune":"M","rune_set":"bacs1","hex":"#f73b6a7A","correct":32,"choice":-1,"rt":-1,"accuracy":0,"outcome":"-10","keys":[],"total_keys":0,"block":2,"trial":211,"stimulus":8,"robot":3,"valence":"lose","action":"go","sham":0,"trial_type":"pit-trial","trial_index":248,"time_elapsed":1245550,"internal_node_id":"0.0-219.0","task_version":"battery-v0.2-trt"},{"rune":"Y","rune_set":"bacs1","hex":"#3366ff99","correct":-1,"choice":32,"rt":534,"accuracy":0,"outcome":"+1","keys":[2033],"total_keys":1,"block":2,"trial":212,"stimulus":11,"robot":2,"valence":"win","action":"no-go","sham":0,"trial_type":"pit-trial","trial_index":249,"time_elapsed":1248786,"internal_node_id":"0.0-220.0","task_version":"battery-v0.2-trt"},{"rune":"Y","rune_set":"bacs1","hex":"#3366ff99","correct":-1,"choice":-1,"rt":-1,"accuracy":1,"outcome":"+1","keys":[],"total_keys":0,"block":2,"trial":213,"stimulus":11,"robot":2,"valence":"win","action":"no-go","sham":1,"trial_type":"pit-trial","trial_index":250,"time_elapsed":1252789,"internal_node_id":"0.0-221.0","task_version":"battery-v0.2-trt"},{"rune":"H","rune_set":"bacs1","hex":"#f73b6a7A","correct":-1,"choice":32,"rt":581,"accuracy":0,"outcome":"-10","keys":[2083],"total_keys":1,"block":2,"trial":214,"stimulus":10,"robot":4,"valence":"lose","action":"no-go","sham":0,"trial_type":"pit-trial","trial_index":251,"time_elapsed":1256074,"internal_node_id":"0.0-222.0","task_version":"battery-v0.2-trt"},{"rune":"M","rune_set":"bacs1","hex":"#f73b6a7A","correct":32,"choice":-1,"rt":-1,"accuracy":0,"outcome":"-10","keys":[],"total_keys":0,"block":2,"trial":215,"stimulus":8,"robot":3,"valence":"lose","action":"go","sham":0,"trial_type":"pit-trial","trial_index":252,"time_elapsed":1260078,"internal_node_id":"0.0-223.0","task_version":"battery-v0.2-trt"},{"rune":"P","rune_set":"bacs1","hex":"#f73b6a7A","correct":32,"choice":32,"rt":478,"accuracy":1,"outcome":"-1","keys":[1978],"total_keys":1,"block":2,"trial":216,"stimulus":9,"robot":3,"valence":"lose","action":"go","sham":0,"trial_type":"pit-trial","trial_index":253,"time_elapsed":1263259,"internal_node_id":"0.0-224.0","task_version":"battery-v0.2-trt"},{"rune":"M","rune_set":"bacs1","hex":"#f73b6a7A","correct":32,"choice":32,"rt":385,"accuracy":1,"outcome":"-1","keys":[1885],"total_keys":1,"block":2,"trial":217,"stimulus":8,"robot":3,"valence":"lose","action":"go","sham":0,"trial_type":"pit-trial","trial_index":254,"time_elapsed":1266346,"internal_node_id":"0.0-225.0","task_version":"battery-v0.2-trt"},{"rune":"H","rune_set":"bacs1","hex":"#f73b6a7A","correct":-1,"choice":32,"rt":746,"accuracy":0,"outcome":"-1","keys":[2246],"total_keys":1,"block":2,"trial":218,"stimulus":10,"robot":4,"valence":"lose","action":"no-go","sham":1,"trial_type":"pit-trial","trial_index":255,"time_elapsed":1269795,"internal_node_id":"0.0-226.0","task_version":"battery-v0.2-trt"},{"rune":"P","rune_set":"bacs1","hex":"#f73b6a7A","correct":32,"choice":32,"rt":545,"accuracy":1,"outcome":"-1","keys":[2045],"total_keys":1,"block":2,"trial":219,"stimulus":9,"robot":3,"valence":"lose","action":"go","sham":0,"trial_type":"pit-trial","trial_index":256,"time_elapsed":1273043,"internal_node_id":"0.0-227.0","task_version":"battery-v0.2-trt"},{"rune":"Y","rune_set":"bacs1","hex":"#3366ff99","correct":-1,"choice":32,"rt":479,"accuracy":0,"outcome":"+10","keys":[1980],"total_keys":1,"block":2,"trial":220,"stimulus":11,"robot":2,"valence":"win","action":"no-go","sham":1,"trial_type":"pit-trial","trial_index":257,"time_elapsed":1276227,"internal_node_id":"0.0-228.0","task_version":"battery-v0.2-trt"},{"rune":"H","rune_set":"bacs1","hex":"#f73b6a7A","correct":-1,"choice":32,"rt":737,"accuracy":0,"outcome":"-10","keys":[2238],"total_keys":1,"block":2,"trial":221,"stimulus":10,"robot":4,"valence":"lose","action":"no-go","sham":0,"trial_type":"pit-trial","trial_index":258,"time_elapsed":1279667,"internal_node_id":"0.0-229.0","task_version":"battery-v0.2-trt"},{"rune":"M","rune_set":"bacs1","hex":"#f73b6a7A","correct":32,"choice":32,"rt":360,"accuracy":1,"outcome":"-1","keys":[1861],"total_keys":1,"block":2,"trial":222,"stimulus":8,"robot":3,"valence":"lose","action":"go","sham":0,"trial_type":"pit-trial","trial_index":259,"time_elapsed":1282732,"internal_node_id":"0.0-230.0","task_version":"battery-v0.2-trt"},{"rune":"Y","rune_set":"bacs1","hex":"#3366ff99","correct":-1,"choice":32,"rt":552,"accuracy":0,"outcome":"+1","keys":[2053],"total_keys":1,"block":2,"trial":223,"stimulus":11,"robot":2,"valence":"win","action":"no-go","sham":0,"trial_type":"pit-trial","trial_index":260,"time_elapsed":1285987,"internal_node_id":"0.0-231.0","task_version":"battery-v0.2-trt"},{"rune":"P","rune_set":"bacs1","hex":"#f73b6a7A","correct":32,"choice":32,"rt":634,"accuracy":1,"outcome":"-10","keys":[2134],"total_keys":1,"block":2,"trial":224,"stimulus":9,"robot":3,"valence":"lose","action":"go","sham":1,"trial_type":"pit-trial","trial_index":261,"time_elapsed":1289325,"internal_node_id":"0.0-232.0","task_version":"battery-v0.2-trt"},{"rune":"M","rune_set":"bacs1","hex":"#f73b6a7A","correct":32,"choice":32,"rt":601,"accuracy":1,"outcome":"-1","keys":[2100],"total_keys":1,"block":2,"trial":225,"stimulus":8,"robot":3,"valence":"lose","action":"go","sham":0,"trial_type":"pit-trial","trial_index":262,"time_elapsed":1292627,"internal_node_id":"0.0-233.0","task_version":"battery-v0.2-trt"},{"rune":"P","rune_set":"bacs1","hex":"#f73b6a7A","correct":32,"choice":-1,"rt":-1,"accuracy":0,"outcome":"-10","keys":[],"total_keys":0,"block":2,"trial":226,"stimulus":9,"robot":3,"valence":"lose","action":"go","sham":0,"trial_type":"pit-trial","trial_index":263,"time_elapsed":1296630,"internal_node_id":"0.0-234.0","task_version":"battery-v0.2-trt"},{"rune":"Y","rune_set":"bacs1","hex":"#3366ff99","correct":-1,"choice":32,"rt":369,"accuracy":0,"outcome":"+1","keys":[1868],"total_keys":1,"block":2,"trial":227,"stimulus":11,"robot":2,"valence":"win","action":"no-go","sham":0,"trial_type":"pit-trial","trial_index":264,"time_elapsed":1299700,"internal_node_id":"0.0-235.0","task_version":"battery-v0.2-trt"},{"rune":"H","rune_set":"bacs1","hex":"#f73b6a7A","correct":-1,"choice":32,"rt":409,"accuracy":0,"outcome":"-1","keys":[1909],"total_keys":1,"block":2,"trial":228,"stimulus":10,"robot":4,"valence":"lose","action":"no-go","sham":1,"trial_type":"pit-trial","trial_index":265,"time_elapsed":1302810,"internal_node_id":"0.0-236.0","task_version":"battery-v0.2-trt"},{"rune":"Y","rune_set":"bacs1","hex":"#3366ff99","correct":-1,"choice":32,"rt":474,"accuracy":0,"outcome":"+1","keys":[1975],"total_keys":1,"block":2,"trial":229,"stimulus":11,"robot":2,"valence":"win","action":"no-go","sham":0,"trial_type":"pit-trial","trial_index":266,"time_elapsed":1305988,"internal_node_id":"0.0-237.0","task_version":"battery-v0.2-trt"},{"rune":"P","rune_set":"bacs1","hex":"#f73b6a7A","correct":32,"choice":32,"rt":599,"accuracy":1,"outcome":"-1","keys":[2101],"total_keys":1,"block":2,"trial":230,"stimulus":9,"robot":3,"valence":"lose","action":"go","sham":0,"trial_type":"pit-trial","trial_index":267,"time_elapsed":1309292,"internal_node_id":"0.0-238.0","task_version":"battery-v0.2-trt"},{"rune":"H","rune_set":"bacs1","hex":"#f73b6a7A","correct":-1,"choice":32,"rt":553,"accuracy":0,"outcome":"-10","keys":[2053],"total_keys":1,"block":2,"trial":231,"stimulus":10,"robot":4,"valence":"lose","action":"no-go","sham":0,"trial_type":"pit-trial","trial_index":268,"time_elapsed":1312548,"internal_node_id":"0.0-239.0","task_version":"battery-v0.2-trt"},{"rune":"M","rune_set":"bacs1","hex":"#f73b6a7A","correct":32,"choice":32,"rt":137,"accuracy":1,"outcome":"-1","keys":[1637],"total_keys":1,"block":2,"trial":232,"stimulus":8,"robot":3,"valence":"lose","action":"go","sham":0,"trial_type":"pit-trial","trial_index":269,"time_elapsed":1315388,"internal_node_id":"0.0-240.0","task_version":"battery-v0.2-trt"},{"rune":"P","rune_set":"bacs1","hex":"#f73b6a7A","correct":32,"choice":32,"rt":418,"accuracy":1,"outcome":"-1","keys":[1918],"total_keys":1,"block":2,"trial":233,"stimulus":9,"robot":3,"valence":"lose","action":"go","sham":0,"trial_type":"pit-trial","trial_index":270,"time_elapsed":1318509,"internal_node_id":"0.0-241.0","task_version":"battery-v0.2-trt"},{"rune":"Y","rune_set":"bacs1","hex":"#3366ff99","correct":-1,"choice":32,"rt":288,"accuracy":0,"outcome":"+1","keys":[1789],"total_keys":1,"block":2,"trial":234,"stimulus":11,"robot":2,"valence":"win","action":"no-go","sham":0,"trial_type":"pit-trial","trial_index":271,"time_elapsed":1321499,"internal_node_id":"0.0-242.0","task_version":"battery-v0.2-trt"},{"rune":"H","rune_set":"bacs1","hex":"#f73b6a7A","correct":-1,"choice":-1,"rt":-1,"accuracy":1,"outcome":"-1","keys":[],"total_keys":0,"block":2,"trial":235,"stimulus":10,"robot":4,"valence":"lose","action":"no-go","sham":0,"trial_type":"pit-trial","trial_index":272,"time_elapsed":1325502,"internal_node_id":"0.0-243.0","task_version":"battery-v0.2-trt"},{"rune":"M","rune_set":"bacs1","hex":"#f73b6a7A","correct":32,"choice":32,"rt":486,"accuracy":1,"outcome":"-1","keys":[1986],"total_keys":1,"block":2,"trial":236,"stimulus":8,"robot":3,"valence":"lose","action":"go","sham":0,"trial_type":"pit-trial","trial_index":273,"time_elapsed":1328692,"internal_node_id":"0.0-244.0","task_version":"battery-v0.2-trt"},{"rune":"P","rune_set":"bacs1","hex":"#f73b6a7A","correct":32,"choice":32,"rt":594,"accuracy":1,"outcome":"-1","keys":[2094],"total_keys":1,"block":2,"trial":237,"stimulus":9,"robot":3,"valence":"lose","action":"go","sham":0,"trial_type":"pit-trial","trial_index":274,"time_elapsed":1331989,"internal_node_id":"0.0-245.0","task_version":"battery-v0.2-trt"},{"rune":"M","rune_set":"bacs1","hex":"#f73b6a7A","correct":32,"choice":-1,"rt":-1,"accuracy":0,"outcome":"-10","keys":[],"total_keys":0,"block":2,"trial":238,"stimulus":8,"robot":3,"valence":"lose","action":"go","sham":0,"trial_type":"pit-trial","trial_index":275,"time_elapsed":1335992,"internal_node_id":"0.0-246.0","task_version":"battery-v0.2-trt"},{"rune":"Y","rune_set":"bacs1","hex":"#3366ff99","correct":-1,"choice":32,"rt":508,"accuracy":0,"outcome":"+1","keys":[2008],"total_keys":1,"block":2,"trial":239,"stimulus":11,"robot":2,"valence":"win","action":"no-go","sham":0,"trial_type":"pit-trial","trial_index":276,"time_elapsed":1339204,"internal_node_id":"0.0-247.0","task_version":"battery-v0.2-trt"},{"rune":"H","rune_set":"bacs1","hex":"#f73b6a7A","correct":-1,"choice":32,"rt":489,"accuracy":0,"outcome":"-10","keys":[1989],"total_keys":1,"block":2,"trial":240,"stimulus":10,"robot":4,"valence":"lose","action":"no-go","sham":0,"trial_type":"pit-trial","trial_index":277,"time_elapsed":1342397,"internal_node_id":"0.0-248.0","task_version":"battery-v0.2-trt"},{"view_history":"[{\"page_index\":0,\"viewing_time\":2503}]","rt":2503,"trial_type":"pit-instructions","trial_index":278,"time_elapsed":1344901,"internal_node_id":"0.0-249.0","task_version":"battery-v0.2-trt"},{"rt":10754,"responses":{"age":"27","gender-categorical":"Female","gender-free-response":"","ethnicity":"Hispanic or Latino","race":["White"],"language":"Yes","fluency":"Very well"},"survey":"demographics","trial_type":"survey-demo","trial_index":279,"time_elapsed":1355659,"internal_node_id":"0.0-250.0","task_version":"battery-v0.2-trt"},{"rt":9171,"responses":{"difficulty":"2","fun":"3","clarity":"5","strategy":"No","feedback":"No"},"survey":"debrief","trial_type":"survey-debrief","trial_index":280,"time_elapsed":1364833,"internal_node_id":"0.0-251.0","task_version":"battery-v0.2-trt","interactions":"[{\"event\":\"focus\",\"trial\":0,\"time\":0},{\"event\":\"blur\",\"trial\":3,\"time\":99775},{\"event\":\"focus\",\"trial\":3,\"time\":101763},{\"event\":\"blur\",\"trial\":4,\"time\":194415},{\"event\":\"focus\",\"trial\":4,\"time\":194767},{\"event\":\"blur\",\"trial\":4,\"time\":195699},{\"event\":\"focus\",\"trial\":4,\"time\":218390},{\"event\":\"blur\",\"trial\":4,\"time\":237960},{\"event\":\"focus\",\"trial\":4,\"time\":244818},{\"event\":\"blur\",\"trial\":4,\"time\":246589},{\"event\":\"focus\",\"trial\":4,\"time\":256866}]"}]