subject,session,block,runsheet,trial,exposure,valence,action,robot,stimulus,rune,rune_set,correct,choice,rt,accuracy,sham,outcome,total_keys
02lqpjp4pevk73p8f7ipewf9,2,1,3a,1,1,win,go,GW,3.0,K,elianto,1,1,0.853,1,0.0,+10,1
02lqpjp4pevk73p8f7ipewf9,2,1,3a,2,1,lose,go,GAL,1.0,J,elianto,1,0,,0,0.0,-10,0
02lqpjp4pevk73p8f7ipewf9,2,1,3a,3,1,lose,go,GAL,2.0,D,elianto,1,1,0.512,1,0.0,-1,1
02lqpjp4pevk73p8f7ipewf9,2,1,3a,4,1,lose,no-go,NGAL,0.0,V,elianto,0,1,0.85,0,1.0,-1,1
02lqpjp4pevk73p8f7ipewf9,2,1,3a,5,2,win,go,GW,3.0,K,elianto,1,1,0.715,1,0.0,+10,1
02lqpjp4pevk73p8f7ipewf9,2,1,3a,6,2,lose,go,GAL,1.0,J,elianto,1,1,0.308,1,1.0,-10,1
02lqpjp4pevk73p8f7ipewf9,2,1,3a,7,2,lose,go,GAL,2.0,D,elianto,1,1,0.992,1,0.0,-1,1
02lqpjp4pevk73p8f7ipewf9,2,1,3a,8,2,lose,no-go,NGAL,0.0,V,elianto,0,1,1.145,0,0.0,-10,1
02lqpjp4pevk73p8f7ipewf9,2,1,3a,9,3,win,go,GW,3.0,K,elianto,1,1,0.583,1,0.0,+10,1
02lqpjp4pevk73p8f7ipewf9,2,1,3a,10,3,lose,go,GAL,2.0,D,elianto,1,1,0.837,1,0.0,-1,1
02lqpjp4pevk73p8f7ipewf9,2,1,3a,11,3,lose,no-go,NGAL,0.0,V,elianto,0,0,,1,0.0,-1,0
02lqpjp4pevk73p8f7ipewf9,2,1,3a,12,3,lose,go,GAL,1.0,J,elianto,1,1,1.033,1,0.0,-1,1
02lqpjp4pevk73p8f7ipewf9,2,1,3a,13,4,lose,go,GAL,1.0,J,elianto,1,1,1.016,1,0.0,-1,1
02lqpjp4pevk73p8f7ipewf9,2,1,3a,14,4,lose,no-go,NGAL,0.0,V,elianto,0,0,,1,0.0,-1,0
02lqpjp4pevk73p8f7ipewf9,2,1,3a,15,4,win,go,GW,3.0,K,elianto,1,1,0.95,1,0.0,+10,1
02lqpjp4pevk73p8f7ipewf9,2,1,3a,16,4,lose,go,GAL,2.0,D,elianto,1,1,0.777,1,0.0,-1,1
02lqpjp4pevk73p8f7ipewf9,2,1,3a,17,5,lose,go,GAL,2.0,D,elianto,1,1,1.235,1,0.0,-1,1
02lqpjp4pevk73p8f7ipewf9,2,1,3a,18,5,lose,no-go,NGAL,0.0,V,elianto,0,0,,1,0.0,-1,0
02lqpjp4pevk73p8f7ipewf9,2,1,3a,19,5,win,go,GW,3.0,K,elianto,1,1,0.647,1,0.0,+10,1
02lqpjp4pevk73p8f7ipewf9,2,1,3a,20,5,lose,go,GAL,1.0,J,elianto,1,0,,0,1.0,-1,0
02lqpjp4pevk73p8f7ipewf9,2,1,3a,21,6,lose,go,GAL,1.0,J,elianto,1,0,,0,0.0,-10,0
02lqpjp4pevk73p8f7ipewf9,2,1,3a,22,6,win,go,GW,3.0,K,elianto,1,1,0.525,1,0.0,+10,1
02lqpjp4pevk73p8f7ipewf9,2,1,3a,23,6,lose,no-go,NGAL,0.0,V,elianto,0,0,,1,0.0,-1,0
02lqpjp4pevk73p8f7ipewf9,2,1,3a,24,6,lose,go,GAL,2.0,D,elianto,1,1,0.821,1,0.0,-1,1
02lqpjp4pevk73p8f7ipewf9,2,1,3a,25,7,win,go,GW,3.0,K,elianto,1,1,0.998,1,0.0,+10,1
02lqpjp4pevk73p8f7ipewf9,2,1,3a,26,7,lose,no-go,NGAL,0.0,V,elianto,0,0,,1,0.0,-1,0
02lqpjp4pevk73p8f7ipewf9,2,1,3a,27,7,lose,go,GAL,2.0,D,elianto,1,1,0.485,1,0.0,-1,1
02lqpjp4pevk73p8f7ipewf9,2,1,3a,28,7,lose,go,GAL,1.0,J,elianto,1,0,,0,0.0,-10,0
02lqpjp4pevk73p8f7ipewf9,2,1,3a,29,8,lose,go,GAL,1.0,J,elianto,1,1,0.622,1,0.0,-1,1
02lqpjp4pevk73p8f7ipewf9,2,1,3a,30,8,win,go,GW,3.0,K,elianto,1,1,0.556,1,0.0,+10,1
02lqpjp4pevk73p8f7ipewf9,2,1,3a,31,8,lose,go,GAL,2.0,D,elianto,1,1,0.527,1,0.0,-1,1
02lqpjp4pevk73p8f7ipewf9,2,1,3a,32,8,lose,no-go,NGAL,0.0,V,elianto,0,0,,1,0.0,-1,0
02lqpjp4pevk73p8f7ipewf9,2,1,3a,33,9,win,go,GW,3.0,K,elianto,1,1,0.456,1,0.0,+10,1
02lqpjp4pevk73p8f7ipewf9,2,1,3a,34,9,lose,go,GAL,1.0,J,elianto,1,0,,0,0.0,-10,0
02lqpjp4pevk73p8f7ipewf9,2,1,3a,35,1,lose,no-go,NGAL,4.0,E,elianto,0,1,1.187,0,0.0,-10,1
02lqpjp4pevk73p8f7ipewf9,2,1,3a,36,9,lose,no-go,NGAL,0.0,V,elianto,0,0,,1,1.0,-10,1
02lqpjp4pevk73p8f7ipewf9,2,1,3a,37,2,lose,no-go,NGAL,4.0,E,elianto,0,1,0.916,0,0.0,-10,1
02lqpjp4pevk73p8f7ipewf9,2,1,3a,38,10,lose,go,GAL,1.0,J,elianto,1,1,0.656,1,0.0,-1,1
02lqpjp4pevk73p8f7ipewf9,2,1,3a,39,10,lose,no-go,NGAL,0.0,V,elianto,0,0,,1,0.0,-1,0
02lqpjp4pevk73p8f7ipewf9,2,1,3a,40,10,win,go,GW,3.0,K,elianto,1,1,0.556,1,0.0,+10,1
02lqpjp4pevk73p8f7ipewf9,2,1,3a,41,3,lose,no-go,NGAL,4.0,E,elianto,0,0,,1,0.0,-1,0
02lqpjp4pevk73p8f7ipewf9,2,1,3a,42,1,win,no-go,NGW,5.0,W,elianto,0,0,,1,1.0,+1,0
02lqpjp4pevk73p8f7ipewf9,2,1,3a,43,11,lose,go,GAL,1.0,J,elianto,1,1,1.033,1,0.0,-1,1
02lqpjp4pevk73p8f7ipewf9,2,1,3a,44,11,lose,no-go,NGAL,0.0,V,elianto,0,1,0.94,0,0.0,-10,1
02lqpjp4pevk73p8f7ipewf9,2,1,3a,45,12,lose,no-go,NGAL,0.0,V,elianto,0,0,,1,0.0,-1,0
02lqpjp4pevk73p8f7ipewf9,2,1,3a,46,2,win,no-go,NGW,5.0,W,elianto,0,1,0.951,0,0.0,+1,1
02lqpjp4pevk73p8f7ipewf9,2,1,3a,47,12,lose,go,GAL,1.0,J,elianto,1,0,,0,0.0,-10,0
02lqpjp4pevk73p8f7ipewf9,2,1,3a,48,4,lose,no-go,NGAL,4.0,E,elianto,0,0,,1,0.0,-1,0
02lqpjp4pevk73p8f7ipewf9,2,1,3a,49,3,win,no-go,NGW,5.0,W,elianto,0,1,0.627,0,1.0,+10,1
02lqpjp4pevk73p8f7ipewf9,2,1,3a,50,5,lose,no-go,NGAL,4.0,E,elianto,0,0,,1,0.0,-1,0
02lqpjp4pevk73p8f7ipewf9,2,1,3a,51,1,lose,no-go,NGAL,6.0,S,elianto,0,1,1.271,0,1.0,-1,1
02lqpjp4pevk73p8f7ipewf9,2,1,3a,52,1,win,go,GW,7.0,P,elianto,1,0,,0,0.0,+1,0
02lqpjp4pevk73p8f7ipewf9,2,1,3a,53,4,win,no-go,NGW,5.0,W,elianto,0,1,0.513,0,0.0,+1,1
02lqpjp4pevk73p8f7ipewf9,2,1,3a,54,2,win,go,GW,7.0,P,elianto,1,1,0.788,1,0.0,+10,1
02lqpjp4pevk73p8f7ipewf9,2,1,3a,55,2,lose,no-go,NGAL,6.0,S,elianto,0,1,0.862,0,0.0,-10,1
02lqpjp4pevk73p8f7ipewf9,2,1,3a,56,6,lose,no-go,NGAL,4.0,E,elianto,0,1,1.066,0,1.0,-1,1
02lqpjp4pevk73p8f7ipewf9,2,1,3a,57,7,lose,no-go,NGAL,4.0,E,elianto,0,0,,1,1.0,-10,0
02lqpjp4pevk73p8f7ipewf9,2,1,3a,58,3,win,go,GW,7.0,P,elianto,1,1,0.627,1,0.0,+10,1
02lqpjp4pevk73p8f7ipewf9,2,1,3a,59,5,win,no-go,NGW,5.0,W,elianto,0,1,0.427,0,0.0,+1,1
02lqpjp4pevk73p8f7ipewf9,2,1,3a,60,3,lose,no-go,NGAL,6.0,S,elianto,0,1,0.757,0,0.0,-10,1
02lqpjp4pevk73p8f7ipewf9,2,1,3a,61,6,win,no-go,NGW,5.0,W,elianto,0,0,,1,0.0,+10,0
02lqpjp4pevk73p8f7ipewf9,2,1,3a,62,4,win,go,GW,7.0,P,elianto,1,0,,0,0.0,+1,0
02lqpjp4pevk73p8f7ipewf9,2,1,3a,63,4,lose,no-go,NGAL,6.0,S,elianto,0,1,0.701,0,0.0,-10,1
02lqpjp4pevk73p8f7ipewf9,2,1,3a,64,8,lose,no-go,NGAL,4.0,E,elianto,0,0,,1,0.0,-1,0
02lqpjp4pevk73p8f7ipewf9,2,1,3a,65,5,win,go,GW,7.0,P,elianto,1,1,0.55,1,1.0,+1,1
02lqpjp4pevk73p8f7ipewf9,2,1,3a,66,7,win,no-go,NGW,5.0,W,elianto,0,1,0.449,0,0.0,+1,1
02lqpjp4pevk73p8f7ipewf9,2,1,3a,67,5,lose,no-go,NGAL,6.0,S,elianto,0,0,,1,0.0,-1,0
02lqpjp4pevk73p8f7ipewf9,2,1,3a,68,9,lose,no-go,NGAL,4.0,E,elianto,0,0,,1,0.0,-1,0
02lqpjp4pevk73p8f7ipewf9,2,1,3a,69,10,lose,no-go,NGAL,4.0,E,elianto,0,0,,1,0.0,-1,0
02lqpjp4pevk73p8f7ipewf9,2,1,3a,70,6,win,go,GW,7.0,P,elianto,1,1,0.46,1,1.0,+1,1
02lqpjp4pevk73p8f7ipewf9,2,1,3a,71,8,win,no-go,NGW,5.0,W,elianto,0,1,0.681,0,0.0,+1,1
02lqpjp4pevk73p8f7ipewf9,2,1,3a,72,6,lose,no-go,NGAL,6.0,S,elianto,0,0,,1,0.0,-1,0
02lqpjp4pevk73p8f7ipewf9,2,1,3a,73,9,win,no-go,NGW,5.0,W,elianto,0,0,,1,0.0,+10,0
02lqpjp4pevk73p8f7ipewf9,2,1,3a,74,1,win,go,GW,8.0,G,elianto,1,1,0.838,1,0.0,+10,1
02lqpjp4pevk73p8f7ipewf9,2,1,3a,75,7,win,go,GW,7.0,P,elianto,1,0,,0,0.0,+1,0
02lqpjp4pevk73p8f7ipewf9,2,1,3a,76,7,lose,no-go,NGAL,6.0,S,elianto,0,0,,1,0.0,-1,0
02lqpjp4pevk73p8f7ipewf9,2,1,3a,77,8,win,go,GW,7.0,P,elianto,1,1,0.723,1,1.0,+1,1
02lqpjp4pevk73p8f7ipewf9,2,1,3a,78,2,win,go,GW,8.0,G,elianto,1,0,,0,0.0,+1,0
02lqpjp4pevk73p8f7ipewf9,2,1,3a,79,10,win,no-go,NGW,5.0,W,elianto,0,0,,1,0.0,+10,0
02lqpjp4pevk73p8f7ipewf9,2,1,3a,80,8,lose,no-go,NGAL,6.0,S,elianto,0,0,,1,0.0,-1,0
02lqpjp4pevk73p8f7ipewf9,2,1,3a,81,3,win,go,GW,8.0,G,elianto,1,1,0.862,1,0.0,+10,1
02lqpjp4pevk73p8f7ipewf9,2,1,3a,82,1,win,no-go,NGW,9.0,A,elianto,0,1,0.835,0,0.0,+1,1
02lqpjp4pevk73p8f7ipewf9,2,1,3a,83,1,lose,go,GAL,10.0,L,elianto,1,0,,0,0.0,-10,0
02lqpjp4pevk73p8f7ipewf9,2,1,3a,84,11,win,no-go,NGW,5.0,W,elianto,0,0,,1,1.0,+1,0
02lqpjp4pevk73p8f7ipewf9,2,1,3a,85,2,lose,go,GAL,10.0,L,elianto,1,1,1.139,1,0.0,-1,1
02lqpjp4pevk73p8f7ipewf9,2,1,3a,86,2,win,no-go,NGW,9.0,A,elianto,0,0,,1,0.0,+10,1
02lqpjp4pevk73p8f7ipewf9,2,1,3a,87,4,win,go,GW,8.0,G,elianto,1,1,0.792,1,0.0,+10,1
02lqpjp4pevk73p8f7ipewf9,2,1,3a,88,12,win,no-go,NGW,5.0,W,elianto,0,1,0.74,0,0.0,+1,1
02lqpjp4pevk73p8f7ipewf9,2,1,3a,89,5,win,go,GW,8.0,G,elianto,1,0,,0,0.0,+1,0
02lqpjp4pevk73p8f7ipewf9,2,1,3a,90,3,lose,go,GAL,10.0,L,elianto,1,1,1.013,1,0.0,-1,1
02lqpjp4pevk73p8f7ipewf9,2,1,3a,91,3,win,no-go,NGW,9.0,A,elianto,0,1,1.066,0,1.0,+10,1
02lqpjp4pevk73p8f7ipewf9,2,1,3a,92,1,win,no-go,NGW,11.0,U,elianto,0,0,,1,0.0,+10,0
02lqpjp4pevk73p8f7ipewf9,2,1,3a,93,2,win,no-go,NGW,11.0,U,elianto,0,0,,1,0.0,+10,0
02lqpjp4pevk73p8f7ipewf9,2,1,3a,94,4,win,no-go,NGW,9.0,A,elianto,0,1,0.701,0,0.0,+1,1
02lqpjp4pevk73p8f7ipewf9,2,1,3a,95,4,lose,go,GAL,10.0,L,elianto,1,0,,0,1.0,-1,0
02lqpjp4pevk73p8f7ipewf9,2,1,3a,96,6,win,go,GW,8.0,G,elianto,1,1,1.072,1,1.0,+1,1
02lqpjp4pevk73p8f7ipewf9,2,1,3a,97,5,lose,go,GAL,10.0,L,elianto,1,0,,0,0.0,-10,0
02lqpjp4pevk73p8f7ipewf9,2,1,3a,98,5,win,no-go,NGW,9.0,A,elianto,0,1,0.793,0,0.0,+1,1
02lqpjp4pevk73p8f7ipewf9,2,1,3a,99,3,win,no-go,NGW,11.0,U,elianto,0,0,,1,0.0,+10,0
02lqpjp4pevk73p8f7ipewf9,2,1,3a,100,7,win,go,GW,8.0,G,elianto,1,1,1.038,1,1.0,+1,1
02lqpjp4pevk73p8f7ipewf9,2,1,3a,101,6,win,no-go,NGW,9.0,A,elianto,0,0,,1,0.0,+10,0
02lqpjp4pevk73p8f7ipewf9,2,1,3a,102,8,win,go,GW,8.0,G,elianto,1,0,,0,0.0,+1,0
02lqpjp4pevk73p8f7ipewf9,2,1,3a,103,6,lose,go,GAL,10.0,L,elianto,1,0,,0,0.0,-10,0
02lqpjp4pevk73p8f7ipewf9,2,1,3a,104,4,win,no-go,NGW,11.0,U,elianto,0,0,,1,0.0,+10,0
02lqpjp4pevk73p8f7ipewf9,2,1,3a,105,9,win,go,GW,8.0,G,elianto,1,1,1.055,1,0.0,+10,1
02lqpjp4pevk73p8f7ipewf9,2,1,3a,106,5,win,no-go,NGW,11.0,U,elianto,0,1,0.897,0,1.0,+10,1
02lqpjp4pevk73p8f7ipewf9,2,1,3a,107,7,win,no-go,NGW,9.0,A,elianto,0,1,0.772,0,1.0,+10,1
02lqpjp4pevk73p8f7ipewf9,2,1,3a,108,7,lose,go,GAL,10.0,L,elianto,1,1,0.846,1,0.0,-1,1
02lqpjp4pevk73p8f7ipewf9,2,1,3a,109,6,win,no-go,NGW,11.0,U,elianto,0,1,1.091,0,0.0,+1,1
02lqpjp4pevk73p8f7ipewf9,2,1,3a,110,10,win,go,GW,8.0,G,elianto,1,1,0.678,1,0.0,+10,1
02lqpjp4pevk73p8f7ipewf9,2,1,3a,111,8,win,no-go,NGW,9.0,A,elianto,0,1,1.266,0,0.0,+1,1
02lqpjp4pevk73p8f7ipewf9,2,1,3a,112,8,lose,go,GAL,10.0,L,elianto,1,1,1.097,1,0.0,-1,1
02lqpjp4pevk73p8f7ipewf9,2,1,3a,113,9,lose,go,GAL,10.0,L,elianto,1,1,0.755,1,0.0,-1,1
02lqpjp4pevk73p8f7ipewf9,2,1,3a,114,11,win,go,GW,8.0,G,elianto,1,0,,0,0.0,+1,0
02lqpjp4pevk73p8f7ipewf9,2,1,3a,115,7,win,no-go,NGW,11.0,U,elianto,0,0,,1,0.0,+10,0
02lqpjp4pevk73p8f7ipewf9,2,1,3a,116,9,win,no-go,NGW,9.0,A,elianto,0,0,,1,0.0,+10,0
02lqpjp4pevk73p8f7ipewf9,2,1,3a,117,8,win,no-go,NGW,11.0,U,elianto,0,0,,1,1.0,+1,0
02lqpjp4pevk73p8f7ipewf9,2,1,3a,118,10,lose,go,GAL,10.0,L,elianto,1,0,,0,0.0,-10,0
02lqpjp4pevk73p8f7ipewf9,2,1,3a,119,12,win,go,GW,8.0,G,elianto,1,1,1.196,1,0.0,+10,1
02lqpjp4pevk73p8f7ipewf9,2,1,3a,120,10,win,no-go,NGW,9.0,A,elianto,0,0,,1,1.0,+1,0
02lqpjp4pevk73p8f7ipewf9,2,2,3a,121,1,lose,go,GAL,1.0,N,elianto,1,0,,0,0.0,-10,0
02lqpjp4pevk73p8f7ipewf9,2,2,3a,122,1,lose,no-go,NGAL,2.0,F,elianto,0,1,0.44,0,0.0,-10,1
02lqpjp4pevk73p8f7ipewf9,2,2,3a,123,1,win,no-go,NGW,3.0,X,elianto,0,1,0.652,0,0.0,+1,1
02lqpjp4pevk73p8f7ipewf9,2,2,3a,124,1,win,go,GW,0.0,Q,elianto,1,0,,0,0.0,+1,0
02lqpjp4pevk73p8f7ipewf9,2,2,3a,125,2,win,go,GW,0.0,Q,elianto,1,1,0.619,1,0.0,+10,1
02lqpjp4pevk73p8f7ipewf9,2,2,3a,126,2,lose,no-go,NGAL,2.0,F,elianto,0,0,,1,0.0,-1,0
02lqpjp4pevk73p8f7ipewf9,2,2,3a,127,2,lose,go,GAL,1.0,N,elianto,1,1,1.127,1,0.0,-1,1
02lqpjp4pevk73p8f7ipewf9,2,2,3a,128,2,win,no-go,NGW,3.0,X,elianto,0,0,,1,0.0,+10,0
02lqpjp4pevk73p8f7ipewf9,2,2,3a,129,3,lose,go,GAL,1.0,N,elianto,1,0,,0,0.0,-10,0
02lqpjp4pevk73p8f7ipewf9,2,2,3a,130,3,win,no-go,NGW,3.0,X,elianto,0,0,,1,0.0,+10,0
02lqpjp4pevk73p8f7ipewf9,2,2,3a,131,3,win,go,GW,0.0,Q,elianto,1,0,,0,0.0,+1,1
02lqpjp4pevk73p8f7ipewf9,2,2,3a,132,3,lose,no-go,NGAL,2.0,F,elianto,0,0,,1,0.0,-1,0
02lqpjp4pevk73p8f7ipewf9,2,2,3a,133,4,win,no-go,NGW,3.0,X,elianto,0,0,,1,0.0,+10,0
02lqpjp4pevk73p8f7ipewf9,2,2,3a,134,4,lose,no-go,NGAL,2.0,F,elianto,0,1,1.264,0,0.0,-10,1
02lqpjp4pevk73p8f7ipewf9,2,2,3a,135,4,win,go,GW,0.0,Q,elianto,1,0,,0,0.0,+1,0
02lqpjp4pevk73p8f7ipewf9,2,2,3a,136,4,lose,go,GAL,1.0,N,elianto,1,0,,0,0.0,-10,0
02lqpjp4pevk73p8f7ipewf9,2,2,3a,137,5,lose,go,GAL,1.0,N,elianto,1,1,0.454,1,0.0,-1,1
02lqpjp4pevk73p8f7ipewf9,2,2,3a,138,5,lose,no-go,NGAL,2.0,F,elianto,0,0,,1,0.0,-1,0
02lqpjp4pevk73p8f7ipewf9,2,2,3a,139,5,win,no-go,NGW,3.0,X,elianto,0,0,,1,1.0,+1,0
02lqpjp4pevk73p8f7ipewf9,2,2,3a,140,5,win,go,GW,0.0,Q,elianto,1,1,0.847,1,0.0,+10,1
02lqpjp4pevk73p8f7ipewf9,2,2,3a,141,6,win,go,GW,0.0,Q,elianto,1,1,0.983,1,1.0,+1,1
02lqpjp4pevk73p8f7ipewf9,2,2,3a,142,6,win,no-go,NGW,3.0,X,elianto,0,1,1.076,0,0.0,+1,1
02lqpjp4pevk73p8f7ipewf9,2,2,3a,143,6,lose,go,GAL,1.0,N,elianto,1,1,1.076,1,0.0,-1,1
02lqpjp4pevk73p8f7ipewf9,2,2,3a,144,6,lose,no-go,NGAL,2.0,F,elianto,0,0,,1,0.0,-1,0
02lqpjp4pevk73p8f7ipewf9,2,2,3a,145,7,win,go,GW,0.0,Q,elianto,1,1,0.941,1,0.0,+10,1
02lqpjp4pevk73p8f7ipewf9,2,2,3a,146,7,lose,go,GAL,1.0,N,elianto,1,1,1.165,1,0.0,-1,1
02lqpjp4pevk73p8f7ipewf9,2,2,3a,147,7,win,no-go,NGW,3.0,X,elianto,0,0,,1,0.0,+10,0
02lqpjp4pevk73p8f7ipewf9,2,2,3a,148,7,lose,no-go,NGAL,2.0,F,elianto,0,1,1.048,0,0.0,-10,1
02lqpjp4pevk73p8f7ipewf9,2,2,3a,149,8,lose,no-go,NGAL,2.0,F,elianto,0,0,,1,0.0,-1,0
02lqpjp4pevk73p8f7ipewf9,2,2,3a,150,8,lose,go,GAL,1.0,N,elianto,1,1,1.172,1,0.0,-1,1
02lqpjp4pevk73p8f7ipewf9,2,2,3a,151,8,win,no-go,NGW,3.0,X,elianto,0,1,1.049,0,0.0,+1,1
02lqpjp4pevk73p8f7ipewf9,2,2,3a,152,8,win,go,GW,0.0,Q,elianto,1,1,1.294,1,0.0,+10,1
02lqpjp4pevk73p8f7ipewf9,2,2,3a,153,9,win,go,GW,0.0,Q,elianto,1,1,0.51,1,0.0,+10,1
02lqpjp4pevk73p8f7ipewf9,2,2,3a,154,1,lose,no-go,NGAL,4.0,T,elianto,0,1,0.932,0,0.0,-10,1
02lqpjp4pevk73p8f7ipewf9,2,2,3a,155,9,win,no-go,NGW,3.0,X,elianto,0,0,,1,0.0,+10,0
02lqpjp4pevk73p8f7ipewf9,2,2,3a,156,9,lose,go,GAL,1.0,N,elianto,1,1,0.814,1,1.0,-10,1
02lqpjp4pevk73p8f7ipewf9,2,2,3a,157,10,win,go,GW,0.0,Q,elianto,1,0,,0,0.0,+1,0
02lqpjp4pevk73p8f7ipewf9,2,2,3a,158,10,win,no-go,NGW,3.0,X,elianto,0,0,,1,0.0,+10,0
02lqpjp4pevk73p8f7ipewf9,2,2,3a,159,2,lose,no-go,NGAL,4.0,T,elianto,0,1,1.128,0,0.0,-10,1
02lqpjp4pevk73p8f7ipewf9,2,2,3a,160,10,lose,go,GAL,1.0,N,elianto,1,0,,0,1.0,-1,0
02lqpjp4pevk73p8f7ipewf9,2,2,3a,161,3,lose,no-go,NGAL,4.0,T,elianto,0,0,,1,0.0,-1,0
02lqpjp4pevk73p8f7ipewf9,2,2,3a,162,11,win,no-go,NGW,3.0,X,elianto,0,1,1.18,0,0.0,+1,1
02lqpjp4pevk73p8f7ipewf9,2,2,3a,163,1,lose,go,GAL,5.0,B,elianto,1,0,,0,0.0,-10,0
02lqpjp4pevk73p8f7ipewf9,2,2,3a,164,11,win,go,GW,0.0,Q,elianto,1,0,,0,0.0,+1,0
02lqpjp4pevk73p8f7ipewf9,2,2,3a,165,2,lose,go,GAL,5.0,B,elianto,1,1,0.676,1,0.0,-1,1
02lqpjp4pevk73p8f7ipewf9,2,2,3a,166,12,win,no-go,NGW,3.0,X,elianto,0,0,,1,0.0,+10,0
02lqpjp4pevk73p8f7ipewf9,2,2,3a,167,12,win,go,GW,0.0,Q,elianto,1,0,,0,0.0,+1,0
02lqpjp4pevk73p8f7ipewf9,2,2,3a,168,4,lose,no-go,NGAL,4.0,T,elianto,0,0,,1,0.0,-1,1
02lqpjp4pevk73p8f7ipewf9,2,2,3a,169,1,win,no-go,NGW,6.0,C,elianto,0,1,1.125,0,1.0,+10,1
02lqpjp4pevk73p8f7ipewf9,2,2,3a,170,1,win,no-go,NGW,7.0,Z,elianto,0,0,,1,0.0,+10,0
02lqpjp4pevk73p8f7ipewf9,2,2,3a,171,3,lose,go,GAL,5.0,B,elianto,1,0,,0,0.0,-10,0
02lqpjp4pevk73p8f7ipewf9,2,2,3a,172,5,lose,no-go,NGAL,4.0,T,elianto,0,0,,1,0.0,-1,1
02lqpjp4pevk73p8f7ipewf9,2,2,3a,173,2,win,no-go,NGW,6.0,C,elianto,0,1,0.794,0,1.0,+10,1
02lqpjp4pevk73p8f7ipewf9,2,2,3a,174,2,win,no-go,NGW,7.0,Z,elianto,0,0,,1,0.0,+10,0
02lqpjp4pevk73p8f7ipewf9,2,2,3a,175,6,lose,no-go,NGAL,4.0,T,elianto,0,1,1.162,0,0.0,-10,1
02lqpjp4pevk73p8f7ipewf9,2,2,3a,176,4,lose,go,GAL,5.0,B,elianto,1,0,,0,0.0,-10,1
02lqpjp4pevk73p8f7ipewf9,2,2,3a,177,3,win,no-go,NGW,7.0,Z,elianto,0,0,,1,0.0,+10,0
02lqpjp4pevk73p8f7ipewf9,2,2,3a,178,7,lose,no-go,NGAL,4.0,T,elianto,0,1,1.144,0,1.0,-1,1
02lqpjp4pevk73p8f7ipewf9,2,2,3a,179,3,win,no-go,NGW,6.0,C,elianto,0,1,1.236,0,0.0,+1,1
02lqpjp4pevk73p8f7ipewf9,2,2,3a,180,5,lose,go,GAL,5.0,B,elianto,1,1,1.223,1,0.0,-1,1
02lqpjp4pevk73p8f7ipewf9,2,2,3a,181,6,lose,go,GAL,5.0,B,elianto,1,0,,0,1.0,-1,1
02lqpjp4pevk73p8f7ipewf9,2,2,3a,182,8,lose,no-go,NGAL,4.0,T,elianto,0,1,1.092,0,0.0,-10,1
02lqpjp4pevk73p8f7ipewf9,2,2,3a,183,4,win,no-go,NGW,7.0,Z,elianto,0,1,0.901,0,1.0,+10,1
02lqpjp4pevk73p8f7ipewf9,2,2,3a,184,4,win,no-go,NGW,6.0,C,elianto,0,1,0.747,0,1.0,+10,1
02lqpjp4pevk73p8f7ipewf9,2,2,3a,185,7,lose,go,GAL,5.0,B,elianto,1,1,1.06,1,0.0,-1,1
02lqpjp4pevk73p8f7ipewf9,2,2,3a,186,5,win,no-go,NGW,7.0,Z,elianto,0,1,1.093,0,0.0,+1,1
02lqpjp4pevk73p8f7ipewf9,2,2,3a,187,5,win,no-go,NGW,6.0,C,elianto,0,0,,1,0.0,+10,0
02lqpjp4pevk73p8f7ipewf9,2,2,3a,188,9,lose,no-go,NGAL,4.0,T,elianto,0,1,0.993,0,0.0,-10,1
02lqpjp4pevk73p8f7ipewf9,2,2,3a,189,6,win,no-go,NGW,7.0,Z,elianto,0,1,1.274,0,0.0,+1,1
02lqpjp4pevk73p8f7ipewf9,2,2,3a,190,8,lose,go,GAL,5.0,B,elianto,1,1,1.054,1,0.0,-1,1
02lqpjp4pevk73p8f7ipewf9,2,2,3a,191,10,lose,no-go,NGAL,4.0,T,elianto,0,0,,1,0.0,-1,0
02lqpjp4pevk73p8f7ipewf9,2,2,3a,192,6,win,no-go,NGW,6.0,C,elianto,0,0,,1,0.0,+10,0
02lqpjp4pevk73p8f7ipewf9,2,2,3a,193,9,lose,go,GAL,5.0,B,elianto,1,0,,0,0.0,-10,1
02lqpjp4pevk73p8f7ipewf9,2,2,3a,194,11,lose,no-go,NGAL,4.0,T,elianto,0,0,,1,0.0,-1,0
02lqpjp4pevk73p8f7ipewf9,2,2,3a,195,7,win,no-go,NGW,7.0,Z,elianto,0,1,1.069,0,0.0,+1,1
02lqpjp4pevk73p8f7ipewf9,2,2,3a,196,7,win,no-go,NGW,6.0,C,elianto,0,0,,1,1.0,+1,0
02lqpjp4pevk73p8f7ipewf9,2,2,3a,197,8,win,no-go,NGW,6.0,C,elianto,0,1,1.047,0,0.0,+1,1
02lqpjp4pevk73p8f7ipewf9,2,2,3a,198,12,lose,no-go,NGAL,4.0,T,elianto,0,0,,1,0.0,-1,1
02lqpjp4pevk73p8f7ipewf9,2,2,3a,199,8,win,no-go,NGW,7.0,Z,elianto,0,0,,1,1.0,+1,0
02lqpjp4pevk73p8f7ipewf9,2,2,3a,200,10,lose,go,GAL,5.0,B,elianto,1,0,,0,0.0,-10,0
02lqpjp4pevk73p8f7ipewf9,2,2,3a,201,9,win,no-go,NGW,7.0,Z,elianto,0,1,0.888,0,0.0,+1,1
02lqpjp4pevk73p8f7ipewf9,2,2,3a,202,1,win,go,GW,8.0,H,elianto,1,0,,0,0.0,+1,1
02lqpjp4pevk73p8f7ipewf9,2,2,3a,203,1,lose,no-go,NGAL,9.0,Y,elianto,0,0,,1,1.0,-10,0
02lqpjp4pevk73p8f7ipewf9,2,2,3a,204,11,lose,go,GAL,5.0,B,elianto,1,1,0.97,1,0.0,-1,1
02lqpjp4pevk73p8f7ipewf9,2,2,3a,205,12,lose,go,GAL,5.0,B,elianto,1,1,0.493,1,0.0,-1,1
02lqpjp4pevk73p8f7ipewf9,2,2,3a,206,10,win,no-go,NGW,7.0,Z,elianto,0,1,1.138,0,0.0,+1,1
02lqpjp4pevk73p8f7ipewf9,2,2,3a,207,2,win,go,GW,8.0,H,elianto,1,0,,0,0.0,+1,0
02lqpjp4pevk73p8f7ipewf9,2,2,3a,208,2,lose,no-go,NGAL,9.0,Y,elianto,0,1,0.618,0,0.0,-10,1
02lqpjp4pevk73p8f7ipewf9,2,2,3a,209,3,win,go,GW,8.0,H,elianto,1,1,1.042,1,0.0,+10,1
02lqpjp4pevk73p8f7ipewf9,2,2,3a,210,1,lose,go,GAL,10.0,R,elianto,1,0,,0,0.0,-10,0
02lqpjp4pevk73p8f7ipewf9,2,2,3a,211,1,win,go,GW,11.0,M,elianto,1,1,0.88,1,0.0,+10,1
02lqpjp4pevk73p8f7ipewf9,2,2,3a,212,3,lose,no-go,NGAL,9.0,Y,elianto,0,1,0.866,0,0.0,-10,1
02lqpjp4pevk73p8f7ipewf9,2,2,3a,213,2,lose,go,GAL,10.0,R,elianto,1,0,,0,0.0,-10,0
02lqpjp4pevk73p8f7ipewf9,2,2,3a,214,2,win,go,GW,11.0,M,elianto,1,1,0.669,1,0.0,+10,1
02lqpjp4pevk73p8f7ipewf9,2,2,3a,215,4,win,go,GW,8.0,H,elianto,1,1,0.874,1,0.0,+10,1
02lqpjp4pevk73p8f7ipewf9,2,2,3a,216,4,lose,no-go,NGAL,9.0,Y,elianto,0,0,,1,0.0,-1,0
02lqpjp4pevk73p8f7ipewf9,2,2,3a,217,5,lose,no-go,NGAL,9.0,Y,elianto,0,0,,1,0.0,-1,0
02lqpjp4pevk73p8f7ipewf9,2,2,3a,218,3,win,go,GW,11.0,M,elianto,1,1,1.042,1,0.0,+10,1
02lqpjp4pevk73p8f7ipewf9,2,2,3a,219,5,win,go,GW,8.0,H,elianto,1,1,0.818,1,1.0,+1,1
02lqpjp4pevk73p8f7ipewf9,2,2,3a,220,3,lose,go,GAL,10.0,R,elianto,1,0,,0,0.0,-10,0
02lqpjp4pevk73p8f7ipewf9,2,2,3a,221,4,win,go,GW,11.0,M,elianto,1,1,0.591,1,0.0,+10,1
02lqpjp4pevk73p8f7ipewf9,2,2,3a,222,6,lose,no-go,NGAL,9.0,Y,elianto,0,0,,1,0.0,-1,0
02lqpjp4pevk73p8f7ipewf9,2,2,3a,223,4,lose,go,GAL,10.0,R,elianto,1,1,0.577,1,0.0,-1,1
02lqpjp4pevk73p8f7ipewf9,2,2,3a,224,6,win,go,GW,8.0,H,elianto,1,0,,0,0.0,+1,0
02lqpjp4pevk73p8f7ipewf9,2,2,3a,225,7,lose,no-go,NGAL,9.0,Y,elianto,0,0,,1,0.0,-1,0
02lqpjp4pevk73p8f7ipewf9,2,2,3a,226,5,win,go,GW,11.0,M,elianto,1,1,0.497,1,0.0,+10,1
02lqpjp4pevk73p8f7ipewf9,2,2,3a,227,7,win,go,GW,8.0,H,elianto,1,1,0.74,1,0.0,+10,1
02lqpjp4pevk73p8f7ipewf9,2,2,3a,228,5,lose,go,GAL,10.0,R,elianto,1,1,1.105,1,0.0,-1,1
02lqpjp4pevk73p8f7ipewf9,2,2,3a,229,6,win,go,GW,11.0,M,elianto,1,1,0.671,1,0.0,+10,1
02lqpjp4pevk73p8f7ipewf9,2,2,3a,230,6,lose,go,GAL,10.0,R,elianto,1,1,0.711,1,0.0,-1,1
02lqpjp4pevk73p8f7ipewf9,2,2,3a,231,8,win,go,GW,8.0,H,elianto,1,1,0.732,1,0.0,+10,1
02lqpjp4pevk73p8f7ipewf9,2,2,3a,232,8,lose,no-go,NGAL,9.0,Y,elianto,0,0,,1,0.0,-1,0
02lqpjp4pevk73p8f7ipewf9,2,2,3a,233,7,lose,go,GAL,10.0,R,elianto,1,1,1.007,1,0.0,-1,1
02lqpjp4pevk73p8f7ipewf9,2,2,3a,234,9,lose,no-go,NGAL,9.0,Y,elianto,0,0,,1,0.0,-1,0
02lqpjp4pevk73p8f7ipewf9,2,2,3a,235,9,win,go,GW,8.0,H,elianto,1,1,0.357,1,0.0,+10,1
02lqpjp4pevk73p8f7ipewf9,2,2,3a,236,7,win,go,GW,11.0,M,elianto,1,1,0.365,1,0.0,+10,1
02lqpjp4pevk73p8f7ipewf9,2,2,3a,237,8,lose,go,GAL,10.0,R,elianto,1,1,1.127,1,1.0,-10,1
02lqpjp4pevk73p8f7ipewf9,2,2,3a,238,10,win,go,GW,8.0,H,elianto,1,1,0.488,1,0.0,+10,1
02lqpjp4pevk73p8f7ipewf9,2,2,3a,239,8,win,go,GW,11.0,M,elianto,1,1,0.355,1,1.0,+1,1
02lqpjp4pevk73p8f7ipewf9,2,2,3a,240,10,lose,no-go,NGAL,9.0,Y,elianto,0,0,,1,0.0,-1,0
09byk3dg92is9b06rwaybmoh,2,1,3a,1,1,win,no-go,NGW,3.0,V,bacs2,0,1,0.737,0,0.0,+1,1
09byk3dg92is9b06rwaybmoh,2,1,3a,2,1,lose,go,GAL,1.0,B,bacs2,1,0,,0,0.0,-10,0
09byk3dg92is9b06rwaybmoh,2,1,3a,3,1,lose,no-go,NGAL,2.0,K,bacs2,0,1,0.857,0,0.0,-10,1
09byk3dg92is9b06rwaybmoh,2,1,3a,4,1,win,go,GW,0.0,M,bacs2,1,1,0.86,1,1.0,+1,1
09byk3dg92is9b06rwaybmoh,2,1,3a,5,2,win,no-go,NGW,3.0,V,bacs2,0,1,0.738,0,0.0,+1,1
09byk3dg92is9b06rwaybmoh,2,1,3a,6,2,lose,no-go,NGAL,2.0,K,bacs2,0,1,0.789,0,0.0,-10,1
09byk3dg92is9b06rwaybmoh,2,1,3a,7,2,lose,go,GAL,1.0,B,bacs2,1,1,0.683,1,0.0,-1,1
09byk3dg92is9b06rwaybmoh,2,1,3a,8,2,win,go,GW,0.0,M,bacs2,1,0,,0,0.0,+1,0
09byk3dg92is9b06rwaybmoh,2,1,3a,9,3,win,no-go,NGW,3.0,V,bacs2,0,0,,1,1.0,+1,0
09byk3dg92is9b06rwaybmoh,2,1,3a,10,3,lose,no-go,NGAL,2.0,K,bacs2,0,0,,1,0.0,-1,0
09byk3dg92is9b06rwaybmoh,2,1,3a,11,3,lose,go,GAL,1.0,B,bacs2,1,1,0.665,1,0.0,-1,1
09byk3dg92is9b06rwaybmoh,2,1,3a,12,3,win,go,GW,0.0,M,bacs2,1,1,0.808,1,0.0,+10,1
09byk3dg92is9b06rwaybmoh,2,1,3a,13,4,lose,no-go,NGAL,2.0,K,bacs2,0,0,,1,0.0,-1,0
09byk3dg92is9b06rwaybmoh,2,1,3a,14,4,lose,go,GAL,1.0,B,bacs2,1,1,0.554,1,0.0,-1,1
09byk3dg92is9b06rwaybmoh,2,1,3a,15,4,win,no-go,NGW,3.0,V,bacs2,0,1,0.828,0,0.0,+1,1
09byk3dg92is9b06rwaybmoh,2,1,3a,16,4,win,go,GW,0.0,M,bacs2,1,1,0.678,1,0.0,+10,1
09byk3dg92is9b06rwaybmoh,2,1,3a,17,5,win,no-go,NGW,3.0,V,bacs2,0,0,,1,1.0,+1,1
09byk3dg92is9b06rwaybmoh,2,1,3a,18,5,lose,go,GAL,1.0,B,bacs2,1,1,0.726,1,0.0,-1,1
09byk3dg92is9b06rwaybmoh,2,1,3a,19,5,win,go,GW,0.0,M,bacs2,1,0,,0,0.0,+1,1
09byk3dg92is9b06rwaybmoh,2,1,3a,20,5,lose,no-go,NGAL,2.0,K,bacs2,0,0,,1,1.0,-10,0
09byk3dg92is9b06rwaybmoh,2,1,3a,21,6,win,no-go,NGW,3.0,V,bacs2,0,0,,1,0.0,+10,0
09byk3dg92is9b06rwaybmoh,2,1,3a,22,6,lose,no-go,NGAL,2.0,K,bacs2,0,1,0.934,0,1.0,-1,1
09byk3dg92is9b06rwaybmoh,2,1,3a,23,6,lose,go,GAL,1.0,B,bacs2,1,1,0.746,1,1.0,-10,1
09byk3dg92is9b06rwaybmoh,2,1,3a,24,6,win,go,GW,0.0,M,bacs2,1,1,0.604,1,0.0,+10,1
09byk3dg92is9b06rwaybmoh,2,1,3a,25,7,lose,no-go,NGAL,2.0,K,bacs2,0,1,0.68,0,0.0,-10,1
09byk3dg92is9b06rwaybmoh,2,1,3a,26,7,win,no-go,NGW,3.0,V,bacs2,0,1,0.649,0,0.0,+1,1
09byk3dg92is9b06rwaybmoh,2,1,3a,27,7,win,go,GW,0.0,M,bacs2,1,1,0.542,1,0.0,+10,1
09byk3dg92is9b06rwaybmoh,2,1,3a,28,7,lose,go,GAL,1.0,B,bacs2,1,1,0.825,1,0.0,-1,1
09byk3dg92is9b06rwaybmoh,2,1,3a,29,8,win,no-go,NGW,3.0,V,bacs2,0,1,0.748,0,0.0,+1,1
09byk3dg92is9b06rwaybmoh,2,1,3a,30,8,lose,go,GAL,1.0,B,bacs2,1,1,0.922,1,0.0,-1,1
09byk3dg92is9b06rwaybmoh,2,1,3a,31,8,win,go,GW,0.0,M,bacs2,1,1,0.486,1,0.0,+10,1
09byk3dg92is9b06rwaybmoh,2,1,3a,32,8,lose,no-go,NGAL,2.0,K,bacs2,0,1,0.56,0,0.0,-10,1
09byk3dg92is9b06rwaybmoh,2,1,3a,33,1,lose,no-go,NGAL,4.0,R,bacs2,0,0,,1,0.0,-1,0
09byk3dg92is9b06rwaybmoh,2,1,3a,34,9,lose,go,GAL,1.0,B,bacs2,1,1,0.607,1,0.0,-1,1
09byk3dg92is9b06rwaybmoh,2,1,3a,35,9,win,go,GW,0.0,M,bacs2,1,1,0.588,1,0.0,+10,1
09byk3dg92is9b06rwaybmoh,2,1,3a,36,9,win,no-go,NGW,3.0,V,bacs2,0,0,,1,1.0,+1,0
09byk3dg92is9b06rwaybmoh,2,1,3a,37,2,lose,no-go,NGAL,4.0,R,bacs2,0,0,,1,0.0,-1,0
09byk3dg92is9b06rwaybmoh,2,1,3a,38,10,win,go,GW,0.0,M,bacs2,1,1,0.666,1,0.0,+10,1
09byk3dg92is9b06rwaybmoh,2,1,3a,39,10,win,no-go,NGW,3.0,V,bacs2,0,1,0.847,0,0.0,+1,1
09byk3dg92is9b06rwaybmoh,2,1,3a,40,10,lose,go,GAL,1.0,B,bacs2,1,0,,0,0.0,-10,0
09byk3dg92is9b06rwaybmoh,2,1,3a,41,11,win,go,GW,0.0,M,bacs2,1,1,0.631,1,0.0,+10,1
09byk3dg92is9b06rwaybmoh,2,1,3a,42,3,lose,no-go,NGAL,4.0,R,bacs2,0,0,,1,0.0,-1,0
09byk3dg92is9b06rwaybmoh,2,1,3a,43,11,win,no-go,NGW,3.0,V,bacs2,0,0,,1,0.0,+10,0
09byk3dg92is9b06rwaybmoh,2,1,3a,44,1,lose,go,GAL,5.0,P,bacs2,1,0,,0,0.0,-10,0
09byk3dg92is9b06rwaybmoh,2,1,3a,45,12,win,no-go,NGW,3.0,V,bacs2,0,0,,1,0.0,+10,0
09byk3dg92is9b06rwaybmoh,2,1,3a,46,4,lose,no-go,NGAL,4.0,R,bacs2,0,0,,1,0.0,-1,0
09byk3dg92is9b06rwaybmoh,2,1,3a,47,12,win,go,GW,0.0,M,bacs2,1,1,1.05,1,0.0,+10,1
09byk3dg92is9b06rwaybmoh,2,1,3a,48,2,lose,go,GAL,5.0,P,bacs2,1,1,0.824,1,0.0,-1,1
09byk3dg92is9b06rwaybmoh,2,1,3a,49,1,win,no-go,NGW,6.0,L,bacs2,0,0,,1,0.0,+10,0
09byk3dg92is9b06rwaybmoh,2,1,3a,50,1,win,no-go,NGW,7.0,S,bacs2,0,0,,1,0.0,+10,0
09byk3dg92is9b06rwaybmoh,2,1,3a,51,5,lose,no-go,NGAL,4.0,R,bacs2,0,0,,1,0.0,-1,0
09byk3dg92is9b06rwaybmoh,2,1,3a,52,3,lose,go,GAL,5.0,P,bacs2,1,0,,0,0.0,-10,0
09byk3dg92is9b06rwaybmoh,2,1,3a,53,2,win,no-go,NGW,7.0,S,bacs2,0,0,,1,1.0,+1,0
09byk3dg92is9b06rwaybmoh,2,1,3a,54,2,win,no-go,NGW,6.0,L,bacs2,0,1,0.948,0,1.0,+10,1
09byk3dg92is9b06rwaybmoh,2,1,3a,55,4,lose,go,GAL,5.0,P,bacs2,1,1,0.693,1,1.0,-10,1
09byk3dg92is9b06rwaybmoh,2,1,3a,56,6,lose,no-go,NGAL,4.0,R,bacs2,0,0,,1,1.0,-10,0
09byk3dg92is9b06rwaybmoh,2,1,3a,57,7,lose,no-go,NGAL,4.0,R,bacs2,0,1,1.112,0,0.0,-10,1
09byk3dg92is9b06rwaybmoh,2,1,3a,58,3,win,no-go,NGW,6.0,L,bacs2,0,1,0.62,0,0.0,+1,1
09byk3dg92is9b06rwaybmoh,2,1,3a,59,5,lose,go,GAL,5.0,P,bacs2,1,1,0.694,1,0.0,-1,1
09byk3dg92is9b06rwaybmoh,2,1,3a,60,3,win,no-go,NGW,7.0,S,bacs2,0,0,,1,0.0,+10,0
09byk3dg92is9b06rwaybmoh,2,1,3a,61,8,lose,no-go,NGAL,4.0,R,bacs2,0,0,,1,0.0,-1,0
09byk3dg92is9b06rwaybmoh,2,1,3a,62,4,win,no-go,NGW,7.0,S,bacs2,0,0,,1,0.0,+10,0
09byk3dg92is9b06rwaybmoh,2,1,3a,63,4,win,no-go,NGW,6.0,L,bacs2,0,1,0.651,0,0.0,+1,1
09byk3dg92is9b06rwaybmoh,2,1,3a,64,6,lose,go,GAL,5.0,P,bacs2,1,1,0.747,1,1.0,-10,1
09byk3dg92is9b06rwaybmoh,2,1,3a,65,5,win,no-go,NGW,6.0,L,bacs2,0,0,,1,1.0,+1,0
09byk3dg92is9b06rwaybmoh,2,1,3a,66,7,lose,go,GAL,5.0,P,bacs2,1,0,,0,0.0,-10,0
09byk3dg92is9b06rwaybmoh,2,1,3a,67,9,lose,no-go,NGAL,4.0,R,bacs2,0,0,,1,0.0,-1,0
09byk3dg92is9b06rwaybmoh,2,1,3a,68,5,win,no-go,NGW,7.0,S,bacs2,0,0,,1,0.0,+10,0
09byk3dg92is9b06rwaybmoh,2,1,3a,69,10,lose,no-go,NGAL,4.0,R,bacs2,0,0,,1,0.0,-1,0
09byk3dg92is9b06rwaybmoh,2,1,3a,70,6,win,no-go,NGW,7.0,S,bacs2,0,0,,1,1.0,+1,0
09byk3dg92is9b06rwaybmoh,2,1,3a,71,6,win,no-go,NGW,6.0,L,bacs2,0,0,,1,0.0,+10,0
09byk3dg92is9b06rwaybmoh,2,1,3a,72,8,lose,go,GAL,5.0,P,bacs2,1,0,,0,0.0,-10,0
09byk3dg92is9b06rwaybmoh,2,1,3a,73,7,win,no-go,NGW,7.0,S,bacs2,0,0,,1,0.0,+10,0
09byk3dg92is9b06rwaybmoh,2,1,3a,74,11,lose,no-go,NGAL,4.0,R,bacs2,0,0,,1,1.0,-10,0
09byk3dg92is9b06rwaybmoh,2,1,3a,75,7,win,no-go,NGW,6.0,L,bacs2,0,0,,1,0.0,+10,0
09byk3dg92is9b06rwaybmoh,2,1,3a,76,9,lose,go,GAL,5.0,P,bacs2,1,1,0.822,1,0.0,-1,2
09byk3dg92is9b06rwaybmoh,2,1,3a,77,8,win,no-go,NGW,7.0,S,bacs2,0,0,,1,0.0,+10,0
09byk3dg92is9b06rwaybmoh,2,1,3a,78,12,lose,no-go,NGAL,4.0,R,bacs2,0,1,1.13,0,0.0,-10,1
09byk3dg92is9b06rwaybmoh,2,1,3a,79,10,lose,go,GAL,5.0,P,bacs2,1,1,1.149,1,0.0,-1,1
09byk3dg92is9b06rwaybmoh,2,1,3a,80,8,win,no-go,NGW,6.0,L,bacs2,0,0,,1,1.0,+1,0
09byk3dg92is9b06rwaybmoh,2,1,3a,81,1,win,go,GW,8.0,U,bacs2,1,0,,0,0.0,+1,0
09byk3dg92is9b06rwaybmoh,2,1,3a,82,11,lose,go,GAL,5.0,P,bacs2,1,1,0.514,1,1.0,-10,1
09byk3dg92is9b06rwaybmoh,2,1,3a,83,9,win,no-go,NGW,7.0,S,bacs2,0,0,,1,0.0,+10,0
09byk3dg92is9b06rwaybmoh,2,1,3a,84,1,lose,no-go,NGAL,9.0,A,bacs2,0,1,1.088,0,0.0,-10,1
09byk3dg92is9b06rwaybmoh,2,1,3a,85,2,lose,no-go,NGAL,9.0,A,bacs2,0,0,,1,0.0,-1,0
09byk3dg92is9b06rwaybmoh,2,1,3a,86,12,lose,go,GAL,5.0,P,bacs2,1,0,,0,0.0,-10,0
09byk3dg92is9b06rwaybmoh,2,1,3a,87,2,win,go,GW,8.0,U,bacs2,1,0,,0,0.0,+1,0
09byk3dg92is9b06rwaybmoh,2,1,3a,88,10,win,no-go,NGW,7.0,S,bacs2,0,0,,1,0.0,+10,0
09byk3dg92is9b06rwaybmoh,2,1,3a,89,1,win,go,GW,11.0,N,bacs2,1,0,,0,1.0,+10,0
09byk3dg92is9b06rwaybmoh,2,1,3a,90,3,win,go,GW,8.0,U,bacs2,1,1,0.892,1,1.0,+1,1
09byk3dg92is9b06rwaybmoh,2,1,3a,91,1,lose,go,GAL,10.0,F,bacs2,1,0,,0,0.0,-10,0
09byk3dg92is9b06rwaybmoh,2,1,3a,92,3,lose,no-go,NGAL,9.0,A,bacs2,0,0,,1,0.0,-1,0
09byk3dg92is9b06rwaybmoh,2,1,3a,93,4,win,go,GW,8.0,U,bacs2,1,1,1.258,1,1.0,+1,1
09byk3dg92is9b06rwaybmoh,2,1,3a,94,2,lose,go,GAL,10.0,F,bacs2,1,0,,0,0.0,-10,0
09byk3dg92is9b06rwaybmoh,2,1,3a,95,2,win,go,GW,11.0,N,bacs2,1,0,,0,0.0,+1,0
09byk3dg92is9b06rwaybmoh,2,1,3a,96,4,lose,no-go,NGAL,9.0,A,bacs2,0,0,,1,0.0,-1,0
09byk3dg92is9b06rwaybmoh,2,1,3a,97,5,win,go,GW,8.0,U,bacs2,1,0,,0,0.0,+1,0
09byk3dg92is9b06rwaybmoh,2,1,3a,98,3,win,go,GW,11.0,N,bacs2,1,0,,0,0.0,+1,0
09byk3dg92is9b06rwaybmoh,2,1,3a,99,5,lose,no-go,NGAL,9.0,A,bacs2,0,1,0.965,0,0.0,-10,1
09byk3dg92is9b06rwaybmoh,2,1,3a,100,3,lose,go,GAL,10.0,F,bacs2,1,1,0.967,1,0.0,-1,1
09byk3dg92is9b06rwaybmoh,2,1,3a,101,6,win,go,GW,8.0,U,bacs2,1,0,,0,0.0,+1,0
09byk3dg92is9b06rwaybmoh,2,1,3a,102,6,lose,no-go,NGAL,9.0,A,bacs2,0,0,,1,0.0,-1,0
09byk3dg92is9b06rwaybmoh,2,1,3a,103,4,win,go,GW,11.0,N,bacs2,1,0,,0,0.0,+1,0
09byk3dg92is9b06rwaybmoh,2,1,3a,104,4,lose,go,GAL,10.0,F,bacs2,1,0,,0,0.0,-10,0
09byk3dg92is9b06rwaybmoh,2,1,3a,105,5,lose,go,GAL,10.0,F,bacs2,1,1,0.651,1,0.0,-1,1
09byk3dg92is9b06rwaybmoh,2,1,3a,106,7,lose,no-go,NGAL,9.0,A,bacs2,0,0,,1,0.0,-1,0
09byk3dg92is9b06rwaybmoh,2,1,3a,107,5,win,go,GW,11.0,N,bacs2,1,0,,0,1.0,+10,0
09byk3dg92is9b06rwaybmoh,2,1,3a,108,7,win,go,GW,8.0,U,bacs2,1,0,,0,0.0,+1,0
09byk3dg92is9b06rwaybmoh,2,1,3a,109,8,win,go,GW,8.0,U,bacs2,1,0,,0,0.0,+1,0
09byk3dg92is9b06rwaybmoh,2,1,3a,110,8,lose,no-go,NGAL,9.0,A,bacs2,0,0,,1,0.0,-1,0
09byk3dg92is9b06rwaybmoh,2,1,3a,111,6,lose,go,GAL,10.0,F,bacs2,1,1,0.639,1,0.0,-1,1
09byk3dg92is9b06rwaybmoh,2,1,3a,112,6,win,go,GW,11.0,N,bacs2,1,0,,0,0.0,+1,0
09byk3dg92is9b06rwaybmoh,2,1,3a,113,9,lose,no-go,NGAL,9.0,A,bacs2,0,1,0.634,0,1.0,-1,1
09byk3dg92is9b06rwaybmoh,2,1,3a,114,7,win,go,GW,11.0,N,bacs2,1,0,,0,1.0,+10,0
09byk3dg92is9b06rwaybmoh,2,1,3a,115,7,lose,go,GAL,10.0,F,bacs2,1,0,,0,0.0,-10,0
09byk3dg92is9b06rwaybmoh,2,1,3a,116,9,win,go,GW,8.0,U,bacs2,1,1,0.713,1,0.0,+10,1
09byk3dg92is9b06rwaybmoh,2,1,3a,117,10,lose,no-go,NGAL,9.0,A,bacs2,0,0,,1,0.0,-1,0
09byk3dg92is9b06rwaybmoh,2,1,3a,118,8,win,go,GW,11.0,N,bacs2,1,0,,0,0.0,+1,0
09byk3dg92is9b06rwaybmoh,2,1,3a,119,10,win,go,GW,8.0,U,bacs2,1,0,,0,0.0,+1,0
09byk3dg92is9b06rwaybmoh,2,1,3a,120,8,lose,go,GAL,10.0,F,bacs2,1,0,,0,0.0,-10,0
09byk3dg92is9b06rwaybmoh,2,2,3a,121,1,win,go,GW,3.0,H,bacs2,1,0,,0,0.0,+1,0
09byk3dg92is9b06rwaybmoh,2,2,3a,122,1,lose,no-go,NGAL,0.0,Y,bacs2,0,0,,1,0.0,-1,0
09byk3dg92is9b06rwaybmoh,2,2,3a,123,1,lose,go,GAL,2.0,Q,bacs2,1,0,,0,1.0,-1,0
09byk3dg92is9b06rwaybmoh,2,2,3a,124,1,lose,go,GAL,1.0,T,bacs2,1,1,1.043,1,0.0,-1,1
09byk3dg92is9b06rwaybmoh,2,2,3a,125,2,lose,go,GAL,1.0,T,bacs2,1,1,0.765,1,0.0,-1,1
09byk3dg92is9b06rwaybmoh,2,2,3a,126,2,lose,no-go,NGAL,0.0,Y,bacs2,0,0,,1,0.0,-1,0
09byk3dg92is9b06rwaybmoh,2,2,3a,127,2,win,go,GW,3.0,H,bacs2,1,0,,0,0.0,+1,0
09byk3dg92is9b06rwaybmoh,2,2,3a,128,2,lose,go,GAL,2.0,Q,bacs2,1,0,,0,1.0,-1,0
09byk3dg92is9b06rwaybmoh,2,2,3a,129,3,lose,go,GAL,1.0,T,bacs2,1,1,0.857,1,0.0,-1,2
09byk3dg92is9b06rwaybmoh,2,2,3a,130,3,win,go,GW,3.0,H,bacs2,1,0,,0,0.0,+1,0
09byk3dg92is9b06rwaybmoh,2,2,3a,131,3,lose,go,GAL,2.0,Q,bacs2,1,0,,0,0.0,-10,0
09byk3dg92is9b06rwaybmoh,2,2,3a,132,3,lose,no-go,NGAL,0.0,Y,bacs2,0,0,,1,0.0,-1,0
09byk3dg92is9b06rwaybmoh,2,2,3a,133,4,lose,no-go,NGAL,0.0,Y,bacs2,0,0,,1,0.0,-1,0
09byk3dg92is9b06rwaybmoh,2,2,3a,134,4,lose,go,GAL,1.0,T,bacs2,1,1,0.769,1,1.0,-10,1
09byk3dg92is9b06rwaybmoh,2,2,3a,135,4,win,go,GW,3.0,H,bacs2,1,0,,0,0.0,+1,0
09byk3dg92is9b06rwaybmoh,2,2,3a,136,4,lose,go,GAL,2.0,Q,bacs2,1,0,,0,1.0,-1,0
09byk3dg92is9b06rwaybmoh,2,2,3a,137,5,lose,go,GAL,2.0,Q,bacs2,1,0,,0,1.0,-1,0
09byk3dg92is9b06rwaybmoh,2,2,3a,138,5,lose,go,GAL,1.0,T,bacs2,1,0,,0,0.0,-10,0
09byk3dg92is9b06rwaybmoh,2,2,3a,139,5,lose,no-go,NGAL,0.0,Y,bacs2,0,1,0.827,0,0.0,-10,1
09byk3dg92is9b06rwaybmoh,2,2,3a,140,5,win,go,GW,3.0,H,bacs2,1,0,,0,0.0,+1,0
09byk3dg92is9b06rwaybmoh,2,2,3a,141,6,lose,go,GAL,1.0,T,bacs2,1,1,1.142,1,0.0,-1,1
09byk3dg92is9b06rwaybmoh,2,2,3a,142,6,lose,no-go,NGAL,0.0,Y,bacs2,0,0,,1,0.0,-1,0
09byk3dg92is9b06rwaybmoh,2,2,3a,143,6,win,go,GW,3.0,H,bacs2,1,1,1.184,1,0.0,+10,1
09byk3dg92is9b06rwaybmoh,2,2,3a,144,6,lose,go,GAL,2.0,Q,bacs2,1,0,,0,0.0,-10,0
09byk3dg92is9b06rwaybmoh,2,2,3a,145,7,lose,go,GAL,2.0,Q,bacs2,1,1,1.028,1,0.0,-1,1
09byk3dg92is9b06rwaybmoh,2,2,3a,146,7,win,go,GW,3.0,H,bacs2,1,1,0.65,1,0.0,+10,1
09byk3dg92is9b06rwaybmoh,2,2,3a,147,7,lose,go,GAL,1.0,T,bacs2,1,0,,0,0.0,-10,0
09byk3dg92is9b06rwaybmoh,2,2,3a,148,7,lose,no-go,NGAL,0.0,Y,bacs2,0,1,0.952,0,0.0,-10,1
09byk3dg92is9b06rwaybmoh,2,2,3a,149,8,lose,go,GAL,2.0,Q,bacs2,1,1,0.831,1,0.0,-1,1
09byk3dg92is9b06rwaybmoh,2,2,3a,150,8,lose,no-go,NGAL,0.0,Y,bacs2,0,1,1.201,0,0.0,-10,1
09byk3dg92is9b06rwaybmoh,2,2,3a,151,8,win,go,GW,3.0,H,bacs2,1,0,,0,1.0,+10,1
09byk3dg92is9b06rwaybmoh,2,2,3a,152,8,lose,go,GAL,1.0,T,bacs2,1,1,1.048,1,0.0,-1,1
09byk3dg92is9b06rwaybmoh,2,2,3a,153,9,win,go,GW,3.0,H,bacs2,1,0,,0,1.0,+10,1
09byk3dg92is9b06rwaybmoh,2,2,3a,154,9,lose,go,GAL,1.0,T,bacs2,1,0,,0,0.0,-10,1
09byk3dg92is9b06rwaybmoh,2,2,3a,155,9,lose,no-go,NGAL,0.0,Y,bacs2,0,1,0.866,0,0.0,-10,1
09byk3dg92is9b06rwaybmoh,2,2,3a,156,1,lose,no-go,NGAL,4.0,E,bacs2,0,0,,1,0.0,-1,0
09byk3dg92is9b06rwaybmoh,2,2,3a,157,2,lose,no-go,NGAL,4.0,E,bacs2,0,0,,1,0.0,-1,0
09byk3dg92is9b06rwaybmoh,2,2,3a,158,10,win,go,GW,3.0,H,bacs2,1,1,0.873,1,1.0,+1,1
09byk3dg92is9b06rwaybmoh,2,2,3a,159,10,lose,no-go,NGAL,0.0,Y,bacs2,0,0,,1,0.0,-1,0
09byk3dg92is9b06rwaybmoh,2,2,3a,160,10,lose,go,GAL,1.0,T,bacs2,1,1,0.967,1,1.0,-10,1
09byk3dg92is9b06rwaybmoh,2,2,3a,161,1,win,no-go,NGW,5.0,C,bacs2,0,0,,1,0.0,+10,0
09byk3dg92is9b06rwaybmoh,2,2,3a,162,11,lose,go,GAL,1.0,T,bacs2,1,0,,0,0.0,-10,0
09byk3dg92is9b06rwaybmoh,2,2,3a,163,3,lose,no-go,NGAL,4.0,E,bacs2,0,1,0.91,0,0.0,-10,1
09byk3dg92is9b06rwaybmoh,2,2,3a,164,11,lose,no-go,NGAL,0.0,Y,bacs2,0,0,,1,0.0,-1,0
09byk3dg92is9b06rwaybmoh,2,2,3a,165,12,lose,no-go,NGAL,0.0,Y,bacs2,0,1,1.223,0,0.0,-10,1
09byk3dg92is9b06rwaybmoh,2,2,3a,166,2,win,no-go,NGW,5.0,C,bacs2,0,0,,1,0.0,+10,0
09byk3dg92is9b06rwaybmoh,2,2,3a,167,12,lose,go,GAL,1.0,T,bacs2,1,0,,0,0.0,-10,0
09byk3dg92is9b06rwaybmoh,2,2,3a,168,4,lose,no-go,NGAL,4.0,E,bacs2,0,0,,1,0.0,-1,0
09byk3dg92is9b06rwaybmoh,2,2,3a,169,5,lose,no-go,NGAL,4.0,E,bacs2,0,0,,1,1.0,-10,0
09byk3dg92is9b06rwaybmoh,2,2,3a,170,3,win,no-go,NGW,5.0,C,bacs2,0,1,1.257,0,0.0,+1,1
09byk3dg92is9b06rwaybmoh,2,2,3a,171,1,win,go,GW,7.0,G,bacs2,1,0,,0,0.0,+1,0
09byk3dg92is9b06rwaybmoh,2,2,3a,172,1,lose,no-go,NGAL,6.0,O,bacs2,0,1,0.415,0,0.0,-10,1
09byk3dg92is9b06rwaybmoh,2,2,3a,173,6,lose,no-go,NGAL,4.0,E,bacs2,0,0,,1,0.0,-1,0
09byk3dg92is9b06rwaybmoh,2,2,3a,174,2,lose,no-go,NGAL,6.0,O,bacs2,0,1,0.61,0,0.0,-10,1
09byk3dg92is9b06rwaybmoh,2,2,3a,175,2,win,go,GW,7.0,G,bacs2,1,1,0.636,1,0.0,+10,1
09byk3dg92is9b06rwaybmoh,2,2,3a,176,4,win,no-go,NGW,5.0,C,bacs2,0,0,,1,1.0,+1,0
09byk3dg92is9b06rwaybmoh,2,2,3a,177,7,lose,no-go,NGAL,4.0,E,bacs2,0,1,1.269,0,0.0,-10,1
09byk3dg92is9b06rwaybmoh,2,2,3a,178,3,win,go,GW,7.0,G,bacs2,1,0,,0,0.0,+1,0
09byk3dg92is9b06rwaybmoh,2,2,3a,179,3,lose,no-go,NGAL,6.0,O,bacs2,0,0,,1,0.0,-1,0
09byk3dg92is9b06rwaybmoh,2,2,3a,180,5,win,no-go,NGW,5.0,C,bacs2,0,0,,1,0.0,+10,0
09byk3dg92is9b06rwaybmoh,2,2,3a,181,4,lose,no-go,NGAL,6.0,O,bacs2,0,0,,1,0.0,-1,0
09byk3dg92is9b06rwaybmoh,2,2,3a,182,6,win,no-go,NGW,5.0,C,bacs2,0,0,,1,1.0,+1,0
09byk3dg92is9b06rwaybmoh,2,2,3a,183,4,win,go,GW,7.0,G,bacs2,1,0,,0,1.0,+10,0
09byk3dg92is9b06rwaybmoh,2,2,3a,184,8,lose,no-go,NGAL,4.0,E,bacs2,0,1,1.17,0,0.0,-10,1
09byk3dg92is9b06rwaybmoh,2,2,3a,185,5,win,go,GW,7.0,G,bacs2,1,0,,0,0.0,+1,0
09byk3dg92is9b06rwaybmoh,2,2,3a,186,5,lose,no-go,NGAL,6.0,O,bacs2,0,1,0.884,0,0.0,-10,1
09byk3dg92is9b06rwaybmoh,2,2,3a,187,7,win,no-go,NGW,5.0,C,bacs2,0,0,,1,0.0,+10,1
09byk3dg92is9b06rwaybmoh,2,2,3a,188,9,lose,no-go,NGAL,4.0,E,bacs2,0,0,,1,0.0,-1,0
09byk3dg92is9b06rwaybmoh,2,2,3a,189,6,win,go,GW,7.0,G,bacs2,1,0,,0,1.0,+10,0
09byk3dg92is9b06rwaybmoh,2,2,3a,190,10,lose,no-go,NGAL,4.0,E,bacs2,0,0,,1,0.0,-1,0
09byk3dg92is9b06rwaybmoh,2,2,3a,191,6,lose,no-go,NGAL,6.0,O,bacs2,0,0,,1,0.0,-1,0
09byk3dg92is9b06rwaybmoh,2,2,3a,192,8,win,no-go,NGW,5.0,C,bacs2,0,0,,1,0.0,+10,0
09byk3dg92is9b06rwaybmoh,2,2,3a,193,7,lose,no-go,NGAL,6.0,O,bacs2,0,0,,1,0.0,-1,0
09byk3dg92is9b06rwaybmoh,2,2,3a,194,9,win,no-go,NGW,5.0,C,bacs2,0,0,,1,0.0,+10,0
09byk3dg92is9b06rwaybmoh,2,2,3a,195,7,win,go,GW,7.0,G,bacs2,1,1,0.675,1,0.0,+10,1
09byk3dg92is9b06rwaybmoh,2,2,3a,196,1,win,go,GW,8.0,Z,bacs2,1,1,0.949,1,0.0,+10,1
09byk3dg92is9b06rwaybmoh,2,2,3a,197,10,win,no-go,NGW,5.0,C,bacs2,0,1,0.771,0,0.0,+1,1
09byk3dg92is9b06rwaybmoh,2,2,3a,198,8,lose,no-go,NGAL,6.0,O,bacs2,0,0,,1,0.0,-1,0
09byk3dg92is9b06rwaybmoh,2,2,3a,199,2,win,go,GW,8.0,Z,bacs2,1,1,1.075,1,0.0,+10,1
09byk3dg92is9b06rwaybmoh,2,2,3a,200,8,win,go,GW,7.0,G,bacs2,1,0,,0,0.0,+1,0
09byk3dg92is9b06rwaybmoh,2,2,3a,201,1,win,no-go,NGW,9.0,X,bacs2,0,0,,1,0.0,+10,0
09byk3dg92is9b06rwaybmoh,2,2,3a,202,11,win,no-go,NGW,5.0,C,bacs2,0,0,,1,0.0,+10,0
09byk3dg92is9b06rwaybmoh,2,2,3a,203,1,lose,go,GAL,10.0,W,bacs2,1,1,0.61,1,0.0,-1,1
09byk3dg92is9b06rwaybmoh,2,2,3a,204,3,win,go,GW,8.0,Z,bacs2,1,1,0.7,1,0.0,+10,1
09byk3dg92is9b06rwaybmoh,2,2,3a,205,2,lose,go,GAL,10.0,W,bacs2,1,1,1.085,1,0.0,-1,1
09byk3dg92is9b06rwaybmoh,2,2,3a,206,2,win,no-go,NGW,9.0,X,bacs2,0,0,,1,0.0,+10,0
09byk3dg92is9b06rwaybmoh,2,2,3a,207,12,win,no-go,NGW,5.0,C,bacs2,0,0,,1,0.0,+10,0
09byk3dg92is9b06rwaybmoh,2,2,3a,208,4,win,go,GW,8.0,Z,bacs2,1,0,,0,0.0,+1,0
09byk3dg92is9b06rwaybmoh,2,2,3a,209,3,win,no-go,NGW,9.0,X,bacs2,0,1,0.952,0,0.0,+1,1
09byk3dg92is9b06rwaybmoh,2,2,3a,210,5,win,go,GW,8.0,Z,bacs2,1,1,0.658,1,0.0,+10,1
09byk3dg92is9b06rwaybmoh,2,2,3a,211,1,win,no-go,NGW,11.0,J,bacs2,0,0,,1,0.0,+10,0
09byk3dg92is9b06rwaybmoh,2,2,3a,212,3,lose,go,GAL,10.0,W,bacs2,1,0,,0,1.0,-1,0
09byk3dg92is9b06rwaybmoh,2,2,3a,213,2,win,no-go,NGW,11.0,J,bacs2,0,0,,1,0.0,+10,0
09byk3dg92is9b06rwaybmoh,2,2,3a,214,4,lose,go,GAL,10.0,W,bacs2,1,1,0.712,1,1.0,-10,1
09byk3dg92is9b06rwaybmoh,2,2,3a,215,6,win,go,GW,8.0,Z,bacs2,1,0,,0,0.0,+1,1
09byk3dg92is9b06rwaybmoh,2,2,3a,216,4,win,no-go,NGW,9.0,X,bacs2,0,1,1.21,0,0.0,+1,1
09byk3dg92is9b06rwaybmoh,2,2,3a,217,5,lose,go,GAL,10.0,W,bacs2,1,0,,0,0.0,-10,0
09byk3dg92is9b06rwaybmoh,2,2,3a,218,7,win,go,GW,8.0,Z,bacs2,1,1,1.0,1,0.0,+10,1
09byk3dg92is9b06rwaybmoh,2,2,3a,219,3,win,no-go,NGW,11.0,J,bacs2,0,0,,1,1.0,+1,0
09byk3dg92is9b06rwaybmoh,2,2,3a,220,5,win,no-go,NGW,9.0,X,bacs2,0,0,,1,1.0,+1,0
09byk3dg92is9b06rwaybmoh,2,2,3a,221,6,lose,go,GAL,10.0,W,bacs2,1,0,,0,0.0,-10,1
09byk3dg92is9b06rwaybmoh,2,2,3a,222,8,win,go,GW,8.0,Z,bacs2,1,1,0.677,1,1.0,+1,1
09byk3dg92is9b06rwaybmoh,2,2,3a,223,4,win,no-go,NGW,11.0,J,bacs2,0,1,0.619,0,0.0,+1,1
09byk3dg92is9b06rwaybmoh,2,2,3a,224,6,win,no-go,NGW,9.0,X,bacs2,0,1,0.666,0,0.0,+1,1
09byk3dg92is9b06rwaybmoh,2,2,3a,225,5,win,no-go,NGW,11.0,J,bacs2,0,1,0.961,0,1.0,+10,1
09byk3dg92is9b06rwaybmoh,2,2,3a,226,9,win,go,GW,8.0,Z,bacs2,1,0,,0,0.0,+1,0
09byk3dg92is9b06rwaybmoh,2,2,3a,227,7,win,no-go,NGW,9.0,X,bacs2,0,1,0.934,0,1.0,+10,1
09byk3dg92is9b06rwaybmoh,2,2,3a,228,7,lose,go,GAL,10.0,W,bacs2,1,0,,0,0.0,-10,0
09byk3dg92is9b06rwaybmoh,2,2,3a,229,10,win,go,GW,8.0,Z,bacs2,1,1,0.618,1,0.0,+10,1
09byk3dg92is9b06rwaybmoh,2,2,3a,230,6,win,no-go,NGW,11.0,J,bacs2,0,1,1.244,0,0.0,+1,1
09byk3dg92is9b06rwaybmoh,2,2,3a,231,8,lose,go,GAL,10.0,W,bacs2,1,0,,0,0.0,-10,1
09byk3dg92is9b06rwaybmoh,2,2,3a,232,8,win,no-go,NGW,9.0,X,bacs2,0,0,,1,0.0,+10,0
09byk3dg92is9b06rwaybmoh,2,2,3a,233,9,win,no-go,NGW,9.0,X,bacs2,0,0,,1,0.0,+10,0
09byk3dg92is9b06rwaybmoh,2,2,3a,234,7,win,no-go,NGW,11.0,J,bacs2,0,1,0.613,0,0.0,+1,1
09byk3dg92is9b06rwaybmoh,2,2,3a,235,9,lose,go,GAL,10.0,W,bacs2,1,1,0.912,1,0.0,-1,1
09byk3dg92is9b06rwaybmoh,2,2,3a,236,11,win,go,GW,8.0,Z,bacs2,1,1,0.714,1,0.0,+10,1
09byk3dg92is9b06rwaybmoh,2,2,3a,237,10,lose,go,GAL,10.0,W,bacs2,1,1,0.727,1,0.0,-1,1
09byk3dg92is9b06rwaybmoh,2,2,3a,238,8,win,no-go,NGW,11.0,J,bacs2,0,1,0.535,0,0.0,+1,1
09byk3dg92is9b06rwaybmoh,2,2,3a,239,10,win,no-go,NGW,9.0,X,bacs2,0,1,0.691,0,0.0,+1,1
09byk3dg92is9b06rwaybmoh,2,2,3a,240,12,win,go,GW,8.0,Z,bacs2,1,0,,0,0.0,+1,0
1ahxnduc1fr21fpplm87wkk6,2,1,3a,1,1,lose,go,GAL,1.0,T,bacs2,1,1,0.832,1,0.0,-1,1
1ahxnduc1fr21fpplm87wkk6,2,1,3a,2,1,win,no-go,NGW,3.0,H,bacs2,0,1,0.781,0,0.0,+1,1
1ahxnduc1fr21fpplm87wkk6,2,1,3a,3,1,win,go,GW,0.0,Y,bacs2,1,1,0.587,1,0.0,+10,1
1ahxnduc1fr21fpplm87wkk6,2,1,3a,4,1,lose,no-go,NGAL,2.0,Q,bacs2,0,0,,1,0.0,-1,0
1ahxnduc1fr21fpplm87wkk6,2,1,3a,5,2,lose,go,GAL,1.0,T,bacs2,1,1,0.653,1,0.0,-1,1
1ahxnduc1fr21fpplm87wkk6,2,1,3a,6,2,win,no-go,NGW,3.0,H,bacs2,0,0,,1,0.0,+10,0
1ahxnduc1fr21fpplm87wkk6,2,1,3a,7,2,lose,no-go,NGAL,2.0,Q,bacs2,0,1,1.227,0,0.0,-10,1
1ahxnduc1fr21fpplm87wkk6,2,1,3a,8,2,win,go,GW,0.0,Y,bacs2,1,1,0.901,1,0.0,+10,1
1ahxnduc1fr21fpplm87wkk6,2,1,3a,9,3,lose,go,GAL,1.0,T,bacs2,1,1,0.982,1,1.0,-10,1
1ahxnduc1fr21fpplm87wkk6,2,1,3a,10,3,win,no-go,NGW,3.0,H,bacs2,0,1,1.038,0,1.0,+10,1
1ahxnduc1fr21fpplm87wkk6,2,1,3a,11,3,win,go,GW,0.0,Y,bacs2,1,0,,0,1.0,+10,0
1ahxnduc1fr21fpplm87wkk6,2,1,3a,12,3,lose,no-go,NGAL,2.0,Q,bacs2,0,1,0.867,0,0.0,-10,1
1ahxnduc1fr21fpplm87wkk6,2,1,3a,13,4,win,no-go,NGW,3.0,H,bacs2,0,0,,1,1.0,+1,1
1ahxnduc1fr21fpplm87wkk6,2,1,3a,14,4,lose,no-go,NGAL,2.0,Q,bacs2,0,1,0.796,0,1.0,-1,1
1ahxnduc1fr21fpplm87wkk6,2,1,3a,15,4,lose,go,GAL,1.0,T,bacs2,1,1,0.925,1,0.0,-1,1
1ahxnduc1fr21fpplm87wkk6,2,1,3a,16,4,win,go,GW,0.0,Y,bacs2,1,1,0.979,1,0.0,+10,1
1ahxnduc1fr21fpplm87wkk6,2,1,3a,17,5,lose,go,GAL,1.0,T,bacs2,1,1,1.079,1,0.0,-1,1
1ahxnduc1fr21fpplm87wkk6,2,1,3a,18,5,lose,no-go,NGAL,2.0,Q,bacs2,0,1,0.772,0,0.0,-10,1
1ahxnduc1fr21fpplm87wkk6,2,1,3a,19,5,win,go,GW,0.0,Y,bacs2,1,0,,0,0.0,+1,0
1ahxnduc1fr21fpplm87wkk6,2,1,3a,20,5,win,no-go,NGW,3.0,H,bacs2,0,1,0.811,0,0.0,+1,1
1ahxnduc1fr21fpplm87wkk6,2,1,3a,21,6,win,no-go,NGW,3.0,H,bacs2,0,0,,1,0.0,+10,0
1ahxnduc1fr21fpplm87wkk6,2,1,3a,22,6,lose,no-go,NGAL,2.0,Q,bacs2,0,1,1.227,0,0.0,-10,3
1ahxnduc1fr21fpplm87wkk6,2,1,3a,23,6,lose,go,GAL,1.0,T,bacs2,1,1,1.003,1,0.0,-1,1
1ahxnduc1fr21fpplm87wkk6,2,1,3a,24,6,win,go,GW,0.0,Y,bacs2,1,0,,0,1.0,+10,0
1ahxnduc1fr21fpplm87wkk6,2,1,3a,25,7,win,go,GW,0.0,Y,bacs2,1,0,,0,0.0,+1,0
1ahxnduc1fr21fpplm87wkk6,2,1,3a,26,7,win,no-go,NGW,3.0,H,bacs2,0,0,,1,0.0,+10,0
1ahxnduc1fr21fpplm87wkk6,2,1,3a,27,7,lose,no-go,NGAL,2.0,Q,bacs2,0,1,1.076,0,0.0,-10,1
1ahxnduc1fr21fpplm87wkk6,2,1,3a,28,7,lose,go,GAL,1.0,T,bacs2,1,1,0.845,1,0.0,-1,1
1ahxnduc1fr21fpplm87wkk6,2,1,3a,29,8,win,no-go,NGW,3.0,H,bacs2,0,1,0.951,0,0.0,+1,1
1ahxnduc1fr21fpplm87wkk6,2,1,3a,30,8,lose,no-go,NGAL,2.0,Q,bacs2,0,0,,1,0.0,-1,0
1ahxnduc1fr21fpplm87wkk6,2,1,3a,31,8,lose,go,GAL,1.0,T,bacs2,1,1,0.762,1,1.0,-10,1
1ahxnduc1fr21fpplm87wkk6,2,1,3a,32,8,win,go,GW,0.0,Y,bacs2,1,0,,0,0.0,+1,0
1ahxnduc1fr21fpplm87wkk6,2,1,3a,33,1,lose,no-go,NGAL,4.0,E,bacs2,0,1,0.909,0,1.0,-1,1
1ahxnduc1fr21fpplm87wkk6,2,1,3a,34,9,win,no-go,NGW,3.0,H,bacs2,0,0,,1,0.0,+10,0
1ahxnduc1fr21fpplm87wkk6,2,1,3a,35,9,win,go,GW,0.0,Y,bacs2,1,1,0.921,1,1.0,+1,1
1ahxnduc1fr21fpplm87wkk6,2,1,3a,36,9,lose,go,GAL,1.0,T,bacs2,1,1,1.11,1,0.0,-1,1
1ahxnduc1fr21fpplm87wkk6,2,1,3a,37,10,lose,go,GAL,1.0,T,bacs2,1,1,0.481,1,0.0,-1,1
1ahxnduc1fr21fpplm87wkk6,2,1,3a,38,10,win,no-go,NGW,3.0,H,bacs2,0,0,,1,0.0,+10,0
1ahxnduc1fr21fpplm87wkk6,2,1,3a,39,10,win,go,GW,0.0,Y,bacs2,1,1,0.623,1,1.0,+1,1
1ahxnduc1fr21fpplm87wkk6,2,1,3a,40,2,lose,no-go,NGAL,4.0,E,bacs2,0,0,,1,1.0,-10,0
1ahxnduc1fr21fpplm87wkk6,2,1,3a,41,11,win,no-go,NGW,3.0,H,bacs2,0,0,,1,0.0,+10,0
1ahxnduc1fr21fpplm87wkk6,2,1,3a,42,1,lose,go,GAL,5.0,C,bacs2,1,1,0.727,1,1.0,-10,1
1ahxnduc1fr21fpplm87wkk6,2,1,3a,43,3,lose,no-go,NGAL,4.0,E,bacs2,0,1,0.766,0,0.0,-10,1
1ahxnduc1fr21fpplm87wkk6,2,1,3a,44,11,win,go,GW,0.0,Y,bacs2,1,0,,0,1.0,+10,0
1ahxnduc1fr21fpplm87wkk6,2,1,3a,45,12,win,go,GW,0.0,Y,bacs2,1,0,,0,0.0,+1,0
1ahxnduc1fr21fpplm87wkk6,2,1,3a,46,4,lose,no-go,NGAL,4.0,E,bacs2,0,1,0.754,0,0.0,-10,1
1ahxnduc1fr21fpplm87wkk6,2,1,3a,47,12,win,no-go,NGW,3.0,H,bacs2,0,0,,1,0.0,+10,0
1ahxnduc1fr21fpplm87wkk6,2,1,3a,48,2,lose,go,GAL,5.0,C,bacs2,1,1,1.187,1,0.0,-1,1
1ahxnduc1fr21fpplm87wkk6,2,1,3a,49,1,win,no-go,NGW,7.0,G,bacs2,0,1,0.772,0,0.0,+1,1
1ahxnduc1fr21fpplm87wkk6,2,1,3a,50,5,lose,no-go,NGAL,4.0,E,bacs2,0,1,1.046,0,0.0,-10,1
1ahxnduc1fr21fpplm87wkk6,2,1,3a,51,1,win,no-go,NGW,6.0,O,bacs2,0,1,0.643,0,0.0,+1,1
1ahxnduc1fr21fpplm87wkk6,2,1,3a,52,3,lose,go,GAL,5.0,C,bacs2,1,0,,0,0.0,-10,0
1ahxnduc1fr21fpplm87wkk6,2,1,3a,53,2,win,no-go,NGW,6.0,O,bacs2,0,0,,1,0.0,+10,0
1ahxnduc1fr21fpplm87wkk6,2,1,3a,54,2,win,no-go,NGW,7.0,G,bacs2,0,0,,1,0.0,+10,0
1ahxnduc1fr21fpplm87wkk6,2,1,3a,55,4,lose,go,GAL,5.0,C,bacs2,1,0,,0,0.0,-10,0
1ahxnduc1fr21fpplm87wkk6,2,1,3a,56,6,lose,no-go,NGAL,4.0,E,bacs2,0,0,,1,0.0,-1,0
1ahxnduc1fr21fpplm87wkk6,2,1,3a,57,3,win,no-go,NGW,6.0,O,bacs2,0,0,,1,0.0,+10,0
1ahxnduc1fr21fpplm87wkk6,2,1,3a,58,7,lose,no-go,NGAL,4.0,E,bacs2,0,0,,1,0.0,-1,0
1ahxnduc1fr21fpplm87wkk6,2,1,3a,59,3,win,no-go,NGW,7.0,G,bacs2,0,0,,1,0.0,+10,0
1ahxnduc1fr21fpplm87wkk6,2,1,3a,60,5,lose,go,GAL,5.0,C,bacs2,1,1,0.473,1,0.0,-1,1
1ahxnduc1fr21fpplm87wkk6,2,1,3a,61,6,lose,go,GAL,5.0,C,bacs2,1,1,0.447,1,1.0,-10,1
1ahxnduc1fr21fpplm87wkk6,2,1,3a,62,4,win,no-go,NGW,7.0,G,bacs2,0,0,,1,0.0,+10,0
1ahxnduc1fr21fpplm87wkk6,2,1,3a,63,8,lose,no-go,NGAL,4.0,E,bacs2,0,0,,1,0.0,-1,0
1ahxnduc1fr21fpplm87wkk6,2,1,3a,64,4,win,no-go,NGW,6.0,O,bacs2,0,0,,1,0.0,+10,0
1ahxnduc1fr21fpplm87wkk6,2,1,3a,65,7,lose,go,GAL,5.0,C,bacs2,1,1,0.658,1,0.0,-1,1
1ahxnduc1fr21fpplm87wkk6,2,1,3a,66,9,lose,no-go,NGAL,4.0,E,bacs2,0,0,,1,0.0,-1,0
1ahxnduc1fr21fpplm87wkk6,2,1,3a,67,5,win,no-go,NGW,6.0,O,bacs2,0,0,,1,1.0,+1,0
1ahxnduc1fr21fpplm87wkk6,2,1,3a,68,5,win,no-go,NGW,7.0,G,bacs2,0,0,,1,1.0,+1,0
1ahxnduc1fr21fpplm87wkk6,2,1,3a,69,6,win,no-go,NGW,6.0,O,bacs2,0,0,,1,0.0,+10,0
1ahxnduc1fr21fpplm87wkk6,2,1,3a,70,10,lose,no-go,NGAL,4.0,E,bacs2,0,0,,1,0.0,-1,0
1ahxnduc1fr21fpplm87wkk6,2,1,3a,71,6,win,no-go,NGW,7.0,G,bacs2,0,1,0.887,0,0.0,+1,1
1ahxnduc1fr21fpplm87wkk6,2,1,3a,72,8,lose,go,GAL,5.0,C,bacs2,1,1,0.512,1,0.0,-1,1
1ahxnduc1fr21fpplm87wkk6,2,1,3a,73,11,lose,no-go,NGAL,4.0,E,bacs2,0,0,,1,0.0,-1,0
1ahxnduc1fr21fpplm87wkk6,2,1,3a,74,7,win,no-go,NGW,7.0,G,bacs2,0,1,0.521,0,1.0,+10,1
1ahxnduc1fr21fpplm87wkk6,2,1,3a,75,9,lose,go,GAL,5.0,C,bacs2,1,1,0.506,1,0.0,-1,1
1ahxnduc1fr21fpplm87wkk6,2,1,3a,76,7,win,no-go,NGW,6.0,O,bacs2,0,0,,1,0.0,+10,0
1ahxnduc1fr21fpplm87wkk6,2,1,3a,77,8,win,no-go,NGW,6.0,O,bacs2,0,0,,1,0.0,+10,0
1ahxnduc1fr21fpplm87wkk6,2,1,3a,78,8,win,no-go,NGW,7.0,G,bacs2,0,1,0.622,0,0.0,+1,1
1ahxnduc1fr21fpplm87wkk6,2,1,3a,79,10,lose,go,GAL,5.0,C,bacs2,1,1,0.444,1,0.0,-1,1
1ahxnduc1fr21fpplm87wkk6,2,1,3a,80,12,lose,no-go,NGAL,4.0,E,bacs2,0,0,,1,1.0,-10,0
1ahxnduc1fr21fpplm87wkk6,2,1,3a,81,1,lose,no-go,NGAL,9.0,X,bacs2,0,1,0.646,0,0.0,-10,1
1ahxnduc1fr21fpplm87wkk6,2,1,3a,82,9,win,no-go,NGW,7.0,G,bacs2,0,1,0.618,0,1.0,+10,1
1ahxnduc1fr21fpplm87wkk6,2,1,3a,83,1,win,go,GW,8.0,Z,bacs2,1,0,,0,0.0,+1,0
1ahxnduc1fr21fpplm87wkk6,2,1,3a,84,11,lose,go,GAL,5.0,C,bacs2,1,1,0.594,1,0.0,-1,1
1ahxnduc1fr21fpplm87wkk6,2,1,3a,85,10,win,no-go,NGW,7.0,G,bacs2,0,1,0.614,0,0.0,+1,1
1ahxnduc1fr21fpplm87wkk6,2,1,3a,86,2,win,go,GW,8.0,Z,bacs2,1,1,0.615,1,0.0,+10,1
1ahxnduc1fr21fpplm87wkk6,2,1,3a,87,12,lose,go,GAL,5.0,C,bacs2,1,1,0.476,1,0.0,-1,1
1ahxnduc1fr21fpplm87wkk6,2,1,3a,88,2,lose,no-go,NGAL,9.0,X,bacs2,0,1,0.85,0,0.0,-10,1
1ahxnduc1fr21fpplm87wkk6,2,1,3a,89,3,lose,no-go,NGAL,9.0,X,bacs2,0,0,,1,0.0,-1,0
1ahxnduc1fr21fpplm87wkk6,2,1,3a,90,1,lose,go,GAL,10.0,W,bacs2,1,0,,0,0.0,-10,0
1ahxnduc1fr21fpplm87wkk6,2,1,3a,91,3,win,go,GW,8.0,Z,bacs2,1,1,0.799,1,0.0,+10,1
1ahxnduc1fr21fpplm87wkk6,2,1,3a,92,1,win,go,GW,11.0,J,bacs2,1,0,,0,0.0,+1,0
1ahxnduc1fr21fpplm87wkk6,2,1,3a,93,4,win,go,GW,8.0,Z,bacs2,1,0,,0,0.0,+1,1
1ahxnduc1fr21fpplm87wkk6,2,1,3a,94,2,win,go,GW,11.0,J,bacs2,1,0,,0,0.0,+1,1
1ahxnduc1fr21fpplm87wkk6,2,1,3a,95,2,lose,go,GAL,10.0,W,bacs2,1,1,0.767,1,0.0,-1,1
1ahxnduc1fr21fpplm87wkk6,2,1,3a,96,4,lose,no-go,NGAL,9.0,X,bacs2,0,1,0.726,0,0.0,-10,1
1ahxnduc1fr21fpplm87wkk6,2,1,3a,97,5,win,go,GW,8.0,Z,bacs2,1,1,0.744,1,0.0,+10,1
1ahxnduc1fr21fpplm87wkk6,2,1,3a,98,3,win,go,GW,11.0,J,bacs2,1,0,,0,0.0,+1,0
1ahxnduc1fr21fpplm87wkk6,2,1,3a,99,5,lose,no-go,NGAL,9.0,X,bacs2,0,0,,1,1.0,-10,0
1ahxnduc1fr21fpplm87wkk6,2,1,3a,100,3,lose,go,GAL,10.0,W,bacs2,1,1,0.708,1,0.0,-1,1
1ahxnduc1fr21fpplm87wkk6,2,1,3a,101,4,lose,go,GAL,10.0,W,bacs2,1,1,0.495,1,0.0,-1,1
1ahxnduc1fr21fpplm87wkk6,2,1,3a,102,4,win,go,GW,11.0,J,bacs2,1,1,0.972,1,0.0,+10,1
1ahxnduc1fr21fpplm87wkk6,2,1,3a,103,6,lose,no-go,NGAL,9.0,X,bacs2,0,1,0.869,0,0.0,-10,1
1ahxnduc1fr21fpplm87wkk6,2,1,3a,104,6,win,go,GW,8.0,Z,bacs2,1,1,0.521,1,0.0,+10,1
1ahxnduc1fr21fpplm87wkk6,2,1,3a,105,5,lose,go,GAL,10.0,W,bacs2,1,1,1.124,1,0.0,-1,1
1ahxnduc1fr21fpplm87wkk6,2,1,3a,106,5,win,go,GW,11.0,J,bacs2,1,1,0.935,1,0.0,+10,1
1ahxnduc1fr21fpplm87wkk6,2,1,3a,107,7,win,go,GW,8.0,Z,bacs2,1,1,0.663,1,0.0,+10,1
1ahxnduc1fr21fpplm87wkk6,2,1,3a,108,7,lose,no-go,NGAL,9.0,X,bacs2,0,1,1.008,0,0.0,-10,1
1ahxnduc1fr21fpplm87wkk6,2,1,3a,109,8,win,go,GW,8.0,Z,bacs2,1,1,0.545,1,0.0,+10,1
1ahxnduc1fr21fpplm87wkk6,2,1,3a,110,6,lose,go,GAL,10.0,W,bacs2,1,1,0.698,1,0.0,-1,1
1ahxnduc1fr21fpplm87wkk6,2,1,3a,111,8,lose,no-go,NGAL,9.0,X,bacs2,0,1,0.485,0,0.0,-10,1
1ahxnduc1fr21fpplm87wkk6,2,1,3a,112,6,win,go,GW,11.0,J,bacs2,1,1,0.882,1,0.0,+10,1
1ahxnduc1fr21fpplm87wkk6,2,1,3a,113,7,win,go,GW,11.0,J,bacs2,1,1,0.502,1,0.0,+10,1
1ahxnduc1fr21fpplm87wkk6,2,1,3a,114,7,lose,go,GAL,10.0,W,bacs2,1,1,0.607,1,1.0,-10,1
1ahxnduc1fr21fpplm87wkk6,2,1,3a,115,9,lose,no-go,NGAL,9.0,X,bacs2,0,0,,1,1.0,-10,0
1ahxnduc1fr21fpplm87wkk6,2,1,3a,116,9,win,go,GW,8.0,Z,bacs2,1,1,0.622,1,0.0,+10,1
1ahxnduc1fr21fpplm87wkk6,2,1,3a,117,10,win,go,GW,8.0,Z,bacs2,1,1,0.516,1,0.0,+10,1
1ahxnduc1fr21fpplm87wkk6,2,1,3a,118,8,lose,go,GAL,10.0,W,bacs2,1,1,0.631,1,1.0,-10,1
1ahxnduc1fr21fpplm87wkk6,2,1,3a,119,8,win,go,GW,11.0,J,bacs2,1,1,0.755,1,0.0,+10,1
1ahxnduc1fr21fpplm87wkk6,2,1,3a,120,10,lose,no-go,NGAL,9.0,X,bacs2,0,1,0.457,0,1.0,-1,1
1ahxnduc1fr21fpplm87wkk6,2,2,3a,121,1,lose,go,GAL,1.0,F,bacs2,1,1,0.681,1,1.0,-10,1
1ahxnduc1fr21fpplm87wkk6,2,2,3a,122,1,lose,go,GAL,2.0,A,bacs2,1,1,0.534,1,0.0,-1,1
1ahxnduc1fr21fpplm87wkk6,2,2,3a,123,1,win,go,GW,3.0,U,bacs2,1,1,0.688,1,0.0,+10,1
1ahxnduc1fr21fpplm87wkk6,2,2,3a,124,1,lose,no-go,NGAL,0.0,N,bacs2,0,0,,1,1.0,-10,0
1ahxnduc1fr21fpplm87wkk6,2,2,3a,125,2,lose,go,GAL,2.0,A,bacs2,1,1,1.182,1,0.0,-1,1
1ahxnduc1fr21fpplm87wkk6,2,2,3a,126,2,lose,no-go,NGAL,0.0,N,bacs2,0,1,0.691,0,0.0,-10,1
1ahxnduc1fr21fpplm87wkk6,2,2,3a,127,2,win,go,GW,3.0,U,bacs2,1,1,1.292,1,0.0,+10,1
1ahxnduc1fr21fpplm87wkk6,2,2,3a,128,2,lose,go,GAL,1.0,F,bacs2,1,1,0.944,1,0.0,-1,1
1ahxnduc1fr21fpplm87wkk6,2,2,3a,129,3,lose,go,GAL,2.0,A,bacs2,1,1,0.91,1,1.0,-10,1
1ahxnduc1fr21fpplm87wkk6,2,2,3a,130,3,lose,go,GAL,1.0,F,bacs2,1,1,0.508,1,0.0,-1,1
1ahxnduc1fr21fpplm87wkk6,2,2,3a,131,3,win,go,GW,3.0,U,bacs2,1,1,0.584,1,0.0,+10,1
1ahxnduc1fr21fpplm87wkk6,2,2,3a,132,3,lose,no-go,NGAL,0.0,N,bacs2,0,0,,1,0.0,-1,0
1ahxnduc1fr21fpplm87wkk6,2,2,3a,133,4,lose,no-go,NGAL,0.0,N,bacs2,0,0,,1,0.0,-1,0
1ahxnduc1fr21fpplm87wkk6,2,2,3a,134,4,lose,go,GAL,1.0,F,bacs2,1,1,0.563,1,0.0,-1,1
1ahxnduc1fr21fpplm87wkk6,2,2,3a,135,4,lose,go,GAL,2.0,A,bacs2,1,1,0.792,1,0.0,-1,1
1ahxnduc1fr21fpplm87wkk6,2,2,3a,136,4,win,go,GW,3.0,U,bacs2,1,1,0.647,1,0.0,+10,1
1ahxnduc1fr21fpplm87wkk6,2,2,3a,137,5,lose,no-go,NGAL,0.0,N,bacs2,0,0,,1,1.0,-10,0
1ahxnduc1fr21fpplm87wkk6,2,2,3a,138,5,lose,go,GAL,1.0,F,bacs2,1,1,0.497,1,0.0,-1,1
1ahxnduc1fr21fpplm87wkk6,2,2,3a,139,5,win,go,GW,3.0,U,bacs2,1,1,0.529,1,0.0,+10,1
1ahxnduc1fr21fpplm87wkk6,2,2,3a,140,5,lose,go,GAL,2.0,A,bacs2,1,1,0.643,1,0.0,-1,1
1ahxnduc1fr21fpplm87wkk6,2,2,3a,141,6,lose,no-go,NGAL,0.0,N,bacs2,0,1,0.757,0,0.0,-10,1
1ahxnduc1fr21fpplm87wkk6,2,2,3a,142,6,lose,go,GAL,1.0,F,bacs2,1,1,0.503,1,1.0,-10,1
1ahxnduc1fr21fpplm87wkk6,2,2,3a,143,6,win,go,GW,3.0,U,bacs2,1,1,0.591,1,0.0,+10,1
1ahxnduc1fr21fpplm87wkk6,2,2,3a,144,6,lose,go,GAL,2.0,A,bacs2,1,1,0.652,1,0.0,-1,1
1ahxnduc1fr21fpplm87wkk6,2,2,3a,145,7,lose,go,GAL,1.0,F,bacs2,1,1,0.79,1,0.0,-1,1
1ahxnduc1fr21fpplm87wkk6,2,2,3a,146,7,lose,no-go,NGAL,0.0,N,bacs2,0,0,,1,1.0,-10,0
1ahxnduc1fr21fpplm87wkk6,2,2,3a,147,7,lose,go,GAL,2.0,A,bacs2,1,1,0.939,1,0.0,-1,1
1ahxnduc1fr21fpplm87wkk6,2,2,3a,148,7,win,go,GW,3.0,U,bacs2,1,1,0.656,1,0.0,+10,1
1ahxnduc1fr21fpplm87wkk6,2,2,3a,149,8,lose,go,GAL,2.0,A,bacs2,1,1,0.875,1,0.0,-1,1
1ahxnduc1fr21fpplm87wkk6,2,2,3a,150,8,win,go,GW,3.0,U,bacs2,1,1,0.571,1,1.0,+1,1
1ahxnduc1fr21fpplm87wkk6,2,2,3a,151,8,lose,go,GAL,1.0,F,bacs2,1,1,0.548,1,1.0,-10,1
1ahxnduc1fr21fpplm87wkk6,2,2,3a,152,8,lose,no-go,NGAL,0.0,N,bacs2,0,0,,1,0.0,-1,0
1ahxnduc1fr21fpplm87wkk6,2,2,3a,153,9,lose,go,GAL,1.0,F,bacs2,1,0,,0,1.0,-1,0
1ahxnduc1fr21fpplm87wkk6,2,2,3a,154,9,win,go,GW,3.0,U,bacs2,1,1,0.5,1,0.0,+10,1
1ahxnduc1fr21fpplm87wkk6,2,2,3a,155,9,lose,no-go,NGAL,0.0,N,bacs2,0,0,,1,1.0,-10,1
1ahxnduc1fr21fpplm87wkk6,2,2,3a,156,1,lose,no-go,NGAL,4.0,S,bacs2,0,1,1.024,0,0.0,-10,1
1ahxnduc1fr21fpplm87wkk6,2,2,3a,157,10,lose,no-go,NGAL,0.0,N,bacs2,0,0,,1,0.0,-1,0
1ahxnduc1fr21fpplm87wkk6,2,2,3a,158,10,lose,go,GAL,1.0,F,bacs2,1,1,0.747,1,1.0,-10,1
1ahxnduc1fr21fpplm87wkk6,2,2,3a,159,10,win,go,GW,3.0,U,bacs2,1,1,0.557,1,0.0,+10,1
1ahxnduc1fr21fpplm87wkk6,2,2,3a,160,2,lose,no-go,NGAL,4.0,S,bacs2,0,1,1.089,0,0.0,-10,1
1ahxnduc1fr21fpplm87wkk6,2,2,3a,161,11,lose,go,GAL,1.0,F,bacs2,1,0,,0,0.0,-10,0
1ahxnduc1fr21fpplm87wkk6,2,2,3a,162,3,lose,no-go,NGAL,4.0,S,bacs2,0,1,1.153,0,0.0,-10,1
1ahxnduc1fr21fpplm87wkk6,2,2,3a,163,11,lose,no-go,NGAL,0.0,N,bacs2,0,0,,1,0.0,-1,0
1ahxnduc1fr21fpplm87wkk6,2,2,3a,164,1,win,no-go,NGW,5.0,L,bacs2,0,0,,1,0.0,+10,0
1ahxnduc1fr21fpplm87wkk6,2,2,3a,165,12,lose,go,GAL,1.0,F,bacs2,1,1,0.883,1,0.0,-1,1
1ahxnduc1fr21fpplm87wkk6,2,2,3a,166,2,win,no-go,NGW,5.0,L,bacs2,0,0,,1,1.0,+1,1
1ahxnduc1fr21fpplm87wkk6,2,2,3a,167,12,lose,no-go,NGAL,0.0,N,bacs2,0,0,,1,0.0,-1,0
1ahxnduc1fr21fpplm87wkk6,2,2,3a,168,4,lose,no-go,NGAL,4.0,S,bacs2,0,1,1.098,0,0.0,-10,1
1ahxnduc1fr21fpplm87wkk6,2,2,3a,169,1,lose,no-go,NGAL,6.0,P,bacs2,0,0,,1,0.0,-1,0
1ahxnduc1fr21fpplm87wkk6,2,2,3a,170,5,lose,no-go,NGAL,4.0,S,bacs2,0,0,,1,1.0,-10,0
1ahxnduc1fr21fpplm87wkk6,2,2,3a,171,1,win,go,GW,7.0,R,bacs2,1,0,,0,1.0,+10,0
1ahxnduc1fr21fpplm87wkk6,2,2,3a,172,3,win,no-go,NGW,5.0,L,bacs2,0,1,1.084,0,0.0,+1,1
1ahxnduc1fr21fpplm87wkk6,2,2,3a,173,2,win,go,GW,7.0,R,bacs2,1,0,,0,0.0,+1,0
1ahxnduc1fr21fpplm87wkk6,2,2,3a,174,2,lose,no-go,NGAL,6.0,P,bacs2,0,0,,1,0.0,-1,0
1ahxnduc1fr21fpplm87wkk6,2,2,3a,175,6,lose,no-go,NGAL,4.0,S,bacs2,0,0,,1,0.0,-1,0
1ahxnduc1fr21fpplm87wkk6,2,2,3a,176,4,win,no-go,NGW,5.0,L,bacs2,0,0,,1,1.0,+1,0
1ahxnduc1fr21fpplm87wkk6,2,2,3a,177,3,win,go,GW,7.0,R,bacs2,1,1,0.789,1,0.0,+10,1
1ahxnduc1fr21fpplm87wkk6,2,2,3a,178,7,lose,no-go,NGAL,4.0,S,bacs2,0,0,,1,0.0,-1,0
1ahxnduc1fr21fpplm87wkk6,2,2,3a,179,3,lose,no-go,NGAL,6.0,P,bacs2,0,0,,1,0.0,-1,0
1ahxnduc1fr21fpplm87wkk6,2,2,3a,180,5,win,no-go,NGW,5.0,L,bacs2,0,1,0.849,0,0.0,+1,1
1ahxnduc1fr21fpplm87wkk6,2,2,3a,181,4,lose,no-go,NGAL,6.0,P,bacs2,0,0,,1,0.0,-1,0
1ahxnduc1fr21fpplm87wkk6,2,2,3a,182,4,win,go,GW,7.0,R,bacs2,1,1,0.536,1,0.0,+10,1
1ahxnduc1fr21fpplm87wkk6,2,2,3a,183,8,lose,no-go,NGAL,4.0,S,bacs2,0,0,,1,0.0,-1,0
1ahxnduc1fr21fpplm87wkk6,2,2,3a,184,6,win,no-go,NGW,5.0,L,bacs2,0,1,0.943,0,0.0,+1,1
1ahxnduc1fr21fpplm87wkk6,2,2,3a,185,5,win,go,GW,7.0,R,bacs2,1,1,0.564,1,0.0,+10,1
1ahxnduc1fr21fpplm87wkk6,2,2,3a,186,9,lose,no-go,NGAL,4.0,S,bacs2,0,0,,1,0.0,-1,0
1ahxnduc1fr21fpplm87wkk6,2,2,3a,187,5,lose,no-go,NGAL,6.0,P,bacs2,0,0,,1,0.0,-1,0
1ahxnduc1fr21fpplm87wkk6,2,2,3a,188,7,win,no-go,NGW,5.0,L,bacs2,0,1,0.634,0,1.0,+10,1
1ahxnduc1fr21fpplm87wkk6,2,2,3a,189,8,win,no-go,NGW,5.0,L,bacs2,0,1,0.579,0,0.0,+1,1
1ahxnduc1fr21fpplm87wkk6,2,2,3a,190,10,lose,no-go,NGAL,4.0,S,bacs2,0,0,,1,0.0,-1,0
1ahxnduc1fr21fpplm87wkk6,2,2,3a,191,6,win,go,GW,7.0,R,bacs2,1,1,0.537,1,0.0,+10,1
1ahxnduc1fr21fpplm87wkk6,2,2,3a,192,6,lose,no-go,NGAL,6.0,P,bacs2,0,0,,1,0.0,-1,0
1ahxnduc1fr21fpplm87wkk6,2,2,3a,193,7,lose,no-go,NGAL,6.0,P,bacs2,0,0,,1,0.0,-1,0
1ahxnduc1fr21fpplm87wkk6,2,2,3a,194,1,win,go,GW,8.0,V,bacs2,1,0,,0,0.0,+1,0
1ahxnduc1fr21fpplm87wkk6,2,2,3a,195,9,win,no-go,NGW,5.0,L,bacs2,0,1,0.61,0,1.0,+10,1
1ahxnduc1fr21fpplm87wkk6,2,2,3a,196,7,win,go,GW,7.0,R,bacs2,1,1,0.581,1,0.0,+10,1
1ahxnduc1fr21fpplm87wkk6,2,2,3a,197,2,win,go,GW,8.0,V,bacs2,1,1,0.495,1,0.0,+10,1
1ahxnduc1fr21fpplm87wkk6,2,2,3a,198,8,lose,no-go,NGAL,6.0,P,bacs2,0,0,,1,0.0,-1,0
1ahxnduc1fr21fpplm87wkk6,2,2,3a,199,10,win,no-go,NGW,5.0,L,bacs2,0,1,0.57,0,0.0,+1,1
1ahxnduc1fr21fpplm87wkk6,2,2,3a,200,8,win,go,GW,7.0,R,bacs2,1,1,0.603,1,0.0,+10,1
1ahxnduc1fr21fpplm87wkk6,2,2,3a,201,1,win,no-go,NGW,9.0,K,bacs2,0,1,0.725,0,0.0,+1,1
1ahxnduc1fr21fpplm87wkk6,2,2,3a,202,11,win,no-go,NGW,5.0,L,bacs2,0,1,0.538,0,0.0,+1,1
1ahxnduc1fr21fpplm87wkk6,2,2,3a,203,1,lose,go,GAL,10.0,B,bacs2,1,0,,0,1.0,-1,0
1ahxnduc1fr21fpplm87wkk6,2,2,3a,204,3,win,go,GW,8.0,V,bacs2,1,1,0.939,1,0.0,+10,1
1ahxnduc1fr21fpplm87wkk6,2,2,3a,205,2,lose,go,GAL,10.0,B,bacs2,1,0,,0,1.0,-1,0
1ahxnduc1fr21fpplm87wkk6,2,2,3a,206,4,win,go,GW,8.0,V,bacs2,1,1,0.83,1,0.0,+10,1
1ahxnduc1fr21fpplm87wkk6,2,2,3a,207,2,win,no-go,NGW,9.0,K,bacs2,0,0,,1,0.0,+10,0
1ahxnduc1fr21fpplm87wkk6,2,2,3a,208,12,win,no-go,NGW,5.0,L,bacs2,0,1,0.773,0,0.0,+1,1
1ahxnduc1fr21fpplm87wkk6,2,2,3a,209,3,win,no-go,NGW,9.0,K,bacs2,0,0,,1,0.0,+10,0
1ahxnduc1fr21fpplm87wkk6,2,2,3a,210,1,win,no-go,NGW,11.0,M,bacs2,0,1,1.078,0,0.0,+1,1
1ahxnduc1fr21fpplm87wkk6,2,2,3a,211,3,lose,go,GAL,10.0,B,bacs2,1,0,,0,0.0,-10,0
1ahxnduc1fr21fpplm87wkk6,2,2,3a,212,5,win,go,GW,8.0,V,bacs2,1,1,0.618,1,0.0,+10,1
1ahxnduc1fr21fpplm87wkk6,2,2,3a,213,4,lose,go,GAL,10.0,B,bacs2,1,0,,0,0.0,-10,0
1ahxnduc1fr21fpplm87wkk6,2,2,3a,214,4,win,no-go,NGW,9.0,K,bacs2,0,0,,1,0.0,+10,0
1ahxnduc1fr21fpplm87wkk6,2,2,3a,215,2,win,no-go,NGW,11.0,M,bacs2,0,1,0.778,0,1.0,+10,1
1ahxnduc1fr21fpplm87wkk6,2,2,3a,216,6,win,go,GW,8.0,V,bacs2,1,1,0.735,1,1.0,+1,1
1ahxnduc1fr21fpplm87wkk6,2,2,3a,217,3,win,no-go,NGW,11.0,M,bacs2,0,1,0.707,0,0.0,+1,1
1ahxnduc1fr21fpplm87wkk6,2,2,3a,218,5,win,no-go,NGW,9.0,K,bacs2,0,0,,1,0.0,+10,0
1ahxnduc1fr21fpplm87wkk6,2,2,3a,219,5,lose,go,GAL,10.0,B,bacs2,1,1,1.213,1,0.0,-1,1
1ahxnduc1fr21fpplm87wkk6,2,2,3a,220,7,win,go,GW,8.0,V,bacs2,1,1,0.686,1,0.0,+10,1
1ahxnduc1fr21fpplm87wkk6,2,2,3a,221,6,win,no-go,NGW,9.0,K,bacs2,0,0,,1,0.0,+10,0
1ahxnduc1fr21fpplm87wkk6,2,2,3a,222,8,win,go,GW,8.0,V,bacs2,1,1,0.855,1,1.0,+1,1
1ahxnduc1fr21fpplm87wkk6,2,2,3a,223,6,lose,go,GAL,10.0,B,bacs2,1,1,0.883,1,1.0,-10,1
1ahxnduc1fr21fpplm87wkk6,2,2,3a,224,4,win,no-go,NGW,11.0,M,bacs2,0,1,0.747,0,1.0,+10,1
1ahxnduc1fr21fpplm87wkk6,2,2,3a,225,5,win,no-go,NGW,11.0,M,bacs2,0,1,0.5,0,0.0,+1,1
1ahxnduc1fr21fpplm87wkk6,2,2,3a,226,7,win,no-go,NGW,9.0,K,bacs2,0,0,,1,0.0,+10,0
1ahxnduc1fr21fpplm87wkk6,2,2,3a,227,7,lose,go,GAL,10.0,B,bacs2,1,1,0.578,1,0.0,-1,1
1ahxnduc1fr21fpplm87wkk6,2,2,3a,228,9,win,go,GW,8.0,V,bacs2,1,1,0.575,1,0.0,+10,1
1ahxnduc1fr21fpplm87wkk6,2,2,3a,229,8,lose,go,GAL,10.0,B,bacs2,1,1,0.674,1,0.0,-1,1
1ahxnduc1fr21fpplm87wkk6,2,2,3a,230,8,win,no-go,NGW,9.0,K,bacs2,0,0,,1,0.0,+10,0
1ahxnduc1fr21fpplm87wkk6,2,2,3a,231,6,win,no-go,NGW,11.0,M,bacs2,0,1,0.562,0,1.0,+10,1
1ahxnduc1fr21fpplm87wkk6,2,2,3a,232,10,win,go,GW,8.0,V,bacs2,1,1,0.694,1,0.0,+10,1
1ahxnduc1fr21fpplm87wkk6,2,2,3a,233,11,win,go,GW,8.0,V,bacs2,1,1,0.624,1,0.0,+10,1
1ahxnduc1fr21fpplm87wkk6,2,2,3a,234,9,lose,go,GAL,10.0,B,bacs2,1,1,0.655,1,0.0,-1,1
1ahxnduc1fr21fpplm87wkk6,2,2,3a,235,9,win,no-go,NGW,9.0,K,bacs2,0,0,,1,1.0,+1,0
1ahxnduc1fr21fpplm87wkk6,2,2,3a,236,7,win,no-go,NGW,11.0,M,bacs2,0,1,0.593,0,0.0,+1,1
1ahxnduc1fr21fpplm87wkk6,2,2,3a,237,8,win,no-go,NGW,11.0,M,bacs2,0,1,0.483,0,0.0,+1,1
1ahxnduc1fr21fpplm87wkk6,2,2,3a,238,12,win,go,GW,8.0,V,bacs2,1,1,0.51,1,0.0,+10,1
1ahxnduc1fr21fpplm87wkk6,2,2,3a,239,10,lose,go,GAL,10.0,B,bacs2,1,1,0.607,1,0.0,-1,1
1ahxnduc1fr21fpplm87wkk6,2,2,3a,240,10,win,no-go,NGW,9.0,K,bacs2,0,0,,1,0.0,+10,0
1nn8ci654pmi5ny2ho1q3dxi,2,1,3a,1,1,win,go,GW,3.0,X,elianto,1,1,0.389,1,1.0,+1,1
1nn8ci654pmi5ny2ho1q3dxi,2,1,3a,2,1,lose,go,GAL,2.0,F,elianto,1,1,1.065,1,0.0,-1,1
1nn8ci654pmi5ny2ho1q3dxi,2,1,3a,3,1,lose,no-go,NGAL,0.0,Q,elianto,0,1,0.582,0,0.0,-10,1
1nn8ci654pmi5ny2ho1q3dxi,2,1,3a,4,1,lose,go,GAL,1.0,N,elianto,1,1,0.514,1,0.0,-1,1
1nn8ci654pmi5ny2ho1q3dxi,2,1,3a,5,2,lose,go,GAL,2.0,F,elianto,1,1,0.867,1,1.0,-10,1
1nn8ci654pmi5ny2ho1q3dxi,2,1,3a,6,2,lose,no-go,NGAL,0.0,Q,elianto,0,1,0.493,0,0.0,-10,1
1nn8ci654pmi5ny2ho1q3dxi,2,1,3a,7,2,lose,go,GAL,1.0,N,elianto,1,1,0.504,1,0.0,-1,1
1nn8ci654pmi5ny2ho1q3dxi,2,1,3a,8,2,win,go,GW,3.0,X,elianto,1,1,0.629,1,0.0,+10,1
1nn8ci654pmi5ny2ho1q3dxi,2,1,3a,9,3,lose,go,GAL,2.0,F,elianto,1,0,,0,0.0,-10,0
1nn8ci654pmi5ny2ho1q3dxi,2,1,3a,10,3,lose,no-go,NGAL,0.0,Q,elianto,0,1,0.525,0,0.0,-10,1
1nn8ci654pmi5ny2ho1q3dxi,2,1,3a,11,3,win,go,GW,3.0,X,elianto,1,1,0.455,1,0.0,+10,1
1nn8ci654pmi5ny2ho1q3dxi,2,1,3a,12,3,lose,go,GAL,1.0,N,elianto,1,0,,0,0.0,-10,0
1nn8ci654pmi5ny2ho1q3dxi,2,1,3a,13,4,lose,go,GAL,2.0,F,elianto,1,0,,0,0.0,-10,0
1nn8ci654pmi5ny2ho1q3dxi,2,1,3a,14,4,win,go,GW,3.0,X,elianto,1,1,0.476,1,0.0,+10,1
1nn8ci654pmi5ny2ho1q3dxi,2,1,3a,15,4,lose,go,GAL,1.0,N,elianto,1,1,0.402,1,0.0,-1,1
1nn8ci654pmi5ny2ho1q3dxi,2,1,3a,16,4,lose,no-go,NGAL,0.0,Q,elianto,0,1,0.492,0,0.0,-10,1
1nn8ci654pmi5ny2ho1q3dxi,2,1,3a,17,5,win,go,GW,3.0,X,elianto,1,1,0.415,1,1.0,+1,1
1nn8ci654pmi5ny2ho1q3dxi,2,1,3a,18,5,lose,go,GAL,1.0,N,elianto,1,1,0.556,1,0.0,-1,1
1nn8ci654pmi5ny2ho1q3dxi,2,1,3a,19,5,lose,no-go,NGAL,0.0,Q,elianto,0,0,,1,1.0,-10,0
1nn8ci654pmi5ny2ho1q3dxi,2,1,3a,20,5,lose,go,GAL,2.0,F,elianto,1,0,,0,0.0,-10,0
1nn8ci654pmi5ny2ho1q3dxi,2,1,3a,21,6,lose,go,GAL,2.0,F,elianto,1,1,0.417,1,0.0,-1,1
1nn8ci654pmi5ny2ho1q3dxi,2,1,3a,22,6,win,go,GW,3.0,X,elianto,1,1,0.308,1,1.0,+1,1
1nn8ci654pmi5ny2ho1q3dxi,2,1,3a,23,6,lose,go,GAL,1.0,N,elianto,1,0,,0,0.0,-10,0
1nn8ci654pmi5ny2ho1q3dxi,2,1,3a,24,6,lose,no-go,NGAL,0.0,Q,elianto,0,1,0.597,0,0.0,-10,1
1nn8ci654pmi5ny2ho1q3dxi,2,1,3a,25,7,lose,go,GAL,2.0,F,elianto,1,1,0.457,1,0.0,-1,1
1nn8ci654pmi5ny2ho1q3dxi,2,1,3a,26,7,win,go,GW,3.0,X,elianto,1,1,0.353,1,1.0,+1,1
1nn8ci654pmi5ny2ho1q3dxi,2,1,3a,27,7,lose,go,GAL,1.0,N,elianto,1,0,,0,1.0,-1,0
1nn8ci654pmi5ny2ho1q3dxi,2,1,3a,28,7,lose,no-go,NGAL,0.0,Q,elianto,0,1,0.657,0,0.0,-10,1
1nn8ci654pmi5ny2ho1q3dxi,2,1,3a,29,8,lose,no-go,NGAL,0.0,Q,elianto,0,0,,1,0.0,-1,0
1nn8ci654pmi5ny2ho1q3dxi,2,1,3a,30,8,lose,go,GAL,1.0,N,elianto,1,1,1.013,1,0.0,-1,1
1nn8ci654pmi5ny2ho1q3dxi,2,1,3a,31,8,win,go,GW,3.0,X,elianto,1,1,0.333,1,0.0,+10,1
1nn8ci654pmi5ny2ho1q3dxi,2,1,3a,32,8,lose,go,GAL,2.0,F,elianto,1,0,,0,0.0,-10,0
1nn8ci654pmi5ny2ho1q3dxi,2,1,3a,33,1,lose,no-go,NGAL,4.0,T,elianto,0,1,0.651,0,0.0,-10,1
1nn8ci654pmi5ny2ho1q3dxi,2,1,3a,34,9,lose,no-go,NGAL,0.0,Q,elianto,0,0,,1,0.0,-1,0
1nn8ci654pmi5ny2ho1q3dxi,2,1,3a,35,9,lose,go,GAL,1.0,N,elianto,1,1,0.971,1,0.0,-1,1
1nn8ci654pmi5ny2ho1q3dxi,2,1,3a,36,9,win,go,GW,3.0,X,elianto,1,1,0.975,1,0.0,+10,1
1nn8ci654pmi5ny2ho1q3dxi,2,1,3a,37,2,lose,no-go,NGAL,4.0,T,elianto,0,1,0.948,0,1.0,-1,1
1nn8ci654pmi5ny2ho1q3dxi,2,1,3a,38,10,lose,no-go,NGAL,0.0,Q,elianto,0,1,1.163,0,0.0,-10,1
1nn8ci654pmi5ny2ho1q3dxi,2,1,3a,39,10,win,go,GW,3.0,X,elianto,1,1,0.428,1,0.0,+10,1
1nn8ci654pmi5ny2ho1q3dxi,2,1,3a,40,10,lose,go,GAL,1.0,N,elianto,1,0,,0,0.0,-10,0
1nn8ci654pmi5ny2ho1q3dxi,2,1,3a,41,11,lose,no-go,NGAL,0.0,Q,elianto,0,1,1.135,0,0.0,-10,1
1nn8ci654pmi5ny2ho1q3dxi,2,1,3a,42,3,lose,no-go,NGAL,4.0,T,elianto,0,1,0.851,0,0.0,-10,1
1nn8ci654pmi5ny2ho1q3dxi,2,1,3a,43,1,win,no-go,NGW,5.0,B,elianto,0,1,0.686,0,0.0,+1,1
1nn8ci654pmi5ny2ho1q3dxi,2,1,3a,44,11,lose,go,GAL,1.0,N,elianto,1,0,,0,0.0,-10,0
1nn8ci654pmi5ny2ho1q3dxi,2,1,3a,45,2,win,no-go,NGW,5.0,B,elianto,0,0,,1,0.0,+10,0
1nn8ci654pmi5ny2ho1q3dxi,2,1,3a,46,4,lose,no-go,NGAL,4.0,T,elianto,0,0,,1,0.0,-1,0
1nn8ci654pmi5ny2ho1q3dxi,2,1,3a,47,12,lose,go,GAL,1.0,N,elianto,1,1,1.218,1,0.0,-1,1
1nn8ci654pmi5ny2ho1q3dxi,2,1,3a,48,12,lose,no-go,NGAL,0.0,Q,elianto,0,1,0.891,0,0.0,-10,1
1nn8ci654pmi5ny2ho1q3dxi,2,1,3a,49,5,lose,no-go,NGAL,4.0,T,elianto,0,0,,1,0.0,-1,0
1nn8ci654pmi5ny2ho1q3dxi,2,1,3a,50,3,win,no-go,NGW,5.0,B,elianto,0,0,,1,1.0,+1,0
1nn8ci654pmi5ny2ho1q3dxi,2,1,3a,51,1,lose,no-go,NGAL,6.0,C,elianto,0,1,0.706,0,0.0,-10,1
1nn8ci654pmi5ny2ho1q3dxi,2,1,3a,52,1,win,go,GW,7.0,Z,elianto,1,1,0.736,1,0.0,+10,1
1nn8ci654pmi5ny2ho1q3dxi,2,1,3a,53,4,win,no-go,NGW,5.0,B,elianto,0,0,,1,1.0,+1,0
1nn8ci654pmi5ny2ho1q3dxi,2,1,3a,54,6,lose,no-go,NGAL,4.0,T,elianto,0,0,,1,1.0,-10,0
1nn8ci654pmi5ny2ho1q3dxi,2,1,3a,55,2,win,go,GW,7.0,Z,elianto,1,1,0.559,1,0.0,+10,1
1nn8ci654pmi5ny2ho1q3dxi,2,1,3a,56,2,lose,no-go,NGAL,6.0,C,elianto,0,1,0.925,0,0.0,-10,1
1nn8ci654pmi5ny2ho1q3dxi,2,1,3a,57,7,lose,no-go,NGAL,4.0,T,elianto,0,0,,1,0.0,-1,0
1nn8ci654pmi5ny2ho1q3dxi,2,1,3a,58,3,lose,no-go,NGAL,6.0,C,elianto,0,0,,1,0.0,-1,0
1nn8ci654pmi5ny2ho1q3dxi,2,1,3a,59,3,win,go,GW,7.0,Z,elianto,1,1,0.506,1,0.0,+10,1
1nn8ci654pmi5ny2ho1q3dxi,2,1,3a,60,5,win,no-go,NGW,5.0,B,elianto,0,0,,1,0.0,+10,0
1nn8ci654pmi5ny2ho1q3dxi,2,1,3a,61,4,win,go,GW,7.0,Z,elianto,1,1,0.628,1,0.0,+10,1
1nn8ci654pmi5ny2ho1q3dxi,2,1,3a,62,8,lose,no-go,NGAL,4.0,T,elianto,0,0,,1,1.0,-10,0
1nn8ci654pmi5ny2ho1q3dxi,2,1,3a,63,4,lose,no-go,NGAL,6.0,C,elianto,0,0,,1,0.0,-1,0
1nn8ci654pmi5ny2ho1q3dxi,2,1,3a,64,6,win,no-go,NGW,5.0,B,elianto,0,1,0.602,0,0.0,+1,1
1nn8ci654pmi5ny2ho1q3dxi,2,1,3a,65,5,win,go,GW,7.0,Z,elianto,1,1,0.652,1,0.0,+10,1
1nn8ci654pmi5ny2ho1q3dxi,2,1,3a,66,9,lose,no-go,NGAL,4.0,T,elianto,0,1,0.697,0,0.0,-10,1
1nn8ci654pmi5ny2ho1q3dxi,2,1,3a,67,7,win,no-go,NGW,5.0,B,elianto,0,0,,1,0.0,+10,0
1nn8ci654pmi5ny2ho1q3dxi,2,1,3a,68,5,lose,no-go,NGAL,6.0,C,elianto,0,0,,1,0.0,-1,0
1nn8ci654pmi5ny2ho1q3dxi,2,1,3a,69,6,lose,no-go,NGAL,6.0,C,elianto,0,0,,1,0.0,-1,0
1nn8ci654pmi5ny2ho1q3dxi,2,1,3a,70,10,lose,no-go,NGAL,4.0,T,elianto,0,1,0.742,0,0.0,-10,1
1nn8ci654pmi5ny2ho1q3dxi,2,1,3a,71,6,win,go,GW,7.0,Z,elianto,1,1,0.628,1,0.0,+10,1
1nn8ci654pmi5ny2ho1q3dxi,2,1,3a,72,8,win,no-go,NGW,5.0,B,elianto,0,0,,1,1.0,+1,0
1nn8ci654pmi5ny2ho1q3dxi,2,1,3a,73,9,win,no-go,NGW,5.0,B,elianto,0,0,,1,0.0,+10,0
1nn8ci654pmi5ny2ho1q3dxi,2,1,3a,74,1,win,go,GW,8.0,H,elianto,1,1,0.526,1,0.0,+10,1
1nn8ci654pmi5ny2ho1q3dxi,2,1,3a,75,7,win,go,GW,7.0,Z,elianto,1,1,0.524,1,0.0,+10,1
1nn8ci654pmi5ny2ho1q3dxi,2,1,3a,76,7,lose,no-go,NGAL,6.0,C,elianto,0,0,,1,0.0,-1,0
1nn8ci654pmi5ny2ho1q3dxi,2,1,3a,77,2,win,go,GW,8.0,H,elianto,1,1,0.687,1,0.0,+10,1
1nn8ci654pmi5ny2ho1q3dxi,2,1,3a,78,10,win,no-go,NGW,5.0,B,elianto,0,0,,1,0.0,+10,0
1nn8ci654pmi5ny2ho1q3dxi,2,1,3a,79,8,lose,no-go,NGAL,6.0,C,elianto,0,0,,1,0.0,-1,0
1nn8ci654pmi5ny2ho1q3dxi,2,1,3a,80,8,win,go,GW,7.0,Z,elianto,1,1,0.728,1,1.0,+1,1
1nn8ci654pmi5ny2ho1q3dxi,2,1,3a,81,11,win,no-go,NGW,5.0,B,elianto,0,0,,1,0.0,+10,0
1nn8ci654pmi5ny2ho1q3dxi,2,1,3a,82,1,lose,go,GAL,10.0,R,elianto,1,1,0.606,1,0.0,-1,1
1nn8ci654pmi5ny2ho1q3dxi,2,1,3a,83,1,win,no-go,NGW,9.0,Y,elianto,0,1,0.688,0,1.0,+10,1
1nn8ci654pmi5ny2ho1q3dxi,2,1,3a,84,3,win,go,GW,8.0,H,elianto,1,1,0.682,1,0.0,+10,1
1nn8ci654pmi5ny2ho1q3dxi,2,1,3a,85,12,win,no-go,NGW,5.0,B,elianto,0,0,,1,0.0,+10,0
1nn8ci654pmi5ny2ho1q3dxi,2,1,3a,86,2,win,no-go,NGW,9.0,Y,elianto,0,1,0.446,0,0.0,+1,1
1nn8ci654pmi5ny2ho1q3dxi,2,1,3a,87,4,win,go,GW,8.0,H,elianto,1,1,0.576,1,0.0,+10,1
1nn8ci654pmi5ny2ho1q3dxi,2,1,3a,88,2,lose,go,GAL,10.0,R,elianto,1,0,,0,0.0,-10,0
1nn8ci654pmi5ny2ho1q3dxi,2,1,3a,89,1,win,no-go,NGW,11.0,M,elianto,0,1,0.528,0,0.0,+1,1
1nn8ci654pmi5ny2ho1q3dxi,2,1,3a,90,3,lose,go,GAL,10.0,R,elianto,1,1,0.799,1,0.0,-1,1
1nn8ci654pmi5ny2ho1q3dxi,2,1,3a,91,3,win,no-go,NGW,9.0,Y,elianto,0,1,0.682,0,0.0,+1,1
1nn8ci654pmi5ny2ho1q3dxi,2,1,3a,92,5,win,go,GW,8.0,H,elianto,1,1,0.509,1,1.0,+1,1
1nn8ci654pmi5ny2ho1q3dxi,2,1,3a,93,6,win,go,GW,8.0,H,elianto,1,0,,0,0.0,+1,0
1nn8ci654pmi5ny2ho1q3dxi,2,1,3a,94,4,lose,go,GAL,10.0,R,elianto,1,1,0.751,1,0.0,-1,1
1nn8ci654pmi5ny2ho1q3dxi,2,1,3a,95,2,win,no-go,NGW,11.0,M,elianto,0,1,0.551,0,0.0,+1,1
1nn8ci654pmi5ny2ho1q3dxi,2,1,3a,96,4,win,no-go,NGW,9.0,Y,elianto,0,0,,1,0.0,+10,0
1nn8ci654pmi5ny2ho1q3dxi,2,1,3a,97,5,win,no-go,NGW,9.0,Y,elianto,0,1,0.848,0,0.0,+1,1
1nn8ci654pmi5ny2ho1q3dxi,2,1,3a,98,5,lose,go,GAL,10.0,R,elianto,1,1,0.517,1,0.0,-1,1
1nn8ci654pmi5ny2ho1q3dxi,2,1,3a,99,3,win,no-go,NGW,11.0,M,elianto,0,0,,1,0.0,+10,0
1nn8ci654pmi5ny2ho1q3dxi,2,1,3a,100,7,win,go,GW,8.0,H,elianto,1,1,0.866,1,0.0,+10,1
1nn8ci654pmi5ny2ho1q3dxi,2,1,3a,101,8,win,go,GW,8.0,H,elianto,1,1,0.477,1,1.0,+1,1
1nn8ci654pmi5ny2ho1q3dxi,2,1,3a,102,6,lose,go,GAL,10.0,R,elianto,1,1,0.588,1,0.0,-1,1
1nn8ci654pmi5ny2ho1q3dxi,2,1,3a,103,6,win,no-go,NGW,9.0,Y,elianto,0,0,,1,0.0,+10,0
1nn8ci654pmi5ny2ho1q3dxi,2,1,3a,104,4,win,no-go,NGW,11.0,M,elianto,0,0,,1,0.0,+10,0
1nn8ci654pmi5ny2ho1q3dxi,2,1,3a,105,7,lose,go,GAL,10.0,R,elianto,1,1,0.59,1,0.0,-1,1
1nn8ci654pmi5ny2ho1q3dxi,2,1,3a,106,7,win,no-go,NGW,9.0,Y,elianto,0,0,,1,0.0,+10,0
1nn8ci654pmi5ny2ho1q3dxi,2,1,3a,107,9,win,go,GW,8.0,H,elianto,1,0,,0,1.0,+10,0
1nn8ci654pmi5ny2ho1q3dxi,2,1,3a,108,5,win,no-go,NGW,11.0,M,elianto,0,0,,1,0.0,+10,0
1nn8ci654pmi5ny2ho1q3dxi,2,1,3a,109,8,lose,go,GAL,10.0,R,elianto,1,1,0.341,1,0.0,-1,1
1nn8ci654pmi5ny2ho1q3dxi,2,1,3a,110,10,win,go,GW,8.0,H,elianto,1,0,,0,1.0,+10,0
1nn8ci654pmi5ny2ho1q3dxi,2,1,3a,111,6,win,no-go,NGW,11.0,M,elianto,0,0,,1,0.0,+10,0
1nn8ci654pmi5ny2ho1q3dxi,2,1,3a,112,8,win,no-go,NGW,9.0,Y,elianto,0,0,,1,0.0,+10,0
1nn8ci654pmi5ny2ho1q3dxi,2,1,3a,113,9,lose,go,GAL,10.0,R,elianto,1,1,0.327,1,0.0,-1,1
1nn8ci654pmi5ny2ho1q3dxi,2,1,3a,114,7,win,no-go,NGW,11.0,M,elianto,0,0,,1,0.0,+10,0
1nn8ci654pmi5ny2ho1q3dxi,2,1,3a,115,9,win,no-go,NGW,9.0,Y,elianto,0,0,,1,0.0,+10,0
1nn8ci654pmi5ny2ho1q3dxi,2,1,3a,116,11,win,go,GW,8.0,H,elianto,1,0,,0,0.0,+1,0
1nn8ci654pmi5ny2ho1q3dxi,2,1,3a,117,10,win,no-go,NGW,9.0,Y,elianto,0,0,,1,0.0,+10,0
1nn8ci654pmi5ny2ho1q3dxi,2,1,3a,118,10,lose,go,GAL,10.0,R,elianto,1,1,0.513,1,0.0,-1,1
1nn8ci654pmi5ny2ho1q3dxi,2,1,3a,119,8,win,no-go,NGW,11.0,M,elianto,0,0,,1,0.0,+10,0
1nn8ci654pmi5ny2ho1q3dxi,2,1,3a,120,12,win,go,GW,8.0,H,elianto,1,0,,0,0.0,+1,0
1nn8ci654pmi5ny2ho1q3dxi,2,2,3a,121,1,lose,go,GAL,1.0,J,elianto,1,1,0.315,1,1.0,-10,1
1nn8ci654pmi5ny2ho1q3dxi,2,2,3a,122,1,lose,no-go,NGAL,2.0,D,elianto,0,1,0.459,0,0.0,-10,1
1nn8ci654pmi5ny2ho1q3dxi,2,2,3a,123,1,win,no-go,NGW,3.0,K,elianto,0,1,0.567,0,0.0,+1,1
1nn8ci654pmi5ny2ho1q3dxi,2,2,3a,124,1,win,go,GW,0.0,V,elianto,1,1,0.545,1,0.0,+10,1
1nn8ci654pmi5ny2ho1q3dxi,2,2,3a,125,2,win,go,GW,0.0,V,elianto,1,1,0.531,1,0.0,+10,1
1nn8ci654pmi5ny2ho1q3dxi,2,2,3a,126,2,win,no-go,NGW,3.0,K,elianto,0,1,0.604,0,0.0,+1,1
1nn8ci654pmi5ny2ho1q3dxi,2,2,3a,127,2,lose,no-go,NGAL,2.0,D,elianto,0,0,,1,0.0,-1,0
1nn8ci654pmi5ny2ho1q3dxi,2,2,3a,128,2,lose,go,GAL,1.0,J,elianto,1,0,,0,0.0,-10,0
1nn8ci654pmi5ny2ho1q3dxi,2,2,3a,129,3,win,go,GW,0.0,V,elianto,1,1,0.358,1,1.0,+1,1
1nn8ci654pmi5ny2ho1q3dxi,2,2,3a,130,3,lose,no-go,NGAL,2.0,D,elianto,0,0,,1,0.0,-1,0
1nn8ci654pmi5ny2ho1q3dxi,2,2,3a,131,3,win,no-go,NGW,3.0,K,elianto,0,1,0.841,0,0.0,+1,1
1nn8ci654pmi5ny2ho1q3dxi,2,2,3a,132,3,lose,go,GAL,1.0,J,elianto,1,0,,0,0.0,-10,0
1nn8ci654pmi5ny2ho1q3dxi,2,2,3a,133,4,win,go,GW,0.0,V,elianto,1,1,0.403,1,0.0,+10,1
1nn8ci654pmi5ny2ho1q3dxi,2,2,3a,134,4,lose,go,GAL,1.0,J,elianto,1,1,0.32,1,0.0,-1,1
1nn8ci654pmi5ny2ho1q3dxi,2,2,3a,135,4,win,no-go,NGW,3.0,K,elianto,0,0,,1,0.0,+10,0
1nn8ci654pmi5ny2ho1q3dxi,2,2,3a,136,4,lose,no-go,NGAL,2.0,D,elianto,0,0,,1,0.0,-1,0
1nn8ci654pmi5ny2ho1q3dxi,2,2,3a,137,5,win,go,GW,0.0,V,elianto,1,1,0.341,1,0.0,+10,1
1nn8ci654pmi5ny2ho1q3dxi,2,2,3a,138,5,win,no-go,NGW,3.0,K,elianto,0,0,,1,0.0,+10,0
1nn8ci654pmi5ny2ho1q3dxi,2,2,3a,139,5,lose,no-go,NGAL,2.0,D,elianto,0,0,,1,0.0,-1,0
1nn8ci654pmi5ny2ho1q3dxi,2,2,3a,140,5,lose,go,GAL,1.0,J,elianto,1,1,0.536,1,0.0,-1,1
1nn8ci654pmi5ny2ho1q3dxi,2,2,3a,141,6,lose,no-go,NGAL,2.0,D,elianto,0,0,,1,0.0,-1,0
1nn8ci654pmi5ny2ho1q3dxi,2,2,3a,142,6,win,no-go,NGW,3.0,K,elianto,0,0,,1,0.0,+10,0
1nn8ci654pmi5ny2ho1q3dxi,2,2,3a,143,6,win,go,GW,0.0,V,elianto,1,1,0.333,1,0.0,+10,1
1nn8ci654pmi5ny2ho1q3dxi,2,2,3a,144,6,lose,go,GAL,1.0,J,elianto,1,1,0.294,1,0.0,-1,1
1nn8ci654pmi5ny2ho1q3dxi,2,2,3a,145,7,lose,no-go,NGAL,2.0,D,elianto,0,0,,1,0.0,-1,0
1nn8ci654pmi5ny2ho1q3dxi,2,2,3a,146,7,win,no-go,NGW,3.0,K,elianto,0,0,,1,0.0,+10,0
1nn8ci654pmi5ny2ho1q3dxi,2,2,3a,147,7,lose,go,GAL,1.0,J,elianto,1,1,0.636,1,0.0,-1,1
1nn8ci654pmi5ny2ho1q3dxi,2,2,3a,148,7,win,go,GW,0.0,V,elianto,1,1,0.409,1,0.0,+10,1
1nn8ci654pmi5ny2ho1q3dxi,2,2,3a,149,8,lose,go,GAL,1.0,J,elianto,1,0,,0,0.0,-10,0
1nn8ci654pmi5ny2ho1q3dxi,2,2,3a,150,8,win,no-go,NGW,3.0,K,elianto,0,0,,1,0.0,+10,0
1nn8ci654pmi5ny2ho1q3dxi,2,2,3a,151,8,win,go,GW,0.0,V,elianto,1,1,0.285,1,1.0,+1,1
1nn8ci654pmi5ny2ho1q3dxi,2,2,3a,152,8,lose,no-go,NGAL,2.0,D,elianto,0,0,,1,0.0,-1,0
1nn8ci654pmi5ny2ho1q3dxi,2,2,3a,153,1,lose,no-go,NGAL,4.0,E,elianto,0,1,0.619,0,1.0,-1,1
1nn8ci654pmi5ny2ho1q3dxi,2,2,3a,154,9,win,go,GW,0.0,V,elianto,1,1,0.286,1,0.0,+10,1
1nn8ci654pmi5ny2ho1q3dxi,2,2,3a,155,9,win,no-go,NGW,3.0,K,elianto,0,0,,1,0.0,+10,0
1nn8ci654pmi5ny2ho1q3dxi,2,2,3a,156,9,lose,go,GAL,1.0,J,elianto,1,1,0.292,1,0.0,-1,1
1nn8ci654pmi5ny2ho1q3dxi,2,2,3a,157,10,lose,go,GAL,1.0,J,elianto,1,1,0.647,1,0.0,-1,1
1nn8ci654pmi5ny2ho1q3dxi,2,2,3a,158,10,win,no-go,NGW,3.0,K,elianto,0,0,,1,0.0,+10,0
1nn8ci654pmi5ny2ho1q3dxi,2,2,3a,159,10,win,go,GW,0.0,V,elianto,1,1,0.296,1,0.0,+10,1
1nn8ci654pmi5ny2ho1q3dxi,2,2,3a,160,2,lose,no-go,NGAL,4.0,E,elianto,0,1,0.248,0,1.0,-1,1
1nn8ci654pmi5ny2ho1q3dxi,2,2,3a,161,1,lose,go,GAL,5.0,W,elianto,1,1,0.612,1,0.0,-1,1
1nn8ci654pmi5ny2ho1q3dxi,2,2,3a,162,3,lose,no-go,NGAL,4.0,E,elianto,0,1,0.361,0,1.0,-1,1
1nn8ci654pmi5ny2ho1q3dxi,2,2,3a,163,11,win,go,GW,0.0,V,elianto,1,1,0.382,1,0.0,+10,1
1nn8ci654pmi5ny2ho1q3dxi,2,2,3a,164,11,win,no-go,NGW,3.0,K,elianto,0,0,,1,0.0,+10,0
1nn8ci654pmi5ny2ho1q3dxi,2,2,3a,165,4,lose,no-go,NGAL,4.0,E,elianto,0,1,0.368,0,0.0,-10,1
1nn8ci654pmi5ny2ho1q3dxi,2,2,3a,166,2,lose,go,GAL,5.0,W,elianto,1,1,0.289,1,0.0,-1,1
1nn8ci654pmi5ny2ho1q3dxi,2,2,3a,167,12,win,go,GW,0.0,V,elianto,1,1,0.497,1,1.0,+1,1
1nn8ci654pmi5ny2ho1q3dxi,2,2,3a,168,12,win,no-go,NGW,3.0,K,elianto,0,0,,1,1.0,+1,0
1nn8ci654pmi5ny2ho1q3dxi,2,2,3a,169,1,win,no-go,NGW,7.0,P,elianto,0,1,0.452,0,0.0,+1,1
1nn8ci654pmi5ny2ho1q3dxi,2,2,3a,170,5,lose,no-go,NGAL,4.0,E,elianto,0,1,0.541,0,1.0,-1,1
1nn8ci654pmi5ny2ho1q3dxi,2,2,3a,171,1,win,no-go,NGW,6.0,S,elianto,0,1,0.49,0,0.0,+1,1
1nn8ci654pmi5ny2ho1q3dxi,2,2,3a,172,3,lose,go,GAL,5.0,W,elianto,1,1,0.574,1,0.0,-1,1
1nn8ci654pmi5ny2ho1q3dxi,2,2,3a,173,6,lose,no-go,NGAL,4.0,E,elianto,0,1,0.655,0,0.0,-10,1
1nn8ci654pmi5ny2ho1q3dxi,2,2,3a,174,2,win,no-go,NGW,7.0,P,elianto,0,1,0.62,0,0.0,+1,1
1nn8ci654pmi5ny2ho1q3dxi,2,2,3a,175,2,win,no-go,NGW,6.0,S,elianto,0,0,,1,0.0,+10,0
1nn8ci654pmi5ny2ho1q3dxi,2,2,3a,176,4,lose,go,GAL,5.0,W,elianto,1,1,0.558,1,0.0,-1,1
1nn8ci654pmi5ny2ho1q3dxi,2,2,3a,177,7,lose,no-go,NGAL,4.0,E,elianto,0,0,,1,0.0,-1,0
1nn8ci654pmi5ny2ho1q3dxi,2,2,3a,178,3,win,no-go,NGW,7.0,P,elianto,0,0,,1,0.0,+10,0
1nn8ci654pmi5ny2ho1q3dxi,2,2,3a,179,3,win,no-go,NGW,6.0,S,elianto,0,0,,1,0.0,+10,0
1nn8ci654pmi5ny2ho1q3dxi,2,2,3a,180,5,lose,go,GAL,5.0,W,elianto,1,1,0.433,1,1.0,-10,1
1nn8ci654pmi5ny2ho1q3dxi,2,2,3a,181,6,lose,go,GAL,5.0,W,elianto,1,0,,0,0.0,-10,0
1nn8ci654pmi5ny2ho1q3dxi,2,2,3a,182,4,win,no-go,NGW,6.0,S,elianto,0,0,,1,1.0,+1,0
1nn8ci654pmi5ny2ho1q3dxi,2,2,3a,183,8,lose,no-go,NGAL,4.0,E,elianto,0,1,0.667,0,0.0,-10,1
1nn8ci654pmi5ny2ho1q3dxi,2,2,3a,184,4,win,no-go,NGW,7.0,P,elianto,0,0,,1,0.0,+10,0
1nn8ci654pmi5ny2ho1q3dxi,2,2,3a,185,7,lose,go,GAL,5.0,W,elianto,1,1,0.879,1,0.0,-1,1
1nn8ci654pmi5ny2ho1q3dxi,2,2,3a,186,9,lose,no-go,NGAL,4.0,E,elianto,0,0,,1,0.0,-1,0
1nn8ci654pmi5ny2ho1q3dxi,2,2,3a,187,5,win,no-go,NGW,6.0,S,elianto,0,0,,1,0.0,+10,0
1nn8ci654pmi5ny2ho1q3dxi,2,2,3a,188,5,win,no-go,NGW,7.0,P,elianto,0,0,,1,0.0,+10,0
1nn8ci654pmi5ny2ho1q3dxi,2,2,3a,189,6,win,no-go,NGW,6.0,S,elianto,0,0,,1,0.0,+10,0
1nn8ci654pmi5ny2ho1q3dxi,2,2,3a,190,10,lose,no-go,NGAL,4.0,E,elianto,0,0,,1,0.0,-1,0
1nn8ci654pmi5ny2ho1q3dxi,2,2,3a,191,8,lose,go,GAL,5.0,W,elianto,1,1,0.493,1,1.0,-10,1
1nn8ci654pmi5ny2ho1q3dxi,2,2,3a,192,6,win,no-go,NGW,7.0,P,elianto,0,0,,1,0.0,+10,0
1nn8ci654pmi5ny2ho1q3dxi,2,2,3a,193,9,lose,go,GAL,5.0,W,elianto,1,1,0.77,1,0.0,-1,1
1nn8ci654pmi5ny2ho1q3dxi,2,2,3a,194,11,lose,no-go,NGAL,4.0,E,elianto,0,0,,1,0.0,-1,0
1nn8ci654pmi5ny2ho1q3dxi,2,2,3a,195,7,win,no-go,NGW,6.0,S,elianto,0,0,,1,1.0,+1,0
1nn8ci654pmi5ny2ho1q3dxi,2,2,3a,196,7,win,no-go,NGW,7.0,P,elianto,0,0,,1,1.0,+1,0
1nn8ci654pmi5ny2ho1q3dxi,2,2,3a,197,8,win,no-go,NGW,6.0,S,elianto,0,0,,1,0.0,+10,0
1nn8ci654pmi5ny2ho1q3dxi,2,2,3a,198,8,win,no-go,NGW,7.0,P,elianto,0,0,,1,0.0,+10,0
1nn8ci654pmi5ny2ho1q3dxi,2,2,3a,199,10,lose,go,GAL,5.0,W,elianto,1,1,0.545,1,0.0,-1,1
1nn8ci654pmi5ny2ho1q3dxi,2,2,3a,200,12,lose,no-go,NGAL,4.0,E,elianto,0,0,,1,0.0,-1,0
1nn8ci654pmi5ny2ho1q3dxi,2,2,3a,201,11,lose,go,GAL,5.0,W,elianto,1,1,0.625,1,1.0,-10,1
1nn8ci654pmi5ny2ho1q3dxi,2,2,3a,202,1,lose,no-go,NGAL,9.0,A,elianto,0,1,0.702,0,0.0,-10,1
1nn8ci654pmi5ny2ho1q3dxi,2,2,3a,203,9,win,no-go,NGW,7.0,P,elianto,0,0,,1,0.0,+10,0
1nn8ci654pmi5ny2ho1q3dxi,2,2,3a,204,1,win,go,GW,8.0,G,elianto,1,1,0.6,1,0.0,+10,1
1nn8ci654pmi5ny2ho1q3dxi,2,2,3a,205,10,win,no-go,NGW,7.0,P,elianto,0,0,,1,0.0,+10,0
1nn8ci654pmi5ny2ho1q3dxi,2,2,3a,206,2,lose,no-go,NGAL,9.0,A,elianto,0,0,,1,0.0,-1,0
1nn8ci654pmi5ny2ho1q3dxi,2,2,3a,207,12,lose,go,GAL,5.0,W,elianto,1,1,0.462,1,0.0,-1,1
1nn8ci654pmi5ny2ho1q3dxi,2,2,3a,208,2,win,go,GW,8.0,G,elianto,1,1,0.302,1,0.0,+10,1
1nn8ci654pmi5ny2ho1q3dxi,2,2,3a,209,3,win,go,GW,8.0,G,elianto,1,1,0.366,1,0.0,+10,1
1nn8ci654pmi5ny2ho1q3dxi,2,2,3a,210,3,lose,no-go,NGAL,9.0,A,elianto,0,0,,1,1.0,-10,0
1nn8ci654pmi5ny2ho1q3dxi,2,2,3a,211,1,lose,go,GAL,10.0,L,elianto,1,1,0.725,1,0.0,-1,1
1nn8ci654pmi5ny2ho1q3dxi,2,2,3a,212,1,win,go,GW,11.0,U,elianto,1,1,0.573,1,0.0,+10,1
1nn8ci654pmi5ny2ho1q3dxi,2,2,3a,213,4,lose,no-go,NGAL,9.0,A,elianto,0,0,,1,0.0,-1,0
1nn8ci654pmi5ny2ho1q3dxi,2,2,3a,214,2,win,go,GW,11.0,U,elianto,1,1,0.36,1,0.0,+10,1
1nn8ci654pmi5ny2ho1q3dxi,2,2,3a,215,4,win,go,GW,8.0,G,elianto,1,1,0.441,1,1.0,+1,1
1nn8ci654pmi5ny2ho1q3dxi,2,2,3a,216,2,lose,go,GAL,10.0,L,elianto,1,1,0.596,1,0.0,-1,1
1nn8ci654pmi5ny2ho1q3dxi,2,2,3a,217,5,win,go,GW,8.0,G,elianto,1,1,0.455,1,1.0,+1,1
1nn8ci654pmi5ny2ho1q3dxi,2,2,3a,218,3,lose,go,GAL,10.0,L,elianto,1,1,0.466,1,0.0,-1,1
1nn8ci654pmi5ny2ho1q3dxi,2,2,3a,219,3,win,go,GW,11.0,U,elianto,1,0,,0,0.0,+1,0
1nn8ci654pmi5ny2ho1q3dxi,2,2,3a,220,5,lose,no-go,NGAL,9.0,A,elianto,0,0,,1,0.0,-1,1
1nn8ci654pmi5ny2ho1q3dxi,2,2,3a,221,4,lose,go,GAL,10.0,L,elianto,1,0,,0,0.0,-10,0
1nn8ci654pmi5ny2ho1q3dxi,2,2,3a,222,4,win,go,GW,11.0,U,elianto,1,1,0.438,1,1.0,+1,1
1nn8ci654pmi5ny2ho1q3dxi,2,2,3a,223,6,win,go,GW,8.0,G,elianto,1,1,0.674,1,1.0,+1,1
1nn8ci654pmi5ny2ho1q3dxi,2,2,3a,224,6,lose,no-go,NGAL,9.0,A,elianto,0,0,,1,0.0,-1,0
1nn8ci654pmi5ny2ho1q3dxi,2,2,3a,225,7,lose,no-go,NGAL,9.0,A,elianto,0,0,,1,0.0,-1,0
1nn8ci654pmi5ny2ho1q3dxi,2,2,3a,226,5,lose,go,GAL,10.0,L,elianto,1,1,0.704,1,0.0,-1,1
1nn8ci654pmi5ny2ho1q3dxi,2,2,3a,227,5,win,go,GW,11.0,U,elianto,1,1,0.348,1,0.0,+10,1
1nn8ci654pmi5ny2ho1q3dxi,2,2,3a,228,7,win,go,GW,8.0,G,elianto,1,1,0.393,1,0.0,+10,1
1nn8ci654pmi5ny2ho1q3dxi,2,2,3a,229,6,lose,go,GAL,10.0,L,elianto,1,1,0.666,1,0.0,-1,1
1nn8ci654pmi5ny2ho1q3dxi,2,2,3a,230,6,win,go,GW,11.0,U,elianto,1,1,0.355,1,0.0,+10,1
1nn8ci654pmi5ny2ho1q3dxi,2,2,3a,231,8,lose,no-go,NGAL,9.0,A,elianto,0,0,,1,0.0,-1,0
1nn8ci654pmi5ny2ho1q3dxi,2,2,3a,232,8,win,go,GW,8.0,G,elianto,1,1,0.466,1,0.0,+10,1
1nn8ci654pmi5ny2ho1q3dxi,2,2,3a,233,7,lose,go,GAL,10.0,L,elianto,1,1,0.557,1,0.0,-1,1
1nn8ci654pmi5ny2ho1q3dxi,2,2,3a,234,9,lose,no-go,NGAL,9.0,A,elianto,0,0,,1,0.0,-1,0
1nn8ci654pmi5ny2ho1q3dxi,2,2,3a,235,7,win,go,GW,11.0,U,elianto,1,1,0.545,1,0.0,+10,1
1nn8ci654pmi5ny2ho1q3dxi,2,2,3a,236,9,win,go,GW,8.0,G,elianto,1,1,0.338,1,0.0,+10,1
1nn8ci654pmi5ny2ho1q3dxi,2,2,3a,237,10,win,go,GW,8.0,G,elianto,1,1,0.412,1,0.0,+10,1
1nn8ci654pmi5ny2ho1q3dxi,2,2,3a,238,10,lose,no-go,NGAL,9.0,A,elianto,0,0,,1,0.0,-1,0
1nn8ci654pmi5ny2ho1q3dxi,2,2,3a,239,8,lose,go,GAL,10.0,L,elianto,1,1,0.46,1,0.0,-1,1
1nn8ci654pmi5ny2ho1q3dxi,2,2,3a,240,8,win,go,GW,11.0,U,elianto,1,1,0.354,1,0.0,+10,1
1x8zaa76pikfxwotrhhxcogi,2,1,3a,1,1,lose,go,GAL,2.0,F,elianto,1,1,0.328,1,0.0,-1,1
1x8zaa76pikfxwotrhhxcogi,2,1,3a,2,1,lose,no-go,NGAL,0.0,Q,elianto,0,0,,1,0.0,-1,0
1x8zaa76pikfxwotrhhxcogi,2,1,3a,3,1,lose,go,GAL,1.0,N,elianto,1,1,0.475,1,1.0,-10,1
1x8zaa76pikfxwotrhhxcogi,2,1,3a,4,1,win,go,GW,3.0,X,elianto,1,1,0.719,1,0.0,+10,1
1x8zaa76pikfxwotrhhxcogi,2,1,3a,5,2,lose,no-go,NGAL,0.0,Q,elianto,0,0,,1,0.0,-1,0
1x8zaa76pikfxwotrhhxcogi,2,1,3a,6,2,lose,go,GAL,2.0,F,elianto,1,1,0.519,1,0.0,-1,1
1x8zaa76pikfxwotrhhxcogi,2,1,3a,7,2,win,go,GW,3.0,X,elianto,1,1,0.862,1,0.0,+10,1
1x8zaa76pikfxwotrhhxcogi,2,1,3a,8,2,lose,go,GAL,1.0,N,elianto,1,0,,0,0.0,-10,0
1x8zaa76pikfxwotrhhxcogi,2,1,3a,9,3,lose,go,GAL,2.0,F,elianto,1,1,0.663,1,0.0,-1,1
1x8zaa76pikfxwotrhhxcogi,2,1,3a,10,3,win,go,GW,3.0,X,elianto,1,1,0.843,1,0.0,+10,1
1x8zaa76pikfxwotrhhxcogi,2,1,3a,11,3,lose,no-go,NGAL,0.0,Q,elianto,0,0,,1,1.0,-10,0
1x8zaa76pikfxwotrhhxcogi,2,1,3a,12,3,lose,go,GAL,1.0,N,elianto,1,1,0.86,1,1.0,-10,1
1x8zaa76pikfxwotrhhxcogi,2,1,3a,13,4,win,go,GW,3.0,X,elianto,1,1,0.921,1,0.0,+10,1
1x8zaa76pikfxwotrhhxcogi,2,1,3a,14,4,lose,go,GAL,2.0,F,elianto,1,1,0.84,1,1.0,-10,1
1x8zaa76pikfxwotrhhxcogi,2,1,3a,15,4,lose,no-go,NGAL,0.0,Q,elianto,0,0,,1,0.0,-1,0
1x8zaa76pikfxwotrhhxcogi,2,1,3a,16,4,lose,go,GAL,1.0,N,elianto,1,1,1.021,1,1.0,-10,1
1x8zaa76pikfxwotrhhxcogi,2,1,3a,17,5,lose,go,GAL,1.0,N,elianto,1,0,,0,0.0,-10,0
1x8zaa76pikfxwotrhhxcogi,2,1,3a,18,5,lose,go,GAL,2.0,F,elianto,1,1,0.445,1,0.0,-1,1
1x8zaa76pikfxwotrhhxcogi,2,1,3a,19,5,win,go,GW,3.0,X,elianto,1,1,1.098,1,0.0,+10,1
1x8zaa76pikfxwotrhhxcogi,2,1,3a,20,5,lose,no-go,NGAL,0.0,Q,elianto,0,0,,1,0.0,-1,0
1x8zaa76pikfxwotrhhxcogi,2,1,3a,21,6,win,go,GW,3.0,X,elianto,1,1,0.886,1,1.0,+1,1
1x8zaa76pikfxwotrhhxcogi,2,1,3a,22,6,lose,go,GAL,2.0,F,elianto,1,1,0.783,1,0.0,-1,1
1x8zaa76pikfxwotrhhxcogi,2,1,3a,23,6,lose,no-go,NGAL,0.0,Q,elianto,0,0,,1,0.0,-1,0
1x8zaa76pikfxwotrhhxcogi,2,1,3a,24,6,lose,go,GAL,1.0,N,elianto,1,0,,0,0.0,-10,0
1x8zaa76pikfxwotrhhxcogi,2,1,3a,25,7,lose,no-go,NGAL,0.0,Q,elianto,0,0,,1,0.0,-1,0
1x8zaa76pikfxwotrhhxcogi,2,1,3a,26,7,lose,go,GAL,1.0,N,elianto,1,1,0.601,1,0.0,-1,1
1x8zaa76pikfxwotrhhxcogi,2,1,3a,27,7,lose,go,GAL,2.0,F,elianto,1,1,0.815,1,0.0,-1,1
1x8zaa76pikfxwotrhhxcogi,2,1,3a,28,7,win,go,GW,3.0,X,elianto,1,1,0.968,1,1.0,+1,1
1x8zaa76pikfxwotrhhxcogi,2,1,3a,29,8,win,go,GW,3.0,X,elianto,1,1,1.049,1,0.0,+10,1
1x8zaa76pikfxwotrhhxcogi,2,1,3a,30,8,lose,go,GAL,2.0,F,elianto,1,1,0.657,1,0.0,-1,1
1x8zaa76pikfxwotrhhxcogi,2,1,3a,31,8,lose,no-go,NGAL,0.0,Q,elianto,0,0,,1,0.0,-1,0
1x8zaa76pikfxwotrhhxcogi,2,1,3a,32,8,lose,go,GAL,1.0,N,elianto,1,0,,0,0.0,-10,0
1x8zaa76pikfxwotrhhxcogi,2,1,3a,33,9,win,go,GW,3.0,X,elianto,1,1,0.663,1,0.0,+10,1
1x8zaa76pikfxwotrhhxcogi,2,1,3a,34,9,lose,no-go,NGAL,0.0,Q,elianto,0,0,,1,0.0,-1,0
1x8zaa76pikfxwotrhhxcogi,2,1,3a,35,1,lose,no-go,NGAL,4.0,T,elianto,0,1,0.803,0,0.0,-10,1
1x8zaa76pikfxwotrhhxcogi,2,1,3a,36,9,lose,go,GAL,1.0,N,elianto,1,0,,0,1.0,-1,0
1x8zaa76pikfxwotrhhxcogi,2,1,3a,37,10,win,go,GW,3.0,X,elianto,1,1,0.62,1,0.0,+10,1
1x8zaa76pikfxwotrhhxcogi,2,1,3a,38,2,lose,no-go,NGAL,4.0,T,elianto,0,0,,1,0.0,-1,0
1x8zaa76pikfxwotrhhxcogi,2,1,3a,39,10,lose,no-go,NGAL,0.0,Q,elianto,0,0,,1,0.0,-1,0
1x8zaa76pikfxwotrhhxcogi,2,1,3a,40,10,lose,go,GAL,1.0,N,elianto,1,1,0.932,1,0.0,-1,1
1x8zaa76pikfxwotrhhxcogi,2,1,3a,41,1,win,no-go,NGW,5.0,B,elianto,0,1,0.823,0,0.0,+1,1
1x8zaa76pikfxwotrhhxcogi,2,1,3a,42,3,lose,no-go,NGAL,4.0,T,elianto,0,0,,1,0.0,-1,0
1x8zaa76pikfxwotrhhxcogi,2,1,3a,43,11,lose,go,GAL,1.0,N,elianto,1,0,,0,1.0,-1,0
1x8zaa76pikfxwotrhhxcogi,2,1,3a,44,11,lose,no-go,NGAL,0.0,Q,elianto,0,0,,1,0.0,-1,0
1x8zaa76pikfxwotrhhxcogi,2,1,3a,45,12,lose,no-go,NGAL,0.0,Q,elianto,0,1,0.535,0,0.0,-10,1
1x8zaa76pikfxwotrhhxcogi,2,1,3a,46,2,win,no-go,NGW,5.0,B,elianto,0,1,0.897,0,0.0,+1,1
1x8zaa76pikfxwotrhhxcogi,2,1,3a,47,12,lose,go,GAL,1.0,N,elianto,1,0,,0,1.0,-1,0
1x8zaa76pikfxwotrhhxcogi,2,1,3a,48,4,lose,no-go,NGAL,4.0,T,elianto,0,0,,1,0.0,-1,0
1x8zaa76pikfxwotrhhxcogi,2,1,3a,49,1,lose,no-go,NGAL,6.0,C,elianto,0,1,0.707,0,0.0,-10,1
1x8zaa76pikfxwotrhhxcogi,2,1,3a,50,1,win,go,GW,7.0,Z,elianto,1,1,0.681,1,0.0,+10,1
1x8zaa76pikfxwotrhhxcogi,2,1,3a,51,5,lose,no-go,NGAL,4.0,T,elianto,0,0,,1,1.0,-10,0
1x8zaa76pikfxwotrhhxcogi,2,1,3a,52,3,win,no-go,NGW,5.0,B,elianto,0,1,0.8,0,0.0,+1,1
1x8zaa76pikfxwotrhhxcogi,2,1,3a,53,2,win,go,GW,7.0,Z,elianto,1,0,,0,0.0,+1,0
1x8zaa76pikfxwotrhhxcogi,2,1,3a,54,2,lose,no-go,NGAL,6.0,C,elianto,0,1,0.583,0,1.0,-1,1
1x8zaa76pikfxwotrhhxcogi,2,1,3a,55,4,win,no-go,NGW,5.0,B,elianto,0,1,1.072,0,0.0,+1,1
1x8zaa76pikfxwotrhhxcogi,2,1,3a,56,6,lose,no-go,NGAL,4.0,T,elianto,0,0,,1,0.0,-1,0
1x8zaa76pikfxwotrhhxcogi,2,1,3a,57,3,win,go,GW,7.0,Z,elianto,1,1,0.573,1,0.0,+10,1
1x8zaa76pikfxwotrhhxcogi,2,1,3a,58,7,lose,no-go,NGAL,4.0,T,elianto,0,0,,1,1.0,-10,0
1x8zaa76pikfxwotrhhxcogi,2,1,3a,59,3,lose,no-go,NGAL,6.0,C,elianto,0,1,0.662,0,0.0,-10,1
1x8zaa76pikfxwotrhhxcogi,2,1,3a,60,5,win,no-go,NGW,5.0,B,elianto,0,0,,1,0.0,+10,0
1x8zaa76pikfxwotrhhxcogi,2,1,3a,61,4,win,go,GW,7.0,Z,elianto,1,1,0.652,1,1.0,+1,1
1x8zaa76pikfxwotrhhxcogi,2,1,3a,62,6,win,no-go,NGW,5.0,B,elianto,0,0,,1,1.0,+1,0
1x8zaa76pikfxwotrhhxcogi,2,1,3a,63,4,lose,no-go,NGAL,6.0,C,elianto,0,0,,1,0.0,-1,0
1x8zaa76pikfxwotrhhxcogi,2,1,3a,64,8,lose,no-go,NGAL,4.0,T,elianto,0,1,0.708,0,0.0,-10,1
1x8zaa76pikfxwotrhhxcogi,2,1,3a,65,9,lose,no-go,NGAL,4.0,T,elianto,0,0,,1,1.0,-10,0
1x8zaa76pikfxwotrhhxcogi,2,1,3a,66,7,win,no-go,NGW,5.0,B,elianto,0,1,0.549,0,0.0,+1,1
1x8zaa76pikfxwotrhhxcogi,2,1,3a,67,5,win,go,GW,7.0,Z,elianto,1,0,,0,0.0,+1,0
1x8zaa76pikfxwotrhhxcogi,2,1,3a,68,5,lose,no-go,NGAL,6.0,C,elianto,0,0,,1,0.0,-1,0
1x8zaa76pikfxwotrhhxcogi,2,1,3a,69,6,win,go,GW,7.0,Z,elianto,1,0,,0,0.0,+1,0
1x8zaa76pikfxwotrhhxcogi,2,1,3a,70,10,lose,no-go,NGAL,4.0,T,elianto,0,1,0.472,0,0.0,-10,1
1x8zaa76pikfxwotrhhxcogi,2,1,3a,71,6,lose,no-go,NGAL,6.0,C,elianto,0,0,,1,1.0,-10,0
1x8zaa76pikfxwotrhhxcogi,2,1,3a,72,8,win,no-go,NGW,5.0,B,elianto,0,1,0.608,0,0.0,+1,1
1x8zaa76pikfxwotrhhxcogi,2,1,3a,73,7,win,go,GW,7.0,Z,elianto,1,1,0.689,1,0.0,+10,1
1x8zaa76pikfxwotrhhxcogi,2,1,3a,74,7,lose,no-go,NGAL,6.0,C,elianto,0,1,1.082,0,0.0,-10,1
1x8zaa76pikfxwotrhhxcogi,2,1,3a,75,1,win,go,GW,8.0,H,elianto,1,1,0.609,1,0.0,+10,1
1x8zaa76pikfxwotrhhxcogi,2,1,3a,76,9,win,no-go,NGW,5.0,B,elianto,0,1,0.672,0,0.0,+1,1
1x8zaa76pikfxwotrhhxcogi,2,1,3a,77,2,win,go,GW,8.0,H,elianto,1,1,0.777,1,1.0,+1,1
1x8zaa76pikfxwotrhhxcogi,2,1,3a,78,10,win,no-go,NGW,5.0,B,elianto,0,0,,1,0.0,+10,0
1x8zaa76pikfxwotrhhxcogi,2,1,3a,79,8,lose,no-go,NGAL,6.0,C,elianto,0,0,,1,0.0,-1,0
1x8zaa76pikfxwotrhhxcogi,2,1,3a,80,8,win,go,GW,7.0,Z,elianto,1,1,0.601,1,1.0,+1,1
1x8zaa76pikfxwotrhhxcogi,2,1,3a,81,11,win,no-go,NGW,5.0,B,elianto,0,0,,1,0.0,+10,0
1x8zaa76pikfxwotrhhxcogi,2,1,3a,82,1,lose,go,GAL,10.0,R,elianto,1,0,,0,0.0,-10,0
1x8zaa76pikfxwotrhhxcogi,2,1,3a,83,1,win,no-go,NGW,9.0,Y,elianto,0,1,0.811,0,0.0,+1,1
1x8zaa76pikfxwotrhhxcogi,2,1,3a,84,3,win,go,GW,8.0,H,elianto,1,1,0.583,1,0.0,+10,1
1x8zaa76pikfxwotrhhxcogi,2,1,3a,85,2,lose,go,GAL,10.0,R,elianto,1,0,,0,0.0,-10,0
1x8zaa76pikfxwotrhhxcogi,2,1,3a,86,4,win,go,GW,8.0,H,elianto,1,1,0.543,1,0.0,+10,1
1x8zaa76pikfxwotrhhxcogi,2,1,3a,87,2,win,no-go,NGW,9.0,Y,elianto,0,0,,1,0.0,+10,0
1x8zaa76pikfxwotrhhxcogi,2,1,3a,88,12,win,no-go,NGW,5.0,B,elianto,0,0,,1,0.0,+10,0
1x8zaa76pikfxwotrhhxcogi,2,1,3a,89,3,lose,go,GAL,10.0,R,elianto,1,0,,0,0.0,-10,0
1x8zaa76pikfxwotrhhxcogi,2,1,3a,90,3,win,no-go,NGW,9.0,Y,elianto,0,1,0.437,0,1.0,+10,1
1x8zaa76pikfxwotrhhxcogi,2,1,3a,91,1,win,no-go,NGW,11.0,M,elianto,0,1,0.657,0,0.0,+1,1
1x8zaa76pikfxwotrhhxcogi,2,1,3a,92,5,win,go,GW,8.0,H,elianto,1,1,0.793,1,0.0,+10,1
1x8zaa76pikfxwotrhhxcogi,2,1,3a,93,6,win,go,GW,8.0,H,elianto,1,1,0.617,1,0.0,+10,1
1x8zaa76pikfxwotrhhxcogi,2,1,3a,94,4,lose,go,GAL,10.0,R,elianto,1,0,,0,1.0,-1,0
1x8zaa76pikfxwotrhhxcogi,2,1,3a,95,2,win,no-go,NGW,11.0,M,elianto,0,0,,1,0.0,+10,0
1x8zaa76pikfxwotrhhxcogi,2,1,3a,96,4,win,no-go,NGW,9.0,Y,elianto,0,0,,1,0.0,+10,0
1x8zaa76pikfxwotrhhxcogi,2,1,3a,97,3,win,no-go,NGW,11.0,M,elianto,0,1,0.615,0,0.0,+1,1
1x8zaa76pikfxwotrhhxcogi,2,1,3a,98,5,win,no-go,NGW,9.0,Y,elianto,0,0,,1,0.0,+10,0
1x8zaa76pikfxwotrhhxcogi,2,1,3a,99,7,win,go,GW,8.0,H,elianto,1,0,,0,0.0,+1,1
1x8zaa76pikfxwotrhhxcogi,2,1,3a,100,5,lose,go,GAL,10.0,R,elianto,1,0,,0,1.0,-1,0
1x8zaa76pikfxwotrhhxcogi,2,1,3a,101,8,win,go,GW,8.0,H,elianto,1,1,0.596,1,0.0,+10,1
1x8zaa76pikfxwotrhhxcogi,2,1,3a,102,4,win,no-go,NGW,11.0,M,elianto,0,1,0.711,0,1.0,+10,1
1x8zaa76pikfxwotrhhxcogi,2,1,3a,103,6,win,no-go,NGW,9.0,Y,elianto,0,0,,1,1.0,+1,0
1x8zaa76pikfxwotrhhxcogi,2,1,3a,104,6,lose,go,GAL,10.0,R,elianto,1,1,0.538,1,0.0,-1,1
1x8zaa76pikfxwotrhhxcogi,2,1,3a,105,7,win,no-go,NGW,9.0,Y,elianto,0,0,,1,0.0,+10,0
1x8zaa76pikfxwotrhhxcogi,2,1,3a,106,9,win,go,GW,8.0,H,elianto,1,1,0.509,1,1.0,+1,1
1x8zaa76pikfxwotrhhxcogi,2,1,3a,107,5,win,no-go,NGW,11.0,M,elianto,0,1,1.088,0,0.0,+1,1
1x8zaa76pikfxwotrhhxcogi,2,1,3a,108,7,lose,go,GAL,10.0,R,elianto,1,0,,0,0.0,-10,0
1x8zaa76pikfxwotrhhxcogi,2,1,3a,109,6,win,no-go,NGW,11.0,M,elianto,0,1,0.997,0,0.0,+1,1
1x8zaa76pikfxwotrhhxcogi,2,1,3a,110,8,win,no-go,NGW,9.0,Y,elianto,0,0,,1,0.0,+10,0
1x8zaa76pikfxwotrhhxcogi,2,1,3a,111,8,lose,go,GAL,10.0,R,elianto,1,0,,0,0.0,-10,2
1x8zaa76pikfxwotrhhxcogi,2,1,3a,112,10,win,go,GW,8.0,H,elianto,1,1,0.586,1,0.0,+10,1
1x8zaa76pikfxwotrhhxcogi,2,1,3a,113,7,win,no-go,NGW,11.0,M,elianto,0,0,,1,1.0,+1,0
1x8zaa76pikfxwotrhhxcogi,2,1,3a,114,11,win,go,GW,8.0,H,elianto,1,1,0.463,1,1.0,+1,1
1x8zaa76pikfxwotrhhxcogi,2,1,3a,115,9,win,no-go,NGW,9.0,Y,elianto,0,1,0.689,0,0.0,+1,1
1x8zaa76pikfxwotrhhxcogi,2,1,3a,116,9,lose,go,GAL,10.0,R,elianto,1,0,,0,0.0,-10,0
1x8zaa76pikfxwotrhhxcogi,2,1,3a,117,12,win,go,GW,8.0,H,elianto,1,1,0.549,1,1.0,+1,1
1x8zaa76pikfxwotrhhxcogi,2,1,3a,118,10,lose,go,GAL,10.0,R,elianto,1,0,,0,0.0,-10,0
1x8zaa76pikfxwotrhhxcogi,2,1,3a,119,10,win,no-go,NGW,9.0,Y,elianto,0,1,0.644,0,1.0,+10,1
1x8zaa76pikfxwotrhhxcogi,2,1,3a,120,8,win,no-go,NGW,11.0,M,elianto,0,1,0.728,0,0.0,+1,1
1x8zaa76pikfxwotrhhxcogi,2,2,3a,121,1,win,go,GW,0.0,U,elianto,1,1,0.377,1,0.0,+10,1
1x8zaa76pikfxwotrhhxcogi,2,2,3a,122,1,lose,go,GAL,1.0,L,elianto,1,0,,0,0.0,-10,0
1x8zaa76pikfxwotrhhxcogi,2,2,3a,123,1,lose,no-go,NGAL,2.0,A,elianto,0,1,0.237,0,1.0,-1,1
1x8zaa76pikfxwotrhhxcogi,2,2,3a,124,1,win,no-go,NGW,3.0,G,elianto,0,1,0.968,0,0.0,+1,1
1x8zaa76pikfxwotrhhxcogi,2,2,3a,125,2,lose,go,GAL,1.0,L,elianto,1,0,,0,0.0,-10,0
1x8zaa76pikfxwotrhhxcogi,2,2,3a,126,2,win,go,GW,0.0,U,elianto,1,1,0.651,1,1.0,+1,1
1x8zaa76pikfxwotrhhxcogi,2,2,3a,127,2,lose,no-go,NGAL,2.0,A,elianto,0,0,,1,1.0,-10,0
1x8zaa76pikfxwotrhhxcogi,2,2,3a,128,2,win,no-go,NGW,3.0,G,elianto,0,0,,1,1.0,+1,0
1x8zaa76pikfxwotrhhxcogi,2,2,3a,129,3,lose,no-go,NGAL,2.0,A,elianto,0,0,,1,0.0,-1,0
1x8zaa76pikfxwotrhhxcogi,2,2,3a,130,3,win,go,GW,0.0,U,elianto,1,1,0.374,1,0.0,+10,1
1x8zaa76pikfxwotrhhxcogi,2,2,3a,131,3,lose,go,GAL,1.0,L,elianto,1,1,0.655,1,0.0,-1,1
1x8zaa76pikfxwotrhhxcogi,2,2,3a,132,3,win,no-go,NGW,3.0,G,elianto,0,1,0.864,0,0.0,+1,1
1x8zaa76pikfxwotrhhxcogi,2,2,3a,133,4,win,no-go,NGW,3.0,G,elianto,0,0,,1,0.0,+10,0
1x8zaa76pikfxwotrhhxcogi,2,2,3a,134,4,win,go,GW,0.0,U,elianto,1,1,0.555,1,0.0,+10,1
1x8zaa76pikfxwotrhhxcogi,2,2,3a,135,4,lose,go,GAL,1.0,L,elianto,1,0,,0,0.0,-10,0
1x8zaa76pikfxwotrhhxcogi,2,2,3a,136,4,lose,no-go,NGAL,2.0,A,elianto,0,0,,1,0.0,-1,0
1x8zaa76pikfxwotrhhxcogi,2,2,3a,137,5,win,go,GW,0.0,U,elianto,1,1,0.662,1,0.0,+10,1
1x8zaa76pikfxwotrhhxcogi,2,2,3a,138,5,lose,go,GAL,1.0,L,elianto,1,0,,0,0.0,-10,0
1x8zaa76pikfxwotrhhxcogi,2,2,3a,139,5,lose,no-go,NGAL,2.0,A,elianto,0,0,,1,0.0,-1,0
1x8zaa76pikfxwotrhhxcogi,2,2,3a,140,5,win,no-go,NGW,3.0,G,elianto,0,1,0.523,0,1.0,+10,1
1x8zaa76pikfxwotrhhxcogi,2,2,3a,141,6,win,go,GW,0.0,U,elianto,1,0,,0,0.0,+1,0
1x8zaa76pikfxwotrhhxcogi,2,2,3a,142,6,win,no-go,NGW,3.0,G,elianto,0,0,,1,0.0,+10,1
1x8zaa76pikfxwotrhhxcogi,2,2,3a,143,6,lose,go,GAL,1.0,L,elianto,1,0,,0,0.0,-10,0
1x8zaa76pikfxwotrhhxcogi,2,2,3a,144,6,lose,no-go,NGAL,2.0,A,elianto,0,0,,1,1.0,-10,0
1x8zaa76pikfxwotrhhxcogi,2,2,3a,145,7,win,go,GW,0.0,U,elianto,1,1,0.907,1,0.0,+10,1
1x8zaa76pikfxwotrhhxcogi,2,2,3a,146,7,win,no-go,NGW,3.0,G,elianto,0,0,,1,1.0,+1,0
1x8zaa76pikfxwotrhhxcogi,2,2,3a,147,7,lose,go,GAL,1.0,L,elianto,1,0,,0,0.0,-10,0
1x8zaa76pikfxwotrhhxcogi,2,2,3a,148,7,lose,no-go,NGAL,2.0,A,elianto,0,1,0.77,0,1.0,-1,1
1x8zaa76pikfxwotrhhxcogi,2,2,3a,149,8,win,no-go,NGW,3.0,G,elianto,0,0,,1,0.0,+10,0
1x8zaa76pikfxwotrhhxcogi,2,2,3a,150,8,win,go,GW,0.0,U,elianto,1,0,,0,0.0,+1,0
1x8zaa76pikfxwotrhhxcogi,2,2,3a,151,8,lose,go,GAL,1.0,L,elianto,1,1,0.503,1,0.0,-1,1
1x8zaa76pikfxwotrhhxcogi,2,2,3a,152,8,lose,no-go,NGAL,2.0,A,elianto,0,1,1.264,0,0.0,-10,1
1x8zaa76pikfxwotrhhxcogi,2,2,3a,153,9,win,go,GW,0.0,U,elianto,1,1,1.051,1,1.0,+1,1
1x8zaa76pikfxwotrhhxcogi,2,2,3a,154,9,lose,go,GAL,1.0,L,elianto,1,0,,0,0.0,-10,0
1x8zaa76pikfxwotrhhxcogi,2,2,3a,155,9,win,no-go,NGW,3.0,G,elianto,0,1,0.493,0,0.0,+1,1
1x8zaa76pikfxwotrhhxcogi,2,2,3a,156,1,lose,no-go,NGAL,4.0,P,elianto,0,0,,1,0.0,-1,0
1x8zaa76pikfxwotrhhxcogi,2,2,3a,157,2,lose,no-go,NGAL,4.0,P,elianto,0,0,,1,0.0,-1,0
1x8zaa76pikfxwotrhhxcogi,2,2,3a,158,10,win,no-go,NGW,3.0,G,elianto,0,1,0.399,0,0.0,+1,1
1x8zaa76pikfxwotrhhxcogi,2,2,3a,159,10,lose,go,GAL,1.0,L,elianto,1,0,,0,0.0,-10,0
1x8zaa76pikfxwotrhhxcogi,2,2,3a,160,10,win,go,GW,0.0,U,elianto,1,1,0.582,1,0.0,+10,1
1x8zaa76pikfxwotrhhxcogi,2,2,3a,161,11,win,no-go,NGW,3.0,G,elianto,0,0,,1,0.0,+10,0
1x8zaa76pikfxwotrhhxcogi,2,2,3a,162,3,lose,no-go,NGAL,4.0,P,elianto,0,0,,1,0.0,-1,0
1x8zaa76pikfxwotrhhxcogi,2,2,3a,163,11,win,go,GW,0.0,U,elianto,1,1,0.776,1,0.0,+10,1
1x8zaa76pikfxwotrhhxcogi,2,2,3a,164,1,lose,go,GAL,5.0,S,elianto,1,0,,0,0.0,-10,0
1x8zaa76pikfxwotrhhxcogi,2,2,3a,165,4,lose,no-go,NGAL,4.0,P,elianto,0,0,,1,1.0,-10,0
1x8zaa76pikfxwotrhhxcogi,2,2,3a,166,12,win,go,GW,0.0,U,elianto,1,0,,0,0.0,+1,0
1x8zaa76pikfxwotrhhxcogi,2,2,3a,167,2,lose,go,GAL,5.0,S,elianto,1,0,,0,0.0,-10,0
1x8zaa76pikfxwotrhhxcogi,2,2,3a,168,12,win,no-go,NGW,3.0,G,elianto,0,1,0.7,0,0.0,+1,1
1x8zaa76pikfxwotrhhxcogi,2,2,3a,169,3,lose,go,GAL,5.0,S,elianto,1,0,,0,0.0,-10,0
1x8zaa76pikfxwotrhhxcogi,2,2,3a,170,1,win,no-go,NGW,6.0,W,elianto,0,0,,1,0.0,+10,0
1x8zaa76pikfxwotrhhxcogi,2,2,3a,171,5,lose,no-go,NGAL,4.0,P,elianto,0,0,,1,0.0,-1,0
1x8zaa76pikfxwotrhhxcogi,2,2,3a,172,1,win,no-go,NGW,7.0,E,elianto,0,0,,1,0.0,+10,0
1x8zaa76pikfxwotrhhxcogi,2,2,3a,173,2,win,no-go,NGW,6.0,W,elianto,0,0,,1,0.0,+10,0
1x8zaa76pikfxwotrhhxcogi,2,2,3a,174,4,lose,go,GAL,5.0,S,elianto,1,1,0.81,1,1.0,-10,1
1x8zaa76pikfxwotrhhxcogi,2,2,3a,175,2,win,no-go,NGW,7.0,E,elianto,0,0,,1,0.0,+10,0
1x8zaa76pikfxwotrhhxcogi,2,2,3a,176,6,lose,no-go,NGAL,4.0,P,elianto,0,0,,1,1.0,-10,0
1x8zaa76pikfxwotrhhxcogi,2,2,3a,177,5,lose,go,GAL,5.0,S,elianto,1,0,,0,0.0,-10,0
1x8zaa76pikfxwotrhhxcogi,2,2,3a,178,3,win,no-go,NGW,7.0,E,elianto,0,0,,1,0.0,+10,0
1x8zaa76pikfxwotrhhxcogi,2,2,3a,179,7,lose,no-go,NGAL,4.0,P,elianto,0,0,,1,0.0,-1,0
1x8zaa76pikfxwotrhhxcogi,2,2,3a,180,3,win,no-go,NGW,6.0,W,elianto,0,1,0.455,0,0.0,+1,1
1x8zaa76pikfxwotrhhxcogi,2,2,3a,181,8,lose,no-go,NGAL,4.0,P,elianto,0,0,,1,0.0,-1,0
1x8zaa76pikfxwotrhhxcogi,2,2,3a,182,6,lose,go,GAL,5.0,S,elianto,1,1,0.71,1,0.0,-1,1
1x8zaa76pikfxwotrhhxcogi,2,2,3a,183,4,win,no-go,NGW,6.0,W,elianto,0,1,0.6,0,1.0,+10,1
1x8zaa76pikfxwotrhhxcogi,2,2,3a,184,4,win,no-go,NGW,7.0,E,elianto,0,0,,1,0.0,+10,0
1x8zaa76pikfxwotrhhxcogi,2,2,3a,185,5,win,no-go,NGW,6.0,W,elianto,0,1,0.774,0,0.0,+1,1
1x8zaa76pikfxwotrhhxcogi,2,2,3a,186,7,lose,go,GAL,5.0,S,elianto,1,0,,0,0.0,-10,0
1x8zaa76pikfxwotrhhxcogi,2,2,3a,187,5,win,no-go,NGW,7.0,E,elianto,0,1,0.663,0,0.0,+1,1
1x8zaa76pikfxwotrhhxcogi,2,2,3a,188,9,lose,no-go,NGAL,4.0,P,elianto,0,0,,1,0.0,-1,0
1x8zaa76pikfxwotrhhxcogi,2,2,3a,189,6,win,no-go,NGW,6.0,W,elianto,0,0,,1,1.0,+1,0
1x8zaa76pikfxwotrhhxcogi,2,2,3a,190,10,lose,no-go,NGAL,4.0,P,elianto,0,0,,1,0.0,-1,0
1x8zaa76pikfxwotrhhxcogi,2,2,3a,191,8,lose,go,GAL,5.0,S,elianto,1,0,,0,0.0,-10,0
1x8zaa76pikfxwotrhhxcogi,2,2,3a,192,6,win,no-go,NGW,7.0,E,elianto,0,1,1.041,0,0.0,+1,1
1x8zaa76pikfxwotrhhxcogi,2,2,3a,193,7,win,no-go,NGW,6.0,W,elianto,0,0,,1,1.0,+1,0
1x8zaa76pikfxwotrhhxcogi,2,2,3a,194,9,lose,go,GAL,5.0,S,elianto,1,0,,0,0.0,-10,0
1x8zaa76pikfxwotrhhxcogi,2,2,3a,195,7,win,no-go,NGW,7.0,E,elianto,0,1,0.603,0,0.0,+1,1
1x8zaa76pikfxwotrhhxcogi,2,2,3a,196,11,lose,no-go,NGAL,4.0,P,elianto,0,0,,1,0.0,-1,0
1x8zaa76pikfxwotrhhxcogi,2,2,3a,197,10,lose,go,GAL,5.0,S,elianto,1,1,0.431,1,0.0,-1,1
1x8zaa76pikfxwotrhhxcogi,2,2,3a,198,8,win,no-go,NGW,7.0,E,elianto,0,0,,1,0.0,+10,0
1x8zaa76pikfxwotrhhxcogi,2,2,3a,199,12,lose,no-go,NGAL,4.0,P,elianto,0,1,0.599,0,0.0,-10,1
1x8zaa76pikfxwotrhhxcogi,2,2,3a,200,8,win,no-go,NGW,6.0,W,elianto,0,0,,1,0.0,+10,0
1x8zaa76pikfxwotrhhxcogi,2,2,3a,201,11,lose,go,GAL,5.0,S,elianto,1,0,,0,1.0,-1,0
1x8zaa76pikfxwotrhhxcogi,2,2,3a,202,1,win,go,GW,8.0,K,elianto,1,0,,0,0.0,+1,0
1x8zaa76pikfxwotrhhxcogi,2,2,3a,203,9,win,no-go,NGW,7.0,E,elianto,0,0,,1,0.0,+10,1
1x8zaa76pikfxwotrhhxcogi,2,2,3a,204,1,lose,no-go,NGAL,9.0,D,elianto,0,0,,1,1.0,-10,0
1x8zaa76pikfxwotrhhxcogi,2,2,3a,205,2,win,go,GW,8.0,K,elianto,1,1,0.819,1,0.0,+10,1
1x8zaa76pikfxwotrhhxcogi,2,2,3a,206,12,lose,go,GAL,5.0,S,elianto,1,0,,0,1.0,-1,0
1x8zaa76pikfxwotrhhxcogi,2,2,3a,207,10,win,no-go,NGW,7.0,E,elianto,0,1,0.341,0,0.0,+1,1
1x8zaa76pikfxwotrhhxcogi,2,2,3a,208,2,lose,no-go,NGAL,9.0,D,elianto,0,0,,1,0.0,-1,0
1x8zaa76pikfxwotrhhxcogi,2,2,3a,209,3,win,go,GW,8.0,K,elianto,1,0,,0,0.0,+1,0
1x8zaa76pikfxwotrhhxcogi,2,2,3a,210,3,lose,no-go,NGAL,9.0,D,elianto,0,0,,1,0.0,-1,0
1x8zaa76pikfxwotrhhxcogi,2,2,3a,211,1,win,go,GW,11.0,V,elianto,1,1,0.611,1,0.0,+10,1
1x8zaa76pikfxwotrhhxcogi,2,2,3a,212,1,lose,go,GAL,10.0,J,elianto,1,0,,0,0.0,-10,0
1x8zaa76pikfxwotrhhxcogi,2,2,3a,213,2,lose,go,GAL,10.0,J,elianto,1,0,,0,1.0,-1,0
1x8zaa76pikfxwotrhhxcogi,2,2,3a,214,4,win,go,GW,8.0,K,elianto,1,0,,0,0.0,+1,0
1x8zaa76pikfxwotrhhxcogi,2,2,3a,215,4,lose,no-go,NGAL,9.0,D,elianto,0,0,,1,1.0,-10,0
1x8zaa76pikfxwotrhhxcogi,2,2,3a,216,2,win,go,GW,11.0,V,elianto,1,1,0.805,1,0.0,+10,1
1x8zaa76pikfxwotrhhxcogi,2,2,3a,217,5,win,go,GW,8.0,K,elianto,1,0,,0,0.0,+1,0
1x8zaa76pikfxwotrhhxcogi,2,2,3a,218,3,lose,go,GAL,10.0,J,elianto,1,1,0.316,1,0.0,-1,1
1x8zaa76pikfxwotrhhxcogi,2,2,3a,219,3,win,go,GW,11.0,V,elianto,1,1,0.64,1,0.0,+10,1
1x8zaa76pikfxwotrhhxcogi,2,2,3a,220,5,lose,no-go,NGAL,9.0,D,elianto,0,0,,1,0.0,-1,0
1x8zaa76pikfxwotrhhxcogi,2,2,3a,221,4,lose,go,GAL,10.0,J,elianto,1,0,,0,0.0,-10,0
1x8zaa76pikfxwotrhhxcogi,2,2,3a,222,6,win,go,GW,8.0,K,elianto,1,1,0.651,1,0.0,+10,1
1x8zaa76pikfxwotrhhxcogi,2,2,3a,223,6,lose,no-go,NGAL,9.0,D,elianto,0,0,,1,0.0,-1,0
1x8zaa76pikfxwotrhhxcogi,2,2,3a,224,4,win,go,GW,11.0,V,elianto,1,1,0.517,1,0.0,+10,1
1x8zaa76pikfxwotrhhxcogi,2,2,3a,225,5,win,go,GW,11.0,V,elianto,1,0,,0,1.0,+10,0
1x8zaa76pikfxwotrhhxcogi,2,2,3a,226,7,win,go,GW,8.0,K,elianto,1,0,,0,0.0,+1,0
1x8zaa76pikfxwotrhhxcogi,2,2,3a,227,5,lose,go,GAL,10.0,J,elianto,1,0,,0,0.0,-10,0
1x8zaa76pikfxwotrhhxcogi,2,2,3a,228,7,lose,no-go,NGAL,9.0,D,elianto,0,0,,1,0.0,-1,0
1x8zaa76pikfxwotrhhxcogi,2,2,3a,229,6,lose,go,GAL,10.0,J,elianto,1,1,0.791,1,1.0,-10,1
1x8zaa76pikfxwotrhhxcogi,2,2,3a,230,8,win,go,GW,8.0,K,elianto,1,1,0.631,1,0.0,+10,1
1x8zaa76pikfxwotrhhxcogi,2,2,3a,231,6,win,go,GW,11.0,V,elianto,1,0,,0,0.0,+1,0
1x8zaa76pikfxwotrhhxcogi,2,2,3a,232,8,lose,no-go,NGAL,9.0,D,elianto,0,0,,1,0.0,-1,0
1x8zaa76pikfxwotrhhxcogi,2,2,3a,233,9,lose,no-go,NGAL,9.0,D,elianto,0,0,,1,0.0,-1,0
1x8zaa76pikfxwotrhhxcogi,2,2,3a,234,7,win,go,GW,11.0,V,elianto,1,1,0.849,1,0.0,+10,1
1x8zaa76pikfxwotrhhxcogi,2,2,3a,235,9,win,go,GW,8.0,K,elianto,1,0,,0,0.0,+1,0
1x8zaa76pikfxwotrhhxcogi,2,2,3a,236,7,lose,go,GAL,10.0,J,elianto,1,0,,0,0.0,-10,0
1x8zaa76pikfxwotrhhxcogi,2,2,3a,237,8,lose,go,GAL,10.0,J,elianto,1,0,,0,1.0,-1,0
1x8zaa76pikfxwotrhhxcogi,2,2,3a,238,10,lose,no-go,NGAL,9.0,D,elianto,0,1,0.88,0,0.0,-10,1
1x8zaa76pikfxwotrhhxcogi,2,2,3a,239,10,win,go,GW,8.0,K,elianto,1,0,,0,0.0,+1,0
1x8zaa76pikfxwotrhhxcogi,2,2,3a,240,8,win,go,GW,11.0,V,elianto,1,0,,0,0.0,+1,0
1ztbhfxllii1xhq9f1v62x26,2,1,3a,1,1,lose,no-go,NGAL,2.0,A,bacs2,0,0,,1,0.0,-1,0
1ztbhfxllii1xhq9f1v62x26,2,1,3a,2,1,win,no-go,NGW,3.0,U,bacs2,0,0,,1,0.0,+10,0
