[{"view_history":"[{\"page_index\":0,\"viewing_time\":6946.524999977555}]","rt":6947.820000001229,"trial_type":"instructions","trial_index":0,"time_elapsed":6970,"internal_node_id":"0.0-0.0","task_version":"battery-v0.2-trt","session":3},{"slider_type":"valence","raw_loc":734,"loc":0.968,"trial_type":"affective-slider","trial_index":1,"time_elapsed":10808,"internal_node_id":"0.0-1.0","task_version":"battery-v0.2-trt","session":3},{"responses":{"Q01":"0","Q07":"0","Q05":"0","Q04":"0","Q02":"0","Q06":"0","Q03":"0","Q08":"0"},"rt":36062.4850000022,"item_order":[0,6,4,3,1,5,2,7],"radio_events":[12930.770000035409,15037.835000024643,18253.960000001825,20476.514999987558,21120.050000026822,32385.125000029802,33414.11000001244,34812.21500004176],"key_events":[],"mouse_events":[12930.770000035409,15037.835000024643,18253.960000001825,19260.725000000093,20476.514999987558,21120.050000026822,32385.125000029802,33414.11000001244,34812.21500004176,36060.180000029504],"straightlining":1,"zigzagging":0,"survey":"gad7","trial_type":"survey-template","trial_index":2,"time_elapsed":46875,"internal_node_id":"0.0-2.0","task_version":"battery-v0.2-trt","session":3,"infrequency":0},{"responses":{"Q03":"0","Q07":"0","Q06":"0","Q01":"0","Q08":"3","Q04":"0","Q02":"0","Q05":"0"},"rt":17077.37499999348,"item_order":[2,6,5,0,7,3,1,4],"radio_events":[3386.319999990519,4535.83999996772,6239.464999991469,8323.355000000447,11653.419999987818,13088.575000001583,14861.584999947809,15756.284999952186],"key_events":[],"mouse_events":[3386.319999990519,4535.83999996772,6239.464999991469,8323.355000000447,11653.419999987818,13088.575000001583,14861.584999947809,15756.284999952186,17075.50999999512],"straightlining":0.875,"zigzagging":0.2857142857142857,"survey":"dass_d","trial_type":"survey-template","trial_index":3,"time_elapsed":63957,"internal_node_id":"0.0-3.0","task_version":"battery-v0.2-trt","session":3,"infrequency":0},{"view_history":"[{\"page_index\":0,\"viewing_time\":4224.4149999460205},{\"page_index\":1,\"viewing_time\":3229.8950000549667},{\"page_index\":2,\"viewing_time\":8520.319999952335},{\"page_index\":3,\"viewing_time\":2995.615000021644},{\"page_index\":4,\"viewing_time\":4258.039999986067},{\"page_index\":5,\"viewing_time\":4546.60000000149},{\"page_index\":6,\"viewing_time\":6626.785000029486},{\"page_index\":7,\"viewing_time\":3179.984999995213},{\"page_index\":8,\"viewing_time\":4916.949999984354},{\"page_index\":9,\"viewing_time\":4671.924999973271}]","rt":47172.029999957886,"trial_type":"pit-instructions","trial_index":4,"time_elapsed":111134,"internal_node_id":"0.0-4.0-0.0","task_version":"battery-v0.2-trt","session":3},{"rune":"1","rune_set":"elianto","hex":"#3366ff99","correct":32,"choice":32,"rt":322.22000003093854,"accuracy":1,"outcome":"+10","keys":[1823.0050000129268],"total_keys":1,"block":0,"practice":1,"trial_type":"pit-trial","trial_index":5,"time_elapsed":114171,"internal_node_id":"0.0-4.0-1.0-0.0","task_version":"battery-v0.2-trt","session":3},{"rune":"1","rune_set":"elianto","hex":"#3366ff99","correct":32,"choice":32,"rt":448.1099999975413,"accuracy":1,"outcome":"+10","keys":[1949.620000028517],"total_keys":1,"block":0,"practice":1,"trial_type":"pit-trial","trial_index":6,"time_elapsed":117330,"internal_node_id":"0.0-4.0-1.1-0.1","task_version":"battery-v0.2-trt","session":3},{"rune":"1","rune_set":"elianto","hex":"#3366ff99","correct":32,"choice":32,"rt":384.9499999778345,"accuracy":1,"outcome":"+10","keys":[1885.6350000132807],"total_keys":1,"block":0,"practice":1,"trial_type":"pit-trial","trial_index":7,"time_elapsed":120423,"internal_node_id":"0.0-4.0-1.2-0.2","task_version":"battery-v0.2-trt","session":3},{"rune":"1","rune_set":"elianto","hex":"#3366ff99","correct":32,"choice":32,"rt":432.8050000476651,"accuracy":1,"outcome":"+10","keys":[1932.874999998603],"total_keys":1,"block":0,"practice":1,"trial_type":"pit-trial","trial_index":8,"time_elapsed":123562,"internal_node_id":"0.0-4.0-1.3-0.3","task_version":"battery-v0.2-trt","session":3},{"trial_type":"call-function","trial_index":9,"time_elapsed":123565,"internal_node_id":"0.0-4.0-2.0","task_version":"battery-v0.2-trt","session":3},{"view_history":"[{\"page_index\":0,\"viewing_time\":3385.6500000110827},{\"page_index\":1,\"viewing_time\":3000.3949999809265}]","rt":6386.575000011362,"trial_type":"pit-instructions","trial_index":10,"time_elapsed":129953,"internal_node_id":"0.0-4.0-3.0","task_version":"battery-v0.2-trt","session":3},{"rune":"2","rune_set":"elianto","hex":"#3366ff99","correct":-1,"choice":-1,"rt":-1,"accuracy":1,"outcome":"+10","keys":[],"total_keys":0,"block":0,"practice":2,"trial_type":"pit-trial","trial_index":11,"time_elapsed":133960,"internal_node_id":"0.0-4.0-4.0-0.0","task_version":"battery-v0.2-trt","session":3},{"rune":"2","rune_set":"elianto","hex":"#3366ff99","correct":-1,"choice":-1,"rt":-1,"accuracy":1,"outcome":"+10","keys":[],"total_keys":0,"block":0,"practice":2,"trial_type":"pit-trial","trial_index":12,"time_elapsed":137968,"internal_node_id":"0.0-4.0-4.1-0.1","task_version":"battery-v0.2-trt","session":3},{"rune":"2","rune_set":"elianto","hex":"#3366ff99","correct":-1,"choice":-1,"rt":-1,"accuracy":1,"outcome":"+10","keys":[],"total_keys":0,"block":0,"practice":2,"trial_type":"pit-trial","trial_index":13,"time_elapsed":141976,"internal_node_id":"0.0-4.0-4.2-0.2","task_version":"battery-v0.2-trt","session":3},{"rune":"2","rune_set":"elianto","hex":"#3366ff99","correct":-1,"choice":-1,"rt":-1,"accuracy":1,"outcome":"+10","keys":[],"total_keys":0,"block":0,"practice":2,"trial_type":"pit-trial","trial_index":14,"time_elapsed":145983,"internal_node_id":"0.0-4.0-4.3-0.3","task_version":"battery-v0.2-trt","session":3},{"trial_type":"call-function","trial_index":15,"time_elapsed":145984,"internal_node_id":"0.0-4.0-5.0","task_version":"battery-v0.2-trt","session":3},{"view_history":"[{\"page_index\":0,\"viewing_time\":3263.4499999694526},{\"page_index\":1,\"viewing_time\":2080.9550000121817}]","rt":5345.195000001695,"trial_type":"pit-instructions","trial_index":16,"time_elapsed":151330,"internal_node_id":"0.0-4.0-6.0","task_version":"battery-v0.2-trt","session":3},{"rune":"3","rune_set":"elianto","hex":"#f73b6a7A","correct":-1,"choice":32,"rt":190.54000003961846,"accuracy":0,"outcome":"-10","keys":[1692.414999997709],"total_keys":1,"block":0,"practice":3,"trial_type":"pit-trial","trial_index":17,"time_elapsed":154228,"internal_node_id":"0.0-4.0-7.0-0.0","task_version":"battery-v0.2-trt","session":3},{"rune":"3","rune_set":"elianto","hex":"#f73b6a7A","correct":-1,"choice":-1,"rt":-1,"accuracy":1,"outcome":"-1","keys":[],"total_keys":0,"block":0,"practice":3,"trial_type":"pit-trial","trial_index":18,"time_elapsed":158235,"internal_node_id":"0.0-4.0-7.1-0.1","task_version":"battery-v0.2-trt","session":3},{"rune":"3","rune_set":"elianto","hex":"#f73b6a7A","correct":-1,"choice":-1,"rt":-1,"accuracy":1,"outcome":"-1","keys":[],"total_keys":0,"block":0,"practice":3,"trial_type":"pit-trial","trial_index":19,"time_elapsed":162240,"internal_node_id":"0.0-4.0-7.2-0.2","task_version":"battery-v0.2-trt","session":3},{"rune":"3","rune_set":"elianto","hex":"#f73b6a7A","correct":-1,"choice":-1,"rt":-1,"accuracy":1,"outcome":"-1","keys":[],"total_keys":0,"block":0,"practice":3,"trial_type":"pit-trial","trial_index":20,"time_elapsed":166244,"internal_node_id":"0.0-4.0-7.3-0.3","task_version":"battery-v0.2-trt","session":3},{"trial_type":"call-function","trial_index":21,"time_elapsed":166247,"internal_node_id":"0.0-4.0-8.0","task_version":"battery-v0.2-trt","session":3},{"view_history":"[{\"page_index\":0,\"viewing_time\":4054.6249999897555},{\"page_index\":1,\"viewing_time\":1270.2100000460632}]","rt":5326.274999999441,"trial_type":"pit-instructions","trial_index":22,"time_elapsed":171574,"internal_node_id":"0.0-4.0-9.0","task_version":"battery-v0.2-trt","session":3},{"rune":"4","rune_set":"elianto","hex":"#f73b6a7A","correct":32,"choice":32,"rt":384.52000002143905,"accuracy":1,"outcome":"-1","keys":[1885.3649999946356],"total_keys":1,"block":0,"practice":4,"trial_type":"pit-trial","trial_index":23,"time_elapsed":174665,"internal_node_id":"0.0-4.0-10.0-0.0","task_version":"battery-v0.2-trt","session":3},{"rune":"4","rune_set":"elianto","hex":"#f73b6a7A","correct":32,"choice":32,"rt":316.6099999798462,"accuracy":1,"outcome":"-1","keys":[1816.9750000233762],"total_keys":1,"block":0,"practice":4,"trial_type":"pit-trial","trial_index":24,"time_elapsed":177687,"internal_node_id":"0.0-4.0-10.1-0.1","task_version":"battery-v0.2-trt","session":3},{"rune":"4","rune_set":"elianto","hex":"#f73b6a7A","correct":32,"choice":32,"rt":450.6600000313483,"accuracy":1,"outcome":"-1","keys":[1951.5949999913573],"total_keys":1,"block":0,"practice":4,"trial_type":"pit-trial","trial_index":25,"time_elapsed":180844,"internal_node_id":"0.0-4.0-10.2-0.2","task_version":"battery-v0.2-trt","session":3},{"rune":"4","rune_set":"elianto","hex":"#f73b6a7A","correct":32,"choice":32,"rt":284.51999998651445,"accuracy":1,"outcome":"-1","keys":[1785.260000033304],"total_keys":1,"block":0,"practice":4,"trial_type":"pit-trial","trial_index":26,"time_elapsed":183837,"internal_node_id":"0.0-4.0-10.3-0.3","task_version":"battery-v0.2-trt","session":3},{"trial_type":"call-function","trial_index":27,"time_elapsed":183838,"internal_node_id":"0.0-4.0-11.0","task_version":"battery-v0.2-trt","session":3},{"view_history":"[{\"page_index\":0,\"viewing_time\":9105.489999987185},{\"page_index\":1,\"viewing_time\":5066.240000014659},{\"page_index\":2,\"viewing_time\":5741.050000011455},{\"page_index\":3,\"viewing_time\":4079.12499998929},{\"page_index\":4,\"viewing_time\":8375.270000018645},{\"page_index\":5,\"viewing_time\":1801.9900000072084}]","rt":34170.34000001149,"trial_type":"pit-instructions","trial_index":28,"time_elapsed":218008,"internal_node_id":"0.0-4.0-12.0","task_version":"battery-v0.2-trt","session":3},{"responses":["Press SPACE","+10","-1","True","True"],"num_errors":0,"rt":24031.22499998426,"trial_type":"pit-comprehension","trial_index":29,"time_elapsed":242050,"internal_node_id":"0.0-4.0-13.0","task_version":"battery-v0.2-trt","session":3},{"view_history":"[{\"page_index\":0,\"viewing_time\":1699.5999999926426},{\"page_index\":1,\"viewing_time\":3884.39500000095}]","rt":5585.09500004584,"trial_type":"pit-instructions","trial_index":30,"time_elapsed":247645,"internal_node_id":"0.0-5.0","task_version":"battery-v0.2-trt","session":3},{"rune":"O","rune_set":"bacs1","hex":"#3366ff99","correct":32,"choice":32,"rt":312.47000000439584,"accuracy":1,"outcome":"+10","keys":[1813.254999986384],"total_keys":1,"block":1,"trial":1,"stimulus":3,"robot":1,"valence":"win","action":"go","sham":0,"trial_type":"pit-trial","trial_index":31,"time_elapsed":250668,"internal_node_id":"0.0-6.0","task_version":"battery-v0.2-trt","session":3},{"rune":"I","rune_set":"bacs1","hex":"#f73b6a7A","correct":-1,"choice":32,"rt":619.5250000455417,"accuracy":0,"outcome":"-10","keys":[2120.0800000224262],"total_keys":1,"block":1,"trial":2,"stimulus":2,"robot":4,"valence":"lose","action":"no-go","sham":0,"trial_type":"pit-trial","trial_index":32,"time_elapsed":253991,"internal_node_id":"0.0-7.0","task_version":"battery-v0.2-trt","session":3},{"rune":"N","rune_set":"bacs1","hex":"#3366ff99","correct":-1,"choice":32,"rt":539.7199999424629,"accuracy":0,"outcome":"+1","keys":[2040.534999978263],"total_keys":1,"block":1,"trial":3,"stimulus":0,"robot":2,"valence":"win","action":"no-go","sham":0,"trial_type":"pit-trial","trial_index":33,"time_elapsed":257233,"internal_node_id":"0.0-8.0","task_version":"battery-v0.2-trt","session":3},{"rune":"G","rune_set":"bacs1","hex":"#f73b6a7A","correct":32,"choice":32,"rt":418.02499996265396,"accuracy":1,"outcome":"-1","keys":[1919.9000000371598],"total_keys":1,"block":1,"trial":4,"stimulus":1,"robot":3,"valence":"lose","action":"go","sham":0,"trial_type":"pit-trial","trial_index":34,"time_elapsed":260361,"internal_node_id":"0.0-9.0","task_version":"battery-v0.2-trt","session":3},{"rune":"G","rune_set":"bacs1","hex":"#f73b6a7A","correct":32,"choice":32,"rt":529.8999999649823,"accuracy":1,"outcome":"-10","keys":[2029.964999994263],"total_keys":1,"block":1,"trial":5,"stimulus":1,"robot":3,"valence":"lose","action":"go","sham":1,"trial_type":"pit-trial","trial_index":35,"time_elapsed":263598,"internal_node_id":"0.0-10.0","task_version":"battery-v0.2-trt","session":3},{"rune":"O","rune_set":"bacs1","hex":"#3366ff99","correct":32,"choice":32,"rt":406.139999977313,"accuracy":1,"outcome":"+10","keys":[1907.230000011623],"total_keys":1,"block":1,"trial":6,"stimulus":3,"robot":1,"valence":"win","action":"go","sham":0,"trial_type":"pit-trial","trial_index":36,"time_elapsed":266715,"internal_node_id":"0.0-11.0","task_version":"battery-v0.2-trt","session":3},{"rune":"I","rune_set":"bacs1","hex":"#f73b6a7A","correct":-1,"choice":-1,"rt":-1,"accuracy":1,"outcome":"-1","keys":[],"total_keys":0,"block":1,"trial":7,"stimulus":2,"robot":4,"valence":"lose","action":"no-go","sham":0,"trial_type":"pit-trial","trial_index":37,"time_elapsed":270720,"internal_node_id":"0.0-12.0","task_version":"battery-v0.2-trt","session":3},{"rune":"N","rune_set":"bacs1","hex":"#3366ff99","correct":-1,"choice":32,"rt":692.0750000281259,"accuracy":0,"outcome":"+1","keys":[2192.559999995865],"total_keys":1,"block":1,"trial":8,"stimulus":0,"robot":2,"valence":"win","action":"no-go","sham":0,"trial_type":"pit-trial","trial_index":38,"time_elapsed":274119,"internal_node_id":"0.0-13.0","task_version":"battery-v0.2-trt","session":3},{"rune":"I","rune_set":"bacs1","hex":"#f73b6a7A","correct":-1,"choice":-1,"rt":-1,"accuracy":1,"outcome":"-1","keys":[],"total_keys":0,"block":1,"trial":9,"stimulus":2,"robot":4,"valence":"lose","action":"no-go","sham":0,"trial_type":"pit-trial","trial_index":39,"time_elapsed":278124,"internal_node_id":"0.0-14.0","task_version":"battery-v0.2-trt","session":3},{"rune":"O","rune_set":"bacs1","hex":"#3366ff99","correct":32,"choice":32,"rt":374.70499996561557,"accuracy":1,"outcome":"+10","keys":[1875.2699999604374],"total_keys":1,"block":1,"trial":10,"stimulus":3,"robot":1,"valence":"win","action":"go","sham":0,"trial_type":"pit-trial","trial_index":40,"time_elapsed":281202,"internal_node_id":"0.0-15.0","task_version":"battery-v0.2-trt","session":3},{"rune":"G","rune_set":"bacs1","hex":"#f73b6a7A","correct":32,"choice":-1,"rt":-1,"accuracy":0,"outcome":"-1","keys":[],"total_keys":0,"block":1,"trial":11,"stimulus":1,"robot":3,"valence":"lose","action":"go","sham":1,"trial_type":"pit-trial","trial_index":41,"time_elapsed":285211,"internal_node_id":"0.0-16.0","task_version":"battery-v0.2-trt","session":3},{"rune":"N","rune_set":"bacs1","hex":"#3366ff99","correct":-1,"choice":32,"rt":546.4550000033341,"accuracy":0,"outcome":"+1","keys":[2047.084999969229],"total_keys":1,"block":1,"trial":12,"stimulus":0,"robot":2,"valence":"win","action":"no-go","sham":0,"trial_type":"pit-trial","trial_index":42,"time_elapsed":288463,"internal_node_id":"0.0-17.0","task_version":"battery-v0.2-trt","session":3},{"rune":"G","rune_set":"bacs1","hex":"#f73b6a7A","correct":32,"choice":-1,"rt":-1,"accuracy":0,"outcome":"-10","keys":[],"total_keys":0,"block":1,"trial":13,"stimulus":1,"robot":3,"valence":"lose","action":"go","sham":0,"trial_type":"pit-trial","trial_index":43,"time_elapsed":292469,"internal_node_id":"0.0-18.0","task_version":"battery-v0.2-trt","session":3},{"rune":"I","rune_set":"bacs1","hex":"#f73b6a7A","correct":-1,"choice":-1,"rt":-1,"accuracy":1,"outcome":"-1","keys":[],"total_keys":0,"block":1,"trial":14,"stimulus":2,"robot":4,"valence":"lose","action":"no-go","sham":0,"trial_type":"pit-trial","trial_index":44,"time_elapsed":296474,"internal_node_id":"0.0-19.0","task_version":"battery-v0.2-trt","session":3},{"rune":"N","rune_set":"bacs1","hex":"#3366ff99","correct":-1,"choice":32,"rt":630.0799999735318,"accuracy":0,"outcome":"+10","keys":[2130.3750000079162],"total_keys":1,"block":1,"trial":15,"stimulus":0,"robot":2,"valence":"win","action":"no-go","sham":1,"trial_type":"pit-trial","trial_index":45,"time_elapsed":299811,"internal_node_id":"0.0-20.0","task_version":"battery-v0.2-trt","session":3},{"rune":"O","rune_set":"bacs1","hex":"#3366ff99","correct":32,"choice":32,"rt":530.0000000279397,"accuracy":1,"outcome":"+10","keys":[2030.380000011064],"total_keys":1,"block":1,"trial":16,"stimulus":3,"robot":1,"valence":"win","action":"go","sham":0,"trial_type":"pit-trial","trial_index":46,"time_elapsed":303047,"internal_node_id":"0.0-21.0","task_version":"battery-v0.2-trt","session":3},{"rune":"N","rune_set":"bacs1","hex":"#3366ff99","correct":-1,"choice":32,"rt":757.210000010673,"accuracy":0,"outcome":"+1","keys":[2258.1350000109524],"total_keys":1,"block":1,"trial":17,"stimulus":0,"robot":2,"valence":"win","action":"no-go","sham":0,"trial_type":"pit-trial","trial_index":47,"time_elapsed":306511,"internal_node_id":"0.0-22.0","task_version":"battery-v0.2-trt","session":3},{"rune":"I","rune_set":"bacs1","hex":"#f73b6a7A","correct":-1,"choice":-1,"rt":-1,"accuracy":1,"outcome":"-1","keys":[],"total_keys":0,"block":1,"trial":18,"stimulus":2,"robot":4,"valence":"lose","action":"no-go","sham":0,"trial_type":"pit-trial","trial_index":48,"time_elapsed":310519,"internal_node_id":"0.0-23.0","task_version":"battery-v0.2-trt","session":3},{"rune":"O","rune_set":"bacs1","hex":"#3366ff99","correct":32,"choice":32,"rt":582.010000012815,"accuracy":1,"outcome":"+10","keys":[2082.6300000189804],"total_keys":1,"block":1,"trial":19,"stimulus":3,"robot":1,"valence":"win","action":"go","sham":0,"trial_type":"pit-trial","trial_index":49,"time_elapsed":313811,"internal_node_id":"0.0-24.0","task_version":"battery-v0.2-trt","session":3},{"rune":"G","rune_set":"bacs1","hex":"#f73b6a7A","correct":32,"choice":32,"rt":1179.6150000300258,"accuracy":1,"outcome":"-1","keys":[2680.114999995567],"total_keys":1,"block":1,"trial":20,"stimulus":1,"robot":3,"valence":"lose","action":"go","sham":0,"trial_type":"pit-trial","trial_index":50,"time_elapsed":317700,"internal_node_id":"0.0-25.0","task_version":"battery-v0.2-trt","session":3},{"rune":"O","rune_set":"bacs1","hex":"#3366ff99","correct":32,"choice":32,"rt":494.6149999741465,"accuracy":1,"outcome":"+10","keys":[1995.4600000055507],"total_keys":1,"block":1,"trial":21,"stimulus":3,"robot":1,"valence":"win","action":"go","sham":0,"trial_type":"pit-trial","trial_index":51,"time_elapsed":320900,"internal_node_id":"0.0-26.0","task_version":"battery-v0.2-trt","session":3},{"rune":"I","rune_set":"bacs1","hex":"#f73b6a7A","correct":-1,"choice":-1,"rt":-1,"accuracy":1,"outcome":"-1","keys":[],"total_keys":0,"block":1,"trial":22,"stimulus":2,"robot":4,"valence":"lose","action":"no-go","sham":0,"trial_type":"pit-trial","trial_index":52,"time_elapsed":324908,"internal_node_id":"0.0-27.0","task_version":"battery-v0.2-trt","session":3},{"rune":"N","rune_set":"bacs1","hex":"#3366ff99","correct":-1,"choice":32,"rt":937.8750000032596,"accuracy":0,"outcome":"+1","keys":[2438.94000002183],"total_keys":1,"block":1,"trial":23,"stimulus":0,"robot":2,"valence":"win","action":"no-go","sham":0,"trial_type":"pit-trial","trial_index":53,"time_elapsed":328552,"internal_node_id":"0.0-28.0","task_version":"battery-v0.2-trt","session":3},{"rune":"G","rune_set":"bacs1","hex":"#f73b6a7A","correct":32,"choice":32,"rt":1058.2050000084564,"accuracy":1,"outcome":"-10","keys":[2558.729999989737],"total_keys":1,"block":1,"trial":24,"stimulus":1,"robot":3,"valence":"lose","action":"go","sham":1,"trial_type":"pit-trial","trial_index":54,"time_elapsed":332314,"internal_node_id":"0.0-29.0","task_version":"battery-v0.2-trt","session":3},{"rune":"I","rune_set":"bacs1","hex":"#f73b6a7A","correct":-1,"choice":-1,"rt":-1,"accuracy":1,"outcome":"-1","keys":[],"total_keys":0,"block":1,"trial":25,"stimulus":2,"robot":4,"valence":"lose","action":"no-go","sham":0,"trial_type":"pit-trial","trial_index":55,"time_elapsed":336318,"internal_node_id":"0.0-30.0","task_version":"battery-v0.2-trt","session":3},{"rune":"N","rune_set":"bacs1","hex":"#3366ff99","correct":-1,"choice":32,"rt":637.1100000105798,"accuracy":0,"outcome":"+1","keys":[2138.234999962151],"total_keys":1,"block":1,"trial":26,"stimulus":0,"robot":2,"valence":"win","action":"no-go","sham":0,"trial_type":"pit-trial","trial_index":56,"time_elapsed":339662,"internal_node_id":"0.0-31.0","task_version":"battery-v0.2-trt","session":3},{"rune":"O","rune_set":"bacs1","hex":"#3366ff99","correct":32,"choice":32,"rt":409.18000001693144,"accuracy":1,"outcome":"+1","keys":[1909.3149999971502],"total_keys":1,"block":1,"trial":27,"stimulus":3,"robot":1,"valence":"win","action":"go","sham":1,"trial_type":"pit-trial","trial_index":57,"time_elapsed":342776,"internal_node_id":"0.0-32.0","task_version":"battery-v0.2-trt","session":3},{"rune":"G","rune_set":"bacs1","hex":"#f73b6a7A","correct":32,"choice":-1,"rt":-1,"accuracy":0,"outcome":"-10","keys":[],"total_keys":0,"block":1,"trial":28,"stimulus":1,"robot":3,"valence":"lose","action":"go","sham":0,"trial_type":"pit-trial","trial_index":58,"time_elapsed":346782,"internal_node_id":"0.0-33.0","task_version":"battery-v0.2-trt","session":3},{"rune":"I","rune_set":"bacs1","hex":"#f73b6a7A","correct":-1,"choice":-1,"rt":-1,"accuracy":1,"outcome":"-1","keys":[],"total_keys":0,"block":1,"trial":29,"stimulus":2,"robot":4,"valence":"lose","action":"no-go","sham":0,"trial_type":"pit-trial","trial_index":59,"time_elapsed":350788,"internal_node_id":"0.0-34.0","task_version":"battery-v0.2-trt","session":3},{"rune":"G","rune_set":"bacs1","hex":"#f73b6a7A","correct":32,"choice":-1,"rt":-1,"accuracy":0,"outcome":"-10","keys":[],"total_keys":0,"block":1,"trial":30,"stimulus":1,"robot":3,"valence":"lose","action":"go","sham":0,"trial_type":"pit-trial","trial_index":60,"time_elapsed":354795,"internal_node_id":"0.0-35.0","task_version":"battery-v0.2-trt","session":3},{"rune":"N","rune_set":"bacs1","hex":"#3366ff99","correct":-1,"choice":32,"rt":718.0850000004284,"accuracy":0,"outcome":"+10","keys":[2218.524999974761],"total_keys":1,"block":1,"trial":31,"stimulus":0,"robot":2,"valence":"win","action":"no-go","sham":1,"trial_type":"pit-trial","trial_index":61,"time_elapsed":358219,"internal_node_id":"0.0-36.0","task_version":"battery-v0.2-trt","session":3},{"rune":"O","rune_set":"bacs1","hex":"#3366ff99","correct":32,"choice":32,"rt":900.5550000001676,"accuracy":1,"outcome":"+10","keys":[2402.36000000732],"total_keys":1,"block":1,"trial":32,"stimulus":3,"robot":1,"valence":"win","action":"go","sham":0,"trial_type":"pit-trial","trial_index":62,"time_elapsed":361827,"internal_node_id":"0.0-37.0","task_version":"battery-v0.2-trt","session":3},{"rune":"K","rune_set":"bacs1","hex":"#f73b6a7A","correct":-1,"choice":32,"rt":666.2600000272505,"accuracy":0,"outcome":"-10","keys":[2166.9249999686144],"total_keys":1,"block":1,"trial":33,"stimulus":5,"robot":4,"valence":"lose","action":"no-go","sham":0,"trial_type":"pit-trial","trial_index":63,"time_elapsed":365202,"internal_node_id":"0.0-38.0","task_version":"battery-v0.2-trt","session":3},{"rune":"I","rune_set":"bacs1","hex":"#f73b6a7A","correct":-1,"choice":-1,"rt":-1,"accuracy":1,"outcome":"-1","keys":[],"total_keys":0,"block":1,"trial":34,"stimulus":2,"robot":4,"valence":"lose","action":"no-go","sham":0,"trial_type":"pit-trial","trial_index":64,"time_elapsed":369208,"internal_node_id":"0.0-39.0","task_version":"battery-v0.2-trt","session":3},{"rune":"G","rune_set":"bacs1","hex":"#f73b6a7A","correct":32,"choice":-1,"rt":-1,"accuracy":0,"outcome":"-10","keys":[],"total_keys":0,"block":1,"trial":35,"stimulus":1,"robot":3,"valence":"lose","action":"go","sham":0,"trial_type":"pit-trial","trial_index":65,"time_elapsed":373220,"internal_node_id":"0.0-40.0","task_version":"battery-v0.2-trt","session":3},{"rune":"D","rune_set":"bacs1","hex":"#f73b6a7A","correct":32,"choice":32,"rt":602.2050000028685,"accuracy":1,"outcome":"-1","keys":[2102.820000029169],"total_keys":1,"block":1,"trial":36,"stimulus":4,"robot":3,"valence":"lose","action":"go","sham":0,"trial_type":"pit-trial","trial_index":66,"time_elapsed":376528,"internal_node_id":"0.0-41.0","task_version":"battery-v0.2-trt","session":3},{"rune":"D","rune_set":"bacs1","hex":"#f73b6a7A","correct":32,"choice":32,"rt":650.7050000363961,"accuracy":1,"outcome":"-10","keys":[2152.524999983143],"total_keys":1,"block":1,"trial":37,"stimulus":4,"robot":3,"valence":"lose","action":"go","sham":1,"trial_type":"pit-trial","trial_index":67,"time_elapsed":379886,"internal_node_id":"0.0-42.0","task_version":"battery-v0.2-trt","session":3},{"rune":"G","rune_set":"bacs1","hex":"#f73b6a7A","correct":32,"choice":32,"rt":838.6900000041351,"accuracy":1,"outcome":"-1","keys":[2339.2800000146963],"total_keys":1,"block":1,"trial":38,"stimulus":1,"robot":3,"valence":"lose","action":"go","sham":0,"trial_type":"pit-trial","trial_index":68,"time_elapsed":383430,"internal_node_id":"0.0-43.0","task_version":"battery-v0.2-trt","session":3},{"rune":"I","rune_set":"bacs1","hex":"#f73b6a7A","correct":-1,"choice":-1,"rt":-1,"accuracy":1,"outcome":"-1","keys":[],"total_keys":0,"block":1,"trial":39,"stimulus":2,"robot":4,"valence":"lose","action":"no-go","sham":0,"trial_type":"pit-trial","trial_index":69,"time_elapsed":387434,"internal_node_id":"0.0-44.0","task_version":"battery-v0.2-trt","session":3},{"rune":"K","rune_set":"bacs1","hex":"#f73b6a7A","correct":-1,"choice":32,"rt":765.430000028573,"accuracy":0,"outcome":"-10","keys":[2266.6449999669567],"total_keys":1,"block":1,"trial":40,"stimulus":5,"robot":4,"valence":"lose","action":"no-go","sham":0,"trial_type":"pit-trial","trial_index":70,"time_elapsed":390905,"internal_node_id":"0.0-45.0","task_version":"battery-v0.2-trt","session":3},{"rune":"K","rune_set":"bacs1","hex":"#f73b6a7A","correct":-1,"choice":-1,"rt":-1,"accuracy":1,"outcome":"-1","keys":[],"total_keys":0,"block":1,"trial":41,"stimulus":5,"robot":4,"valence":"lose","action":"no-go","sham":0,"trial_type":"pit-trial","trial_index":71,"time_elapsed":394912,"internal_node_id":"0.0-46.0","task_version":"battery-v0.2-trt","session":3},{"rune":"S","rune_set":"bacs1","hex":"#3366ff99","correct":-1,"choice":32,"rt":633.960000006482,"accuracy":0,"outcome":"+10","keys":[2134.345000027679],"total_keys":1,"block":1,"trial":42,"stimulus":6,"robot":2,"valence":"win","action":"no-go","sham":1,"trial_type":"pit-trial","trial_index":72,"time_elapsed":398252,"internal_node_id":"0.0-47.0","task_version":"battery-v0.2-trt","session":3},{"rune":"D","rune_set":"bacs1","hex":"#f73b6a7A","correct":32,"choice":-1,"rt":-1,"accuracy":0,"outcome":"-1","keys":[],"total_keys":0,"block":1,"trial":43,"stimulus":4,"robot":3,"valence":"lose","action":"go","sham":1,"trial_type":"pit-trial","trial_index":73,"time_elapsed":402259,"internal_node_id":"0.0-48.0","task_version":"battery-v0.2-trt","session":3},{"rune":"I","rune_set":"bacs1","hex":"#f73b6a7A","correct":-1,"choice":-1,"rt":-1,"accuracy":1,"outcome":"-10","keys":[],"total_keys":0,"block":1,"trial":44,"stimulus":2,"robot":4,"valence":"lose","action":"no-go","sham":1,"trial_type":"pit-trial","trial_index":74,"time_elapsed":406263,"internal_node_id":"0.0-49.0","task_version":"battery-v0.2-trt","session":3},{"rune":"S","rune_set":"bacs1","hex":"#3366ff99","correct":-1,"choice":32,"rt":469.0249999985099,"accuracy":0,"outcome":"+1","keys":[1970.0049999519251],"total_keys":1,"block":1,"trial":45,"stimulus":6,"robot":2,"valence":"win","action":"no-go","sham":0,"trial_type":"pit-trial","trial_index":75,"time_elapsed":409438,"internal_node_id":"0.0-50.0","task_version":"battery-v0.2-trt","session":3},{"rune":"I","rune_set":"bacs1","hex":"#f73b6a7A","correct":-1,"choice":-1,"rt":-1,"accuracy":1,"outcome":"-1","keys":[],"total_keys":0,"block":1,"trial":46,"stimulus":2,"robot":4,"valence":"lose","action":"no-go","sham":0,"trial_type":"pit-trial","trial_index":76,"time_elapsed":413443,"internal_node_id":"0.0-51.0","task_version":"battery-v0.2-trt","session":3},{"rune":"K","rune_set":"bacs1","hex":"#f73b6a7A","correct":-1,"choice":-1,"rt":-1,"accuracy":1,"outcome":"-1","keys":[],"total_keys":0,"block":1,"trial":47,"stimulus":5,"robot":4,"valence":"lose","action":"no-go","sham":0,"trial_type":"pit-trial","trial_index":77,"time_elapsed":417447,"internal_node_id":"0.0-52.0","task_version":"battery-v0.2-trt","session":3},{"rune":"D","rune_set":"bacs1","hex":"#f73b6a7A","correct":32,"choice":-1,"rt":-1,"accuracy":0,"outcome":"-10","keys":[],"total_keys":0,"block":1,"trial":48,"stimulus":4,"robot":3,"valence":"lose","action":"go","sham":0,"trial_type":"pit-trial","trial_index":78,"time_elapsed":421451,"internal_node_id":"0.0-53.0","task_version":"battery-v0.2-trt","session":3},{"rune":"S","rune_set":"bacs1","hex":"#3366ff99","correct":-1,"choice":-1,"rt":-1,"accuracy":1,"outcome":"+1","keys":[],"total_keys":0,"block":1,"trial":49,"stimulus":6,"robot":2,"valence":"win","action":"no-go","sham":1,"trial_type":"pit-trial","trial_index":79,"time_elapsed":425456,"internal_node_id":"0.0-54.0","task_version":"battery-v0.2-trt","session":3},{"rune":"U","rune_set":"bacs1","hex":"#3366ff99","correct":32,"choice":32,"rt":724.2200000328012,"accuracy":1,"outcome":"+10","keys":[2224.7999999672174],"total_keys":1,"block":1,"trial":50,"stimulus":7,"robot":1,"valence":"win","action":"go","sham":0,"trial_type":"pit-trial","trial_index":80,"time_elapsed":428886,"internal_node_id":"0.0-55.0","task_version":"battery-v0.2-trt","session":3},{"rune":"D","rune_set":"bacs1","hex":"#f73b6a7A","correct":32,"choice":32,"rt":744.7549999924377,"accuracy":1,"outcome":"-1","keys":[2244.9800000176765],"total_keys":1,"block":1,"trial":51,"stimulus":4,"robot":3,"valence":"lose","action":"go","sham":0,"trial_type":"pit-trial","trial_index":81,"time_elapsed":432337,"internal_node_id":"0.0-56.0","task_version":"battery-v0.2-trt","session":3},{"rune":"K","rune_set":"bacs1","hex":"#f73b6a7A","correct":-1,"choice":32,"rt":701.340000028722,"accuracy":0,"outcome":"-10","keys":[2201.4600000111386],"total_keys":1,"block":1,"trial":52,"stimulus":5,"robot":4,"valence":"lose","action":"no-go","sham":0,"trial_type":"pit-trial","trial_index":82,"time_elapsed":435744,"internal_node_id":"0.0-57.0","task_version":"battery-v0.2-trt","session":3},{"rune":"K","rune_set":"bacs1","hex":"#f73b6a7A","correct":-1,"choice":-1,"rt":-1,"accuracy":1,"outcome":"-1","keys":[],"total_keys":0,"block":1,"trial":53,"stimulus":5,"robot":4,"valence":"lose","action":"no-go","sham":0,"trial_type":"pit-trial","trial_index":83,"time_elapsed":439749,"internal_node_id":"0.0-58.0","task_version":"battery-v0.2-trt","session":3},{"rune":"U","rune_set":"bacs1","hex":"#3366ff99","correct":32,"choice":32,"rt":601.7049999791197,"accuracy":1,"outcome":"+1","keys":[2102.2150000208057],"total_keys":1,"block":1,"trial":54,"stimulus":7,"robot":1,"valence":"win","action":"go","sham":1,"trial_type":"pit-trial","trial_index":84,"time_elapsed":443056,"internal_node_id":"0.0-59.0","task_version":"battery-v0.2-trt","session":3},{"rune":"S","rune_set":"bacs1","hex":"#3366ff99","correct":-1,"choice":32,"rt":977.9450000496581,"accuracy":0,"outcome":"+1","keys":[2478.0550000141375],"total_keys":1,"block":1,"trial":55,"stimulus":6,"robot":2,"valence":"win","action":"no-go","sham":0,"trial_type":"pit-trial","trial_index":85,"time_elapsed":446740,"internal_node_id":"0.0-60.0","task_version":"battery-v0.2-trt","session":3},{"rune":"D","rune_set":"bacs1","hex":"#f73b6a7A","correct":32,"choice":32,"rt":927.4500000174157,"accuracy":1,"outcome":"-1","keys":[2428.2149999635294],"total_keys":1,"block":1,"trial":56,"stimulus":4,"robot":3,"valence":"lose","action":"go","sham":0,"trial_type":"pit-trial","trial_index":86,"time_elapsed":450374,"internal_node_id":"0.0-61.0","task_version":"battery-v0.2-trt","session":3},{"rune":"K","rune_set":"bacs1","hex":"#f73b6a7A","correct":-1,"choice":32,"rt":735.3549999534152,"accuracy":0,"outcome":"-10","keys":[2235.9299999661744],"total_keys":1,"block":1,"trial":57,"stimulus":5,"robot":4,"valence":"lose","action":"no-go","sham":0,"trial_type":"pit-trial","trial_index":87,"time_elapsed":453814,"internal_node_id":"0.0-62.0","task_version":"battery-v0.2-trt","session":3},{"rune":"D","rune_set":"bacs1","hex":"#f73b6a7A","correct":32,"choice":32,"rt":633.9349999907427,"accuracy":1,"outcome":"-1","keys":[2134.1999999713153],"total_keys":1,"block":1,"trial":58,"stimulus":4,"robot":3,"valence":"lose","action":"go","sham":0,"trial_type":"pit-trial","trial_index":88,"time_elapsed":457152,"internal_node_id":"0.0-63.0","task_version":"battery-v0.2-trt","session":3},{"rune":"U","rune_set":"bacs1","hex":"#3366ff99","correct":32,"choice":32,"rt":499.4849999784492,"accuracy":1,"outcome":"+1","keys":[2000.3000000142492],"total_keys":1,"block":1,"trial":59,"stimulus":7,"robot":1,"valence":"win","action":"go","sham":1,"trial_type":"pit-trial","trial_index":89,"time_elapsed":460363,"internal_node_id":"0.0-64.0","task_version":"battery-v0.2-trt","session":3},{"rune":"S","rune_set":"bacs1","hex":"#3366ff99","correct":-1,"choice":-1,"rt":-1,"accuracy":1,"outcome":"+10","keys":[],"total_keys":0,"block":1,"trial":60,"stimulus":6,"robot":2,"valence":"win","action":"no-go","sham":0,"trial_type":"pit-trial","trial_index":90,"time_elapsed":464370,"internal_node_id":"0.0-65.0","task_version":"battery-v0.2-trt","session":3},{"rune":"S","rune_set":"bacs1","hex":"#3366ff99","correct":-1,"choice":-1,"rt":-1,"accuracy":1,"outcome":"+10","keys":[],"total_keys":0,"block":1,"trial":61,"stimulus":6,"robot":2,"valence":"win","action":"no-go","sham":0,"trial_type":"pit-trial","trial_index":91,"time_elapsed":468375,"internal_node_id":"0.0-66.0","task_version":"battery-v0.2-trt","session":3},{"rune":"K","rune_set":"bacs1","hex":"#f73b6a7A","correct":-1,"choice":-1,"rt":-1,"accuracy":1,"outcome":"-10","keys":[],"total_keys":0,"block":1,"trial":62,"stimulus":5,"robot":4,"valence":"lose","action":"no-go","sham":1,"trial_type":"pit-trial","trial_index":92,"time_elapsed":472392,"internal_node_id":"0.0-67.0","task_version":"battery-v0.2-trt","session":3},{"rune":"D","rune_set":"bacs1","hex":"#f73b6a7A","correct":32,"choice":32,"rt":527.0650000311434,"accuracy":1,"outcome":"-10","keys":[2027.5000000256114],"total_keys":1,"block":1,"trial":63,"stimulus":4,"robot":3,"valence":"lose","action":"go","sham":1,"trial_type":"pit-trial","trial_index":93,"time_elapsed":475624,"internal_node_id":"0.0-68.0","task_version":"battery-v0.2-trt","session":3},{"rune":"U","rune_set":"bacs1","hex":"#3366ff99","correct":32,"choice":32,"rt":748.3149999752641,"accuracy":1,"outcome":"+10","keys":[2248.3249999932013],"total_keys":1,"block":1,"trial":64,"stimulus":7,"robot":1,"valence":"win","action":"go","sham":0,"trial_type":"pit-trial","trial_index":94,"time_elapsed":479081,"internal_node_id":"0.0-69.0","task_version":"battery-v0.2-trt","session":3},{"rune":"S","rune_set":"bacs1","hex":"#3366ff99","correct":-1,"choice":-1,"rt":-1,"accuracy":1,"outcome":"+10","keys":[],"total_keys":0,"block":1,"trial":65,"stimulus":6,"robot":2,"valence":"win","action":"no-go","sham":0,"trial_type":"pit-trial","trial_index":95,"time_elapsed":483087,"internal_node_id":"0.0-70.0","task_version":"battery-v0.2-trt","session":3},{"rune":"D","rune_set":"bacs1","hex":"#f73b6a7A","correct":32,"choice":32,"rt":779.2050000280142,"accuracy":1,"outcome":"-10","keys":[2280.0350000034086],"total_keys":1,"block":1,"trial":66,"stimulus":4,"robot":3,"valence":"lose","action":"go","sham":1,"trial_type":"pit-trial","trial_index":96,"time_elapsed":486573,"internal_node_id":"0.0-71.0","task_version":"battery-v0.2-trt","session":3},{"rune":"U","rune_set":"bacs1","hex":"#3366ff99","correct":32,"choice":32,"rt":563.724999956321,"accuracy":1,"outcome":"+1","keys":[2063.8899999903515],"total_keys":1,"block":1,"trial":67,"stimulus":7,"robot":1,"valence":"win","action":"go","sham":1,"trial_type":"pit-trial","trial_index":97,"time_elapsed":489841,"internal_node_id":"0.0-72.0","task_version":"battery-v0.2-trt","session":3},{"rune":"K","rune_set":"bacs1","hex":"#f73b6a7A","correct":-1,"choice":-1,"rt":-1,"accuracy":1,"outcome":"-1","keys":[],"total_keys":0,"block":1,"trial":68,"stimulus":5,"robot":4,"valence":"lose","action":"no-go","sham":0,"trial_type":"pit-trial","trial_index":98,"time_elapsed":493845,"internal_node_id":"0.0-73.0","task_version":"battery-v0.2-trt","session":3},{"rune":"U","rune_set":"bacs1","hex":"#3366ff99","correct":32,"choice":32,"rt":970.9750000038184,"accuracy":1,"outcome":"+10","keys":[2471.7400000081398],"total_keys":1,"block":1,"trial":69,"stimulus":7,"robot":1,"valence":"win","action":"go","sham":0,"trial_type":"pit-trial","trial_index":99,"time_elapsed":497523,"internal_node_id":"0.0-74.0","task_version":"battery-v0.2-trt","session":3},{"rune":"D","rune_set":"bacs1","hex":"#f73b6a7A","correct":32,"choice":-1,"rt":-1,"accuracy":0,"outcome":"-10","keys":[],"total_keys":0,"block":1,"trial":70,"stimulus":4,"robot":3,"valence":"lose","action":"go","sham":0,"trial_type":"pit-trial","trial_index":100,"time_elapsed":501529,"internal_node_id":"0.0-75.0","task_version":"battery-v0.2-trt","session":3},{"rune":"K","rune_set":"bacs1","hex":"#f73b6a7A","correct":-1,"choice":-1,"rt":-1,"accuracy":1,"outcome":"-10","keys":[],"total_keys":0,"block":1,"trial":71,"stimulus":5,"robot":4,"valence":"lose","action":"no-go","sham":1,"trial_type":"pit-trial","trial_index":101,"time_elapsed":505545,"internal_node_id":"0.0-76.0","task_version":"battery-v0.2-trt","session":3},{"rune":"S","rune_set":"bacs1","hex":"#3366ff99","correct":-1,"choice":32,"rt":454.74999997531995,"accuracy":0,"outcome":"+1","keys":[1955.7400000048801],"total_keys":1,"block":1,"trial":72,"stimulus":6,"robot":2,"valence":"win","action":"no-go","sham":0,"trial_type":"pit-trial","trial_index":102,"time_elapsed":508706,"internal_node_id":"0.0-77.0","task_version":"battery-v0.2-trt","session":3},{"rune":"S","rune_set":"bacs1","hex":"#3366ff99","correct":-1,"choice":-1,"rt":-1,"accuracy":1,"outcome":"+10","keys":[],"total_keys":0,"block":1,"trial":73,"stimulus":6,"robot":2,"valence":"win","action":"no-go","sham":0,"trial_type":"pit-trial","trial_index":103,"time_elapsed":512713,"internal_node_id":"0.0-78.0","task_version":"battery-v0.2-trt","session":3},{"rune":"D","rune_set":"bacs1","hex":"#f73b6a7A","correct":32,"choice":32,"rt":585.9100000234321,"accuracy":1,"outcome":"-1","keys":[2086.2400000332855],"total_keys":1,"block":1,"trial":74,"stimulus":4,"robot":3,"valence":"lose","action":"go","sham":0,"trial_type":"pit-trial","trial_index":104,"time_elapsed":516005,"internal_node_id":"0.0-79.0","task_version":"battery-v0.2-trt","session":3},{"rune":"M","rune_set":"bacs1","hex":"#3366ff99","correct":32,"choice":32,"rt":614.1899999929592,"accuracy":1,"outcome":"+10","keys":[2114.3499999889173],"total_keys":1,"block":1,"trial":75,"stimulus":8,"robot":1,"valence":"win","action":"go","sham":0,"trial_type":"pit-trial","trial_index":105,"time_elapsed":519325,"internal_node_id":"0.0-80.0","task_version":"battery-v0.2-trt","session":3},{"rune":"U","rune_set":"bacs1","hex":"#3366ff99","correct":32,"choice":32,"rt":734.0599999879487,"accuracy":1,"outcome":"+10","keys":[2234.199999948032],"total_keys":1,"block":1,"trial":76,"stimulus":7,"robot":1,"valence":"win","action":"go","sham":0,"trial_type":"pit-trial","trial_index":106,"time_elapsed":522763,"internal_node_id":"0.0-81.0","task_version":"battery-v0.2-trt","session":3},{"rune":"U","rune_set":"bacs1","hex":"#3366ff99","correct":32,"choice":32,"rt":548.9950000192039,"accuracy":1,"outcome":"+10","keys":[2049.735000007786],"total_keys":1,"block":1,"trial":77,"stimulus":7,"robot":1,"valence":"win","action":"go","sham":0,"trial_type":"pit-trial","trial_index":107,"time_elapsed":526018,"internal_node_id":"0.0-82.0","task_version":"battery-v0.2-trt","session":3},{"rune":"D","rune_set":"bacs1","hex":"#f73b6a7A","correct":32,"choice":32,"rt":752.0549999899231,"accuracy":1,"outcome":"-1","keys":[2252.7850000187755],"total_keys":1,"block":1,"trial":78,"stimulus":4,"robot":3,"valence":"lose","action":"go","sham":0,"trial_type":"pit-trial","trial_index":108,"time_elapsed":529475,"internal_node_id":"0.0-83.0","task_version":"battery-v0.2-trt","session":3},{"rune":"S","rune_set":"bacs1","hex":"#3366ff99","correct":-1,"choice":32,"rt":623.4049999620765,"accuracy":0,"outcome":"+1","keys":[2124.3000000249594],"total_keys":1,"block":1,"trial":79,"stimulus":6,"robot":2,"valence":"win","action":"no-go","sham":0,"trial_type":"pit-trial","trial_index":109,"time_elapsed":532803,"internal_node_id":"0.0-84.0","task_version":"battery-v0.2-trt","session":3},{"rune":"M","rune_set":"bacs1","hex":"#3366ff99","correct":32,"choice":32,"rt":584.5850000041537,"accuracy":1,"outcome":"+1","keys":[2084.9249999737367],"total_keys":1,"block":1,"trial":80,"stimulus":8,"robot":1,"valence":"win","action":"go","sham":1,"trial_type":"pit-trial","trial_index":110,"time_elapsed":536095,"internal_node_id":"0.0-85.0","task_version":"battery-v0.2-trt","session":3},{"rune":"M","rune_set":"bacs1","hex":"#3366ff99","correct":32,"choice":-1,"rt":-1,"accuracy":0,"outcome":"+10","keys":[],"total_keys":0,"block":1,"trial":81,"stimulus":8,"robot":1,"valence":"win","action":"go","sham":1,"trial_type":"pit-trial","trial_index":111,"time_elapsed":540103,"internal_node_id":"0.0-86.0","task_version":"battery-v0.2-trt","session":3},{"rune":"P","rune_set":"bacs1","hex":"#3366ff99","correct":-1,"choice":32,"rt":599.869999976363,"accuracy":0,"outcome":"+1","keys":[2101.540000003297],"total_keys":1,"block":1,"trial":82,"stimulus":9,"robot":2,"valence":"win","action":"no-go","sham":0,"trial_type":"pit-trial","trial_index":112,"time_elapsed":543410,"internal_node_id":"0.0-87.0","task_version":"battery-v0.2-trt","session":3},{"rune":"S","rune_set":"bacs1","hex":"#3366ff99","correct":-1,"choice":-1,"rt":-1,"accuracy":1,"outcome":"+1","keys":[],"total_keys":0,"block":1,"trial":83,"stimulus":6,"robot":2,"valence":"win","action":"no-go","sham":1,"trial_type":"pit-trial","trial_index":113,"time_elapsed":547418,"internal_node_id":"0.0-88.0","task_version":"battery-v0.2-trt","session":3},{"rune":"U","rune_set":"bacs1","hex":"#3366ff99","correct":32,"choice":32,"rt":528.130000049714,"accuracy":1,"outcome":"+10","keys":[2028.5099999746308],"total_keys":1,"block":1,"trial":84,"stimulus":7,"robot":1,"valence":"win","action":"go","sham":0,"trial_type":"pit-trial","trial_index":114,"time_elapsed":550653,"internal_node_id":"0.0-89.0","task_version":"battery-v0.2-trt","session":3},{"rune":"P","rune_set":"bacs1","hex":"#3366ff99","correct":-1,"choice":32,"rt":813.1399999838322,"accuracy":0,"outcome":"+1","keys":[2313.380000006873],"total_keys":1,"block":1,"trial":85,"stimulus":9,"robot":2,"valence":"win","action":"no-go","sham":0,"trial_type":"pit-trial","trial_index":115,"time_elapsed":554171,"internal_node_id":"0.0-90.0","task_version":"battery-v0.2-trt","session":3},{"rune":"S","rune_set":"bacs1","hex":"#3366ff99","correct":-1,"choice":-1,"rt":-1,"accuracy":1,"outcome":"+10","keys":[],"total_keys":0,"block":1,"trial":86,"stimulus":6,"robot":2,"valence":"win","action":"no-go","sham":0,"trial_type":"pit-trial","trial_index":116,"time_elapsed":558177,"internal_node_id":"0.0-91.0","task_version":"battery-v0.2-trt","session":3},{"rune":"U","rune_set":"bacs1","hex":"#3366ff99","correct":32,"choice":32,"rt":528.7699999753386,"accuracy":1,"outcome":"+10","keys":[2028.9900000207126],"total_keys":1,"block":1,"trial":87,"stimulus":7,"robot":1,"valence":"win","action":"go","sham":0,"trial_type":"pit-trial","trial_index":117,"time_elapsed":561411,"internal_node_id":"0.0-92.0","task_version":"battery-v0.2-trt","session":3},{"rune":"M","rune_set":"bacs1","hex":"#3366ff99","correct":32,"choice":-1,"rt":-1,"accuracy":0,"outcome":"+1","keys":[],"total_keys":0,"block":1,"trial":88,"stimulus":8,"robot":1,"valence":"win","action":"go","sham":0,"trial_type":"pit-trial","trial_index":118,"time_elapsed":565428,"internal_node_id":"0.0-93.0","task_version":"battery-v0.2-trt","session":3},{"rune":"Y","rune_set":"bacs1","hex":"#f73b6a7A","correct":-1,"choice":32,"rt":772.034999972675,"accuracy":0,"outcome":"-10","keys":[2272.5050000008196],"total_keys":1,"block":1,"trial":89,"stimulus":11,"robot":4,"valence":"lose","action":"no-go","sham":0,"trial_type":"pit-trial","trial_index":119,"time_elapsed":568907,"internal_node_id":"0.0-94.0","task_version":"battery-v0.2-trt","session":3},{"rune":"P","rune_set":"bacs1","hex":"#3366ff99","correct":-1,"choice":-1,"rt":-1,"accuracy":1,"outcome":"+10","keys":[],"total_keys":0,"block":1,"trial":90,"stimulus":9,"robot":2,"valence":"win","action":"no-go","sham":0,"trial_type":"pit-trial","trial_index":120,"time_elapsed":572913,"internal_node_id":"0.0-95.0","task_version":"battery-v0.2-trt","session":3},{"rune":"H","rune_set":"bacs1","hex":"#f73b6a7A","correct":32,"choice":32,"rt":580.4550000466406,"accuracy":1,"outcome":"-1","keys":[2081.110000028275],"total_keys":1,"block":1,"trial":91,"stimulus":10,"robot":3,"valence":"lose","action":"go","sham":0,"trial_type":"pit-trial","trial_index":121,"time_elapsed":576200,"internal_node_id":"0.0-96.0","task_version":"battery-v0.2-trt","session":3},{"rune":"M","rune_set":"bacs1","hex":"#3366ff99","correct":32,"choice":-1,"rt":-1,"accuracy":0,"outcome":"+1","keys":[],"total_keys":0,"block":1,"trial":92,"stimulus":8,"robot":1,"valence":"win","action":"go","sham":0,"trial_type":"pit-trial","trial_index":122,"time_elapsed":580205,"internal_node_id":"0.0-97.0","task_version":"battery-v0.2-trt","session":3},{"rune":"M","rune_set":"bacs1","hex":"#3366ff99","correct":32,"choice":32,"rt":976.5449999831617,"accuracy":1,"outcome":"+10","keys":[2476.639999949839],"total_keys":1,"block":1,"trial":93,"stimulus":8,"robot":1,"valence":"win","action":"go","sham":0,"trial_type":"pit-trial","trial_index":123,"time_elapsed":583886,"internal_node_id":"0.0-98.0","task_version":"battery-v0.2-trt","session":3},{"rune":"H","rune_set":"bacs1","hex":"#f73b6a7A","correct":32,"choice":-1,"rt":-1,"accuracy":0,"outcome":"-10","keys":[],"total_keys":0,"block":1,"trial":94,"stimulus":10,"robot":3,"valence":"lose","action":"go","sham":0,"trial_type":"pit-trial","trial_index":124,"time_elapsed":587894,"internal_node_id":"0.0-99.0","task_version":"battery-v0.2-trt","session":3},{"rune":"P","rune_set":"bacs1","hex":"#3366ff99","correct":-1,"choice":-1,"rt":-1,"accuracy":1,"outcome":"+10","keys":[],"total_keys":0,"block":1,"trial":95,"stimulus":9,"robot":2,"valence":"win","action":"no-go","sham":0,"trial_type":"pit-trial","trial_index":125,"time_elapsed":591900,"internal_node_id":"0.0-100.0","task_version":"battery-v0.2-trt","session":3},{"rune":"Y","rune_set":"bacs1","hex":"#f73b6a7A","correct":-1,"choice":-1,"rt":-1,"accuracy":1,"outcome":"-10","keys":[],"total_keys":0,"block":1,"trial":96,"stimulus":11,"robot":4,"valence":"lose","action":"no-go","sham":1,"trial_type":"pit-trial","trial_index":126,"time_elapsed":595906,"internal_node_id":"0.0-101.0","task_version":"battery-v0.2-trt","session":3},{"rune":"Y","rune_set":"bacs1","hex":"#f73b6a7A","correct":-1,"choice":32,"rt":503.83500003954396,"accuracy":0,"outcome":"-10","keys":[2004.3799999984913],"total_keys":1,"block":1,"trial":97,"stimulus":11,"robot":4,"valence":"lose","action":"no-go","sham":0,"trial_type":"pit-trial","trial_index":127,"time_elapsed":599117,"internal_node_id":"0.0-102.0","task_version":"battery-v0.2-trt","session":3},{"rune":"P","rune_set":"bacs1","hex":"#3366ff99","correct":-1,"choice":-1,"rt":-1,"accuracy":1,"outcome":"+1","keys":[],"total_keys":0,"block":1,"trial":98,"stimulus":9,"robot":2,"valence":"win","action":"no-go","sham":1,"trial_type":"pit-trial","trial_index":128,"time_elapsed":603138,"internal_node_id":"0.0-103.0","task_version":"battery-v0.2-trt","session":3},{"rune":"H","rune_set":"bacs1","hex":"#f73b6a7A","correct":32,"choice":32,"rt":819.5699999923818,"accuracy":1,"outcome":"-1","keys":[2320.250000047963],"total_keys":1,"block":1,"trial":99,"stimulus":10,"robot":3,"valence":"lose","action":"go","sham":0,"trial_type":"pit-trial","trial_index":129,"time_elapsed":606663,"internal_node_id":"0.0-104.0","task_version":"battery-v0.2-trt","session":3},{"rune":"M","rune_set":"bacs1","hex":"#3366ff99","correct":32,"choice":-1,"rt":-1,"accuracy":0,"outcome":"+1","keys":[],"total_keys":0,"block":1,"trial":100,"stimulus":8,"robot":1,"valence":"win","action":"go","sham":0,"trial_type":"pit-trial","trial_index":130,"time_elapsed":610666,"internal_node_id":"0.0-105.0","task_version":"battery-v0.2-trt","session":3},{"rune":"M","rune_set":"bacs1","hex":"#3366ff99","correct":32,"choice":32,"rt":535.2050000219606,"accuracy":1,"outcome":"+1","keys":[2035.9400000306778],"total_keys":1,"block":1,"trial":101,"stimulus":8,"robot":1,"valence":"win","action":"go","sham":1,"trial_type":"pit-trial","trial_index":131,"time_elapsed":613908,"internal_node_id":"0.0-106.0","task_version":"battery-v0.2-trt","session":3},{"rune":"H","rune_set":"bacs1","hex":"#f73b6a7A","correct":32,"choice":32,"rt":655.8349999831989,"accuracy":1,"outcome":"-1","keys":[2156.950000033248],"total_keys":1,"block":1,"trial":102,"stimulus":10,"robot":3,"valence":"lose","action":"go","sham":0,"trial_type":"pit-trial","trial_index":132,"time_elapsed":617269,"internal_node_id":"0.0-107.0","task_version":"battery-v0.2-trt","session":3},{"rune":"Y","rune_set":"bacs1","hex":"#f73b6a7A","correct":-1,"choice":32,"rt":544.7099999873899,"accuracy":0,"outcome":"-10","keys":[2044.7649999987334],"total_keys":1,"block":1,"trial":103,"stimulus":11,"robot":4,"valence":"lose","action":"no-go","sham":0,"trial_type":"pit-trial","trial_index":133,"time_elapsed":620520,"internal_node_id":"0.0-108.0","task_version":"battery-v0.2-trt","session":3},{"rune":"P","rune_set":"bacs1","hex":"#3366ff99","correct":-1,"choice":32,"rt":699.3800000054762,"accuracy":0,"outcome":"+1","keys":[2200.750000018161],"total_keys":1,"block":1,"trial":104,"stimulus":9,"robot":2,"valence":"win","action":"no-go","sham":0,"trial_type":"pit-trial","trial_index":134,"time_elapsed":623926,"internal_node_id":"0.0-109.0","task_version":"battery-v0.2-trt","session":3},{"rune":"P","rune_set":"bacs1","hex":"#3366ff99","correct":-1,"choice":-1,"rt":-1,"accuracy":1,"outcome":"+1","keys":[],"total_keys":0,"block":1,"trial":105,"stimulus":9,"robot":2,"valence":"win","action":"no-go","sham":1,"trial_type":"pit-trial","trial_index":135,"time_elapsed":627932,"internal_node_id":"0.0-110.0","task_version":"battery-v0.2-trt","session":3},{"rune":"M","rune_set":"bacs1","hex":"#3366ff99","correct":32,"choice":-1,"rt":-1,"accuracy":0,"outcome":"+1","keys":[],"total_keys":0,"block":1,"trial":106,"stimulus":8,"robot":1,"valence":"win","action":"go","sham":0,"trial_type":"pit-trial","trial_index":136,"time_elapsed":631939,"internal_node_id":"0.0-111.0","task_version":"battery-v0.2-trt","session":3},{"rune":"Y","rune_set":"bacs1","hex":"#f73b6a7A","correct":-1,"choice":32,"rt":740.4400000232272,"accuracy":0,"outcome":"-10","keys":[2240.7399999792688],"total_keys":1,"block":1,"trial":107,"stimulus":11,"robot":4,"valence":"lose","action":"no-go","sham":0,"trial_type":"pit-trial","trial_index":137,"time_elapsed":635385,"internal_node_id":"0.0-112.0","task_version":"battery-v0.2-trt","session":3},{"rune":"H","rune_set":"bacs1","hex":"#f73b6a7A","correct":32,"choice":32,"rt":483.27500000596046,"accuracy":1,"outcome":"-1","keys":[1983.9200000278652],"total_keys":1,"block":1,"trial":108,"stimulus":10,"robot":3,"valence":"lose","action":"go","sham":0,"trial_type":"pit-trial","trial_index":138,"time_elapsed":638574,"internal_node_id":"0.0-113.0","task_version":"battery-v0.2-trt","session":3},{"rune":"Y","rune_set":"bacs1","hex":"#f73b6a7A","correct":-1,"choice":-1,"rt":-1,"accuracy":1,"outcome":"-1","keys":[],"total_keys":0,"block":1,"trial":109,"stimulus":11,"robot":4,"valence":"lose","action":"no-go","sham":0,"trial_type":"pit-trial","trial_index":139,"time_elapsed":642579,"internal_node_id":"0.0-114.0","task_version":"battery-v0.2-trt","session":3},{"rune":"P","rune_set":"bacs1","hex":"#3366ff99","correct":-1,"choice":32,"rt":587.569999974221,"accuracy":0,"outcome":"+1","keys":[2088.7799999909475],"total_keys":1,"block":1,"trial":110,"stimulus":9,"robot":2,"valence":"win","action":"no-go","sham":0,"trial_type":"pit-trial","trial_index":140,"time_elapsed":645874,"internal_node_id":"0.0-115.0","task_version":"battery-v0.2-trt","session":3},{"rune":"M","rune_set":"bacs1","hex":"#3366ff99","correct":32,"choice":32,"rt":668.2849999633618,"accuracy":1,"outcome":"+1","keys":[2169.0099999541417],"total_keys":1,"block":1,"trial":111,"stimulus":8,"robot":1,"valence":"win","action":"go","sham":1,"trial_type":"pit-trial","trial_index":141,"time_elapsed":649248,"internal_node_id":"0.0-116.0","task_version":"battery-v0.2-trt","session":3},{"rune":"H","rune_set":"bacs1","hex":"#f73b6a7A","correct":32,"choice":32,"rt":537.7500000176951,"accuracy":1,"outcome":"-10","keys":[2038.3249999722466],"total_keys":1,"block":1,"trial":112,"stimulus":10,"robot":3,"valence":"lose","action":"go","sham":1,"trial_type":"pit-trial","trial_index":142,"time_elapsed":652492,"internal_node_id":"0.0-117.0","task_version":"battery-v0.2-trt","session":3},{"rune":"P","rune_set":"bacs1","hex":"#3366ff99","correct":-1,"choice":32,"rt":500.56499999482185,"accuracy":0,"outcome":"+10","keys":[2000.7949999999255],"total_keys":1,"block":1,"trial":113,"stimulus":9,"robot":2,"valence":"win","action":"no-go","sham":1,"trial_type":"pit-trial","trial_index":143,"time_elapsed":655701,"internal_node_id":"0.0-118.0","task_version":"battery-v0.2-trt","session":3},{"rune":"Y","rune_set":"bacs1","hex":"#f73b6a7A","correct":-1,"choice":-1,"rt":-1,"accuracy":1,"outcome":"-1","keys":[],"total_keys":0,"block":1,"trial":114,"stimulus":11,"robot":4,"valence":"lose","action":"no-go","sham":0,"trial_type":"pit-trial","trial_index":144,"time_elapsed":659707,"internal_node_id":"0.0-119.0","task_version":"battery-v0.2-trt","session":3},{"rune":"M","rune_set":"bacs1","hex":"#3366ff99","correct":32,"choice":-1,"rt":-1,"accuracy":0,"outcome":"+10","keys":[],"total_keys":0,"block":1,"trial":115,"stimulus":8,"robot":1,"valence":"win","action":"go","sham":1,"trial_type":"pit-trial","trial_index":145,"time_elapsed":663719,"internal_node_id":"0.0-120.0","task_version":"battery-v0.2-trt","session":3},{"rune":"H","rune_set":"bacs1","hex":"#f73b6a7A","correct":32,"choice":32,"rt":508.1249999930151,"accuracy":1,"outcome":"-10","keys":[2008.7449999991804],"total_keys":1,"block":1,"trial":116,"stimulus":10,"robot":3,"valence":"lose","action":"go","sham":1,"trial_type":"pit-trial","trial_index":146,"time_elapsed":666933,"internal_node_id":"0.0-121.0","task_version":"battery-v0.2-trt","session":3},{"rune":"P","rune_set":"bacs1","hex":"#3366ff99","correct":-1,"choice":32,"rt":618.0049999966286,"accuracy":0,"outcome":"+1","keys":[2118.3649999438785],"total_keys":1,"block":1,"trial":117,"stimulus":9,"robot":2,"valence":"win","action":"no-go","sham":0,"trial_type":"pit-trial","trial_index":147,"time_elapsed":670257,"internal_node_id":"0.0-122.0","task_version":"battery-v0.2-trt","session":3},{"rune":"H","rune_set":"bacs1","hex":"#f73b6a7A","correct":32,"choice":32,"rt":581.8600000347942,"accuracy":1,"outcome":"-1","keys":[2082.4199999915436],"total_keys":1,"block":1,"trial":118,"stimulus":10,"robot":3,"valence":"lose","action":"go","sham":0,"trial_type":"pit-trial","trial_index":148,"time_elapsed":673544,"internal_node_id":"0.0-123.0","task_version":"battery-v0.2-trt","session":3},{"rune":"Y","rune_set":"bacs1","hex":"#f73b6a7A","correct":-1,"choice":-1,"rt":-1,"accuracy":1,"outcome":"-1","keys":[],"total_keys":0,"block":1,"trial":119,"stimulus":11,"robot":4,"valence":"lose","action":"no-go","sham":0,"trial_type":"pit-trial","trial_index":149,"time_elapsed":677550,"internal_node_id":"0.0-124.0","task_version":"battery-v0.2-trt","session":3},{"rune":"M","rune_set":"bacs1","hex":"#3366ff99","correct":32,"choice":32,"rt":667.4350000103004,"accuracy":1,"outcome":"+10","keys":[2168.215000012424],"total_keys":1,"block":1,"trial":120,"stimulus":8,"robot":1,"valence":"win","action":"go","sham":0,"trial_type":"pit-trial","trial_index":150,"time_elapsed":680921,"internal_node_id":"0.0-125.0","task_version":"battery-v0.2-trt","session":3},{"view_history":"[{\"page_index\":0,\"viewing_time\":7587.900000042282},{\"page_index\":1,\"viewing_time\":2312.32500000624}]","rt":9900.63500002725,"trial_type":"pit-instructions","trial_index":151,"time_elapsed":690822,"internal_node_id":"0.0-126.0","task_version":"battery-v0.2-trt","session":3},{"rune":"L","rune_set":"bacs1","hex":"#3366ff99","correct":-1,"choice":32,"rt":492.71500000031665,"accuracy":0,"outcome":"+1","keys":[1993.4700000449084],"total_keys":1,"block":2,"trial":121,"stimulus":1,"robot":2,"valence":"win","action":"no-go","sham":0,"trial_type":"pit-trial","trial_index":152,"time_elapsed":694021,"internal_node_id":"0.0-127.0","task_version":"battery-v0.2-trt","session":3},{"rune":"Q","rune_set":"bacs1","hex":"#3366ff99","correct":-1,"choice":32,"rt":512.3149999999441,"accuracy":0,"outcome":"+1","keys":[2012.575000000652],"total_keys":1,"block":2,"trial":122,"stimulus":0,"robot":2,"valence":"win","action":"no-go","sham":0,"trial_type":"pit-trial","trial_index":153,"time_elapsed":697239,"internal_node_id":"0.0-128.0","task_version":"battery-v0.2-trt","session":3},{"rune":"C","rune_set":"bacs1","hex":"#3366ff99","correct":32,"choice":32,"rt":506.2199999811128,"accuracy":1,"outcome":"+1","keys":[2007.1050000260584],"total_keys":1,"block":2,"trial":123,"stimulus":2,"robot":1,"valence":"win","action":"go","sham":1,"trial_type":"pit-trial","trial_index":154,"time_elapsed":700452,"internal_node_id":"0.0-129.0","task_version":"battery-v0.2-trt","session":3},{"rune":"A","rune_set":"bacs1","hex":"#f73b6a7A","correct":32,"choice":-1,"rt":-1,"accuracy":0,"outcome":"-10","keys":[],"total_keys":0,"block":2,"trial":124,"stimulus":3,"robot":3,"valence":"lose","action":"go","sham":0,"trial_type":"pit-trial","trial_index":155,"time_elapsed":704458,"internal_node_id":"0.0-130.0","task_version":"battery-v0.2-trt","session":3},{"rune":"L","rune_set":"bacs1","hex":"#3366ff99","correct":-1,"choice":32,"rt":545.2750000404194,"accuracy":0,"outcome":"+1","keys":[2046.3650000165217],"total_keys":1,"block":2,"trial":125,"stimulus":1,"robot":2,"valence":"win","action":"no-go","sham":0,"trial_type":"pit-trial","trial_index":156,"time_elapsed":707709,"internal_node_id":"0.0-131.0","task_version":"battery-v0.2-trt","session":3},{"rune":"C","rune_set":"bacs1","hex":"#3366ff99","correct":32,"choice":-1,"rt":-1,"accuracy":0,"outcome":"+1","keys":[],"total_keys":0,"block":2,"trial":126,"stimulus":2,"robot":1,"valence":"win","action":"go","sham":0,"trial_type":"pit-trial","trial_index":157,"time_elapsed":711731,"internal_node_id":"0.0-132.0","task_version":"battery-v0.2-trt","session":3},{"rune":"A","rune_set":"bacs1","hex":"#f73b6a7A","correct":32,"choice":32,"rt":716.565000009723,"accuracy":1,"outcome":"-1","keys":[2216.530000034254],"total_keys":1,"block":2,"trial":127,"stimulus":3,"robot":3,"valence":"lose","action":"go","sham":0,"trial_type":"pit-trial","trial_index":158,"time_elapsed":715151,"internal_node_id":"0.0-133.0","task_version":"battery-v0.2-trt","session":3},{"rune":"Q","rune_set":"bacs1","hex":"#3366ff99","correct":-1,"choice":-1,"rt":-1,"accuracy":1,"outcome":"+10","keys":[],"total_keys":0,"block":2,"trial":128,"stimulus":0,"robot":2,"valence":"win","action":"no-go","sham":0,"trial_type":"pit-trial","trial_index":159,"time_elapsed":719155,"internal_node_id":"0.0-134.0","task_version":"battery-v0.2-trt","session":3},{"rune":"A","rune_set":"bacs1","hex":"#f73b6a7A","correct":32,"choice":-1,"rt":-1,"accuracy":0,"outcome":"-10","keys":[],"total_keys":0,"block":2,"trial":129,"stimulus":3,"robot":3,"valence":"lose","action":"go","sham":0,"trial_type":"pit-trial","trial_index":160,"time_elapsed":723161,"internal_node_id":"0.0-135.0","task_version":"battery-v0.2-trt","session":3},{"rune":"L","rune_set":"bacs1","hex":"#3366ff99","correct":-1,"choice":32,"rt":977.565000008326,"accuracy":0,"outcome":"+10","keys":[2477.789999975357],"total_keys":1,"block":2,"trial":130,"stimulus":1,"robot":2,"valence":"win","action":"no-go","sham":1,"trial_type":"pit-trial","trial_index":161,"time_elapsed":726844,"internal_node_id":"0.0-136.0","task_version":"battery-v0.2-trt","session":3},{"rune":"Q","rune_set":"bacs1","hex":"#3366ff99","correct":-1,"choice":-1,"rt":-1,"accuracy":1,"outcome":"+10","keys":[],"total_keys":0,"block":2,"trial":131,"stimulus":0,"robot":2,"valence":"win","action":"no-go","sham":0,"trial_type":"pit-trial","trial_index":162,"time_elapsed":730850,"internal_node_id":"0.0-137.0","task_version":"battery-v0.2-trt","session":3},{"rune":"C","rune_set":"bacs1","hex":"#3366ff99","correct":32,"choice":32,"rt":828.2299999846146,"accuracy":1,"outcome":"+10","keys":[2328.6199999856763],"total_keys":1,"block":2,"trial":132,"stimulus":2,"robot":1,"valence":"win","action":"go","sham":0,"trial_type":"pit-trial","trial_index":163,"time_elapsed":734382,"internal_node_id":"0.0-138.0","task_version":"battery-v0.2-trt","session":3},{"rune":"L","rune_set":"bacs1","hex":"#3366ff99","correct":-1,"choice":-1,"rt":-1,"accuracy":1,"outcome":"+10","keys":[],"total_keys":0,"block":2,"trial":133,"stimulus":1,"robot":2,"valence":"win","action":"no-go","sham":0,"trial_type":"pit-trial","trial_index":164,"time_elapsed":738388,"internal_node_id":"0.0-139.0","task_version":"battery-v0.2-trt","session":3},{"rune":"Q","rune_set":"bacs1","hex":"#3366ff99","correct":-1,"choice":32,"rt":727.9249999555759,"accuracy":0,"outcome":"+1","keys":[2228.709999995772],"total_keys":1,"block":2,"trial":134,"stimulus":0,"robot":2,"valence":"win","action":"no-go","sham":0,"trial_type":"pit-trial","trial_index":165,"time_elapsed":741822,"internal_node_id":"0.0-140.0","task_version":"battery-v0.2-trt","session":3},{"rune":"A","rune_set":"bacs1","hex":"#f73b6a7A","correct":32,"choice":32,"rt":766.4799999911338,"accuracy":1,"outcome":"-1","keys":[2266.509999986738],"total_keys":1,"block":2,"trial":135,"stimulus":3,"robot":3,"valence":"lose","action":"go","sham":0,"trial_type":"pit-trial","trial_index":166,"time_elapsed":745294,"internal_node_id":"0.0-141.0","task_version":"battery-v0.2-trt","session":3},{"rune":"C","rune_set":"bacs1","hex":"#3366ff99","correct":32,"choice":-1,"rt":-1,"accuracy":0,"outcome":"+1","keys":[3030.1999999792315],"total_keys":1,"block":2,"trial":136,"stimulus":2,"robot":1,"valence":"win","action":"go","sham":0,"trial_type":"pit-trial","trial_index":167,"time_elapsed":749299,"internal_node_id":"0.0-142.0","task_version":"battery-v0.2-trt","session":3},{"rune":"L","rune_set":"bacs1","hex":"#3366ff99","correct":-1,"choice":-1,"rt":-1,"accuracy":1,"outcome":"+10","keys":[],"total_keys":0,"block":2,"trial":137,"stimulus":1,"robot":2,"valence":"win","action":"no-go","sham":0,"trial_type":"pit-trial","trial_index":168,"time_elapsed":753307,"internal_node_id":"0.0-143.0","task_version":"battery-v0.2-trt","session":3},{"rune":"Q","rune_set":"bacs1","hex":"#3366ff99","correct":-1,"choice":32,"rt":607.1750000119209,"accuracy":0,"outcome":"+10","keys":[2107.9500000341795],"total_keys":1,"block":2,"trial":138,"stimulus":0,"robot":2,"valence":"win","action":"no-go","sham":1,"trial_type":"pit-trial","trial_index":169,"time_elapsed":756620,"internal_node_id":"0.0-144.0","task_version":"battery-v0.2-trt","session":3},{"rune":"A","rune_set":"bacs1","hex":"#f73b6a7A","correct":32,"choice":32,"rt":684.1450000065379,"accuracy":1,"outcome":"-1","keys":[2185.170000011567],"total_keys":1,"block":2,"trial":139,"stimulus":3,"robot":3,"valence":"lose","action":"go","sham":0,"trial_type":"pit-trial","trial_index":170,"time_elapsed":760011,"internal_node_id":"0.0-145.0","task_version":"battery-v0.2-trt","session":3},{"rune":"C","rune_set":"bacs1","hex":"#3366ff99","correct":32,"choice":32,"rt":728.5699999774806,"accuracy":1,"outcome":"+10","keys":[2229.3700000154786],"total_keys":1,"block":2,"trial":140,"stimulus":2,"robot":1,"valence":"win","action":"go","sham":0,"trial_type":"pit-trial","trial_index":171,"time_elapsed":763446,"internal_node_id":"0.0-146.0","task_version":"battery-v0.2-trt","session":3},{"rune":"Q","rune_set":"bacs1","hex":"#3366ff99","correct":-1,"choice":32,"rt":539.2749999882653,"accuracy":0,"outcome":"+1","keys":[2039.3950000288896],"total_keys":1,"block":2,"trial":141,"stimulus":0,"robot":2,"valence":"win","action":"no-go","sham":0,"trial_type":"pit-trial","trial_index":172,"time_elapsed":766691,"internal_node_id":"0.0-147.0","task_version":"battery-v0.2-trt","session":3},{"rune":"L","rune_set":"bacs1","hex":"#3366ff99","correct":-1,"choice":-1,"rt":-1,"accuracy":1,"outcome":"+10","keys":[],"total_keys":0,"block":2,"trial":142,"stimulus":1,"robot":2,"valence":"win","action":"no-go","sham":0,"trial_type":"pit-trial","trial_index":173,"time_elapsed":770697,"internal_node_id":"0.0-148.0","task_version":"battery-v0.2-trt","session":3},{"rune":"A","rune_set":"bacs1","hex":"#f73b6a7A","correct":32,"choice":32,"rt":630.0150000024587,"accuracy":1,"outcome":"-1","keys":[2130.7099999976344],"total_keys":1,"block":2,"trial":143,"stimulus":3,"robot":3,"valence":"lose","action":"go","sham":0,"trial_type":"pit-trial","trial_index":174,"time_elapsed":774035,"internal_node_id":"0.0-149.0","task_version":"battery-v0.2-trt","session":3},{"rune":"C","rune_set":"bacs1","hex":"#3366ff99","correct":32,"choice":32,"rt":529.099999985192,"accuracy":1,"outcome":"+1","keys":[2029.98499997193],"total_keys":1,"block":2,"trial":144,"stimulus":2,"robot":1,"valence":"win","action":"go","sham":1,"trial_type":"pit-trial","trial_index":175,"time_elapsed":777271,"internal_node_id":"0.0-150.0","task_version":"battery-v0.2-trt","session":3},{"rune":"A","rune_set":"bacs1","hex":"#f73b6a7A","correct":32,"choice":32,"rt":708.3800000254996,"accuracy":1,"outcome":"-1","keys":[2209.1350000118837],"total_keys":1,"block":2,"trial":145,"stimulus":3,"robot":3,"valence":"lose","action":"go","sham":0,"trial_type":"pit-trial","trial_index":176,"time_elapsed":780686,"internal_node_id":"0.0-151.0","task_version":"battery-v0.2-trt","session":3},{"rune":"Q","rune_set":"bacs1","hex":"#3366ff99","correct":-1,"choice":32,"rt":562.5199999776669,"accuracy":0,"outcome":"+1","keys":[2062.934999994468],"total_keys":1,"block":2,"trial":146,"stimulus":0,"robot":2,"valence":"win","action":"no-go","sham":0,"trial_type":"pit-trial","trial_index":177,"time_elapsed":783954,"internal_node_id":"0.0-152.0","task_version":"battery-v0.2-trt","session":3},{"rune":"L","rune_set":"bacs1","hex":"#3366ff99","correct":-1,"choice":-1,"rt":-1,"accuracy":1,"outcome":"+10","keys":[],"total_keys":0,"block":2,"trial":147,"stimulus":1,"robot":2,"valence":"win","action":"no-go","sham":0,"trial_type":"pit-trial","trial_index":178,"time_elapsed":787958,"internal_node_id":"0.0-153.0","task_version":"battery-v0.2-trt","session":3},{"rune":"C","rune_set":"bacs1","hex":"#3366ff99","correct":32,"choice":-1,"rt":-1,"accuracy":0,"outcome":"+1","keys":[],"total_keys":0,"block":2,"trial":148,"stimulus":2,"robot":1,"valence":"win","action":"go","sham":0,"trial_type":"pit-trial","trial_index":179,"time_elapsed":791963,"internal_node_id":"0.0-154.0","task_version":"battery-v0.2-trt","session":3},{"rune":"A","rune_set":"bacs1","hex":"#f73b6a7A","correct":32,"choice":32,"rt":490.4350000433624,"accuracy":1,"outcome":"-1","keys":[1990.9000000334345],"total_keys":1,"block":2,"trial":149,"stimulus":3,"robot":3,"valence":"lose","action":"go","sham":0,"trial_type":"pit-trial","trial_index":180,"time_elapsed":795158,"internal_node_id":"0.0-155.0","task_version":"battery-v0.2-trt","session":3},{"rune":"Q","rune_set":"bacs1","hex":"#3366ff99","correct":-1,"choice":-1,"rt":-1,"accuracy":1,"outcome":"+10","keys":[],"total_keys":0,"block":2,"trial":150,"stimulus":0,"robot":2,"valence":"win","action":"no-go","sham":0,"trial_type":"pit-trial","trial_index":181,"time_elapsed":799165,"internal_node_id":"0.0-156.0","task_version":"battery-v0.2-trt","session":3},{"rune":"C","rune_set":"bacs1","hex":"#3366ff99","correct":32,"choice":32,"rt":595.4100000089966,"accuracy":1,"outcome":"+10","keys":[2097.2099999780767],"total_keys":1,"block":2,"trial":151,"stimulus":2,"robot":1,"valence":"win","action":"go","sham":0,"trial_type":"pit-trial","trial_index":182,"time_elapsed":802472,"internal_node_id":"0.0-157.0","task_version":"battery-v0.2-trt","session":3},{"rune":"L","rune_set":"bacs1","hex":"#3366ff99","correct":-1,"choice":-1,"rt":-1,"accuracy":1,"outcome":"+10","keys":[],"total_keys":0,"block":2,"trial":152,"stimulus":1,"robot":2,"valence":"win","action":"no-go","sham":0,"trial_type":"pit-trial","trial_index":183,"time_elapsed":806479,"internal_node_id":"0.0-158.0","task_version":"battery-v0.2-trt","session":3},{"rune":"C","rune_set":"bacs1","hex":"#3366ff99","correct":32,"choice":32,"rt":515.1000000187196,"accuracy":1,"outcome":"+10","keys":[2015.4599999659695],"total_keys":1,"block":2,"trial":153,"stimulus":2,"robot":1,"valence":"win","action":"go","sham":0,"trial_type":"pit-trial","trial_index":184,"time_elapsed":809700,"internal_node_id":"0.0-159.0","task_version":"battery-v0.2-trt","session":3},{"rune":"Q","rune_set":"bacs1","hex":"#3366ff99","correct":-1,"choice":-1,"rt":-1,"accuracy":1,"outcome":"+1","keys":[],"total_keys":0,"block":2,"trial":154,"stimulus":0,"robot":2,"valence":"win","action":"no-go","sham":1,"trial_type":"pit-trial","trial_index":185,"time_elapsed":813706,"internal_node_id":"0.0-160.0","task_version":"battery-v0.2-trt","session":3},{"rune":"F","rune_set":"bacs1","hex":"#f73b6a7A","correct":-1,"choice":-1,"rt":-1,"accuracy":1,"outcome":"-1","keys":[],"total_keys":0,"block":2,"trial":155,"stimulus":4,"robot":4,"valence":"lose","action":"no-go","sham":0,"trial_type":"pit-trial","trial_index":186,"time_elapsed":817712,"internal_node_id":"0.0-161.0","task_version":"battery-v0.2-trt","session":3},{"rune":"T","rune_set":"bacs1","hex":"#f73b6a7A","correct":32,"choice":-1,"rt":-1,"accuracy":0,"outcome":"-10","keys":[],"total_keys":0,"block":2,"trial":156,"stimulus":5,"robot":3,"valence":"lose","action":"go","sham":0,"trial_type":"pit-trial","trial_index":187,"time_elapsed":821719,"internal_node_id":"0.0-162.0","task_version":"battery-v0.2-trt","session":3},{"rune":"F","rune_set":"bacs1","hex":"#f73b6a7A","correct":-1,"choice":-1,"rt":-1,"accuracy":1,"outcome":"-10","keys":[],"total_keys":0,"block":2,"trial":157,"stimulus":4,"robot":4,"valence":"lose","action":"no-go","sham":1,"trial_type":"pit-trial","trial_index":188,"time_elapsed":825725,"internal_node_id":"0.0-163.0","task_version":"battery-v0.2-trt","session":3},{"rune":"T","rune_set":"bacs1","hex":"#f73b6a7A","correct":32,"choice":32,"rt":624.9749999842606,"accuracy":1,"outcome":"-10","keys":[2125.3400000277907],"total_keys":1,"block":2,"trial":158,"stimulus":5,"robot":3,"valence":"lose","action":"go","sham":1,"trial_type":"pit-trial","trial_index":189,"time_elapsed":829058,"internal_node_id":"0.0-164.0","task_version":"battery-v0.2-trt","session":3},{"rune":"C","rune_set":"bacs1","hex":"#3366ff99","correct":32,"choice":32,"rt":657.0950000314042,"accuracy":1,"outcome":"+1","keys":[2157.884999993257],"total_keys":1,"block":2,"trial":159,"stimulus":2,"robot":1,"valence":"win","action":"go","sham":1,"trial_type":"pit-trial","trial_index":190,"time_elapsed":832422,"internal_node_id":"0.0-165.0","task_version":"battery-v0.2-trt","session":3},{"rune":"Q","rune_set":"bacs1","hex":"#3366ff99","correct":-1,"choice":-1,"rt":-1,"accuracy":1,"outcome":"+10","keys":[],"total_keys":0,"block":2,"trial":160,"stimulus":0,"robot":2,"valence":"win","action":"no-go","sham":0,"trial_type":"pit-trial","trial_index":191,"time_elapsed":836429,"internal_node_id":"0.0-166.0","task_version":"battery-v0.2-trt","session":3},{"rune":"F","rune_set":"bacs1","hex":"#f73b6a7A","correct":-1,"choice":32,"rt":769.0500000026077,"accuracy":0,"outcome":"-10","keys":[2269.0000000293367],"total_keys":1,"block":2,"trial":161,"stimulus":4,"robot":4,"valence":"lose","action":"no-go","sham":0,"trial_type":"pit-trial","trial_index":192,"time_elapsed":839903,"internal_node_id":"0.0-167.0","task_version":"battery-v0.2-trt","session":3},{"rune":"E","rune_set":"bacs1","hex":"#3366ff99","correct":-1,"choice":32,"rt":766.8050000211224,"accuracy":0,"outcome":"+1","keys":[2267.1599999885075],"total_keys":1,"block":2,"trial":162,"stimulus":6,"robot":2,"valence":"win","action":"no-go","sham":0,"trial_type":"pit-trial","trial_index":193,"time_elapsed":843375,"internal_node_id":"0.0-168.0","task_version":"battery-v0.2-trt","session":3},{"rune":"C","rune_set":"bacs1","hex":"#3366ff99","correct":32,"choice":32,"rt":580.4950000019744,"accuracy":1,"outcome":"+10","keys":[2081.2799999839626],"total_keys":1,"block":2,"trial":163,"stimulus":2,"robot":1,"valence":"win","action":"go","sham":0,"trial_type":"pit-trial","trial_index":194,"time_elapsed":846661,"internal_node_id":"0.0-169.0","task_version":"battery-v0.2-trt","session":3},{"rune":"T","rune_set":"bacs1","hex":"#f73b6a7A","correct":32,"choice":-1,"rt":-1,"accuracy":0,"outcome":"-1","keys":[],"total_keys":0,"block":2,"trial":164,"stimulus":5,"robot":3,"valence":"lose","action":"go","sham":1,"trial_type":"pit-trial","trial_index":195,"time_elapsed":850665,"internal_node_id":"0.0-170.0","task_version":"battery-v0.2-trt","session":3},{"rune":"E","rune_set":"bacs1","hex":"#3366ff99","correct":-1,"choice":32,"rt":800.5949999787845,"accuracy":0,"outcome":"+1","keys":[2301.0600000270642],"total_keys":1,"block":2,"trial":165,"stimulus":6,"robot":2,"valence":"win","action":"no-go","sham":0,"trial_type":"pit-trial","trial_index":196,"time_elapsed":854170,"internal_node_id":"0.0-171.0","task_version":"battery-v0.2-trt","session":3},{"rune":"F","rune_set":"bacs1","hex":"#f73b6a7A","correct":-1,"choice":-1,"rt":-1,"accuracy":1,"outcome":"-1","keys":[],"total_keys":0,"block":2,"trial":166,"stimulus":4,"robot":4,"valence":"lose","action":"no-go","sham":0,"trial_type":"pit-trial","trial_index":197,"time_elapsed":858174,"internal_node_id":"0.0-172.0","task_version":"battery-v0.2-trt","session":3},{"rune":"T","rune_set":"bacs1","hex":"#f73b6a7A","correct":32,"choice":-1,"rt":-1,"accuracy":0,"outcome":"-10","keys":[],"total_keys":0,"block":2,"trial":167,"stimulus":5,"robot":3,"valence":"lose","action":"go","sham":0,"trial_type":"pit-trial","trial_index":198,"time_elapsed":862178,"internal_node_id":"0.0-173.0","task_version":"battery-v0.2-trt","session":3},{"rune":"C","rune_set":"bacs1","hex":"#3366ff99","correct":32,"choice":32,"rt":758.4650000208057,"accuracy":1,"outcome":"+1","keys":[2259.510000003502],"total_keys":1,"block":2,"trial":168,"stimulus":2,"robot":1,"valence":"win","action":"go","sham":1,"trial_type":"pit-trial","trial_index":199,"time_elapsed":865643,"internal_node_id":"0.0-174.0","task_version":"battery-v0.2-trt","session":3},{"rune":"T","rune_set":"bacs1","hex":"#f73b6a7A","correct":32,"choice":32,"rt":1155.4250000044703,"accuracy":1,"outcome":"-10","keys":[2657.3000000207685],"total_keys":1,"block":2,"trial":169,"stimulus":5,"robot":3,"valence":"lose","action":"go","sham":1,"trial_type":"pit-trial","trial_index":200,"time_elapsed":869506,"internal_node_id":"0.0-175.0","task_version":"battery-v0.2-trt","session":3},{"rune":"V","rune_set":"bacs1","hex":"#f73b6a7A","correct":-1,"choice":32,"rt":647.7099999901839,"accuracy":0,"outcome":"-10","keys":[2148.0800000135787],"total_keys":1,"block":2,"trial":170,"stimulus":7,"robot":4,"valence":"lose","action":"no-go","sham":0,"trial_type":"pit-trial","trial_index":201,"time_elapsed":872860,"internal_node_id":"0.0-176.0","task_version":"battery-v0.2-trt","session":3},{"rune":"F","rune_set":"bacs1","hex":"#f73b6a7A","correct":-1,"choice":32,"rt":1131.215000001248,"accuracy":0,"outcome":"-10","keys":[2632.4400000157766],"total_keys":1,"block":2,"trial":171,"stimulus":4,"robot":4,"valence":"lose","action":"no-go","sham":0,"trial_type":"pit-trial","trial_index":202,"time_elapsed":876697,"internal_node_id":"0.0-177.0","task_version":"battery-v0.2-trt","session":3},{"rune":"E","rune_set":"bacs1","hex":"#3366ff99","correct":-1,"choice":-1,"rt":-1,"accuracy":1,"outcome":"+10","keys":[],"total_keys":0,"block":2,"trial":172,"stimulus":6,"robot":2,"valence":"win","action":"no-go","sham":0,"trial_type":"pit-trial","trial_index":203,"time_elapsed":880703,"internal_node_id":"0.0-178.0","task_version":"battery-v0.2-trt","session":3},{"rune":"V","rune_set":"bacs1","hex":"#f73b6a7A","correct":-1,"choice":-1,"rt":-1,"accuracy":1,"outcome":"-1","keys":[],"total_keys":0,"block":2,"trial":173,"stimulus":7,"robot":4,"valence":"lose","action":"no-go","sham":0,"trial_type":"pit-trial","trial_index":204,"time_elapsed":884709,"internal_node_id":"0.0-179.0","task_version":"battery-v0.2-trt","session":3},{"rune":"T","rune_set":"bacs1","hex":"#f73b6a7A","correct":32,"choice":-1,"rt":-1,"accuracy":0,"outcome":"-10","keys":[],"total_keys":0,"block":2,"trial":174,"stimulus":5,"robot":3,"valence":"lose","action":"go","sham":0,"trial_type":"pit-trial","trial_index":205,"time_elapsed":888714,"internal_node_id":"0.0-180.0","task_version":"battery-v0.2-trt","session":3},{"rune":"E","rune_set":"bacs1","hex":"#3366ff99","correct":-1,"choice":-1,"rt":-1,"accuracy":1,"outcome":"+10","keys":[],"total_keys":0,"block":2,"trial":175,"stimulus":6,"robot":2,"valence":"win","action":"no-go","sham":0,"trial_type":"pit-trial","trial_index":206,"time_elapsed":892719,"internal_node_id":"0.0-181.0","task_version":"battery-v0.2-trt","session":3},{"rune":"F","rune_set":"bacs1","hex":"#f73b6a7A","correct":-1,"choice":32,"rt":755.1450000028126,"accuracy":0,"outcome":"-10","keys":[2255.585000035353],"total_keys":1,"block":2,"trial":176,"stimulus":4,"robot":4,"valence":"lose","action":"no-go","sham":0,"trial_type":"pit-trial","trial_index":207,"time_elapsed":896179,"internal_node_id":"0.0-182.0","task_version":"battery-v0.2-trt","session":3},{"rune":"V","rune_set":"bacs1","hex":"#f73b6a7A","correct":-1,"choice":-1,"rt":-1,"accuracy":1,"outcome":"-1","keys":[],"total_keys":0,"block":2,"trial":177,"stimulus":7,"robot":4,"valence":"lose","action":"no-go","sham":0,"trial_type":"pit-trial","trial_index":208,"time_elapsed":900183,"internal_node_id":"0.0-183.0","task_version":"battery-v0.2-trt","session":3},{"rune":"F","rune_set":"bacs1","hex":"#f73b6a7A","correct":-1,"choice":-1,"rt":-1,"accuracy":1,"outcome":"-1","keys":[],"total_keys":0,"block":2,"trial":178,"stimulus":4,"robot":4,"valence":"lose","action":"no-go","sham":0,"trial_type":"pit-trial","trial_index":209,"time_elapsed":904201,"internal_node_id":"0.0-184.0","task_version":"battery-v0.2-trt","session":3},{"rune":"T","rune_set":"bacs1","hex":"#f73b6a7A","correct":32,"choice":32,"rt":772.9000000399537,"accuracy":1,"outcome":"-1","keys":[2273.9999999757856],"total_keys":1,"block":2,"trial":179,"stimulus":5,"robot":3,"valence":"lose","action":"go","sham":0,"trial_type":"pit-trial","trial_index":210,"time_elapsed":907679,"internal_node_id":"0.0-185.0","task_version":"battery-v0.2-trt","session":3},{"rune":"E","rune_set":"bacs1","hex":"#3366ff99","correct":-1,"choice":-1,"rt":-1,"accuracy":1,"outcome":"+10","keys":[],"total_keys":0,"block":2,"trial":180,"stimulus":6,"robot":2,"valence":"win","action":"no-go","sham":0,"trial_type":"pit-trial","trial_index":211,"time_elapsed":911691,"internal_node_id":"0.0-186.0","task_version":"battery-v0.2-trt","session":3},{"rune":"F","rune_set":"bacs1","hex":"#f73b6a7A","correct":-1,"choice":-1,"rt":-1,"accuracy":1,"outcome":"-10","keys":[],"total_keys":0,"block":2,"trial":181,"stimulus":4,"robot":4,"valence":"lose","action":"no-go","sham":1,"trial_type":"pit-trial","trial_index":212,"time_elapsed":915697,"internal_node_id":"0.0-187.0","task_version":"battery-v0.2-trt","session":3},{"rune":"E","rune_set":"bacs1","hex":"#3366ff99","correct":-1,"choice":-1,"rt":-1,"accuracy":1,"outcome":"+10","keys":[],"total_keys":0,"block":2,"trial":182,"stimulus":6,"robot":2,"valence":"win","action":"no-go","sham":0,"trial_type":"pit-trial","trial_index":213,"time_elapsed":919702,"internal_node_id":"0.0-188.0","task_version":"battery-v0.2-trt","session":3},{"rune":"T","rune_set":"bacs1","hex":"#f73b6a7A","correct":32,"choice":32,"rt":553.0649999855086,"accuracy":1,"outcome":"-10","keys":[2053.3850000356324],"total_keys":1,"block":2,"trial":183,"stimulus":5,"robot":3,"valence":"lose","action":"go","sham":1,"trial_type":"pit-trial","trial_index":214,"time_elapsed":922958,"internal_node_id":"0.0-189.0","task_version":"battery-v0.2-trt","session":3},{"rune":"V","rune_set":"bacs1","hex":"#f73b6a7A","correct":-1,"choice":-1,"rt":-1,"accuracy":1,"outcome":"-10","keys":[],"total_keys":0,"block":2,"trial":184,"stimulus":7,"robot":4,"valence":"lose","action":"no-go","sham":1,"trial_type":"pit-trial","trial_index":215,"time_elapsed":926962,"internal_node_id":"0.0-190.0","task_version":"battery-v0.2-trt","session":3},{"rune":"E","rune_set":"bacs1","hex":"#3366ff99","correct":-1,"choice":-1,"rt":-1,"accuracy":1,"outcome":"+10","keys":[],"total_keys":0,"block":2,"trial":185,"stimulus":6,"robot":2,"valence":"win","action":"no-go","sham":0,"trial_type":"pit-trial","trial_index":216,"time_elapsed":930969,"internal_node_id":"0.0-191.0","task_version":"battery-v0.2-trt","session":3},{"rune":"T","rune_set":"bacs1","hex":"#f73b6a7A","correct":32,"choice":32,"rt":598.9399999962188,"accuracy":1,"outcome":"-1","keys":[2099.965000001248],"total_keys":1,"block":2,"trial":186,"stimulus":5,"robot":3,"valence":"lose","action":"go","sham":0,"trial_type":"pit-trial","trial_index":217,"time_elapsed":934274,"internal_node_id":"0.0-192.0","task_version":"battery-v0.2-trt","session":3},{"rune":"V","rune_set":"bacs1","hex":"#f73b6a7A","correct":-1,"choice":-1,"rt":-1,"accuracy":1,"outcome":"-1","keys":[],"total_keys":0,"block":2,"trial":187,"stimulus":7,"robot":4,"valence":"lose","action":"no-go","sham":0,"trial_type":"pit-trial","trial_index":218,"time_elapsed":938281,"internal_node_id":"0.0-193.0","task_version":"battery-v0.2-trt","session":3},{"rune":"F","rune_set":"bacs1","hex":"#f73b6a7A","correct":-1,"choice":32,"rt":684.3349999981001,"accuracy":0,"outcome":"-10","keys":[2185.895000002347],"total_keys":1,"block":2,"trial":188,"stimulus":4,"robot":4,"valence":"lose","action":"no-go","sham":0,"trial_type":"pit-trial","trial_index":219,"time_elapsed":941671,"internal_node_id":"0.0-194.0","task_version":"battery-v0.2-trt","session":3},{"rune":"V","rune_set":"bacs1","hex":"#f73b6a7A","correct":-1,"choice":-1,"rt":-1,"accuracy":1,"outcome":"-10","keys":[],"total_keys":0,"block":2,"trial":189,"stimulus":7,"robot":4,"valence":"lose","action":"no-go","sham":1,"trial_type":"pit-trial","trial_index":220,"time_elapsed":945681,"internal_node_id":"0.0-195.0","task_version":"battery-v0.2-trt","session":3},{"rune":"F","rune_set":"bacs1","hex":"#f73b6a7A","correct":-1,"choice":-1,"rt":-1,"accuracy":1,"outcome":"-1","keys":[],"total_keys":0,"block":2,"trial":190,"stimulus":4,"robot":4,"valence":"lose","action":"no-go","sham":0,"trial_type":"pit-trial","trial_index":221,"time_elapsed":949688,"internal_node_id":"0.0-196.0","task_version":"battery-v0.2-trt","session":3},{"rune":"T","rune_set":"bacs1","hex":"#f73b6a7A","correct":32,"choice":32,"rt":606.4799999585375,"accuracy":1,"outcome":"-1","keys":[2107.20999998739],"total_keys":1,"block":2,"trial":191,"stimulus":5,"robot":3,"valence":"lose","action":"go","sham":0,"trial_type":"pit-trial","trial_index":222,"time_elapsed":953001,"internal_node_id":"0.0-197.0","task_version":"battery-v0.2-trt","session":3},{"rune":"E","rune_set":"bacs1","hex":"#3366ff99","correct":-1,"choice":-1,"rt":-1,"accuracy":1,"outcome":"+10","keys":[],"total_keys":0,"block":2,"trial":192,"stimulus":6,"robot":2,"valence":"win","action":"no-go","sham":0,"trial_type":"pit-trial","trial_index":223,"time_elapsed":957008,"internal_node_id":"0.0-198.0","task_version":"battery-v0.2-trt","session":3},{"rune":"T","rune_set":"bacs1","hex":"#f73b6a7A","correct":32,"choice":32,"rt":875.339999969583,"accuracy":1,"outcome":"-1","keys":[2376.509999972768],"total_keys":1,"block":2,"trial":193,"stimulus":5,"robot":3,"valence":"lose","action":"go","sham":0,"trial_type":"pit-trial","trial_index":224,"time_elapsed":960589,"internal_node_id":"0.0-199.0","task_version":"battery-v0.2-trt","session":3},{"rune":"V","rune_set":"bacs1","hex":"#f73b6a7A","correct":-1,"choice":-1,"rt":-1,"accuracy":1,"outcome":"-10","keys":[],"total_keys":0,"block":2,"trial":194,"stimulus":7,"robot":4,"valence":"lose","action":"no-go","sham":1,"trial_type":"pit-trial","trial_index":225,"time_elapsed":964594,"internal_node_id":"0.0-200.0","task_version":"battery-v0.2-trt","session":3},{"rune":"E","rune_set":"bacs1","hex":"#3366ff99","correct":-1,"choice":-1,"rt":-1,"accuracy":1,"outcome":"+10","keys":[],"total_keys":0,"block":2,"trial":195,"stimulus":6,"robot":2,"valence":"win","action":"no-go","sham":0,"trial_type":"pit-trial","trial_index":226,"time_elapsed":968599,"internal_node_id":"0.0-201.0","task_version":"battery-v0.2-trt","session":3},{"rune":"R","rune_set":"bacs1","hex":"#f73b6a7A","correct":-1,"choice":32,"rt":640.4200000106357,"accuracy":0,"outcome":"-10","keys":[2142.0649999636225],"total_keys":1,"block":2,"trial":196,"stimulus":8,"robot":4,"valence":"lose","action":"no-go","sham":0,"trial_type":"pit-trial","trial_index":227,"time_elapsed":971948,"internal_node_id":"0.0-202.0","task_version":"battery-v0.2-trt","session":3},{"rune":"T","rune_set":"bacs1","hex":"#f73b6a7A","correct":32,"choice":32,"rt":982.0499999914318,"accuracy":1,"outcome":"-10","keys":[2483.254999970086],"total_keys":1,"block":2,"trial":197,"stimulus":5,"robot":3,"valence":"lose","action":"go","sham":1,"trial_type":"pit-trial","trial_index":228,"time_elapsed":975639,"internal_node_id":"0.0-203.0","task_version":"battery-v0.2-trt","session":3},{"rune":"V","rune_set":"bacs1","hex":"#f73b6a7A","correct":-1,"choice":32,"rt":1112.844999996014,"accuracy":0,"outcome":"-10","keys":[2613.0550000234507],"total_keys":1,"block":2,"trial":198,"stimulus":7,"robot":4,"valence":"lose","action":"no-go","sham":0,"trial_type":"pit-trial","trial_index":229,"time_elapsed":979457,"internal_node_id":"0.0-204.0","task_version":"battery-v0.2-trt","session":3},{"rune":"R","rune_set":"bacs1","hex":"#f73b6a7A","correct":-1,"choice":-1,"rt":-1,"accuracy":1,"outcome":"-1","keys":[],"total_keys":0,"block":2,"trial":199,"stimulus":8,"robot":4,"valence":"lose","action":"no-go","sham":0,"trial_type":"pit-trial","trial_index":230,"time_elapsed":983461,"internal_node_id":"0.0-205.0","task_version":"battery-v0.2-trt","session":3},{"rune":"E","rune_set":"bacs1","hex":"#3366ff99","correct":-1,"choice":-1,"rt":-1,"accuracy":1,"outcome":"+1","keys":[],"total_keys":0,"block":2,"trial":200,"stimulus":6,"robot":2,"valence":"win","action":"no-go","sham":1,"trial_type":"pit-trial","trial_index":231,"time_elapsed":987466,"internal_node_id":"0.0-206.0","task_version":"battery-v0.2-trt","session":3},{"rune":"J","rune_set":"bacs1","hex":"#3366ff99","correct":32,"choice":32,"rt":562.9450000124052,"accuracy":1,"outcome":"+10","keys":[2063.9950000331737],"total_keys":1,"block":2,"trial":201,"stimulus":9,"robot":1,"valence":"win","action":"go","sham":0,"trial_type":"pit-trial","trial_index":232,"time_elapsed":990735,"internal_node_id":"0.0-207.0","task_version":"battery-v0.2-trt","session":3},{"rune":"Z","rune_set":"bacs1","hex":"#f73b6a7A","correct":32,"choice":-1,"rt":-1,"accuracy":0,"outcome":"-10","keys":[],"total_keys":0,"block":2,"trial":202,"stimulus":10,"robot":3,"valence":"lose","action":"go","sham":0,"trial_type":"pit-trial","trial_index":233,"time_elapsed":994741,"internal_node_id":"0.0-208.0","task_version":"battery-v0.2-trt","session":3},{"rune":"R","rune_set":"bacs1","hex":"#f73b6a7A","correct":-1,"choice":-1,"rt":-1,"accuracy":1,"outcome":"-10","keys":[],"total_keys":0,"block":2,"trial":203,"stimulus":8,"robot":4,"valence":"lose","action":"no-go","sham":1,"trial_type":"pit-trial","trial_index":234,"time_elapsed":998748,"internal_node_id":"0.0-209.0","task_version":"battery-v0.2-trt","session":3},{"rune":"E","rune_set":"bacs1","hex":"#3366ff99","correct":-1,"choice":-1,"rt":-1,"accuracy":1,"outcome":"+10","keys":[],"total_keys":0,"block":2,"trial":204,"stimulus":6,"robot":2,"valence":"win","action":"no-go","sham":0,"trial_type":"pit-trial","trial_index":235,"time_elapsed":1002754,"internal_node_id":"0.0-210.0","task_version":"battery-v0.2-trt","session":3},{"rune":"J","rune_set":"bacs1","hex":"#3366ff99","correct":32,"choice":32,"rt":609.2700000153854,"accuracy":1,"outcome":"+1","keys":[2109.684999973979],"total_keys":1,"block":2,"trial":205,"stimulus":9,"robot":1,"valence":"win","action":"go","sham":1,"trial_type":"pit-trial","trial_index":236,"time_elapsed":1006068,"internal_node_id":"0.0-211.0","task_version":"battery-v0.2-trt","session":3},{"rune":"R","rune_set":"bacs1","hex":"#f73b6a7A","correct":-1,"choice":-1,"rt":-1,"accuracy":1,"outcome":"-1","keys":[],"total_keys":0,"block":2,"trial":206,"stimulus":8,"robot":4,"valence":"lose","action":"no-go","sham":0,"trial_type":"pit-trial","trial_index":237,"time_elapsed":1010075,"internal_node_id":"0.0-212.0","task_version":"battery-v0.2-trt","session":3},{"rune":"E","rune_set":"bacs1","hex":"#3366ff99","correct":-1,"choice":-1,"rt":-1,"accuracy":1,"outcome":"+10","keys":[],"total_keys":0,"block":2,"trial":207,"stimulus":6,"robot":2,"valence":"win","action":"no-go","sham":0,"trial_type":"pit-trial","trial_index":238,"time_elapsed":1014082,"internal_node_id":"0.0-213.0","task_version":"battery-v0.2-trt","session":3},{"rune":"Z","rune_set":"bacs1","hex":"#f73b6a7A","correct":32,"choice":32,"rt":615.044999984093,"accuracy":1,"outcome":"-1","keys":[2116.3550000055693],"total_keys":1,"block":2,"trial":208,"stimulus":10,"robot":3,"valence":"lose","action":"go","sham":0,"trial_type":"pit-trial","trial_index":239,"time_elapsed":1017404,"internal_node_id":"0.0-214.0","task_version":"battery-v0.2-trt","session":3},{"rune":"R","rune_set":"bacs1","hex":"#f73b6a7A","correct":-1,"choice":32,"rt":962.1099999640137,"accuracy":0,"outcome":"-1","keys":[2462.790000019595],"total_keys":1,"block":2,"trial":209,"stimulus":8,"robot":4,"valence":"lose","action":"no-go","sham":1,"trial_type":"pit-trial","trial_index":240,"time_elapsed":1021072,"internal_node_id":"0.0-215.0","task_version":"battery-v0.2-trt","session":3},{"rune":"Z","rune_set":"bacs1","hex":"#f73b6a7A","correct":32,"choice":-1,"rt":-1,"accuracy":0,"outcome":"-10","keys":[],"total_keys":0,"block":2,"trial":210,"stimulus":10,"robot":3,"valence":"lose","action":"go","sham":0,"trial_type":"pit-trial","trial_index":241,"time_elapsed":1025079,"internal_node_id":"0.0-216.0","task_version":"battery-v0.2-trt","session":3},{"rune":"B","rune_set":"bacs1","hex":"#3366ff99","correct":32,"choice":32,"rt":627.3400000063702,"accuracy":1,"outcome":"+10","keys":[2128.435000020545],"total_keys":1,"block":2,"trial":211,"stimulus":11,"robot":1,"valence":"win","action":"go","sham":0,"trial_type":"pit-trial","trial_index":242,"time_elapsed":1028413,"internal_node_id":"0.0-217.0","task_version":"battery-v0.2-trt","session":3},{"rune":"J","rune_set":"bacs1","hex":"#3366ff99","correct":32,"choice":32,"rt":563.6650000233203,"accuracy":1,"outcome":"+10","keys":[2064.760000037495],"total_keys":1,"block":2,"trial":212,"stimulus":9,"robot":1,"valence":"win","action":"go","sham":0,"trial_type":"pit-trial","trial_index":243,"time_elapsed":1031684,"internal_node_id":"0.0-218.0","task_version":"battery-v0.2-trt","session":3},{"rune":"R","rune_set":"bacs1","hex":"#f73b6a7A","correct":-1,"choice":32,"rt":707.010000012815,"accuracy":0,"outcome":"-10","keys":[2208.1250000046566],"total_keys":1,"block":2,"trial":213,"stimulus":8,"robot":4,"valence":"lose","action":"no-go","sham":0,"trial_type":"pit-trial","trial_index":244,"time_elapsed":1035099,"internal_node_id":"0.0-219.0","task_version":"battery-v0.2-trt","session":3},{"rune":"B","rune_set":"bacs1","hex":"#3366ff99","correct":32,"choice":32,"rt":677.0299999625422,"accuracy":1,"outcome":"+10","keys":[2178.8700000033714],"total_keys":1,"block":2,"trial":214,"stimulus":11,"robot":1,"valence":"win","action":"go","sham":0,"trial_type":"pit-trial","trial_index":245,"time_elapsed":1038484,"internal_node_id":"0.0-220.0","task_version":"battery-v0.2-trt","session":3},{"rune":"Z","rune_set":"bacs1","hex":"#f73b6a7A","correct":32,"choice":32,"rt":693.9499999862164,"accuracy":1,"outcome":"-10","keys":[2195.4299999633804],"total_keys":1,"block":2,"trial":215,"stimulus":10,"robot":3,"valence":"lose","action":"go","sham":1,"trial_type":"pit-trial","trial_index":246,"time_elapsed":1041884,"internal_node_id":"0.0-221.0","task_version":"battery-v0.2-trt","session":3},{"rune":"J","rune_set":"bacs1","hex":"#3366ff99","correct":32,"choice":32,"rt":480.5550000164658,"accuracy":1,"outcome":"+10","keys":[1980.855000030715],"total_keys":1,"block":2,"trial":216,"stimulus":9,"robot":1,"valence":"win","action":"go","sham":0,"trial_type":"pit-trial","trial_index":247,"time_elapsed":1045071,"internal_node_id":"0.0-222.0","task_version":"battery-v0.2-trt","session":3},{"rune":"J","rune_set":"bacs1","hex":"#3366ff99","correct":32,"choice":32,"rt":495.02999999094754,"accuracy":1,"outcome":"+10","keys":[1995.8550000446849],"total_keys":1,"block":2,"trial":217,"stimulus":9,"robot":1,"valence":"win","action":"go","sham":0,"trial_type":"pit-trial","trial_index":248,"time_elapsed":1048272,"internal_node_id":"0.0-223.0","task_version":"battery-v0.2-trt","session":3},{"rune":"Z","rune_set":"bacs1","hex":"#f73b6a7A","correct":32,"choice":32,"rt":615.8099999884143,"accuracy":1,"outcome":"-1","keys":[2116.230000043288],"total_keys":1,"block":2,"trial":218,"stimulus":10,"robot":3,"valence":"lose","action":"go","sham":0,"trial_type":"pit-trial","trial_index":249,"time_elapsed":1051594,"internal_node_id":"0.0-224.0","task_version":"battery-v0.2-trt","session":3},{"rune":"B","rune_set":"bacs1","hex":"#3366ff99","correct":32,"choice":32,"rt":542.0699999667704,"accuracy":1,"outcome":"+10","keys":[2043.2649999856949],"total_keys":1,"block":2,"trial":219,"stimulus":11,"robot":1,"valence":"win","action":"go","sham":0,"trial_type":"pit-trial","trial_index":250,"time_elapsed":1054841,"internal_node_id":"0.0-225.0","task_version":"battery-v0.2-trt","session":3},{"rune":"R","rune_set":"bacs1","hex":"#f73b6a7A","correct":-1,"choice":32,"rt":703.9949999889359,"accuracy":0,"outcome":"-10","keys":[2205.279999994673],"total_keys":1,"block":2,"trial":220,"stimulus":8,"robot":4,"valence":"lose","action":"no-go","sham":0,"trial_type":"pit-trial","trial_index":251,"time_elapsed":1058250,"internal_node_id":"0.0-226.0","task_version":"battery-v0.2-trt","session":3},{"rune":"Z","rune_set":"bacs1","hex":"#f73b6a7A","correct":32,"choice":32,"rt":701.0000000009313,"accuracy":1,"outcome":"-1","keys":[2201.660000020638],"total_keys":1,"block":2,"trial":221,"stimulus":10,"robot":3,"valence":"lose","action":"go","sham":0,"trial_type":"pit-trial","trial_index":252,"time_elapsed":1061658,"internal_node_id":"0.0-227.0","task_version":"battery-v0.2-trt","session":3},{"rune":"B","rune_set":"bacs1","hex":"#3366ff99","correct":32,"choice":32,"rt":535.6649999739602,"accuracy":1,"outcome":"+1","keys":[2035.8450000057928],"total_keys":1,"block":2,"trial":222,"stimulus":11,"robot":1,"valence":"win","action":"go","sham":1,"trial_type":"pit-trial","trial_index":253,"time_elapsed":1064900,"internal_node_id":"0.0-228.0","task_version":"battery-v0.2-trt","session":3},{"rune":"J","rune_set":"bacs1","hex":"#3366ff99","correct":32,"choice":32,"rt":477.52500005299225,"accuracy":1,"outcome":"+1","keys":[1978.3849999657832],"total_keys":1,"block":2,"trial":223,"stimulus":9,"robot":1,"valence":"win","action":"go","sham":1,"trial_type":"pit-trial","trial_index":254,"time_elapsed":1068082,"internal_node_id":"0.0-229.0","task_version":"battery-v0.2-trt","session":3},{"rune":"R","rune_set":"bacs1","hex":"#f73b6a7A","correct":-1,"choice":-1,"rt":-1,"accuracy":1,"outcome":"-1","keys":[],"total_keys":0,"block":2,"trial":224,"stimulus":8,"robot":4,"valence":"lose","action":"no-go","sham":0,"trial_type":"pit-trial","trial_index":255,"time_elapsed":1072086,"internal_node_id":"0.0-230.0","task_version":"battery-v0.2-trt","session":3},{"rune":"Z","rune_set":"bacs1","hex":"#f73b6a7A","correct":32,"choice":-1,"rt":-1,"accuracy":0,"outcome":"-1","keys":[],"total_keys":0,"block":2,"trial":225,"stimulus":10,"robot":3,"valence":"lose","action":"go","sham":1,"trial_type":"pit-trial","trial_index":256,"time_elapsed":1076093,"internal_node_id":"0.0-231.0","task_version":"battery-v0.2-trt","session":3},{"rune":"J","rune_set":"bacs1","hex":"#3366ff99","correct":32,"choice":32,"rt":451.6150000272319,"accuracy":1,"outcome":"+1","keys":[1952.114999992773],"total_keys":1,"block":2,"trial":226,"stimulus":9,"robot":1,"valence":"win","action":"go","sham":1,"trial_type":"pit-trial","trial_index":257,"time_elapsed":1079251,"internal_node_id":"0.0-232.0","task_version":"battery-v0.2-trt","session":3},{"rune":"B","rune_set":"bacs1","hex":"#3366ff99","correct":32,"choice":32,"rt":633.6650000303052,"accuracy":1,"outcome":"+10","keys":[2134.1999999713153],"total_keys":1,"block":2,"trial":227,"stimulus":11,"robot":1,"valence":"win","action":"go","sham":0,"trial_type":"pit-trial","trial_index":258,"time_elapsed":1082588,"internal_node_id":"0.0-233.0","task_version":"battery-v0.2-trt","session":3},{"rune":"R","rune_set":"bacs1","hex":"#f73b6a7A","correct":-1,"choice":-1,"rt":-1,"accuracy":1,"outcome":"-1","keys":[],"total_keys":0,"block":2,"trial":228,"stimulus":8,"robot":4,"valence":"lose","action":"no-go","sham":0,"trial_type":"pit-trial","trial_index":259,"time_elapsed":1086592,"internal_node_id":"0.0-234.0","task_version":"battery-v0.2-trt","session":3},{"rune":"B","rune_set":"bacs1","hex":"#3366ff99","correct":32,"choice":32,"rt":594.3950000219047,"accuracy":1,"outcome":"+1","keys":[2095.3600000357255],"total_keys":1,"block":2,"trial":229,"stimulus":11,"robot":1,"valence":"win","action":"go","sham":1,"trial_type":"pit-trial","trial_index":260,"time_elapsed":1089891,"internal_node_id":"0.0-235.0","task_version":"battery-v0.2-trt","session":3},{"rune":"J","rune_set":"bacs1","hex":"#3366ff99","correct":32,"choice":32,"rt":506.0149999917485,"accuracy":1,"outcome":"+10","keys":[2006.2700000125915],"total_keys":1,"block":2,"trial":230,"stimulus":9,"robot":1,"valence":"win","action":"go","sham":0,"trial_type":"pit-trial","trial_index":261,"time_elapsed":1093104,"internal_node_id":"0.0-236.0","task_version":"battery-v0.2-trt","session":3},{"rune":"R","rune_set":"bacs1","hex":"#f73b6a7A","correct":-1,"choice":-1,"rt":-1,"accuracy":1,"outcome":"-1","keys":[],"total_keys":0,"block":2,"trial":231,"stimulus":8,"robot":4,"valence":"lose","action":"no-go","sham":0,"trial_type":"pit-trial","trial_index":262,"time_elapsed":1097112,"internal_node_id":"0.0-237.0","task_version":"battery-v0.2-trt","session":3},{"rune":"Z","rune_set":"bacs1","hex":"#f73b6a7A","correct":32,"choice":32,"rt":919.4549999665469,"accuracy":1,"outcome":"-1","keys":[2420.0800000107847],"total_keys":1,"block":2,"trial":232,"stimulus":10,"robot":3,"valence":"lose","action":"go","sham":0,"trial_type":"pit-trial","trial_index":263,"time_elapsed":1100738,"internal_node_id":"0.0-238.0","task_version":"battery-v0.2-trt","session":3},{"rune":"Z","rune_set":"bacs1","hex":"#f73b6a7A","correct":32,"choice":32,"rt":585.4649999528192,"accuracy":1,"outcome":"-10","keys":[2086.62000001641],"total_keys":1,"block":2,"trial":233,"stimulus":10,"robot":3,"valence":"lose","action":"go","sham":1,"trial_type":"pit-trial","trial_index":264,"time_elapsed":1104030,"internal_node_id":"0.0-239.0","task_version":"battery-v0.2-trt","session":3},{"rune":"J","rune_set":"bacs1","hex":"#3366ff99","correct":32,"choice":