[{"view_history":"[{\"page_index\":0,\"viewing_time\":3130.3700000025856}]","rt":3130.6250000016007,"trial_type":"instructions","trial_index":0,"time_elapsed":3144,"internal_node_id":"0.0-0.0","task_version":"battery-v0.2-trt","session":3},{"slider_type":"valence","raw_loc":653,"loc":0.806,"trial_type":"affective-slider","trial_index":1,"time_elapsed":7357,"internal_node_id":"0.0-1.0","task_version":"battery-v0.2-trt","session":3},{"responses":{"Q06":"0","Q04":"0","Q07":"0","Q03":"0","Q05":"0","Q08":"3","Q01":"0","Q02":"0"},"rt":25881.239999998797,"item_order":[5,3,6,2,4,7,0,1],"radio_events":[4320.46999999875,6272.304999998596,6816.285000000789,7904.309999998077,9784.2899999996,16016.304999997374,21424.244999998336,23192.380000000412],"key_events":[],"mouse_events":[4320.46999999875,5560.364999997546,6272.304999998596,6816.285000000789,7904.309999998077,9784.2899999996,12504.385000000184,13800.295000000915,14816.364999998768,16016.304999997374,21424.244999998336,23192.380000000412,25880.329999999958],"straightlining":0.875,"zigzagging":0.2857142857142857,"survey":"dass_d","trial_type":"survey-template","trial_index":2,"time_elapsed":33241,"internal_node_id":"0.0-2.0","task_version":"battery-v0.2-trt","session":3,"infrequency":0},{"responses":{"Q05":"0","Q08":"0","Q01":"0","Q04":"0","Q03":"0","Q02":"0","Q07":"0","Q06":"0"},"rt":18717.674999999872,"item_order":[4,7,0,3,2,1,6,5],"radio_events":[4300.985000001674,5508.975000000646,8229.025000000547,9324.91999999911,10108.879999999772,11205.144999999902,12564.894999999524,16820.91500000024],"key_events":[],"mouse_events":[2788.7249999985215,4300.985000001674,5508.975000000646,7132.975000000442,8229.025000000547,9324.91999999911,10108.879999999772,11205.144999999902,12564.894999999524,13436.815000000934,16820.91500000024,18716.945000000123],"straightlining":1,"zigzagging":0,"survey":"gad7","trial_type":"survey-template","trial_index":3,"time_elapsed":51961,"internal_node_id":"0.0-3.0","task_version":"battery-v0.2-trt","session":3,"infrequency":0},{"view_history":"[{\"page_index\":0,\"viewing_time\":8532.549999999901},{\"page_index\":1,\"viewing_time\":4104.039999998349},{\"page_index\":2,\"viewing_time\":4303.859999999986},{\"page_index\":3,\"viewing_time\":5608.110000001034},{\"page_index\":4,\"viewing_time\":4807.894999998098},{\"page_index\":5,\"viewing_time\":2432.1899999995367},{\"page_index\":6,\"viewing_time\":3943.9800000000105},{\"page_index\":7,\"viewing_time\":16912.11000000112},{\"page_index\":8,\"viewing_time\":4288.015000001906},{\"page_index\":9,\"viewing_time\":3063.865000000078}]","rt":57997.01999999888,"trial_type":"pit-instructions","trial_index":4,"time_elapsed":109960,"internal_node_id":"0.0-4.0-0.0","task_version":"battery-v0.2-trt","session":3},{"rune":"1","rune_set":"elianto","hex":"#3366ff99","correct":32,"choice":32,"rt":1092.6949999993667,"accuracy":1,"outcome":"+10","keys":[2592.980000001262],"total_keys":1,"block":0,"practice":1,"trial_type":"pit-trial","trial_index":5,"time_elapsed":113759,"internal_node_id":"0.0-4.0-1.0-0.0","task_version":"battery-v0.2-trt","session":3},{"rune":"1","rune_set":"elianto","hex":"#3366ff99","correct":32,"choice":32,"rt":895.7100000006903,"accuracy":1,"outcome":"+10","keys":[2397.6199999997334],"total_keys":1,"block":0,"practice":1,"trial_type":"pit-trial","trial_index":6,"time_elapsed":117362,"internal_node_id":"0.0-4.0-1.1-0.1","task_version":"battery-v0.2-trt","session":3},{"rune":"1","rune_set":"elianto","hex":"#3366ff99","correct":32,"choice":32,"rt":447.38499999948544,"accuracy":1,"outcome":"+10","keys":[1947.840000000724],"total_keys":1,"block":0,"practice":1,"trial_type":"pit-trial","trial_index":7,"time_elapsed":120514,"internal_node_id":"0.0-4.0-1.2-0.2","task_version":"battery-v0.2-trt","session":3},{"rune":"1","rune_set":"elianto","hex":"#3366ff99","correct":32,"choice":32,"rt":496.4399999989837,"accuracy":1,"outcome":"+10","keys":[1997.335000000021],"total_keys":1,"block":0,"practice":1,"trial_type":"pit-trial","trial_index":8,"time_elapsed":123715,"internal_node_id":"0.0-4.0-1.3-0.3","task_version":"battery-v0.2-trt","session":3},{"trial_type":"call-function","trial_index":9,"time_elapsed":123717,"internal_node_id":"0.0-4.0-2.0","task_version":"battery-v0.2-trt","session":3},{"view_history":"[{\"page_index\":0,\"viewing_time\":5282.275000001391},{\"page_index\":1,\"viewing_time\":2352.5699999991048}]","rt":7635.624999998981,"trial_type":"pit-instructions","trial_index":10,"time_elapsed":131353,"internal_node_id":"0.0-4.0-3.0","task_version":"battery-v0.2-trt","session":3},{"rune":"2","rune_set":"elianto","hex":"#3366ff99","correct":-1,"choice":32,"rt":840.7250000018394,"accuracy":0,"outcome":"+1","keys":[2340.8649999983027],"total_keys":1,"block":0,"practice":2,"trial_type":"pit-trial","trial_index":11,"time_elapsed":134899,"internal_node_id":"0.0-4.0-4.0-0.0","task_version":"battery-v0.2-trt","session":3},{"rune":"2","rune_set":"elianto","hex":"#3366ff99","correct":-1,"choice":-1,"rt":-1,"accuracy":1,"outcome":"+10","keys":[],"total_keys":0,"block":0,"practice":2,"trial_type":"pit-trial","trial_index":12,"time_elapsed":138905,"internal_node_id":"0.0-4.0-4.1-0.1","task_version":"battery-v0.2-trt","session":3},{"rune":"2","rune_set":"elianto","hex":"#3366ff99","correct":-1,"choice":-1,"rt":-1,"accuracy":1,"outcome":"+10","keys":[],"total_keys":0,"block":0,"practice":2,"trial_type":"pit-trial","trial_index":13,"time_elapsed":142910,"internal_node_id":"0.0-4.0-4.2-0.2","task_version":"battery-v0.2-trt","session":3},{"rune":"2","rune_set":"elianto","hex":"#3366ff99","correct":-1,"choice":-1,"rt":-1,"accuracy":1,"outcome":"+10","keys":[],"total_keys":0,"block":0,"practice":2,"trial_type":"pit-trial","trial_index":14,"time_elapsed":146920,"internal_node_id":"0.0-4.0-4.3-0.3","task_version":"battery-v0.2-trt","session":3},{"trial_type":"call-function","trial_index":15,"time_elapsed":146922,"internal_node_id":"0.0-4.0-5.0","task_version":"battery-v0.2-trt","session":3},{"view_history":"[{\"page_index\":0,\"viewing_time\":4420.640000000276},{\"page_index\":1,\"viewing_time\":2128.0450000012934}]","rt":6548.940000000584,"trial_type":"pit-instructions","trial_index":16,"time_elapsed":153472,"internal_node_id":"0.0-4.0-6.0","task_version":"battery-v0.2-trt","session":3},{"rune":"3","rune_set":"elianto","hex":"#f73b6a7A","correct":-1,"choice":32,"rt":361.1200000013923,"accuracy":0,"outcome":"-10","keys":[1862.939999999071],"total_keys":1,"block":0,"practice":3,"trial_type":"pit-trial","trial_index":17,"time_elapsed":156538,"internal_node_id":"0.0-4.0-7.0-0.0","task_version":"battery-v0.2-trt","session":3},{"rune":"3","rune_set":"elianto","hex":"#f73b6a7A","correct":-1,"choice":-1,"rt":-1,"accuracy":1,"outcome":"-1","keys":[],"total_keys":0,"block":0,"practice":3,"trial_type":"pit-trial","trial_index":18,"time_elapsed":160543,"internal_node_id":"0.0-4.0-7.1-0.1","task_version":"battery-v0.2-trt","session":3},{"rune":"3","rune_set":"elianto","hex":"#f73b6a7A","correct":-1,"choice":-1,"rt":-1,"accuracy":1,"outcome":"-1","keys":[],"total_keys":0,"block":0,"practice":3,"trial_type":"pit-trial","trial_index":19,"time_elapsed":164547,"internal_node_id":"0.0-4.0-7.2-0.2","task_version":"battery-v0.2-trt","session":3},{"rune":"3","rune_set":"elianto","hex":"#f73b6a7A","correct":-1,"choice":-1,"rt":-1,"accuracy":1,"outcome":"-1","keys":[],"total_keys":0,"block":0,"practice":3,"trial_type":"pit-trial","trial_index":20,"time_elapsed":168551,"internal_node_id":"0.0-4.0-7.3-0.3","task_version":"battery-v0.2-trt","session":3},{"trial_type":"call-function","trial_index":21,"time_elapsed":168552,"internal_node_id":"0.0-4.0-8.0","task_version":"battery-v0.2-trt","session":3},{"view_history":"[{\"page_index\":0,\"viewing_time\":6663.205000000744},{\"page_index\":1,\"viewing_time\":2112.0149999987916}]","rt":8775.499999999738,"trial_type":"pit-instructions","trial_index":22,"time_elapsed":177328,"internal_node_id":"0.0-4.0-9.0","task_version":"battery-v0.2-trt","session":3},{"rune":"4","rune_set":"elianto","hex":"#f73b6a7A","correct":32,"choice":32,"rt":442.2649999978603,"accuracy":1,"outcome":"-1","keys":[1943.2199999973818],"total_keys":1,"block":0,"practice":4,"trial_type":"pit-trial","trial_index":23,"time_elapsed":180480,"internal_node_id":"0.0-4.0-10.0-0.0","task_version":"battery-v0.2-trt","session":3},{"rune":"4","rune_set":"elianto","hex":"#f73b6a7A","correct":32,"choice":32,"rt":345.4649999985122,"accuracy":1,"outcome":"-1","keys":[1846.8399999983376],"total_keys":1,"block":0,"practice":4,"trial_type":"pit-trial","trial_index":24,"time_elapsed":183531,"internal_node_id":"0.0-4.0-10.1-0.1","task_version":"battery-v0.2-trt","session":3},{"rune":"4","rune_set":"elianto","hex":"#f73b6a7A","correct":32,"choice":32,"rt":382.67999999879976,"accuracy":1,"outcome":"-1","keys":[1882.9599999990023],"total_keys":1,"block":0,"practice":4,"trial_type":"pit-trial","trial_index":25,"time_elapsed":186618,"internal_node_id":"0.0-4.0-10.2-0.2","task_version":"battery-v0.2-trt","session":3},{"rune":"4","rune_set":"elianto","hex":"#f73b6a7A","correct":32,"choice":32,"rt":304.37000000165426,"accuracy":1,"outcome":"-1","keys":[1804.9550000032468],"total_keys":1,"block":0,"practice":4,"trial_type":"pit-trial","trial_index":26,"time_elapsed":189627,"internal_node_id":"0.0-4.0-10.3-0.3","task_version":"battery-v0.2-trt","session":3},{"trial_type":"call-function","trial_index":27,"time_elapsed":189629,"internal_node_id":"0.0-4.0-11.0","task_version":"battery-v0.2-trt","session":3},{"view_history":"[{\"page_index\":0,\"viewing_time\":2378.0750000005355},{\"page_index\":1,\"viewing_time\":3000.0400000026275},{\"page_index\":2,\"viewing_time\":4224.079999999958},{\"page_index\":3,\"viewing_time\":3071.974999998929},{\"page_index\":4,\"viewing_time\":3159.9649999989197},{\"page_index\":5,\"viewing_time\":1928.1150000024354}]","rt":17762.525000001915,"trial_type":"pit-instructions","trial_index":28,"time_elapsed":207393,"internal_node_id":"0.0-4.0-12.0","task_version":"battery-v0.2-trt","session":3},{"responses":["Press SPACE","+10","-1","True","True"],"num_errors":0,"rt":17814.705000000686,"trial_type":"pit-comprehension","trial_index":29,"time_elapsed":225210,"internal_node_id":"0.0-4.0-13.0","task_version":"battery-v0.2-trt","session":3},{"view_history":"[{\"page_index\":0,\"viewing_time\":3220.644999997603},{\"page_index\":1,\"viewing_time\":3671.9800000028044}]","rt":6892.87499999773,"trial_type":"pit-instructions","trial_index":30,"time_elapsed":232105,"internal_node_id":"0.0-5.0","task_version":"battery-v0.2-trt","session":3},{"rune":"X","rune_set":"bacs2","hex":"#f73b6a7A","correct":-1,"choice":32,"rt":459.18999999776133,"accuracy":0,"outcome":"-10","keys":[1959.2149999989488],"total_keys":1,"block":1,"trial":1,"stimulus":2,"robot":4,"valence":"lose","action":"no-go","sham":0,"trial_type":"pit-trial","trial_index":31,"time_elapsed":235268,"internal_node_id":"0.0-6.0","task_version":"battery-v0.2-trt","session":3},{"rune":"W","rune_set":"bacs2","hex":"#f73b6a7A","correct":32,"choice":32,"rt":726.4450000002398,"accuracy":1,"outcome":"-1","keys":[2226.600000001781],"total_keys":1,"block":1,"trial":2,"stimulus":1,"robot":3,"valence":"lose","action":"go","sham":0,"trial_type":"pit-trial","trial_index":32,"time_elapsed":238699,"internal_node_id":"0.0-7.0","task_version":"battery-v0.2-trt","session":3},{"rune":"J","rune_set":"bacs2","hex":"#3366ff99","correct":-1,"choice":32,"rt":766.6699999972479,"accuracy":0,"outcome":"+1","keys":[2267.5299999973504],"total_keys":1,"block":1,"trial":3,"stimulus":0,"robot":2,"valence":"win","action":"no-go","sham":0,"trial_type":"pit-trial","trial_index":33,"time_elapsed":242171,"internal_node_id":"0.0-8.0","task_version":"battery-v0.2-trt","session":3},{"rune":"Z","rune_set":"bacs2","hex":"#3366ff99","correct":32,"choice":32,"rt":743.9950000007229,"accuracy":1,"outcome":"+10","keys":[2244.619999997667],"total_keys":1,"block":1,"trial":4,"stimulus":3,"robot":1,"valence":"win","action":"go","sham":0,"trial_type":"pit-trial","trial_index":34,"time_elapsed":245618,"internal_node_id":"0.0-9.0","task_version":"battery-v0.2-trt","session":3},{"rune":"W","rune_set":"bacs2","hex":"#f73b6a7A","correct":32,"choice":32,"rt":951.4600000002247,"accuracy":1,"outcome":"-1","keys":[2452.0250000023225],"total_keys":1,"block":1,"trial":5,"stimulus":1,"robot":3,"valence":"lose","action":"go","sham":0,"trial_type":"pit-trial","trial_index":35,"time_elapsed":249276,"internal_node_id":"0.0-10.0","task_version":"battery-v0.2-trt","session":3},{"rune":"X","rune_set":"bacs2","hex":"#f73b6a7A","correct":-1,"choice":-1,"rt":-1,"accuracy":1,"outcome":"-1","keys":[],"total_keys":0,"block":1,"trial":6,"stimulus":2,"robot":4,"valence":"lose","action":"no-go","sham":0,"trial_type":"pit-trial","trial_index":36,"time_elapsed":253285,"internal_node_id":"0.0-11.0","task_version":"battery-v0.2-trt","session":3},{"rune":"Z","rune_set":"bacs2","hex":"#3366ff99","correct":32,"choice":32,"rt":1021.2500000016007,"accuracy":1,"outcome":"+10","keys":[2521.4950000008685],"total_keys":1,"block":1,"trial":7,"stimulus":3,"robot":1,"valence":"win","action":"go","sham":0,"trial_type":"pit-trial","trial_index":37,"time_elapsed":257011,"internal_node_id":"0.0-12.0","task_version":"battery-v0.2-trt","session":3},{"rune":"J","rune_set":"bacs2","hex":"#3366ff99","correct":-1,"choice":-1,"rt":-1,"accuracy":1,"outcome":"+10","keys":[],"total_keys":0,"block":1,"trial":8,"stimulus":0,"robot":2,"valence":"win","action":"no-go","sham":0,"trial_type":"pit-trial","trial_index":38,"time_elapsed":261015,"internal_node_id":"0.0-13.0","task_version":"battery-v0.2-trt","session":3},{"rune":"X","rune_set":"bacs2","hex":"#f73b6a7A","correct":-1,"choice":-1,"rt":-1,"accuracy":1,"outcome":"-10","keys":[],"total_keys":0,"block":1,"trial":9,"stimulus":2,"robot":4,"valence":"lose","action":"no-go","sham":1,"trial_type":"pit-trial","trial_index":39,"time_elapsed":265020,"internal_node_id":"0.0-14.0","task_version":"battery-v0.2-trt","session":3},{"rune":"W","rune_set":"bacs2","hex":"#f73b6a7A","correct":32,"choice":32,"rt":1086.685000002035,"accuracy":1,"outcome":"-1","keys":[2587.5899999992107],"total_keys":1,"block":1,"trial":10,"stimulus":1,"robot":3,"valence":"lose","action":"go","sham":0,"trial_type":"pit-trial","trial_index":40,"time_elapsed":268811,"internal_node_id":"0.0-15.0","task_version":"battery-v0.2-trt","session":3},{"rune":"Z","rune_set":"bacs2","hex":"#3366ff99","correct":32,"choice":32,"rt":736.3399999995017,"accuracy":1,"outcome":"+1","keys":[2236.5350000000326],"total_keys":1,"block":1,"trial":11,"stimulus":3,"robot":1,"valence":"win","action":"go","sham":1,"trial_type":"pit-trial","trial_index":41,"time_elapsed":272251,"internal_node_id":"0.0-16.0","task_version":"battery-v0.2-trt","session":3},{"rune":"J","rune_set":"bacs2","hex":"#3366ff99","correct":-1,"choice":-1,"rt":-1,"accuracy":1,"outcome":"+10","keys":[],"total_keys":0,"block":1,"trial":12,"stimulus":0,"robot":2,"valence":"win","action":"no-go","sham":0,"trial_type":"pit-trial","trial_index":42,"time_elapsed":276259,"internal_node_id":"0.0-17.0","task_version":"battery-v0.2-trt","session":3},{"rune":"J","rune_set":"bacs2","hex":"#3366ff99","correct":-1,"choice":-1,"rt":-1,"accuracy":1,"outcome":"+1","keys":[],"total_keys":0,"block":1,"trial":13,"stimulus":0,"robot":2,"valence":"win","action":"no-go","sham":1,"trial_type":"pit-trial","trial_index":43,"time_elapsed":280266,"internal_node_id":"0.0-18.0","task_version":"battery-v0.2-trt","session":3},{"rune":"W","rune_set":"bacs2","hex":"#f73b6a7A","correct":32,"choice":32,"rt":720.7149999994435,"accuracy":1,"outcome":"-10","keys":[2220.915000001667],"total_keys":1,"block":1,"trial":14,"stimulus":1,"robot":3,"valence":"lose","action":"go","sham":1,"trial_type":"pit-trial","trial_index":44,"time_elapsed":283691,"internal_node_id":"0.0-19.0","task_version":"battery-v0.2-trt","session":3},{"rune":"Z","rune_set":"bacs2","hex":"#3366ff99","correct":32,"choice":32,"rt":558.5049999972107,"accuracy":1,"outcome":"+10","keys":[2058.855000003008],"total_keys":1,"block":1,"trial":15,"stimulus":3,"robot":1,"valence":"win","action":"go","sham":0,"trial_type":"pit-trial","trial_index":45,"time_elapsed":286969,"internal_node_id":"0.0-20.0","task_version":"battery-v0.2-trt","session":3},{"rune":"X","rune_set":"bacs2","hex":"#f73b6a7A","correct":-1,"choice":32,"rt":625.5750000018743,"accuracy":0,"outcome":"-1","keys":[2126.4400000000605],"total_keys":1,"block":1,"trial":16,"stimulus":2,"robot":4,"valence":"lose","action":"no-go","sham":1,"trial_type":"pit-trial","trial_index":46,"time_elapsed":290301,"internal_node_id":"0.0-21.0","task_version":"battery-v0.2-trt","session":3},{"rune":"J","rune_set":"bacs2","hex":"#3366ff99","correct":-1,"choice":-1,"rt":-1,"accuracy":1,"outcome":"+1","keys":[],"total_keys":0,"block":1,"trial":17,"stimulus":0,"robot":2,"valence":"win","action":"no-go","sham":1,"trial_type":"pit-trial","trial_index":47,"time_elapsed":294305,"internal_node_id":"0.0-22.0","task_version":"battery-v0.2-trt","session":3},{"rune":"X","rune_set":"bacs2","hex":"#f73b6a7A","correct":-1,"choice":32,"rt":905.7649999994901,"accuracy":0,"outcome":"-10","keys":[2405.930000000866],"total_keys":1,"block":1,"trial":18,"stimulus":2,"robot":4,"valence":"lose","action":"no-go","sham":0,"trial_type":"pit-trial","trial_index":48,"time_elapsed":297915,"internal_node_id":"0.0-23.0","task_version":"battery-v0.2-trt","session":3},{"rune":"W","rune_set":"bacs2","hex":"#f73b6a7A","correct":32,"choice":32,"rt":959.0949999983422,"accuracy":1,"outcome":"-1","keys":[2459.0849999985658],"total_keys":1,"block":1,"trial":19,"stimulus":1,"robot":3,"valence":"lose","action":"go","sham":0,"trial_type":"pit-trial","trial_index":49,"time_elapsed":301579,"internal_node_id":"0.0-24.0","task_version":"battery-v0.2-trt","session":3},{"rune":"Z","rune_set":"bacs2","hex":"#3366ff99","correct":32,"choice":32,"rt":829.4800000003306,"accuracy":1,"outcome":"+10","keys":[2331.0600000004633],"total_keys":1,"block":1,"trial":20,"stimulus":3,"robot":1,"valence":"win","action":"go","sham":0,"trial_type":"pit-trial","trial_index":50,"time_elapsed":305114,"internal_node_id":"0.0-25.0","task_version":"battery-v0.2-trt","session":3},{"rune":"Z","rune_set":"bacs2","hex":"#3366ff99","correct":32,"choice":32,"rt":623.300000002957,"accuracy":1,"outcome":"+10","keys":[2124.0800000014133],"total_keys":1,"block":1,"trial":21,"stimulus":3,"robot":1,"valence":"win","action":"go","sham":0,"trial_type":"pit-trial","trial_index":51,"time_elapsed":308442,"internal_node_id":"0.0-26.0","task_version":"battery-v0.2-trt","session":3},{"rune":"J","rune_set":"bacs2","hex":"#3366ff99","correct":-1,"choice":32,"rt":720.32499999844,"accuracy":0,"outcome":"+1","keys":[2220.454999998794],"total_keys":1,"block":1,"trial":22,"stimulus":0,"robot":2,"valence":"win","action":"no-go","sham":0,"trial_type":"pit-trial","trial_index":52,"time_elapsed":311866,"internal_node_id":"0.0-27.0","task_version":"battery-v0.2-trt","session":3},{"rune":"W","rune_set":"bacs2","hex":"#f73b6a7A","correct":32,"choice":-1,"rt":-1,"accuracy":0,"outcome":"-10","keys":[],"total_keys":0,"block":1,"trial":23,"stimulus":1,"robot":3,"valence":"lose","action":"go","sham":0,"trial_type":"pit-trial","trial_index":53,"time_elapsed":315871,"internal_node_id":"0.0-28.0","task_version":"battery-v0.2-trt","session":3},{"rune":"X","rune_set":"bacs2","hex":"#f73b6a7A","correct":-1,"choice":-1,"rt":-1,"accuracy":1,"outcome":"-1","keys":[],"total_keys":0,"block":1,"trial":24,"stimulus":2,"robot":4,"valence":"lose","action":"no-go","sham":0,"trial_type":"pit-trial","trial_index":54,"time_elapsed":319876,"internal_node_id":"0.0-29.0","task_version":"battery-v0.2-trt","session":3},{"rune":"W","rune_set":"bacs2","hex":"#f73b6a7A","correct":32,"choice":32,"rt":1221.8599999978906,"accuracy":1,"outcome":"-1","keys":[2721.8599999978323],"total_keys":1,"block":1,"trial":25,"stimulus":1,"robot":3,"valence":"lose","action":"go","sham":0,"trial_type":"pit-trial","trial_index":55,"time_elapsed":323802,"internal_node_id":"0.0-30.0","task_version":"battery-v0.2-trt","session":3},{"rune":"J","rune_set":"bacs2","hex":"#3366ff99","correct":-1,"choice":32,"rt":984.2250000002095,"accuracy":0,"outcome":"+1","keys":[2484.339999999036],"total_keys":1,"block":1,"trial":26,"stimulus":0,"robot":2,"valence":"win","action":"no-go","sham":0,"trial_type":"pit-trial","trial_index":56,"time_elapsed":327490,"internal_node_id":"0.0-31.0","task_version":"battery-v0.2-trt","session":3},{"rune":"Z","rune_set":"bacs2","hex":"#3366ff99","correct":32,"choice":32,"rt":622.2049999997253,"accuracy":1,"outcome":"+10","keys":[2124.050000002142],"total_keys":1,"block":1,"trial":27,"stimulus":3,"robot":1,"valence":"win","action":"go","sham":0,"trial_type":"pit-trial","trial_index":57,"time_elapsed":330818,"internal_node_id":"0.0-32.0","task_version":"battery-v0.2-trt","session":3},{"rune":"X","rune_set":"bacs2","hex":"#f73b6a7A","correct":-1,"choice":-1,"rt":-1,"accuracy":1,"outcome":"-1","keys":[],"total_keys":0,"block":1,"trial":28,"stimulus":2,"robot":4,"valence":"lose","action":"no-go","sham":0,"trial_type":"pit-trial","trial_index":58,"time_elapsed":334823,"internal_node_id":"0.0-33.0","task_version":"battery-v0.2-trt","session":3},{"rune":"J","rune_set":"bacs2","hex":"#3366ff99","correct":-1,"choice":-1,"rt":-1,"accuracy":1,"outcome":"+1","keys":[],"total_keys":0,"block":1,"trial":29,"stimulus":0,"robot":2,"valence":"win","action":"no-go","sham":1,"trial_type":"pit-trial","trial_index":59,"time_elapsed":338827,"internal_node_id":"0.0-34.0","task_version":"battery-v0.2-trt","session":3},{"rune":"X","rune_set":"bacs2","hex":"#f73b6a7A","correct":-1,"choice":-1,"rt":-1,"accuracy":1,"outcome":"-1","keys":[],"total_keys":0,"block":1,"trial":30,"stimulus":2,"robot":4,"valence":"lose","action":"no-go","sham":0,"trial_type":"pit-trial","trial_index":60,"time_elapsed":342845,"internal_node_id":"0.0-35.0","task_version":"battery-v0.2-trt","session":3},{"rune":"W","rune_set":"bacs2","hex":"#f73b6a7A","correct":32,"choice":32,"rt":1204.3999999987427,"accuracy":1,"outcome":"-1","keys":[2705.8350000006612],"total_keys":1,"block":1,"trial":31,"stimulus":1,"robot":3,"valence":"lose","action":"go","sham":0,"trial_type":"pit-trial","trial_index":61,"time_elapsed":346755,"internal_node_id":"0.0-36.0","task_version":"battery-v0.2-trt","session":3},{"rune":"Z","rune_set":"bacs2","hex":"#3366ff99","correct":32,"choice":32,"rt":678.2800000000279,"accuracy":1,"outcome":"+10","keys":[2178.9949999983655],"total_keys":1,"block":1,"trial":32,"stimulus":3,"robot":1,"valence":"win","action":"go","sham":0,"trial_type":"pit-trial","trial_index":62,"time_elapsed":350139,"internal_node_id":"0.0-37.0","task_version":"battery-v0.2-trt","session":3},{"rune":"X","rune_set":"bacs2","hex":"#f73b6a7A","correct":-1,"choice":-1,"rt":-1,"accuracy":1,"outcome":"-1","keys":[],"total_keys":0,"block":1,"trial":33,"stimulus":2,"robot":4,"valence":"lose","action":"no-go","sham":0,"trial_type":"pit-trial","trial_index":63,"time_elapsed":354144,"internal_node_id":"0.0-38.0","task_version":"battery-v0.2-trt","session":3},{"rune":"O","rune_set":"bacs2","hex":"#f73b6a7A","correct":-1,"choice":32,"rt":834.4050000014249,"accuracy":0,"outcome":"-10","keys":[2335.339999997872],"total_keys":1,"block":1,"trial":34,"stimulus":5,"robot":4,"valence":"lose","action":"no-go","sham":0,"trial_type":"pit-trial","trial_index":64,"time_elapsed":357683,"internal_node_id":"0.0-39.0","task_version":"battery-v0.2-trt","session":3},{"rune":"G","rune_set":"bacs2","hex":"#f73b6a7A","correct":32,"choice":-1,"rt":-1,"accuracy":0,"outcome":"-1","keys":[2950.229999998526],"total_keys":1,"block":1,"trial":35,"stimulus":4,"robot":3,"valence":"lose","action":"go","sham":1,"trial_type":"pit-trial","trial_index":65,"time_elapsed":361699,"internal_node_id":"0.0-40.0","task_version":"battery-v0.2-trt","session":3},{"rune":"W","rune_set":"bacs2","hex":"#f73b6a7A","correct":32,"choice":32,"rt":836.4550000005984,"accuracy":1,"outcome":"-1","keys":[2338.420000000042],"total_keys":1,"block":1,"trial":36,"stimulus":1,"robot":3,"valence":"lose","action":"go","sham":0,"trial_type":"pit-trial","trial_index":66,"time_elapsed":365242,"internal_node_id":"0.0-41.0","task_version":"battery-v0.2-trt","session":3},{"rune":"W","rune_set":"bacs2","hex":"#f73b6a7A","correct":32,"choice":32,"rt":814.5550000008079,"accuracy":1,"outcome":"-1","keys":[2315.7199999986915],"total_keys":1,"block":1,"trial":37,"stimulus":1,"robot":3,"valence":"lose","action":"go","sham":0,"trial_type":"pit-trial","trial_index":67,"time_elapsed":368762,"internal_node_id":"0.0-42.0","task_version":"battery-v0.2-trt","session":3},{"rune":"G","rune_set":"bacs2","hex":"#f73b6a7A","correct":32,"choice":-1,"rt":-1,"accuracy":0,"outcome":"-1","keys":[],"total_keys":0,"block":1,"trial":38,"stimulus":4,"robot":3,"valence":"lose","action":"go","sham":1,"trial_type":"pit-trial","trial_index":68,"time_elapsed":372767,"internal_node_id":"0.0-43.0","task_version":"battery-v0.2-trt","session":3},{"rune":"O","rune_set":"bacs2","hex":"#f73b6a7A","correct":-1,"choice":-1,"rt":-1,"accuracy":1,"outcome":"-1","keys":[],"total_keys":0,"block":1,"trial":39,"stimulus":5,"robot":4,"valence":"lose","action":"no-go","sham":0,"trial_type":"pit-trial","trial_index":69,"time_elapsed":376771,"internal_node_id":"0.0-44.0","task_version":"battery-v0.2-trt","session":3},{"rune":"X","rune_set":"bacs2","hex":"#f73b6a7A","correct":-1,"choice":-1,"rt":-1,"accuracy":1,"outcome":"-1","keys":[540.7400000003399],"total_keys":1,"block":1,"trial":40,"stimulus":2,"robot":4,"valence":"lose","action":"no-go","sham":0,"trial_type":"pit-trial","trial_index":70,"time_elapsed":380786,"internal_node_id":"0.0-45.0","task_version":"battery-v0.2-trt","session":3},{"rune":"G","rune_set":"bacs2","hex":"#f73b6a7A","correct":32,"choice":-1,"rt":-1,"accuracy":0,"outcome":"-10","keys":[],"total_keys":0,"block":1,"trial":41,"stimulus":4,"robot":3,"valence":"lose","action":"go","sham":0,"trial_type":"pit-trial","trial_index":71,"time_elapsed":384793,"internal_node_id":"0.0-46.0","task_version":"battery-v0.2-trt","session":3},{"rune":"C","rune_set":"bacs2","hex":"#3366ff99","correct":-1,"choice":32,"rt":856.3199999989592,"accuracy":0,"outcome":"+10","keys":[2358.125000002503],"total_keys":1,"block":1,"trial":42,"stimulus":6,"robot":2,"valence":"win","action":"no-go","sham":1,"trial_type":"pit-trial","trial_index":72,"time_elapsed":388355,"internal_node_id":"0.0-47.0","task_version":"battery-v0.2-trt","session":3},{"rune":"X","rune_set":"bacs2","hex":"#f73b6a7A","correct":-1,"choice":-1,"rt":-1,"accuracy":1,"outcome":"-1","keys":[],"total_keys":0,"block":1,"trial":43,"stimulus":2,"robot":4,"valence":"lose","action":"no-go","sham":0,"trial_type":"pit-trial","trial_index":73,"time_elapsed":392360,"internal_node_id":"0.0-48.0","task_version":"battery-v0.2-trt","session":3},{"rune":"O","rune_set":"bacs2","hex":"#f73b6a7A","correct":-1,"choice":-1,"rt":-1,"accuracy":1,"outcome":"-1","keys":[],"total_keys":0,"block":1,"trial":44,"stimulus":5,"robot":4,"valence":"lose","action":"no-go","sham":0,"trial_type":"pit-trial","trial_index":74,"time_elapsed":396366,"internal_node_id":"0.0-49.0","task_version":"battery-v0.2-trt","session":3},{"rune":"C","rune_set":"bacs2","hex":"#3366ff99","correct":-1,"choice":32,"rt":651.9450000014622,"accuracy":0,"outcome":"+1","keys":[2152.865000000049],"total_keys":1,"block":1,"trial":45,"stimulus":6,"robot":2,"valence":"win","action":"no-go","sham":0,"trial_type":"pit-trial","trial_index":75,"time_elapsed":399723,"internal_node_id":"0.0-50.0","task_version":"battery-v0.2-trt","session":3},{"rune":"G","rune_set":"bacs2","hex":"#f73b6a7A","correct":32,"choice":-1,"rt":-1,"accuracy":0,"outcome":"-1","keys":[],"total_keys":0,"block":1,"trial":46,"stimulus":4,"robot":3,"valence":"lose","action":"go","sham":1,"trial_type":"pit-trial","trial_index":76,"time_elapsed":403728,"internal_node_id":"0.0-51.0","task_version":"battery-v0.2-trt","session":3},{"rune":"X","rune_set":"bacs2","hex":"#f73b6a7A","correct":-1,"choice":-1,"rt":-1,"accuracy":1,"outcome":"-1","keys":[],"total_keys":0,"block":1,"trial":47,"stimulus":2,"robot":4,"valence":"lose","action":"no-go","sham":0,"trial_type":"pit-trial","trial_index":77,"time_elapsed":407747,"internal_node_id":"0.0-52.0","task_version":"battery-v0.2-trt","session":3},{"rune":"O","rune_set":"bacs2","hex":"#f73b6a7A","correct":-1,"choice":-1,"rt":-1,"accuracy":1,"outcome":"-1","keys":[],"total_keys":0,"block":1,"trial":48,"stimulus":5,"robot":4,"valence":"lose","action":"no-go","sham":0,"trial_type":"pit-trial","trial_index":78,"time_elapsed":411750,"internal_node_id":"0.0-53.0","task_version":"battery-v0.2-trt","session":3},{"rune":"C","rune_set":"bacs2","hex":"#3366ff99","correct":-1,"choice":32,"rt":1036.5749999983236,"accuracy":0,"outcome":"+1","keys":[2537.1199999972014],"total_keys":1,"block":1,"trial":49,"stimulus":6,"robot":2,"valence":"win","action":"no-go","sham":0,"trial_type":"pit-trial","trial_index":79,"time_elapsed":415491,"internal_node_id":"0.0-54.0","task_version":"battery-v0.2-trt","session":3},{"rune":"O","rune_set":"bacs2","hex":"#f73b6a7A","correct":-1,"choice":-1,"rt":-1,"accuracy":1,"outcome":"-10","keys":[],"total_keys":0,"block":1,"trial":50,"stimulus":5,"robot":4,"valence":"lose","action":"no-go","sham":1,"trial_type":"pit-trial","trial_index":80,"time_elapsed":419501,"internal_node_id":"0.0-55.0","task_version":"battery-v0.2-trt","session":3},{"rune":"E","rune_set":"bacs2","hex":"#3366ff99","correct":32,"choice":32,"rt":997.5449999983539,"accuracy":1,"outcome":"+10","keys":[2497.6000000024214],"total_keys":1,"block":1,"trial":51,"stimulus":7,"robot":1,"valence":"win","action":"go","sham":0,"trial_type":"pit-trial","trial_index":81,"time_elapsed":423202,"internal_node_id":"0.0-56.0","task_version":"battery-v0.2-trt","session":3},{"rune":"G","rune_set":"bacs2","hex":"#f73b6a7A","correct":32,"choice":-1,"rt":-1,"accuracy":0,"outcome":"-10","keys":[],"total_keys":0,"block":1,"trial":52,"stimulus":4,"robot":3,"valence":"lose","action":"go","sham":0,"trial_type":"pit-trial","trial_index":82,"time_elapsed":427208,"internal_node_id":"0.0-57.0","task_version":"battery-v0.2-trt","session":3},{"rune":"G","rune_set":"bacs2","hex":"#f73b6a7A","correct":32,"choice":-1,"rt":-1,"accuracy":0,"outcome":"-10","keys":[],"total_keys":0,"block":1,"trial":53,"stimulus":4,"robot":3,"valence":"lose","action":"go","sham":0,"trial_type":"pit-trial","trial_index":83,"time_elapsed":431211,"internal_node_id":"0.0-58.0","task_version":"battery-v0.2-trt","session":3},{"rune":"E","rune_set":"bacs2","hex":"#3366ff99","correct":32,"choice":32,"rt":934.6999999979744,"accuracy":1,"outcome":"+10","keys":[2435.5849999992643],"total_keys":1,"block":1,"trial":54,"stimulus":7,"robot":1,"valence":"win","action":"go","sham":0,"trial_type":"pit-trial","trial_index":84,"time_elapsed":434851,"internal_node_id":"0.0-59.0","task_version":"battery-v0.2-trt","session":3},{"rune":"C","rune_set":"bacs2","hex":"#3366ff99","correct":-1,"choice":-1,"rt":-1,"accuracy":1,"outcome":"+10","keys":[],"total_keys":0,"block":1,"trial":55,"stimulus":6,"robot":2,"valence":"win","action":"no-go","sham":0,"trial_type":"pit-trial","trial_index":85,"time_elapsed":438854,"internal_node_id":"0.0-60.0","task_version":"battery-v0.2-trt","session":3},{"rune":"O","rune_set":"bacs2","hex":"#f73b6a7A","correct":-1,"choice":32,"rt":925.1750000003376,"accuracy":0,"outcome":"-10","keys":[2425.3500000013737],"total_keys":1,"block":1,"trial":56,"stimulus":5,"robot":4,"valence":"lose","action":"no-go","sham":0,"trial_type":"pit-trial","trial_index":86,"time_elapsed":442482,"internal_node_id":"0.0-61.0","task_version":"battery-v0.2-trt","session":3},{"rune":"G","rune_set":"bacs2","hex":"#f73b6a7A","correct":32,"choice":32,"rt":815.5000000005821,"accuracy":1,"outcome":"-1","keys":[2316.0449999995762],"total_keys":1,"block":1,"trial":57,"stimulus":4,"robot":3,"valence":"lose","action":"go","sham":0,"trial_type":"pit-trial","trial_index":87,"time_elapsed":446002,"internal_node_id":"0.0-62.0","task_version":"battery-v0.2-trt","session":3},{"rune":"O","rune_set":"bacs2","hex":"#f73b6a7A","correct":-1,"choice":-1,"rt":-1,"accuracy":1,"outcome":"-1","keys":[],"total_keys":0,"block":1,"trial":58,"stimulus":5,"robot":4,"valence":"lose","action":"no-go","sham":0,"trial_type":"pit-trial","trial_index":88,"time_elapsed":450006,"internal_node_id":"0.0-63.0","task_version":"battery-v0.2-trt","session":3},{"rune":"E","rune_set":"bacs2","hex":"#3366ff99","correct":32,"choice":32,"rt":939.2950000001001,"accuracy":1,"outcome":"+10","keys":[2440.2100000006612],"total_keys":1,"block":1,"trial":59,"stimulus":7,"robot":1,"valence":"win","action":"go","sham":0,"trial_type":"pit-trial","trial_index":89,"time_elapsed":453651,"internal_node_id":"0.0-64.0","task_version":"battery-v0.2-trt","session":3},{"rune":"C","rune_set":"bacs2","hex":"#3366ff99","correct":-1,"choice":-1,"rt":-1,"accuracy":1,"outcome":"+10","keys":[],"total_keys":0,"block":1,"trial":60,"stimulus":6,"robot":2,"valence":"win","action":"no-go","sham":0,"trial_type":"pit-trial","trial_index":90,"time_elapsed":457656,"internal_node_id":"0.0-65.0","task_version":"battery-v0.2-trt","session":3},{"rune":"C","rune_set":"bacs2","hex":"#3366ff99","correct":-1,"choice":-1,"rt":-1,"accuracy":1,"outcome":"+10","keys":[],"total_keys":0,"block":1,"trial":61,"stimulus":6,"robot":2,"valence":"win","action":"no-go","sham":0,"trial_type":"pit-trial","trial_index":91,"time_elapsed":461661,"internal_node_id":"0.0-66.0","task_version":"battery-v0.2-trt","session":3},{"rune":"O","rune_set":"bacs2","hex":"#f73b6a7A","correct":-1,"choice":-1,"rt":-1,"accuracy":1,"outcome":"-1","keys":[],"total_keys":0,"block":1,"trial":62,"stimulus":5,"robot":4,"valence":"lose","action":"no-go","sham":0,"trial_type":"pit-trial","trial_index":92,"time_elapsed":465666,"internal_node_id":"0.0-67.0","task_version":"battery-v0.2-trt","session":3},{"rune":"G","rune_set":"bacs2","hex":"#f73b6a7A","correct":32,"choice":-1,"rt":-1,"accuracy":0,"outcome":"-1","keys":[],"total_keys":0,"block":1,"trial":63,"stimulus":4,"robot":3,"valence":"lose","action":"go","sham":1,"trial_type":"pit-trial","trial_index":93,"time_elapsed":469672,"internal_node_id":"0.0-68.0","task_version":"battery-v0.2-trt","session":3},{"rune":"E","rune_set":"bacs2","hex":"#3366ff99","correct":32,"choice":32,"rt":753.6350000009406,"accuracy":1,"outcome":"+1","keys":[2254.3799999984913],"total_keys":1,"block":1,"trial":64,"stimulus":7,"robot":1,"valence":"win","action":"go","sham":1,"trial_type":"pit-trial","trial_index":94,"time_elapsed":473130,"internal_node_id":"0.0-69.0","task_version":"battery-v0.2-trt","session":3},{"rune":"E","rune_set":"bacs2","hex":"#3366ff99","correct":32,"choice":-1,"rt":-1,"accuracy":0,"outcome":"+1","keys":[],"total_keys":0,"block":1,"trial":65,"stimulus":7,"robot":1,"valence":"win","action":"go","sham":0,"trial_type":"pit-trial","trial_index":95,"time_elapsed":477134,"internal_node_id":"0.0-70.0","task_version":"battery-v0.2-trt","session":3},{"rune":"O","rune_set":"bacs2","hex":"#f73b6a7A","correct":-1,"choice":-1,"rt":-1,"accuracy":1,"outcome":"-10","keys":[],"total_keys":0,"block":1,"trial":66,"stimulus":5,"robot":4,"valence":"lose","action":"no-go","sham":1,"trial_type":"pit-trial","trial_index":96,"time_elapsed":481137,"internal_node_id":"0.0-71.0","task_version":"battery-v0.2-trt","session":3},{"rune":"G","rune_set":"bacs2","hex":"#f73b6a7A","correct":32,"choice":-1,"rt":-1,"accuracy":0,"outcome":"-1","keys":[],"total_keys":0,"block":1,"trial":67,"stimulus":4,"robot":3,"valence":"lose","action":"go","sham":1,"trial_type":"pit-trial","trial_index":97,"time_elapsed":485143,"internal_node_id":"0.0-72.0","task_version":"battery-v0.2-trt","session":3},{"rune":"C","rune_set":"bacs2","hex":"#3366ff99","correct":-1,"choice":32,"rt":1100.3749999981956,"accuracy":0,"outcome":"+1","keys":[2600.529999999737],"total_keys":1,"block":1,"trial":68,"stimulus":6,"robot":2,"valence":"win","action":"no-go","sham":0,"trial_type":"pit-trial","trial_index":98,"time_elapsed":488947,"internal_node_id":"0.0-73.0","task_version":"battery-v0.2-trt","session":3},{"rune":"C","rune_set":"bacs2","hex":"#3366ff99","correct":-1,"choice":-1,"rt":-1,"accuracy":1,"outcome":"+10","keys":[],"total_keys":0,"block":1,"trial":69,"stimulus":6,"robot":2,"valence":"win","action":"no-go","sham":0,"trial_type":"pit-trial","trial_index":99,"time_elapsed":492963,"internal_node_id":"0.0-74.0","task_version":"battery-v0.2-trt","session":3},{"rune":"O","rune_set":"bacs2","hex":"#f73b6a7A","correct":-1,"choice":-1,"rt":-1,"accuracy":1,"outcome":"-1","keys":[],"total_keys":0,"block":1,"trial":70,"stimulus":5,"robot":4,"valence":"lose","action":"no-go","sham":0,"trial_type":"pit-trial","trial_index":100,"time_elapsed":496967,"internal_node_id":"0.0-75.0","task_version":"battery-v0.2-trt","session":3},{"rune":"E","rune_set":"bacs2","hex":"#3366ff99","correct":32,"choice":-1,"rt":-1,"accuracy":0,"outcome":"+10","keys":[],"total_keys":0,"block":1,"trial":71,"stimulus":7,"robot":1,"valence":"win","action":"go","sham":1,"trial_type":"pit-trial","trial_index":101,"time_elapsed":500984,"internal_node_id":"0.0-76.0","task_version":"battery-v0.2-trt","session":3},{"rune":"G","rune_set":"bacs2","hex":"#f73b6a7A","correct":32,"choice":-1,"rt":-1,"accuracy":0,"outcome":"-10","keys":[],"total_keys":0,"block":1,"trial":72,"stimulus":4,"robot":3,"valence":"lose","action":"go","sham":0,"trial_type":"pit-trial","trial_index":102,"time_elapsed":504988,"internal_node_id":"0.0-77.0","task_version":"battery-v0.2-trt","session":3},{"rune":"H","rune_set":"bacs2","hex":"#3366ff99","correct":32,"choice":32,"rt":877.8850000016973,"accuracy":1,"outcome":"+10","keys":[2378.4149999992223],"total_keys":1,"block":1,"trial":73,"stimulus":8,"robot":1,"valence":"win","action":"go","sham":0,"trial_type":"pit-trial","trial_index":103,"time_elapsed":508571,"internal_node_id":"0.0-78.0","task_version":"battery-v0.2-trt","session":3},{"rune":"G","rune_set":"bacs2","hex":"#f73b6a7A","correct":32,"choice":-1,"rt":-1,"accuracy":0,"outcome":"-10","keys":[],"total_keys":0,"block":1,"trial":74,"stimulus":4,"robot":3,"valence":"lose","action":"go","sham":0,"trial_type":"pit-trial","trial_index":104,"time_elapsed":512575,"internal_node_id":"0.0-79.0","task_version":"battery-v0.2-trt","session":3},{"rune":"E","rune_set":"bacs2","hex":"#3366ff99","correct":32,"choice":-1,"rt":-1,"accuracy":0,"outcome":"+1","keys":[],"total_keys":0,"block":1,"trial":75,"stimulus":7,"robot":1,"valence":"win","action":"go","sham":0,"trial_type":"pit-trial","trial_index":105,"time_elapsed":516578,"internal_node_id":"0.0-80.0","task_version":"battery-v0.2-trt","session":3},{"rune":"C","rune_set":"bacs2","hex":"#3366ff99","correct":-1,"choice":-1,"rt":-1,"accuracy":1,"outcome":"+10","keys":[],"total_keys":0,"block":1,"trial":76,"stimulus":6,"robot":2,"valence":"win","action":"no-go","sham":0,"trial_type":"pit-trial","trial_index":106,"time_elapsed":520592,"internal_node_id":"0.0-81.0","task_version":"battery-v0.2-trt","session":3},{"rune":"E","rune_set":"bacs2","hex":"#3366ff99","correct":32,"choice":32,"rt":507.0850000010687,"accuracy":1,"outcome":"+10","keys":[2007.7149999997346],"total_keys":1,"block":1,"trial":77,"stimulus":7,"robot":1,"valence":"win","action":"go","sham":0,"trial_type":"pit-trial","trial_index":107,"time_elapsed":523812,"internal_node_id":"0.0-82.0","task_version":"battery-v0.2-trt","session":3},{"rune":"C","rune_set":"bacs2","hex":"#3366ff99","correct":-1,"choice":-1,"rt":-1,"accuracy":1,"outcome":"+1","keys":[],"total_keys":0,"block":1,"trial":78,"stimulus":6,"robot":2,"valence":"win","action":"no-go","sham":1,"trial_type":"pit-trial","trial_index":108,"time_elapsed":527817,"internal_node_id":"0.0-83.0","task_version":"battery-v0.2-trt","session":3},{"rune":"H","rune_set":"bacs2","hex":"#3366ff99","correct":32,"choice":32,"rt":649.4899999997579,"accuracy":1,"outcome":"+10","keys":[2149.8349999965867],"total_keys":1,"block":1,"trial":79,"stimulus":8,"robot":1,"valence":"win","action":"go","sham":0,"trial_type":"pit-trial","trial_index":109,"time_elapsed":531170,"internal_node_id":"0.0-84.0","task_version":"battery-v0.2-trt","session":3},{"rune":"G","rune_set":"bacs2","hex":"#f73b6a7A","correct":32,"choice":32,"rt":969.1349999993108,"accuracy":1,"outcome":"-1","keys":[2469.7550000018673],"total_keys":1,"block":1,"trial":80,"stimulus":4,"robot":3,"valence":"lose","action":"go","sham":0,"trial_type":"pit-trial","trial_index":110,"time_elapsed":534843,"internal_node_id":"0.0-85.0","task_version":"battery-v0.2-trt","session":3},{"rune":"E","rune_set":"bacs2","hex":"#3366ff99","correct":32,"choice":-1,"rt":-1,"accuracy":0,"outcome":"+1","keys":[],"total_keys":0,"block":1,"trial":81,"stimulus":7,"robot":1,"valence":"win","action":"go","sham":0,"trial_type":"pit-trial","trial_index":111,"time_elapsed":538847,"internal_node_id":"0.0-86.0","task_version":"battery-v0.2-trt","session":3},{"rune":"H","rune_set":"bacs2","hex":"#3366ff99","correct":32,"choice":32,"rt":579.9050000022398,"accuracy":1,"outcome":"+10","keys":[2080.290000001667],"total_keys":1,"block":1,"trial":82,"stimulus":8,"robot":1,"valence":"win","action":"go","sham":0,"trial_type":"pit-trial","trial_index":112,"time_elapsed":542130,"internal_node_id":"0.0-87.0","task_version":"battery-v0.2-trt","session":3},{"rune":"C","rune_set":"bacs2","hex":"#3366ff99","correct":-1,"choice":32,"rt":601.0800000004238,"accuracy":0,"outcome":"+1","keys":[2101.9450000021607],"total_keys":1,"block":1,"trial":83,"stimulus":6,"robot":2,"valence":"win","action":"no-go","sham":0,"trial_type":"pit-trial","trial_index":113,"time_elapsed":545435,"internal_node_id":"0.0-88.0","task_version":"battery-v0.2-trt","session":3},{"rune":"Q","rune_set":"bacs2","hex":"#3366ff99","correct":-1,"choice":32,"rt":909.3749999993015,"accuracy":0,"outcome":"+10","keys":[2411.3299999990268],"total_keys":1,"block":1,"trial":84,"stimulus":9,"robot":2,"valence":"win","action":"no-go","sham":1,"trial_type":"pit-trial","trial_index":114,"time_elapsed":549050,"internal_node_id":"0.0-89.0","task_version":"battery-v0.2-trt","session":3},{"rune":"C","rune_set":"bacs2","hex":"#3366ff99","correct":-1,"choice":-1,"rt":-1,"accuracy":1,"outcome":"+10","keys":[],"total_keys":0,"block":1,"trial":85,"stimulus":6,"robot":2,"valence":"win","action":"no-go","sham":0,"trial_type":"pit-trial","trial_index":115,"time_elapsed":553056,"internal_node_id":"0.0-90.0","task_version":"battery-v0.2-trt","session":3},{"rune":"H","rune_set":"bacs2","hex":"#3366ff99","correct":32,"choice":32,"rt":641.9649999989197,"accuracy":1,"outcome":"+10","keys":[2142.1399999998976],"total_keys":1,"block":1,"trial":86,"stimulus":8,"robot":1,"valence":"win","action":"go","sham":0,"trial_type":"pit-trial","trial_index":116,"time_elapsed":556410,"internal_node_id":"0.0-91.0","task_version":"battery-v0.2-trt","session":3},{"rune":"Q","rune_set":"bacs2","hex":"#3366ff99","correct":-1,"choice":-1,"rt":-1,"accuracy":1,"outcome":"+10","keys":[],"total_keys":0,"block":1,"trial":87,"stimulus":9,"robot":2,"valence":"win","action":"no-go","sham":0,"trial_type":"pit-trial","trial_index":117,"time_elapsed":560415,"internal_node_id":"0.0-92.0","task_version":"battery-v0.2-trt","session":3},{"rune":"E","rune_set":"bacs2","hex":"#3366ff99","correct":32,"choice":32,"rt":676.1650000007357,"accuracy":1,"outcome":"+1","keys":[2176.6900000002934],"total_keys":1,"block":1,"trial":88,"stimulus":7,"robot":1,"valence":"win","action":"go","sham":1,"trial_type":"pit-trial","trial_index":118,"time_elapsed":563794,"internal_node_id":"0.0-93.0","task_version":"battery-v0.2-trt","session":3},{"rune":"Y","rune_set":"bacs2","hex":"#f73b6a7A","correct":-1,"choice":-1,"rt":-1,"accuracy":1,"outcome":"-1","keys":[],"total_keys":0,"block":1,"trial":89,"stimulus":11,"robot":4,"valence":"lose","action":"no-go","sham":0,"trial_type":"pit-trial","trial_index":119,"time_elapsed":567799,"internal_node_id":"0.0-94.0","task_version":"battery-v0.2-trt","session":3},{"rune":"H","rune_set":"bacs2","hex":"#3366ff99","correct":32,"choice":32,"rt":545.9899999987101,"accuracy":1,"outcome":"+10","keys":[2047.6049999997485],"total_keys":1,"block":1,"trial":90,"stimulus":8,"robot":1,"valence":"win","action":"go","sham":0,"trial_type":"pit-trial","trial_index":120,"time_elapsed":571051,"internal_node_id":"0.0-95.0","task_version":"battery-v0.2-trt","session":3},{"rune":"Q","rune_set":"bacs2","hex":"#3366ff99","correct":-1,"choice":-1,"rt":-1,"accuracy":1,"outcome":"+10","keys":[],"total_keys":0,"block":1,"trial":91,"stimulus":9,"robot":2,"valence":"win","action":"no-go","sham":0,"trial_type":"pit-trial","trial_index":121,"time_elapsed":575057,"internal_node_id":"0.0-96.0","task_version":"battery-v0.2-trt","session":3},{"rune":"T","rune_set":"bacs2","hex":"#f73b6a7A","correct":32,"choice":-1,"rt":-1,"accuracy":0,"outcome":"-10","keys":[],"total_keys":0,"block":1,"trial":92,"stimulus":10,"robot":3,"valence":"lose","action":"go","sham":0,"trial_type":"pit-trial","trial_index":122,"time_elapsed":579077,"internal_node_id":"0.0-97.0","task_version":"battery-v0.2-trt","session":3},{"rune":"Q","rune_set":"bacs2","hex":"#3366ff99","correct":-1,"choice":-1,"rt":-1,"accuracy":1,"outcome":"+10","keys":[],"total_keys":0,"block":1,"trial":93,"stimulus":9,"robot":2,"valence":"win","action":"no-go","sham":0,"trial_type":"pit-trial","trial_index":123,"time_elapsed":583083,"internal_node_id":"0.0-98.0","task_version":"battery-v0.2-trt","session":3},{"rune":"Y","rune_set":"bacs2","hex":"#f73b6a7A","correct":-1,"choice":32,"rt":822.9400000019232,"accuracy":0,"outcome":"-1","keys":[2323.935000000405],"total_keys":1,"block":1,"trial":94,"stimulus":11,"robot":4,"valence":"lose","action":"no-go","sham":1,"trial_type":"pit-trial","trial_index":124,"time_elapsed":586610,"internal_node_id":"0.0-99.0","task_version":"battery-v0.2-trt","session":3},{"rune":"T","rune_set":"bacs2","hex":"#f73b6a7A","correct":32,"choice":32,"rt":878.1549999985145,"accuracy":1,"outcome":"-10","keys":[2380.059999999474],"total_keys":1,"block":1,"trial":95,"stimulus":10,"robot":3,"valence":"lose","action":"go","sham":1,"trial_type":"pit-trial","trial_index":125,"time_elapsed":590195,"internal_node_id":"0.0-100.0","task_version":"battery-v0.2-trt","session":3},{"rune":"H","rune_set":"bacs2","hex":"#3366ff99","correct":32,"choice":32,"rt":600.6099999977741,"accuracy":1,"outcome":"+10","keys":[2101.200000001001],"total_keys":1,"block":1,"trial":96,"stimulus":8,"robot":1,"valence":"win","action":"go","sham":0,"trial_type":"pit-trial","trial_index":126,"time_elapsed":593499,"internal_node_id":"0.0-101.0","task_version":"battery-v0.2-trt","session":3},{"rune":"Y","rune_set":"bacs2","hex":"#f73b6a7A","correct":-1,"choice":32,"rt":672.784999998752,"accuracy":0,"outcome":"-1","keys":[2173.1199999994133],"total_keys":1,"block":1,"trial":97,"stimulus":11,"robot":4,"valence":"lose","action":"no-go","sham":1,"trial_type":"pit-trial","trial_index":127,"time_elapsed":596875,"internal_node_id":"0.0-102.0","task_version":"battery-v0.2-trt","session":3},{"rune":"Q","rune_set":"bacs2","hex":"#3366ff99","correct":-1,"choice":-1,"rt":-1,"accuracy":1,"outcome":"+10","keys":[],"total_keys":0,"block":1,"trial":98,"stimulus":9,"robot":2,"valence":"win","action":"no-go","sham":0,"trial_type":"pit-trial","trial_index":128,"time_elapsed":600880,"internal_node_id":"0.0-103.0","task_version":"battery-v0.2-trt","session":3},{"rune":"H","rune_set":"bacs2","hex":"#3366ff99","correct":32,"choice":32,"rt":650.3450000018347,"accuracy":1,"outcome":"+10","keys":[2150.8050000012154],"total_keys":1,"block":1,"trial":99,"stimulus":8,"robot":1,"valence":"win","action":"go","sham":0,"trial_type":"pit-trial","trial_index":129,"time_elapsed":604245,"internal_node_id":"0.0-104.0","task_version":"battery-v0.2-trt","session":3},{"rune":"T","rune_set":"bacs2","hex":"#f73b6a7A","correct":32,"choice":32,"rt":885.4449999999488,"accuracy":1,"outcome":"-1","keys":[2386.645000002347],"total_keys":1,"block":1,"trial":100,"stimulus":10,"robot":3,"valence":"lose","action":"go","sham":0,"trial_type":"pit-trial","trial_index":130,"time_elapsed":607836,"internal_node_id":"0.0-105.0","task_version":"battery-v0.2-trt","session":3},{"rune":"Q","rune_set":"bacs2","hex":"#3366ff99","correct":-1,"choice":-1,"rt":-1,"accuracy":1,"outcome":"+10","keys":[],"total_keys":0,"block":1,"trial":101,"stimulus":9,"robot":2,"valence":"win","action":"no-go","sham":0,"trial_type":"pit-trial","trial_index":131,"time_elapsed":611841,"internal_node_id":"0.0-106.0","task_version":"battery-v0.2-trt","session":3},{"rune":"H","rune_set":"bacs2","hex":"#3366ff99","correct":32,"choice":32,"rt":598.9950000003446,"accuracy":1,"outcome":"+10","keys":[2100.930000000517],"total_keys":1,"block":1,"trial":102,"stimulus":8,"robot":1,"valence":"win","action":"go","sham":0,"trial_type":"pit-trial","trial_index":132,"time_elapsed":615147,"internal_node_id":"0.0-107.0","task_version":"battery-v0.2-trt","session":3},{"rune":"Y","rune_set":"bacs2","hex":"#f73b6a7A","correct":-1,"choice":32,"rt":816.7900000007357,"accuracy":0,"outcome":"-10","keys":[2317.414999997709],"total_keys":1,"block":1,"trial":103,"stimulus":11,"robot":4,"valence":"lose","action":"no-go","sham":0,"trial_type":"pit-trial","trial_index":133,"time_elapsed":618666,"internal_node_id":"0.0-108.0","task_version":"battery-v0.2-trt","session":3},{"rune":"T","rune_set":"bacs2","hex":"#f73b6a7A","correct":32,"choice":32,"rt":584.0299999981653,"accuracy":1,"outcome":"-1","keys":[2084.865000000689],"total_keys":1,"block":1,"trial":104,"stimulus":10,"robot":3,"valence":"lose","action":"go","sham":0,"trial_type":"pit-trial","trial_index":134,"time_elapsed":621954,"internal_node_id":"0.0-109.0","task_version":"battery-v0.2-trt","session":3},{"rune":"Q","rune_set":"bacs2","hex":"#3366ff99","correct":-1,"choice":-1,"rt":-1,"accuracy":1,"outcome":"+10","keys":[],"total_keys":0,"block":1,"trial":105,"stimulus":9,"robot":2,"valence":"win","action":"no-go","sham":0,"trial_type":"pit-trial","trial_index":135,"time_elapsed":625959,"internal_node_id":"0.0-110.0","task_version":"battery-v0.2-trt","session":3},{"rune":"T","rune_set":"bacs2","hex":"#f73b6a7A","correct":32,"choice":32,"rt":755.2949999989942,"accuracy":1,"outcome":"-1","keys":[2256.004999999306],"total_keys":1,"block":1,"trial":106,"stimulus":10,"robot":3,"valence":"lose","action":"go","sham":0,"trial_type":"pit-trial","trial_index":136,"time_elapsed":629420,"internal_node_id":"0.0-111.0","task_version":"battery-v0.2-trt","session":3},{"rune":"H","rune_set":"bacs2","hex":"#3366ff99","correct":32,"choice":32,"rt":613.5849999991478,"accuracy":1,"outcome":"+10","keys":[2113.595000002533],"total_keys":1,"block":1,"trial":107,"stimulus":8,"robot":1,"valence":"win","action":"go","sham":0,"trial_type":"pit-trial","trial_index":137,"time_elapsed":632738,"internal_node_id":"0.0-112.0","task_version":"battery-v0.2-trt","session":3},{"rune":"Y","rune_set":"bacs2","hex":"#f73b6a7A","correct":-1,"choice":32,"rt":928.9800000005635,"accuracy":0,"outcome":"-10","keys":[2429.7799999985145],"total_keys":1,"block":1,"trial":108,"stimulus":11,"robot":4,"valence":"lose","action":"no-go","sham":0,"trial_type":"pit-trial","trial_index":138,"time_elapsed":636370,"internal_node_id":"0.0-113.0","task_version":"battery-v0.2-trt","session":3},{"rune":"T","rune_set":"bacs2","hex":"#f73b6a7A","correct":32,"choice":-1,"rt":-1,"accuracy":0,"outcome":"-1","keys":[2998.2249999993946],"total_keys":1,"block":1,"trial":109,"stimulus":10,"robot":3,"valence":"lose","action":"go","sham":1,"trial_type":"pit-trial","trial_index":139,"time_elapsed":640374,"internal_node_id":"0.0-114.0","task_version":"battery-v0.2-trt","session":3},{"rune":"Y","rune_set":"bacs2","hex":"#f73b6a7A","correct":-1,"choice":-1,"rt":-1,"accuracy":1,"outcome":"-1","keys":[],"total_keys":0,"block":1,"trial":110,"stimulus":11,"robot":4,"valence":"lose","action":"no-go","sham":0,"trial_type":"pit-trial","trial_index":140,"time_elapsed":644379,"internal_node_id":"0.0-115.0","task_version":"battery-v0.2-trt","session":3},{"rune":"H","rune_set":"bacs2","hex":"#3366ff99","correct":32,"choice":32,"rt":510.3799999997718,"accuracy":1,"outcome":"+10","keys":[2011.2500000032596],"total_keys":1,"block":1,"trial":111,"stimulus":8,"robot":1,"valence":"win","action":"go","sham":0,"trial_type":"pit-trial","trial_index":141,"time_elapsed":647596,"internal_node_id":"0.0-116.0","task_version":"battery-v0.2-trt","session":3},{"rune":"Q","rune_set":"bacs2","hex":"#3366ff99","correct":-1,"choice":-1,"rt":-1,"accuracy":1,"outcome":"+1","keys":[],"total_keys":0,"block":1,"trial":112,"stimulus":9,"robot":2,"valence":"win","action":"no-go","sham":1,"trial_type":"pit-trial","trial_index":142,"time_elapsed":651599,"internal_node_id":"0.0-117.0","task_version":"battery-v0.2-trt","session":3},{"rune":"Y","rune_set":"bacs2","hex":"#f73b6a7A","correct":-1,"choice":-1,"rt":-1,"accuracy":1,"outcome":"-1","keys":[],"total_keys":0,"block":1,"trial":113,"stimulus":11,"robot":4,"valence":"lose","action":"no-go","sham":0,"trial_type":"pit-trial","trial_index":143,"time_elapsed":655603,"internal_node_id":"0.0-118.0","task_version":"battery-v0.2-trt","session":3},{"rune":"T","rune_set":"bacs2","hex":"#f73b6a7A","correct":32,"choice":-1,"rt":-1,"accuracy":0,"outcome":"-10","keys":[],"total_keys":0,"block":1,"trial":114,"stimulus":10,"robot":3,"valence":"lose","action":"go","sham":0,"trial_type":"pit-trial","trial_index":144,"time_elapsed":659620,"internal_node_id":"0.0-119.0","task_version":"battery-v0.2-trt","session":3},{"rune":"Q","rune_set":"bacs2","hex":"#3366ff99","correct":-1,"choice":32,"rt":790.9950000030221,"accuracy":0,"outcome":"+1","keys":[2292.649999999441],"total_keys":1,"block":1,"trial":115,"stimulus":9,"robot":2,"valence":"win","action":"no-go","sham":0,"trial_type":"pit-trial","trial_index":145,"time_elapsed":663115,"internal_node_id":"0.0-120.0","task_version":"battery-v0.2-trt","session":3},{"rune":"H","rune_set":"bacs2","hex":"#3366ff99","correct":32,"choice":32,"rt":535.2149999999674,"accuracy":1,"outcome":"+10","keys":[2035.5600000001723],"total_keys":1,"block":1,"trial":116,"stimulus":8,"robot":1,"valence":"win","action":"go","sham":0,"trial_type":"pit-trial","trial_index":146,"time_elapsed":666354,"internal_node_id":"0.0-121.0","task_version":"battery-v0.2-trt","session":3},{"rune":"H","rune_set":"bacs2","hex":"#3366ff99","correct":32,"choice":32,"rt":512.5450000014389,"accuracy":1,"outcome":"+10","keys":[2013.43999999878],"total_keys":1,"block":1,"trial":117,"stimulus":8,"robot":1,"valence":"win","action":"go","sham":0,"trial_type":"pit-trial","trial_index":147,"time_elapsed":669571,"internal_node_id":"0.0-122.0","task_version":"battery-v0.2-trt","session":3},{"rune":"Q","rune_set":"bacs2","hex":"#3366ff99","correct":-1,"choice":-1,"rt":-1,"accuracy":1,"outcome":"+1","keys":[],"total_keys":0,"block":1,"trial":118,"stimulus":9,"robot":2,"valence":"win","action":"no-go","sham":1,"trial_type":"pit-trial","trial_index":148,"time_elapsed":673587,"internal_node_id":"0.0-123.0","task_version":"battery-v0.2-trt","session":3},{"rune":"T","rune_set":"bacs2","hex":"#f73b6a7A","correct":32,"choice":-1,"rt":-1,"accuracy":0,"outcome":"-10","keys":[],"total_keys":0,"block":1,"trial":119,"stimulus":10,"robot":3,"valence":"lose","action":"go","sham":0,"trial_type":"pit-trial","trial_index":149,"time_elapsed":677592,"internal_node_id":"0.0-124.0","task_version":"battery-v0.2-trt","session":3},{"rune":"Y","rune_set":"bacs2","hex":"#f73b6a7A","correct":-1,"choice":-1,"rt":-1,"accuracy":1,"outcome":"-1","keys":[],"total_keys":0,"block":1,"trial":120,"stimulus":11,"robot":4,"valence":"lose","action":"no-go","sham":0,"trial_type":"pit-trial","trial_index":150,"time_elapsed":681598,"internal_node_id":"0.0-125.0","task_version":"battery-v0.2-trt","session":3},{"view_history":"[{\"page_index\":0,\"viewing_time\":25568.575000001118},{\"page_index\":1,\"viewing_time\":4951.854999999283}]","rt":30520.700000000885,"trial_type":"pit-instructions","trial_index":151,"time_elapsed":712121,"internal_node_id":"0.0-126.0","task_version":"battery-v0.2-trt","session":3},{"rune":"N","rune_set":"bacs2","hex":"#3366ff99","correct":-1,"choice":32,"rt":601.8350000013597,"accuracy":0,"outcome":"+1","keys":[2102.404999997816],"total_keys":1,"block":2,"trial":121,"stimulus":0,"robot":2,"valence":"win","action":"no-go","sham":0,"trial_type":"pit-trial","trial_index":152,"time_elapsed":715426,"internal_node_id":"0.0-127.0","task_version":"battery-v0.2-trt","session":3},{"rune":"A","rune_set":"bacs2","hex":"#3366ff99","correct":32,"choice":32,"rt":481.10000000090804,"accuracy":1,"outcome":"+10","keys":[1981.319999998901],"total_keys":1,"block":2,"trial":122,"stimulus":2,"robot":1,"valence":"win","action":"go","sham":0,"trial_type":"pit-trial","trial_index":153,"time_elapsed":718612,"internal_node_id":"0.0-128.0","task_version":"battery-v0.2-trt","session":3},{"rune":"U","rune_set":"bacs2","hex":"#f73b6a7A","correct":32,"choice":-1,"rt":-1,"accuracy":0,"outcome":"-10","keys":[],"total_keys":0,"block":2,"trial":123,"stimulus":3,"robot":3,"valence":"lose","action":"go","sham":0,"trial_type":"pit-trial","trial_index":154,"time_elapsed":722617,"internal_node_id":"0.0-129.0","task_version":"battery-v0.2-trt","session":3},{"rune":"F","rune_set":"bacs2","hex":"#3366ff99","correct":-1,"choice":-1,"rt":-1,"accuracy":1,"outcome":"+10","keys":[],"total_keys":0,"block":2,"trial":124,"stimulus":1,"robot":2,"valence":"win","action":"no-go","sham":0,"trial_type":"pit-trial","trial_index":155,"time_elapsed":726622,"internal_node_id":"0.0-130.0","task_version":"battery-v0.2-trt","session":3},{"rune":"A","rune_set":"bacs2","hex":"#3366ff99","correct":32,"choice":-1,"rt":-1,"accuracy":0,"outcome":"+1","keys":[],"total_keys":0,"block":2,"trial":125,"stimulus":2,"robot":1,"valence":"win","action":"go","sham":0,"trial_type":"pit-trial","trial_index":156,"time_elapsed":730627,"internal_node_id":"0.0-131.0","task_version":"battery-v0.2-trt","session":3},{"rune":"F","rune_set":"bacs2","hex":"#3366ff99","correct":-1,"choice":-1,"rt":-1,"accuracy":1,"outcome":"+10","keys":[],"total_keys":0,"block":2,"trial":126,"stimulus":1,"robot":2,"valence":"win","action":"no-go","sham":0,"trial_type":"pit-trial","trial_index":157,"time_elapsed":734632,"internal_node_id":"0.0-132.0","task_version":"battery-v0.2-trt","session":3},{"rune":"N","rune_set":"bacs2","hex":"#3366ff99","correct":-1,"choice":32,"rt":787.3250000011176,"accuracy":0,"outcome":"+1","keys":[2287.3099999997066],"total_keys":1,"block":2,"trial":127,"stimulus":0,"robot":2,"valence":"win","action":"no-go","sham":0,"trial_type":"pit-trial","trial_index":158,"time_elapsed":738123,"internal_node_id":"0.0-133.0","task_version":"battery-v0.2-trt","session":3},{"rune":"U","rune_set":"bacs2","hex":"#f73b6a7A","correct":32,"choice":32,"rt":967.1049999997485,"accuracy":1,"outcome":"-10","keys":[2468.8199999982025],"total_keys":1,"block":2,"trial":128,"stimulus":3,"robot":3,"valence":"lose","action":"go","sham":1,"trial_type":"pit-trial","trial_index":159,"time_elapsed":741794,"internal_node_id":"0.0-134.0","task_version":"battery-v0.2-trt","session":3},{"rune":"U","rune_set":"bacs2","hex":"#f73b6a7A","correct":32,"choice":-1,"rt":-1,"accuracy":0,"outcome":"-10","keys":[],"total_keys":0,"block":2,"trial":129,"stimulus":3,"robot":3,"valence":"lose","action":"go","sham":0,"trial_type":"pit-trial","trial_index":160,"time_elapsed":745799,"internal_node_id":"0.0-135.0","task_version":"battery-v0.2-trt","session":3},{"rune":"N","rune_set":"bacs2","hex":"#3366ff99","correct":-1,"choice":-1,"rt":-1,"accuracy":1,"outcome":"+10","keys":[2984.329999999376],"total_keys":1,"block":2,"trial":130,"stimulus":0,"robot":2,"valence":"win","action":"no-go","sham":0,"trial_type":"pit-trial","trial_index":161,"time_elapsed":749805,"internal_node_id":"0.0-136.0","task_version":"battery-v0.2-trt","session":3},{"rune":"F","rune_set":"bacs2","hex":"#3366ff99","correct":-1,"choice":32,"rt":1069.52000000095,"accuracy":0,"outcome":"+1","keys":[2569.609999998589],"total_keys":1,"block":2,"trial":131,"stimulus":1,"robot":2,"valence":"win","action":"no-go","sham":0,"trial_type":"pit-trial","trial_index":162,"time_elapsed":753579,"internal_node_id":"0.0-137.0","task_version":"battery-v0.2-trt","session":3},{"rune":"A","rune_set":"bacs2","hex":"#3366ff99","correct":32,"choice":32,"rt":737.0950000004377,"accuracy":1,"outcome":"+10","keys":[2237.260000001639],"total_keys":1,"block":2,"trial":132,"stimulus":2,"robot":1,"valence":"win","action":"go","sham":0,"trial_type":"pit-trial","trial_index":163,"time_elapsed":757020,"internal_node_id":"0.0-138.0","task_version":"battery-v0.2-trt","session":3},{"rune":"U","rune_set":"bacs2","hex":"#f73b6a7A","correct":32,"choice":32,"rt":1216.0400000029476,"accuracy":1,"outcome":"-1","keys":[2716.664999999921],"total_keys":1,"block":2,"trial":133,"stimulus":3,"robot":3,"valence":"lose","action":"go","sham":0,"trial_type":"pit-trial","trial_index":164,"time_elapsed":760940,"internal_node_id":"0.0-139.0","task_version":"battery-v0.2-trt","session":3},{"rune":"A","rune_set":"bacs2","hex":"#3366ff99","correct":32,"choice":32,"rt":1183.1600000004983,"accuracy":1,"outcome":"+10","keys":[2683.400000001653],"total_keys":1,"block":2,"trial":134,"stimulus":2,"robot":1,"valence":"win","action":"go","sham":0,"trial_type":"pit-trial","trial_index":165,"time_elapsed":764828,"internal_node_id":"0.0-140.0","task_version":"battery-v0.2-trt","session":3},{"rune":"F","rune_set":"bacs2","hex":"#3366ff99","correct":-1,"choice":-1,"rt":-1,"accuracy":1,"outcome":"+10","keys":[2859.7899999986403],"total_keys":1,"block":2,"trial":135,"stimulus":1,"robot":2,"valence":"win","action":"no-go","sham":0,"trial_type":"pit-trial","trial_index":166,"time_elapsed":768837,"internal_node_id":"0.0-141.0","task_version":"battery-v0.2-trt","session":3},{"rune":"N","rune_set":"bacs2","hex":"#3366ff99","correct":-1,"choice":-1,"rt":-1,"accuracy":1,"outcome":"+10","keys":[],"total_keys":0,"block":2,"trial":136,"stimulus":0,"robot":2,"valence":"win","action":"no-go","sham":0,"trial_type":"pit-trial","trial_index":167,"time_elapsed":772841,"internal_node_id":"0.0-142.0","task_version":"battery-v0.2-trt","session":3},{"rune":"A","rune_set":"bacs2","hex":"#3366ff99","correct":32,"choice":32,"rt":721.4449999992503,"accuracy":1,"outcome":"+10","keys":[2221.514999997453],"total_keys":1,"block":2,"trial":137,"stimulus":2,"robot":1,"valence":"win","action":"go","sham":0,"trial_type":"pit-trial","trial_index":168,"time_elapsed":776266,"internal_node_id":"0.0-143.0","task_version":"battery-v0.2-trt","session":3},{"rune":"F","rune_set":"bacs2","hex":"#3366ff99","correct":-1,"choice":32,"rt":655.410000002943,"accuracy":0,"outcome":"+1","keys":[2156.0800000006566],"total_keys":1,"block":2,"trial":138,"stimulus":1,"robot":2,"valence":"win","action":"no-go","sham":0,"trial_type":"pit-trial","trial_index":169,"time_elapsed":779626,"internal_node_id":"0.0-144.0","task_version":"battery-v0.2-trt","session":3},{"rune":"N","rune_set":"bacs2","hex":"#3366ff99","correct":-1,"choice":32,"rt":577.5900000007823,"accuracy":0,"outcome":"+1","keys":[2077.769999999902],"total_keys":1,"block":2,"trial":139,"stimulus":0,"robot":2,"valence":"win","action":"no-go","sham":0,"trial_type":"pit-trial","trial_index":170,"time_elapsed":782907,"internal_node_id":"0.0-145.0","task_version":"battery-v0.2-trt","session":3},{"rune":"U","rune_set":"bacs2","hex":"#f73b6a7A","correct":32,"choice":32,"rt":599.6400000003632,"accuracy":1,"outcome":"-10","keys":[2099.7300000017276],"total_keys":1,"block":2,"trial":140,"stimulus":3,"robot":3,"valence":"lose","action":"go","sham":1,"trial_type":"pit-trial","trial_index":171,"time_elapsed":786211,"internal_node_id":"0.0-146.0","task_version":"battery-v0.2-trt","session":3},{"rune":"N","rune_set":"bacs2","hex":"#3366ff99","correct":-1,"choice":-1,"rt":-1,"accuracy":1,"outcome":"+10","keys":[],"total_keys":0,"block":2,"trial":141,"stimulus":0,"robot":2,"valence":"win","action":"no-go","sham":0,"trial_type":"pit-trial","trial_index":172,"time_elapsed":790216,"internal_node_id":"0.0-147.0","task_version":"battery-v0.2-trt","session":3},{"rune":"F","rune_set":"bacs2","hex":"#3366ff99","correct":-1,"choice":32,"rt":874.8449999984587,"accuracy":0,"outcome":"+1","keys":[2375.5450000027195],"total_keys":1,"block":2,"trial":142,"stimulus":1,"robot":2,"valence":"win","action":"no-go","sham":0,"trial_type":"pit-trial","trial_index":173,"time_elapsed":793795,"internal_node_id":"0.0-148.0","task_version":"battery-v0.2-trt","session":3},{"rune":"A","rune_set":"bacs2","hex":"#3366ff99","correct":32,"choice":32,"rt":678.2050000000745,"accuracy":1,"outcome":"+10","keys":[2179.905000000843],"total_keys":1,"block":2,"trial":143,"stimulus":2,"robot":1,"valence":"win","action":"go","sham":0,"trial_type":"pit-trial","trial_index":174,"time_elapsed":797179,"internal_node_id":"0.0-149.0","task_version":"battery-v0.2-trt","session":3},{"rune":"U","rune_set":"bacs2","hex":"#f73b6a7A","correct":32,"choice":32,"rt":662.8300000011222,"accuracy":1,"outcome":"-1","keys":[2164.714999999036],"total_keys":1,"block":2,"trial":144,"stimulus":3,"robot":3,"valence":"lose","action":"go","sham":0,"trial_type":"pit-trial","trial_index":175,"time_elapsed":800548,"internal_node_id":"0.0-150.0","task_version":"battery-v0.2-trt","session":3},{"rune":"F","rune_set":"bacs2","hex":"#3366ff99","correct":-1,"choice":-1,"rt":-1,"accuracy":1,"outcome":"+10","keys":[],"total_keys":0,"block":2,"trial":145,"stimulus":1,"robot":2,"valence":"win","action":"no-go","sham":0,"trial_type":"pit-trial","trial_index":176,"time_elapsed":804552,"internal_node_id":"0.0-151.0","task_version":"battery-v0.2-trt","session":3},{"rune":"N","rune_set":"bacs2","hex":"#3366ff99","correct":-1,"choice":-1,"rt":-1,"accuracy":1,"outcome":"+10","keys":[],"total_keys":0,"block":2,"trial":146,"stimulus":0,"robot":2,"valence":"win","action":"no-go","sham":0,"trial_type":"pit-trial","trial_index":177,"time_elapsed":808558,"internal_node_id":"0.0-152.0","task_version":"battery-v0.2-trt","session":3},{"rune":"U","rune_set":"bacs2","hex":"#f73b6a7A","correct":32,"choice":-1,"rt":-1,"accuracy":0,"outcome":"-10","keys":[],"total_keys":0,"block":2,"trial":147,"stimulus":3,"robot":3,"valence":"lose","action":"go","sham":0,"trial_type":"pit-trial","trial_index":178,"time_elapsed":812566,"internal_node_id":"0.0-153.0","task_version":"battery-v0.2-trt","session":3},{"rune":"A","rune_set":"bacs2","hex":"#3366ff99","correct":32,"choice":32,"rt":700.7149999990361,"accuracy":1,"outcome":"+10","keys":[2200.9799999977695],"total_keys":1,"block":2,"trial":148,"stimulus":2,"robot":1,"valence":"win","action":"go","sham":0,"trial_type":"pit-trial","trial_index":179,"time_elapsed":815971,"internal_node_id":"0.0-154.0","task_version":"battery-v0.2-trt","session":3},{"rune":"N","rune_set":"bacs2","hex":"#3366ff99","correct":-1,"choice":-1,"rt":-1,"accuracy":1,"outcome":"+1","keys":[],"total_keys":0,"block":2,"trial":149,"stimulus":0,"robot":2,"valence":"win","action":"no-go","sham":1,"trial_type":"pit-trial","trial_index":180,"time_elapsed":819975,"internal_node_id":"0.0-155.0","task_version":"battery-v0.2-trt","session":3},{"rune":"A","rune_set":"bacs2","hex":"#3366ff99","correct":32,"choice":32,"rt":803.6050000010291,"accuracy":1,"outcome":"+10","keys":[2304.479999998817],"total_keys":1,"block":2,"trial":150,"stimulus":2,"robot":1,"valence":"win","action":"go","sham":0,"trial_type":"pit-trial","trial_index":181,"time_elapsed":823483,"internal_node_id":"0.0-156.0","task_version":"battery-v0.2-trt","session":3},{"rune":"F","rune_set":"bacs2","hex":"#3366ff99","correct":-1,"choice":-1,"rt":-1,"accuracy":1,"outcome":"+1","keys":[],"total_keys":0,"block":2,"trial":151,"stimulus":1,"robot":2,"valence":"win","action":"no-go","sham":1,"trial_type":"pit-trial","trial_index":182,"time_elapsed":827492,"internal_node_id":"0.0-157.0","task_version":"battery-v0.2-trt","session":3},{"rune":"U","rune_set":"bacs2","hex":"#f73b6a7A","correct":32,"choice":-1,"rt":-1,"accuracy":0,"outcome":"-10","keys":[],"total_keys":0,"block":2,"trial":152,"stimulus":3,"robot":3,"valence":"lose","action":"go","sham":0,"trial_type":"pit-trial","trial_index":183,"time_elapsed":831497,"internal_node_id":"0.0-158.0","task_version":"battery-v0.2-trt","session":3},{"rune":"N","rune_set":"bacs2","hex":"#3366ff99","correct":-1,"choice":-1,"rt":-1,"accuracy":1,"outcome":"+10","keys":[],"total_keys":0,"block":2,"trial":153,"stimulus":0,"robot":2,"valence":"win","action":"no-go","sham":0,"trial_type":"pit-trial","trial_index":184,"time_elapsed":835503,"internal_node_id":"0.0-159.0","task_version":"battery-v0.2-trt","session":3},{"rune":"S","rune_set":"bacs2","hex":"#f73b6a7A","correct":-1,"choice":32,"rt":747.5200000008335,"accuracy":0,"outcome":"-1","keys":[2248.2450000025565],"total_keys":1,"block":2,"trial":154,"stimulus":4,"robot":4,"valence":"lose","action":"no-go","sham":1,"trial_type":"pit-trial","trial_index":185,"time_elapsed":838955,"internal_node_id":"0.0-160.0","task_version":"battery-v0.2-trt","session":3},{"rune":"A","rune_set":"bacs2","hex":"#3366ff99","correct":32,"choice":32,"rt":733.9449999999488,"accuracy":1,"outcome":"+10","keys":[2235.749999999767],"total_keys":1,"block":2,"trial":155,"stimulus":2,"robot":1,"valence":"win","action":"go","sham":0,"trial_type":"pit-trial","trial_index":186,"time_elapsed":842395,"internal_node_id":"0.0-161.0","task_version":"battery-v0.2-trt","session":3},{"rune":"L","rune_set":"bacs2","hex":"#f73b6a7A","correct":32,"choice":-1,"rt":-1,"accuracy":0,"outcome":"-10","keys":[],"total_keys":0,"block":2,"trial":156,"stimulus":5,"robot":3,"valence":"lose","action":"go","sham":0,"trial_type":"pit-trial","trial_index":187,"time_elapsed":846400,"internal_node_id":"0.0-162.0","task_version":"battery-v0.2-trt","session":3},{"rune":"N","rune_set":"bacs2","hex":"#3366ff99","correct":-1,"choice":-1,"rt":-1,"accuracy":1,"outcome":"+10","keys":[],"total_keys":0,"block":2,"trial":157,"stimulus":0,"robot":2,"valence":"win","action":"no-go","sham":0,"trial_type":"pit-trial","trial_index":188,"time_elapsed":850404,"internal_node_id":"0.0-163.0","task_version":"battery-v0.2-trt","session":3},{"rune":"L","rune_set":"bacs2","hex":"#f73b6a7A","correct":32,"choice":32,"rt":814.720000002184,"accuracy":1,"outcome":"-1","keys":[2314.764999999199],"total_keys":1,"block":2,"trial":158,"stimulus":5,"robot":3,"valence":"lose","action":"go","sham":0,"trial_type":"pit-trial","trial_index":189,"time_elapsed":853925,"internal_node_id":"0.0-164.0","task_version":"battery-v0.2-trt","session":3},{"rune":"S","rune_set":"bacs2","hex":"#f73b6a7A","correct":-1,"choice":32,"rt":1140.735000000801,"accuracy":0,"outcome":"-10","keys":[2641.7449999972014],"total_keys":1,"block":2,"trial":159,"stimulus":4,"robot":4,"valence":"lose","action":"no-go","sham":0,"trial_type":"pit-trial","trial_index":190,"time_elapsed":857770,"internal_node_id":"0.0-165.0","task_version":"battery-v0.2-trt","session":3},{"rune":"A","rune_set":"bacs2","hex":"#3366ff99","correct":32,"choice":32,"rt":703.4549999989104,"accuracy":1,"outcome":"+10","keys":[2205.274999996531],"total_keys":1,"block":2,"trial":160,"stimulus":2,"robot":1,"valence":"win","action":"go","sham":0,"trial_type":"pit-trial","trial_index":191,"time_elapsed":861179,"internal_node_id":"0.0-166.0","task_version":"battery-v0.2-trt","session":3},{"rune":"A","rune_set":"bacs2","hex":"#3366ff99","correct":32,"choice":32,"rt":544.0099999977974,"accuracy":1,"outcome":"+1","keys":[2044.1099999988219],"total_keys":1,"block":2,"trial":161,"stimulus":2,"robot":1,"valence":"win","action":"go","sham":1,"trial_type":"pit-trial","trial_index":192,"time_elapsed":864426,"internal_node_id":"0.0-167.0","task_version":"battery-v0.2-trt","session":3},{"rune":"P","rune_set":"bacs2","hex":"#3366ff99","correct":-1,"choice":-1,"rt":-1,"accuracy":1,"outcome":"+1","keys":[],"total_keys":0,"block":2,"trial":162,"stimulus":6,"robot":2,"valence":"win","action":"no-go","sham":1,"trial_type":"pit-trial","trial_index":193,"time_elapsed":868430,"internal_node_id":"0.0-168.0","task_version":"battery-v0.2-trt","session":3},{"rune":"S","rune_set":"bacs2","hex":"#f73b6a7A","correct":-1,"choice":-1,"rt":-1,"accuracy":1,"outcome":"-1","keys":[],"total_keys":0,"block":2,"trial":163,"stimulus":4,"robot":4,"valence":"lose","action":"no-go","sham":0,"trial_type":"pit-trial","trial_index":194,"time_elapsed":872435,"internal_node_id":"0.0-169.0","task_version":"battery-v0.2-trt","session":3},{"rune":"L","rune_set":"bacs2","hex":"#f73b6a7A","correct":32,"choice":-1,"rt":-1,"accuracy":0,"outcome":"-10","keys":[],"total_keys":0,"block":2,"trial":164,"stimulus":5,"robot":3,"valence":"lose","action":"go","sham":0,"trial_type":"pit-trial","trial_index":195,"time_elapsed":876439,"internal_node_id":"0.0-170.0","task_version":"battery-v0.2-trt","session":3},{"rune":"A","rune_set":"bacs2","hex":"#3366ff99","correct":32,"choice":32,"rt":915.2800000009593,"accuracy":1,"outcome":"+1","keys":[2416.414999999688],"total_keys":1,"block":2,"trial":165,"stimulus":2,"robot":1,"valence":"win","action":"go","sham":1,"trial_type":"pit-trial","trial_index":196,"time_elapsed":880058,"internal_node_id":"0.0-171.0","task_version":"battery-v0.2-trt","session":3},{"rune":"S","rune_set":"bacs2","hex":"#f73b6a7A","correct":-1,"choice":-1,"rt":-1,"accuracy":1,"outcome":"-1","keys":[],"total_keys":0,"block":2,"trial":166,"stimulus":4,"robot":4,"valence":"lose","action":"no-go","sham":0,"trial_type":"pit-trial","trial_index":197,"time_elapsed":884063,"internal_node_id":"0.0-172.0","task_version":"battery-v0.2-trt","session":3},{"rune":"L","rune_set":"bacs2","hex":"#f73b6a7A","correct":32,"choice":-1,"rt":-1,"accuracy":0,"outcome":"-1","keys":[],"total_keys":0,"block":2,"trial":167,"stimulus":5,"robot":3,"valence":"lose","action":"go","sham":1,"trial_type":"pit-trial","trial_index":198,"time_elapsed":888067,"internal_node_id":"0.0-173.0","task_version":"battery-v0.2-trt","session":3},{"rune":"P","rune_set":"bacs2","hex":"#3366ff99","correct":-1,"choice":32,"rt":959.8450000011362,"accuracy":0,"outcome":"+10","keys":[2460.2300000005635],"total_keys":1,"block":2,"trial":168,"stimulus":6,"robot":2,"valence":"win","action":"no-go","sham":1,"trial_type":"pit-trial","trial_index":199,"time_elapsed":891731,"internal_node_id":"0.0-174.0","task_version":"battery-v0.2-trt","session":3},{"rune":"L","rune_set":"bacs2","hex":"#f73b6a7A","correct":32,"choice":-1,"rt":-1,"accuracy":0,"outcome":"-10","keys":[],"total_keys":0,"block":2,"trial":169,"stimulus":5,"robot":3,"valence":"lose","action":"go","sham":0,"trial_type":"pit-trial","trial_index":200,"time_elapsed":895737,"internal_node_id":"0.0-175.0","task_version":"battery-v0.2-trt","session":3},{"rune":"R","rune_set":"bacs2","hex":"#f73b6a7A","correct":-1,"choice":32,"rt":921.024999999674,"accuracy":0,"outcome":"-10","keys":[2421.894999999553],"total_keys":1,"block":2,"trial":170,"stimulus":7,"robot":4,"valence":"lose","action":"no-go","sham":0,"trial_type":"pit-trial","trial_index":201,"time_elapsed":899362,"internal_node_id":"0.0-176.0","task_version":"battery-v0.2-trt","session":3},{"rune":"P","rune_set":"bacs2","hex":"#3366ff99","correct":-1,"choice":32,"rt":858.1850000009872,"accuracy":0,"outcome":"+1","keys":[2358.360000001965],"total_keys":1,"block":2,"trial":171,"stimulus":6,"robot":2,"valence":"win","action":"no-go","sham":0,"trial_type":"pit-trial","trial_index":202,"time_elapsed":902925,"internal_node_id":"0.0-177.0","task_version":"battery-v0.2-trt","session":3},{"rune":"S","rune_set":"bacs2","hex":"#f73b6a7A","correct":-1,"choice":-1,"rt":-1,"accuracy":1,"outcome":"-1","keys":[],"total_keys":0,"block":2,"trial":172,"stimulus":4,"robot":4,"valence":"lose","action":"no-go","sham":0,"trial_type":"pit-trial","trial_index":203,"time_elapsed":906931,"internal_node_id":"0.0-178.0","task_version":"battery-v0.2-trt","session":3},{"rune":"P","rune_set":"bacs2","hex":"#3366ff99","correct":-1,"choice":-1,"rt":-1,"accuracy":1,"outcome":"+10","keys":[],"total_keys":0,"block":2,"trial":173,"stimulus":6,"robot":2,"valence":"win","action":"no-go","sham":0,"trial_type":"pit-trial","trial_index":204,"time_elapsed":910937,"internal_node_id":"0.0-179.0","task_version":"battery-v0.2-trt","session":3},{"rune":"L","rune_set":"bacs2","hex":"#f73b6a7A","correct":32,"choice":-1,"rt":-1,"accuracy":0,"outcome":"-1","keys":[],"total_keys":0,"block":2,"trial":174,"stimulus":5,"robot":3,"valence":"lose","action":"go","sham":1,"trial_type":"pit-trial","trial_index":205,"time_elapsed":914942,"internal_node_id":"0.0-180.0","task_version":"battery-v0.2-trt","session":3},{"rune":"S","rune_set":"bacs2","hex":"#f73b6a7A","correct":-1,"choice":-1,"rt":-1,"accuracy":1,"outcome":"-10","keys":[],"total_keys":0,"block":2,"trial":175,"stimulus":4,"robot":4,"valence":"lose","action":"no-go","sham":1,"trial_type":"pit-trial","trial_index":206,"time_elapsed":918946,"internal_node_id":"0.0-181.0","task_version":"battery-v0.2-trt","session":3},{"rune":"R","rune_set":"bacs2","hex":"#f73b6a7A","correct":-1,"choice":-1,"rt":-1,"accuracy":1,"outcome":"-1","keys":[],"total_keys":0,"block":2,"trial":176,"stimulus":7,"robot":4,"valence":"lose","action":"no-go","sham":0,"trial_type":"pit-trial","trial_index":207,"time_elapsed":922951,"internal_node_id":"0.0-182.0","task_version":"battery-v0.2-trt","session":3},{"rune":"L","rune_set":"bacs2","hex":"#f73b6a7A","correct":32,"choice":-1,"rt":-1,"accuracy":0,"outcome":"-1","keys":[],"total_keys":0,"block":2,"trial":177,"stimulus":5,"robot":3,"valence":"lose","action":"go","sham":1,"trial_type":"pit-trial","trial_index":208,"time_elapsed":926956,"internal_node_id":"0.0-183.0","task_version":"battery-v0.2-trt","session":3},{"rune":"P","rune_set":"bacs2","hex":"#3366ff99","correct":-1,"choice":-1,"rt":-1,"accuracy":1,"outcome":"+10","keys":[],"total_keys":0,"block":2,"trial":178,"stimulus":6,"robot":2,"valence":"win","action":"no-go","sham":0,"trial_type":"pit-trial","trial_index":209,"time_elapsed":930961,"internal_node_id":"0.0-184.0","task_version":"battery-v0.2-trt","session":3},{"rune":"R","rune_set":"bacs2","hex":"#f73b6a7A","correct":-1,"choice":-1,"rt":-1,"accuracy":1,"outcome":"-1","keys":[],"total_keys":0,"block":2,"trial":179,"stimulus":7,"robot":4,"valence":"lose","action":"no-go","sham":0,"trial_type":"pit-trial","trial_index":210,"time_elapsed":934967,"internal_node_id":"0.0-185.0","task_version":"battery-v0.2-trt","session":3},{"rune":"S","rune_set":"bacs2","hex":"#f73b6a7A","correct":-1,"choice":32,"rt":1099.5349999975879,"accuracy":0,"outcome":"-1","keys":[2601.105000001611],"total_keys":1,"block":2,"trial":180,"stimulus":4,"robot":4,"valence":"lose","action":"no-go","sham":1,"trial_type":"pit-trial","trial_index":211,"time_elapsed":938771,"internal_node_id":"0.0-186.0","task_version":"battery-v0.2-trt","session":3},{"rune":"P","rune_set":"bacs2","hex":"#3366ff99","correct":-1,"choice":-1,"rt":-1,"accuracy":1,"outcome":"+10","keys":[],"total_keys":0,"block":2,"trial":181,"stimulus":6,"robot":2,"valence":"win","action":"no-go","sham":0,"trial_type":"pit-trial","trial_index":212,"time_elapsed":942776,"internal_node_id":"0.0-187.0","task_version":"battery-v0.2-trt","session":3},{"rune":"R","rune_set":"bacs2","hex":"#f73b6a7A","correct":-1,"choice":-1,"rt":-1,"accuracy":1,"outcome":"-1","keys":[],"total_keys":0,"block":2,"trial":182,"stimulus":7,"robot":4,"valence":"lose","action":"no-go","sham":0,"trial_type":"pit-trial","trial_index":213,"time_elapsed":946782,"internal_node_id":"0.0-188.0","task_version":"battery-v0.2-trt","session":3},{"rune":"S","rune_set":"bacs2","hex":"#f73b6a7A","correct":-1,"choice":32,"rt":892.090000001248,"accuracy":0,"outcome":"-1","keys":[2393.370000001625],"total_keys":1,"block":2,"trial":183,"stimulus":4,"robot":4,"valence":"lose","action":"no-go","sham":1,"trial_type":"pit-trial","trial_index":214,"time_elapsed":950380,"internal_node_id":"0.0-189.0","task_version":"battery-v0.2-trt","session":3},{"rune":"L","rune_set":"bacs2","hex":"#f73b6a7A","correct":32,"choice":-1,"rt":-1,"accuracy":0,"outcome":"-1","keys":[],"total_keys":0,"block":2,"trial":184,"stimulus":5,"robot":3,"valence":"lose","action":"go","sham":1,"trial_type":"pit-trial","trial_index":215,"time_elapsed":954385,"internal_node_id":"0.0-190.0","task_version":"battery-v0.2-trt","session":3},{"rune":"P","rune_set":"bacs2","hex":"#3366ff99","correct":-1,"choice":-1,"rt":-1,"accuracy":1,"outcome":"+10","keys":[],"total_keys":0,"block":2,"trial":185,"stimulus":6,"robot":2,"valence":"win","action":"no-go","sham":0,"trial_type":"pit-trial","trial_index":216,"time_elapsed":958391,"internal_node_id":"0.0-191.0","task_version":"battery-v0.2-trt","session":3},{"rune":"R","rune_set":"bacs2","hex":"#f73b6a7A","correct":-1,"choice":-1,"rt":-1,"accuracy":1,"outcome":"-1","keys":[],"total_keys":0,"block":2,"trial":186,"stimulus":7,"robot":4,"valence":"lose","action":"no-go","sham":0,"trial_type":"pit-trial","trial_index":217,"time_elapsed":962395,"internal_node_id":"0.0-192.0","task_version":"battery-v0.2-trt","session":3},{"rune":"S","rune_set":"bacs2","hex":"#f73b6a7A","correct":-1,"choice":32,"rt":968.3650000005728,"accuracy":0,"outcome":"-10","keys":[2468.4200000010896],"total_keys":1,"block":2,"trial":187,"stimulus":4,"robot":4,"valence":"lose","action":"no-go","sham":0,"trial_type":"pit-trial","trial_index":218,"time_elapsed":966068,"internal_node_id":"0.0-193.0","task_version":"battery-v0.2-trt","session":3},{"rune":"L","rune_set":"bacs2","hex":"#f73b6a7A","correct":32,"choice":-1,"rt":-1,"accuracy":0,"outcome":"-10","keys":[],"total_keys":0,"block":2,"trial":188,"stimulus":5,"robot":3,"valence":"lose","action":"go","sham":0,"trial_type":"pit-trial","trial_index":219,"time_elapsed":970080,"internal_node_id":"0.0-194.0","task_version":"battery-v0.2-trt","session":3},{"rune":"S","rune_set":"bacs2","hex":"#f73b6a7A","correct":-1,"choice":32,"rt":762.6899999994785,"accuracy":0,"outcome":"-10","keys":[2262.8299999997253],"total_keys":1,"block":2,"trial":189,"stimulus":4,"robot":4,"valence":"lose","action":"no-go","sham":0,"trial_type":"pit-trial","trial_index":220,"time_elapsed":973548,"internal_node_id":"0.0-195.0","task_version":"battery-v0.2-trt","session":3},{"rune":"P","rune_set":"bacs2","hex":"#3366ff99","correct":-1,"choice":32,"rt":1110.7200000005541,"accuracy":0,"outcome":"+1","keys":[2610.8650000024354],"total_keys":1,"block":2,"trial":190,"stimulus":6,"robot":2,"valence":"win","action":"no-go","sham":0,"trial_type":"pit-trial","trial_index":221,"time_elapsed":977364,"internal_node_id":"0.0-196.0","task_version":"battery-v0.2-trt","session":3},{"rune":"R","rune_set":"bacs2","hex":"#f73b6a7A","correct":-1,"choice":-1,"rt":-1,"accuracy":1,"outcome":"-1","keys":[],"total_keys":0,"block":2,"trial":191,"stimulus":7,"robot":4,"valence":"lose","action":"no-go","sham":0,"trial_type":"pit-trial","trial_index":222,"time_elapsed":981369,"internal_node_id":"0.0-197.0","task_version":"battery-v0.2-trt","session":3},{"rune":"L","rune_set":"bacs2","hex":"#f73b6a7A","correct":32,"choice":-1,"rt":-1,"accuracy":0,"outcome":"-1","keys":[],"total_keys":0,"block":2,"trial":192,"stimulus":5,"robot":3,"valence":"lose","action":"go","sham":1,"trial_type":"pit-trial","trial_index":223,"time_elapsed":985390,"internal_node_id":"0.0-198.0","task_version":"battery-v0.2-trt","session":3},{"rune":"L","rune_set":"bacs2","hex":"#f73b6a7A","correct":32,"choice":-1,"rt":-1,"accuracy":0,"outcome":"-10","keys":[],"total_keys":0,"block":2,"trial":193,"stimulus":5,"robot":3,"valence":"lose","action":"go","sham":0,"trial_type":"pit-trial","trial_index":224,"time_elapsed":989394,"internal_node_id":"0.0-199.0","task_version":"battery-v0.2-trt","session":3},{"rune":"V","rune_set":"bacs2","hex":"#f73b6a7A","correct":-1,"choice":-1,"rt":-1,"accuracy":1,"outcome":"-1","keys":[],"total_keys":0,"block":2,"trial":194,"stimulus":8,"robot":4,"valence":"lose","action":"no-go","sham":0,"trial_type":"pit-trial","trial_index":225,"time_elapsed":993399,"internal_node_id":"0.0-200.0","task_version":"battery-v0.2-trt","session":3},{"rune":"R","rune_set":"bacs2","hex":"#f73b6a7A","correct":-1,"choice":-1,"rt":-1,"accuracy":1,"outcome":"-1","keys":[],"total_keys":0,"block":2,"trial":195,"stimulus":7,"robot":4,"valence":"lose","action":"no-go","sham":0,"trial_type":"pit-trial","trial_index":226,"time_elapsed":997418,"internal_node_id":"0.0-201.0","task_version":"battery-v0.2-trt","session":3},{"rune":"P","rune_set":"bacs2","hex":"#3366ff99","correct":-1,"choice":-1,"rt":-1,"accuracy":1,"outcome":"+10","keys":[],"total_keys":0,"block":2,"trial":196,"stimulus":6,"robot":2,"valence":"win","action":"no-go","sham":0,"trial_type":"pit-trial","trial_index":227,"time_elapsed":1001434,"internal_node_id":"0.0-202.0","task_version":"battery-v0.2-trt","session":3},{"rune":"L","rune_set":"bacs2","hex":"#f73b6a7A","correct":32,"choice":-1,"rt":-1,"accuracy":0,"outcome":"-10","keys":[],"total_keys":0,"block":2,"trial":197,"stimulus":5,"robot":3,"valence":"lose","action":"go","sham":0,"trial_type":"pit-trial","trial_index":228,"time_elapsed":1005440,"internal_node_id":"0.0-203.0","task_version":"battery-v0.2-trt","session":3},{"rune":"V","rune_set":"bacs2","hex":"#f73b6a7A","correct":-1,"choice":-1,"rt":-1,"accuracy":1,"outcome":"-1","keys":[],"total_keys":0,"block":2,"trial":198,"stimulus":8,"robot":4,"valence":"lose","action":"no-go","sham":0,"trial_type":"pit-trial","trial_index":229,"time_elapsed":1009445,"internal_node_id":"0.0-204.0","task_version":"battery-v0.2-trt","session":3},{"rune":"R","rune_set":"bacs2","hex":"#f73b6a7A","correct":-1,"choice":-1,"rt":-1,"accuracy":1,"outcome":"-1","keys":[],"total_keys":0,"block":2,"trial":199,"stimulus":7,"robot":4,"valence":"lose","action":"no-go","sham":0,"trial_type":"pit-trial","trial_index":230,"time_elapsed":1013451,"internal_node_id":"0.0-205.0","task_version":"battery-v0.2-trt","session":3},{"rune":"P","rune_set":"bacs2","hex":"#3366ff99","correct":-1,"choice":-1,"rt":-1,"accuracy":1,"outcome":"+10","keys":[],"total_keys":0,"block":2,"trial":200,"stimulus":6,"robot":2,"valence":"win","action":"no-go","sham":0,"trial_type":"pit-trial","trial_index":231,"time_elapsed":1017456,"internal_node_id":"0.0-206.0","task_version":"battery-v0.2-trt","session":3},{"rune":"V","rune_set":"bacs2","hex":"#f73b6a7A","correct":-1,"choice":32,"rt":1211.5200000007171,"accuracy":0,"outcome":"-1","keys":[2712.585000001127],"total_keys":1,"block":2,"trial":201,"stimulus":8,"robot":4,"valence":"lose","action":"no-go","sham":1,"trial_type":"pit-trial","trial_index":232,"time_elapsed":1021372,"internal_node_id":"0.0-207.0","task_version":"battery-v0.2-trt","session":3},{"rune":"P","rune_set":"bacs2","hex":"#3366ff99","correct":-1,"choice":-1,"rt":-1,"accuracy":1,"outcome":"+10","keys":[],"total_keys":0,"block":2,"trial":202,"stimulus":6,"robot":2,"valence":"win","action":"no-go","sham":0,"trial_type":"pit-trial","trial_index":233,"time_elapsed":1025378,"internal_node_id":"0.0-208.0","task_version":"battery-v0.2-trt","session":3},{"rune":"K","rune_set":"bacs2","hex":"#3366ff99","correct":32,"choice":32,"rt":968.7249999986961,"accuracy":1,"outcome":"+10","keys":[2469.404999999795],"total_keys":1,"block":2,"trial":203,"stimulus":9,"robot":1,"valence":"win","action":"go","sham":0,"trial_type":"pit-trial","trial_index":234,"time_elapsed":1029052,"internal_node_id":"0.0-209.0","task_version":"battery-v0.2-trt","session":3},{"rune":"B","rune_set":"bacs2","hex":"#f73b6a7A","correct":32,"choice":32,"rt":942.7499999983702,"accuracy":1,"outcome":"-1","keys":[2443.480000001611],"total_keys":1,"block":2,"trial":204,"stimulus":10,"robot":3,"valence":"lose","action":"go","sham":0,"trial_type":"pit-trial","trial_index":235,"time_elapsed":1032699,"internal_node_id":"0.0-210.0","task_version":"battery-v0.2-trt","session":3},{"rune":"K","rune_set":"bacs2","hex":"#3366ff99","correct":32,"choice":32,"rt":560.3999999985099,"accuracy":1,"outcome":"+10","keys":[2060.5150000010617],"total_keys":1,"block":2,"trial":205,"stimulus":9,"robot":1,"valence":"win","action":"go","sham":0,"trial_type":"pit-trial","trial_index":236,"time_elapsed":1035963,"internal_node_id":"0.0-211.0","task_version":"battery-v0.2-trt","session":3},{"rune":"P","rune_set":"bacs2","hex":"#3366ff99","correct":-1,"choice":-1,"rt":-1,"accuracy":1,"outcome":"+10","keys":[],"total_keys":0,"block":2,"trial":206,"stimulus":6,"robot":2,"valence":"win","action":"no-go","sham":0,"trial_type":"pit-trial","trial_index":237,"time_elapsed":1039971,"internal_node_id":"0.0-212.0","task_version":"battery-v0.2-trt","session":3},{"rune":"B","rune_set":"bacs2","hex":"#f73b6a7A","correct":32,"choice":32,"rt":1215.9849999989383,"accuracy":1,"outcome":"-1","keys":[2717.09000000183],"total_keys":1,"block":2,"trial":207,"stimulus":10,"robot":3,"valence":"lose","action":"go","sham":0,"trial_type":"pit-trial","trial_index":238,"time_elapsed":1043893,"internal_node_id":"0.0-213.0","task_version":"battery-v0.2-trt","session":3},{"rune":"V","rune_set":"bacs2","hex":"#f73b6a7A","correct":-1,"choice":-1,"rt":-1,"accuracy":1,"outcome":"-1","keys":[],"total_keys":0,"block":2,"trial":208,"stimulus":8,"robot":4,"valence":"lose","action":"no-go","sham":0,"trial_type":"pit-trial","trial_index":239,"time_elapsed":1047898,"internal_node_id":"0.0-214.0","task_version":"battery-v0.2-trt","session":3},{"rune":"K","rune_set":"bacs2","hex":"#3366ff99","correct":32,"choice":32,"rt":545.1700000013225,"accuracy":1,"outcome":"+10","keys":[2045.174999999348],"total_keys":1,"block":2,"trial":209,"stimulus":9,"robot":1,"valence":"win","action":"go","sham":0,"trial_type":"pit-trial","trial_index":240,"time_elapsed":1051146,"internal_node_id":"0.0-215.0","task_version":"battery-v0.2-trt","session":3},{"rune":"V","rune_set":"bacs2","hex":"#f73b6a7A","correct":-1,"choice":-1,"rt":-1,"accuracy":1,"outcome":"-1","keys":[],"total_keys":0,"block":2,"trial":210,"stimulus":8,"robot":4,"valence":"lose","action":"no-go","sham":0,"trial_type":"pit-trial","trial_index":241,"time_elapsed":1055150,"internal_node_id":"0.0-216.0","task_version":"battery-v0.2-trt","session":3},{"rune":"M","rune_set":"bacs2","hex":"#3366ff99","correct":32,"choice":32,"rt":685.8350000001956,"accuracy":1,"outcome":"+10","keys":[2186.6200000003446],"total_keys":1,"block":2,"trial":211,"stimulus":11,"robot":1,"valence":"win","action":"go","sham":0,"trial_type":"pit-trial","trial_index":242,"time_elapsed":1058539,"internal_node_id":"0.0-217.0","task_version":"battery-v0.2-trt","session":3},{"rune":"B","rune_set":"bacs2","hex":"#f73b6a7A","correct":32,"choice":-1,"rt":-1,"accuracy":0,"outcome":"-10","keys":[],"total_keys":0,"block":2,"trial":212,"stimulus":10,"robot":3,"valence":"lose","action":"go","sham":0,"trial_type":"pit-trial","trial_index":243,"time_elapsed":1062557,"internal_node_id":"0.0-218.0","task_version":"battery-v0.2-trt","session":3},{"rune":"K","rune_set":"bacs2","hex":"#3366ff99","correct":32,"choice":32,"rt":597.4899999999907,"accuracy":1,"outcome":"+10","keys":[2098.115000000689],"total_keys":1,"block":2,"trial":213,"stimulus":9,"robot":1,"valence":"win","action":"go","sham":0,"trial_type":"pit-trial","trial_index":244,"time_elapsed":1065861,"internal_node_id":"0.0-219.0","task_version":"battery-v0.2-trt","session":3},{"rune":"B","rune_set":"bacs2","hex":"#f73b6a7A","correct":32,"choice":-1,"rt":-1,"accuracy":0,"outcome":"-1","keys":[],"total_keys":0,"block":2,"trial":214,"stimulus":10,"robot":3,"valence":"lose","action":"go","sham":1,"trial_type":"pit-trial","trial_index":245,"time_elapsed":1069866,"internal_node_id":"0.0-220.0","task_version":"battery-v0.2-trt","session":3},{"rune":"M","rune_set":"bacs2","hex":"#3366ff99","correct":32,"choice":32,"rt":640.7850000031758,"accuracy":1,"outcome":"+1","keys":[2141.7000000001863],"total_keys":1,"block":2,"trial":215,"stimulus":11,"robot":1,"valence":"win","action":"go","sham":1,"trial_type":"pit-trial","trial_index":246,"time_elapsed":1073212,"internal_node_id":"0.0-221.0","task_version":"battery-v0.2-trt","session":3},{"rune":"V","rune_set":"bacs2","hex":"#f73b6a7A","correct":-1,"choice":-1,"rt":-1,"accuracy":1,"outcome":"-1","keys":[],"total_keys":0,"block":2,"trial":216,"stimulus":8,"robot":4,"valence":"lose","action":"no-go","sham":0,"trial_type":"pit-trial","trial_index":247,"time_elapsed":1077217,"internal_node_id":"0.0-222.0","task_version":"battery-v0.2-trt","session":3},{"rune":"V","rune_set":"bacs2","hex":"#f73b6a7A","correct":-1,"choice":-1,"rt":-1,"accuracy":1,"outcome":"-1","keys":[],"total_keys":0,"block":2,"trial":217,"stimulus":8,"robot":4,"valence":"lose","action":"no-go","sham":0,"trial_type":"pit-trial","trial_index":248,"time_elapsed":1081222,"internal_node_id":"0.0-223.0","task_version":"battery-v0.2-trt","session":3},{"rune":"B","rune_set":"bacs2","hex":"#f73b6a7A","correct":32,"choice":32,"rt":806.3800000017509,"accuracy":1,"outcome":"-10","keys":[2306.579999996815],"total_keys":1,"block":2,"trial":218,"stimulus":10,"robot":3,"valence":"lose","action":"go","sham":1,"trial_type":"pit-trial","trial_index":249,"time_elapsed":1084733,"internal_node_id":"0.0-224.0","task_version":"battery-v0.2-trt","session":3},{"rune":"K","rune_set":"bacs2","hex":"#3366ff99","correct":32,"choice":32,"rt":580.3049999994691,"accuracy":1,"outcome":"+10","keys":[2082.1550000002608],"total_keys":1,"block":2,"trial":219,"stimulus":9,"robot":1,"valence":"win","action":"go","sham":0,"trial_type":"pit-trial","trial_index":250,"time_elapsed":1088018,"internal_node_id":"0.0-225.0","task_version":"battery-v0.2-trt","session":3},{"rune":"M","rune_set":"bacs2","hex":"#3366ff99","correct":32,"choice":-1,"rt":-1,"accuracy":0,"outcome":"+10","keys":[],"total_keys":0,"block":2,"trial":220,"stimulus":11,"robot":1,"valence":"win","action":"go","sham":1,"trial_type":"pit-trial","trial_index":251,"time_elapsed":1092023,"internal_node_id":"0.0-226.0","task_version":"battery-v0.2-trt","session":3},{"rune":"M","rune_set":"bacs2","hex":"#3366ff99","correct":32,"choice":-1,"rt":-1,"accuracy":0,"outcome":"+1","keys":[],"total_keys":0,"block":2,"trial":221,"stimulus":11,"robot":1,"valence":"win","action":"go","sham":0,"trial_type":"pit-trial","trial_index":252,"time_elapsed":1096029,"internal_node_id":"0.0-227.0","task_version":"battery-v0.2-trt","session":3},{"rune":"B","rune_set":"bacs2","hex":"#f73b6a7A","correct":32,"choice":-1,"rt":-1,"accuracy":0,"outcome":"-10","keys":[],"total_keys":0,"block":2,"trial":222,"stimulus":10,"robot":3,"valence":"lose","action":"go","sham":0,"trial_type":"pit-trial","trial_index":253,"time_elapsed":1100034,"internal_node_id":"0.0-228.0","task_version":"battery-v0.2-trt","session":3},{"rune":"K","rune_set":"bacs2","hex":"#3366ff99","correct":32,"choice":32,"rt":664.6550000004936,"accuracy":1,"outcome":"+10","keys":[2165.9800000013784],"total_keys":1,"block":2,"trial":223,"stimulus":9,"robot":1,"valence":"win","action":"go","sham":0,"trial_type":"pit-trial","trial_index":254,"time_elapsed":1103405,"internal_node_id":"0.0-229.0","task_version":"battery-v0.2-trt","session":3},{"rune":"V","rune_set":"bacs2","hex":"#f73b6a7A","correct":-1,"choice":-1,"rt":-1,"accuracy":1,"outcome":"-1","keys":[],"total_keys":0,"block":2,"trial":224,"stimulus":8,"robot":4,"valence":"lose","action":"no-go","sham":0,"trial_type":"pit-trial","trial_index":255,"time_elapsed":1107410,"internal_node_id":"0.0-230.0","task_version":"battery-v0.2-trt","session":3},{"rune":"V","rune_set":"bacs2","hex":"#f73b6a7A","correct":-1,"choice":-1,"rt":-1,"accuracy":1,"outcome":"-1","keys":[],"total_keys":0,"block":2,"trial":225,"stimulus":8,"robot":4,"valence":"lose","action":"no-go","sham":0,"trial_type":"pit-trial","trial_index":256,"time_elapsed":1111414,"internal_node_id":"0.0-231.0","task_version":"battery-v0.2-trt","session":3},{"rune":"M","rune_set":"bacs2","hex":"#3366ff99","correct":32,"choice":-1,"rt":-1,"accuracy":0,"outcome":"+1","keys":[],"total_keys":0,"block":2,"trial":226,"stimulus":11,"robot":1,"valence":"win","action":"go","sham":0,"trial_type":"pit-trial","trial_index":257,"time_elapsed":1115420,"internal_node_id":"0.0-232.0","task_version":"battery-v0.2-trt","session":3},{"rune":"K","rune_set":"bacs2","hex":"#3366ff99","correct":32,"choice":32,"rt":654.0750000020489,"accuracy":1,"outcome":"+10","keys":[2154.8349999974016],"total_keys":1,"block":2,"trial":227,"stimulus":9,"robot":1,"valence":"win","action":"go","sham":0,"trial_type":"pit-trial","trial_index":258,"time_elapsed":1118779,"internal_node_id":"0.0-233.0","task_version":"battery-v0.2-trt","session":3},{"rune":"B","rune_set":"bacs2","hex":"#f73b6a7A","correct":32,"choice":-1,"rt":-1,"accuracy":0,"outcome":"-10","keys":[],"total_keys":0,"block":2,"trial":228,"stimulus":10,"robot":3,"valence":"lose","action":"go","sham":0,"trial_type":"pit-trial","trial_index":259,"time_elapsed":1122784,"internal_node_id":"0.0-234.0","task_version":"battery-v0.2-trt","session":3},{"rune":"B","rune_set":"bacs2","hex":"#f73b6a7A","correct":32,"choice":32,"rt":491.7749999985099,"accuracy":1,"outcome":"-1","keys":[1992.2449999977835],"total_keys":1,"block":2,"trial":229,"stimulus":10,"robot":3,"valence":"lose","action":"go","sham":0,"trial_type":"pit-trial","trial_index":260,"time_elapsed":1125980,"internal_node_id":"0.0-235.0","task_version":"battery-v0.2-trt","session":3},{"rune":"M","rune_set":"bacs2","hex":"#3366ff99","correct":32,"choice":32,"rt":724.3700000001118,"accuracy":1,"outcome":"+10","keys":[2226.2650000012945],"total_keys":1,"block":2,"trial":230,"stimulus":11,"robot":1,"valence":"win","action":"go","sham":0,"trial_type":"pit-trial","trial_index":261,"time_elapsed":1129411,"internal_node_id":"0.0-236.0","task_version":"battery-v0.2-trt","session":3},{"rune":"V","rune_set":"bacs2","hex":"#f73b6a7A","correct":-1,"choice":-1,"rt":-1,"accuracy":1,"outcome":"-1","keys":[],"total_keys":0,"block":2,"trial":231,"stimulus":8,"robot":4,"valence":"lose","action":"no-go","sham":0,"trial_type":"pit-trial","trial_index":262,"time_elapsed":1133417,"internal_node_id":"0.0-237.0","task_version":"battery-v0.2-trt","session":3},{"rune":"K","rune_set":"bacs2","hex":"#3366ff99","correct":32,"choice":32,"rt":602.2249999986961,"accuracy":1,"outcome":"+10","keys":[2102.6899999997113],"total_keys":1,"block":2,"trial":232,"stimulus":9,"robot":1,"valence":"win","action":"go","sham":0,"trial_type":"pit-trial","trial_index":263,"time_elapsed":1136723,"internal_node_id":"0.0-238.0","task_version":"battery-v0.2-trt","session":3},{"rune":"V","rune_set":"bacs2","hex":"#f73b6a7A","correct":-1,"choice":-1,"rt":-1,"accuracy":1,"outcome":"-1","keys":[],"total_keys":0,"block":2,"trial":233,"stimulus":8,"robot":4,"valence":"lose","action":"no-go","sham":0,"trial_type":"pit-trial","trial_index":264,"time_elapsed":1140728,"internal_node_id":"0.0-239.0","task_version":"battery-v0.2-trt","session":3},{"rune":"K","rune_set":"bacs2","hex":"#3366ff99","correct":32,"choice":32,"rt":578.5149999973364,"accuracy":1,"outcome":"+10","keys":[2079.785000001546],"total_keys":1,"block":2,"trial":234,"stimulus":9,"robot":1,"valence":"win","action":"go","sham":0,"trial_type":"pit-trial","trial_index":265,"time_elapsed":1144012,"internal_node_id":"0.0-240.0","task_version":"battery-v0.2-trt","session":3},{"rune":"M","rune_set":"bacs2","hex":"#3366ff99","correct":32,"choice":32,"rt":725.8600000021979,"accuracy":1,"outcome":"+10","keys":[2226.6249999993015],"total_keys":1,"block":2,"trial":235,"stimulus":11,"robot":1,"valence":"win","action":"go","sham":0,"trial_type":"pit-trial","trial_index":266,"time_elapsed":1147442,"internal_node_id":"0.0-241.0","task_version"