[{"view_history":"[{\"page_index\":0,\"viewing_time\":3303.399999975227}]","rt":3304.284999961965,"trial_type":"instructions","trial_index":0,"time_elapsed":3328,"internal_node_id":"0.0-0.0","task_version":"battery-v0.2-trt","session":3},{"slider_type":"valence","raw_loc":552,"loc":0.604,"trial_type":"affective-slider","trial_index":1,"time_elapsed":7388,"internal_node_id":"0.0-1.0","task_version":"battery-v0.2-trt","session":3},{"responses":{"Q02":"1","Q07":"1","Q06":"1","Q03":"1","Q05":"0","Q01":"1","Q08":"0","Q04":"1"},"rt":35781.4500000095,"item_order":[1,6,5,2,4,0,7,3],"radio_events":[5427.979999978561,6071.839999989606,7343.880000000354,8704.020000004675,10312.045000027865,11475.924999976996,13331.94000000367,15051.804999995511],"key_events":[],"mouse_events":[4060.2100000251085,5427.979999978561,6071.839999989606,7343.880000000354,8704.020000004675,10312.045000027865,11475.924999976996,13331.94000000367,15051.804999995511,35779.96499999426],"straightlining":0.75,"zigzagging":0.5714285714285714,"survey":"gad7","trial_type":"survey-template","trial_index":2,"time_elapsed":43172,"internal_node_id":"0.0-2.0","task_version":"battery-v0.2-trt","session":3,"infrequency":0},{"responses":{"Q02":"1","Q06":"0","Q08":"3","Q07":"0","Q04":"1","Q01":"0","Q03":"0","Q05":"0"},"rt":25548.204999999143,"item_order":[1,5,7,6,3,0,2,4],"radio_events":[4374.6899999678135,5498.349999950733,8042.744999984279,10099.109999951907,12350.419999973383,13930.809999990743,15526.789999974426,18530.864999978803],"key_events":[],"mouse_events":[2802.7449999935925,4374.6899999678135,5498.349999950733,8042.744999984279,10099.109999951907,12350.419999973383,13930.809999990743,15526.789999974426,17242.28999996558,18530.864999978803,25546.889999997802],"straightlining":0.625,"zigzagging":0.7142857142857143,"survey":"dass_d","trial_type":"survey-template","trial_index":3,"time_elapsed":68724,"internal_node_id":"0.0-3.0","task_version":"battery-v0.2-trt","session":3,"infrequency":0},{"view_history":"[{\"page_index\":0,\"viewing_time\":2754.094999982044},{\"page_index\":1,\"viewing_time\":3351.6649999655783},{\"page_index\":2,\"viewing_time\":3487.7200000337325},{\"page_index\":3,\"viewing_time\":5416.3100000005215},{\"page_index\":4,\"viewing_time\":4247.990000003483},{\"page_index\":5,\"viewing_time\":3439.9499999708496},{\"page_index\":6,\"viewing_time\":4392.045000044163},{\"page_index\":7,\"viewing_time\":6919.919999956619},{\"page_index\":8,\"viewing_time\":270420.0450000353},{\"page_index\":9,\"viewing_time\":5504.179999988992}]","rt":309934.5650000032,"trial_type":"pit-instructions","trial_index":4,"time_elapsed":378659,"internal_node_id":"0.0-4.0-0.0","task_version":"battery-v0.2-trt","session":3},{"rune":"1","rune_set":"elianto","hex":"#3366ff99","correct":32,"choice":-1,"rt":-1,"accuracy":0,"outcome":"+1","keys":[1347.1150000113994],"total_keys":1,"block":0,"practice":1,"trial_type":"pit-trial","trial_index":5,"time_elapsed":382664,"internal_node_id":"0.0-4.0-1.0-0.0","task_version":"battery-v0.2-trt","session":3},{"rune":"1","rune_set":"elianto","hex":"#3366ff99","correct":32,"choice":32,"rt":31.989999988581985,"accuracy":1,"outcome":"+10","keys":[1536.1350000021048],"total_keys":1,"block":0,"practice":1,"trial_type":"pit-trial","trial_index":6,"time_elapsed":385413,"internal_node_id":"0.0-4.0-1.1-0.1","task_version":"battery-v0.2-trt","session":3},{"rune":"1","rune_set":"elianto","hex":"#3366ff99","correct":32,"choice":32,"rt":498.4849999891594,"accuracy":1,"outcome":"+10","keys":[2000.3199999919161],"total_keys":1,"block":0,"practice":1,"trial_type":"pit-trial","trial_index":7,"time_elapsed":388617,"internal_node_id":"0.0-4.0-1.2-0.2","task_version":"battery-v0.2-trt","session":3},{"rune":"1","rune_set":"elianto","hex":"#3366ff99","correct":32,"choice":32,"rt":481.9900000002235,"accuracy":1,"outcome":"+10","keys":[1982.2949999943376],"total_keys":1,"block":0,"practice":1,"trial_type":"pit-trial","trial_index":8,"time_elapsed":391803,"internal_node_id":"0.0-4.0-1.3-0.3","task_version":"battery-v0.2-trt","session":3},{"trial_type":"call-function","trial_index":9,"time_elapsed":391804,"internal_node_id":"0.0-4.0-2.0","task_version":"battery-v0.2-trt","session":3},{"view_history":"[{\"page_index\":0,\"viewing_time\":5320.234999991953},{\"page_index\":1,\"viewing_time\":3939.485000038985}]","rt":9260.19499998074,"trial_type":"pit-instructions","trial_index":10,"time_elapsed":401065,"internal_node_id":"0.0-4.0-3.0","task_version":"battery-v0.2-trt","session":3},{"rune":"2","rune_set":"elianto","hex":"#3366ff99","correct":-1,"choice":32,"rt":338.38999998988584,"accuracy":0,"outcome":"+1","keys":[1839.0800000051968],"total_keys":1,"block":0,"practice":2,"trial_type":"pit-trial","trial_index":11,"time_elapsed":404107,"internal_node_id":"0.0-4.0-4.0-0.0","task_version":"battery-v0.2-trt","session":3},{"rune":"2","rune_set":"elianto","hex":"#3366ff99","correct":-1,"choice":-1,"rt":-1,"accuracy":1,"outcome":"+10","keys":[],"total_keys":0,"block":0,"practice":2,"trial_type":"pit-trial","trial_index":12,"time_elapsed":408120,"internal_node_id":"0.0-4.0-4.1-0.1","task_version":"battery-v0.2-trt","session":3},{"rune":"2","rune_set":"elianto","hex":"#3366ff99","correct":-1,"choice":-1,"rt":-1,"accuracy":1,"outcome":"+10","keys":[],"total_keys":0,"block":0,"practice":2,"trial_type":"pit-trial","trial_index":13,"time_elapsed":412139,"internal_node_id":"0.0-4.0-4.2-0.2","task_version":"battery-v0.2-trt","session":3},{"rune":"2","rune_set":"elianto","hex":"#3366ff99","correct":-1,"choice":-1,"rt":-1,"accuracy":1,"outcome":"+10","keys":[],"total_keys":0,"block":0,"practice":2,"trial_type":"pit-trial","trial_index":14,"time_elapsed":416149,"internal_node_id":"0.0-4.0-4.3-0.3","task_version":"battery-v0.2-trt","session":3},{"trial_type":"call-function","trial_index":15,"time_elapsed":416150,"internal_node_id":"0.0-4.0-5.0","task_version":"battery-v0.2-trt","session":3},{"view_history":"[{\"page_index\":0,\"viewing_time\":6329.994999978226},{\"page_index\":1,\"viewing_time\":6339.880000043195}]","rt":12670.374999986961,"trial_type":"pit-instructions","trial_index":16,"time_elapsed":428821,"internal_node_id":"0.0-4.0-6.0","task_version":"battery-v0.2-trt","session":3},{"rune":"3","rune_set":"elianto","hex":"#f73b6a7A","correct":-1,"choice":-1,"rt":-1,"accuracy":1,"outcome":"-1","keys":[],"total_keys":0,"block":0,"practice":3,"trial_type":"pit-trial","trial_index":17,"time_elapsed":432832,"internal_node_id":"0.0-4.0-7.0-0.0","task_version":"battery-v0.2-trt","session":3},{"rune":"3","rune_set":"elianto","hex":"#f73b6a7A","correct":-1,"choice":32,"rt":521.1199999903329,"accuracy":0,"outcome":"-10","keys":[2021.40500000678],"total_keys":1,"block":0,"practice":3,"trial_type":"pit-trial","trial_index":18,"time_elapsed":436059,"internal_node_id":"0.0-4.0-7.1-0.1","task_version":"battery-v0.2-trt","session":3},{"rune":"3","rune_set":"elianto","hex":"#f73b6a7A","correct":-1,"choice":-1,"rt":-1,"accuracy":1,"outcome":"-1","keys":[],"total_keys":0,"block":0,"practice":3,"trial_type":"pit-trial","trial_index":19,"time_elapsed":440072,"internal_node_id":"0.0-4.0-7.2-0.2","task_version":"battery-v0.2-trt","session":3},{"rune":"3","rune_set":"elianto","hex":"#f73b6a7A","correct":-1,"choice":-1,"rt":-1,"accuracy":1,"outcome":"-1","keys":[],"total_keys":0,"block":0,"practice":3,"trial_type":"pit-trial","trial_index":20,"time_elapsed":444090,"internal_node_id":"0.0-4.0-7.3-0.3","task_version":"battery-v0.2-trt","session":3},{"rune":"3","rune_set":"elianto","hex":"#f73b6a7A","correct":-1,"choice":-1,"rt":-1,"accuracy":1,"outcome":"-1","keys":[],"total_keys":0,"block":0,"practice":3,"trial_type":"pit-trial","trial_index":21,"time_elapsed":448104,"internal_node_id":"0.0-4.0-7.4-0.4","task_version":"battery-v0.2-trt","session":3},{"trial_type":"call-function","trial_index":22,"time_elapsed":448105,"internal_node_id":"0.0-4.0-8.0","task_version":"battery-v0.2-trt","session":3},{"view_history":"[{\"page_index\":0,\"viewing_time\":6088.394999969751},{\"page_index\":1,\"viewing_time\":4440.5900000128895}]","rt":10529.349999967963,"trial_type":"pit-instructions","trial_index":23,"time_elapsed":458635,"internal_node_id":"0.0-4.0-9.0","task_version":"battery-v0.2-trt","session":3},{"rune":"4","rune_set":"elianto","hex":"#f73b6a7A","correct":32,"choice":32,"rt":533.6050000041723,"accuracy":1,"outcome":"-1","keys":[2036.450000014156],"total_keys":1,"block":0,"practice":4,"trial_type":"pit-trial","trial_index":24,"time_elapsed":461881,"internal_node_id":"0.0-4.0-10.0-0.0","task_version":"battery-v0.2-trt","session":3},{"rune":"4","rune_set":"elianto","hex":"#f73b6a7A","correct":32,"choice":32,"rt":589.0050000161864,"accuracy":1,"outcome":"-1","keys":[2090.9600000013597],"total_keys":1,"block":0,"practice":4,"trial_type":"pit-trial","trial_index":25,"time_elapsed":465177,"internal_node_id":"0.0-4.0-10.1-0.1","task_version":"battery-v0.2-trt","session":3},{"rune":"4","rune_set":"elianto","hex":"#f73b6a7A","correct":32,"choice":32,"rt":580.2649999968708,"accuracy":1,"outcome":"-1","keys":[2083.2550000050105],"total_keys":1,"block":0,"practice":4,"trial_type":"pit-trial","trial_index":26,"time_elapsed":468471,"internal_node_id":"0.0-4.0-10.2-0.2","task_version":"battery-v0.2-trt","session":3},{"rune":"4","rune_set":"elianto","hex":"#f73b6a7A","correct":32,"choice":32,"rt":454.66000004671514,"accuracy":1,"outcome":"-1","keys":[1956.7650000099093],"total_keys":1,"block":0,"practice":4,"trial_type":"pit-trial","trial_index":27,"time_elapsed":471645,"internal_node_id":"0.0-4.0-10.3-0.3","task_version":"battery-v0.2-trt","session":3},{"trial_type":"call-function","trial_index":28,"time_elapsed":471646,"internal_node_id":"0.0-4.0-11.0","task_version":"battery-v0.2-trt","session":3},{"view_history":"[{\"page_index\":0,\"viewing_time\":4983.500000031199},{\"page_index\":1,\"viewing_time\":4332.389999995939},{\"page_index\":2,\"viewing_time\":4555.884999979753},{\"page_index\":3,\"viewing_time\":2895.935000036843},{\"page_index\":4,\"viewing_time\":3988.0649999831803},{\"page_index\":5,\"viewing_time\":2039.8200000054203}]","rt":22796.060000022408,"trial_type":"pit-instructions","trial_index":29,"time_elapsed":494438,"internal_node_id":"0.0-4.0-12.0","task_version":"battery-v0.2-trt","session":3},{"responses":["Press SPACE","+10","-1","True","True"],"num_errors":0,"rt":32774.399999994785,"trial_type":"pit-comprehension","trial_index":30,"time_elapsed":527216,"internal_node_id":"0.0-4.0-13.0","task_version":"battery-v0.2-trt","session":3},{"view_history":"[{\"page_index\":0,\"viewing_time\":3030.6649999693036},{\"page_index\":1,\"viewing_time\":6051.875000004657}]","rt":9082.98999996623,"trial_type":"pit-instructions","trial_index":31,"time_elapsed":536303,"internal_node_id":"0.0-5.0","task_version":"battery-v0.2-trt","session":3},{"rune":"Q","rune_set":"bacs2","hex":"#f73b6a7A","correct":-1,"choice":-1,"rt":-1,"accuracy":1,"outcome":"-1","keys":[],"total_keys":0,"block":1,"trial":1,"stimulus":2,"robot":4,"valence":"lose","action":"no-go","sham":0,"trial_type":"pit-trial","trial_index":32,"time_elapsed":540318,"internal_node_id":"0.0-6.0","task_version":"battery-v0.2-trt","session":3},{"rune":"H","rune_set":"bacs2","hex":"#3366ff99","correct":32,"choice":32,"rt":860.9900000155903,"accuracy":1,"outcome":"+1","keys":[2361.2800000119023],"total_keys":1,"block":1,"trial":2,"stimulus":3,"robot":1,"valence":"win","action":"go","sham":1,"trial_type":"pit-trial","trial_index":33,"time_elapsed":543882,"internal_node_id":"0.0-7.0","task_version":"battery-v0.2-trt","session":3},{"rune":"T","rune_set":"bacs2","hex":"#f73b6a7A","correct":32,"choice":32,"rt":939.9449999909848,"accuracy":1,"outcome":"-1","keys":[2440.4149999609217],"total_keys":1,"block":1,"trial":3,"stimulus":1,"robot":3,"valence":"lose","action":"go","sham":0,"trial_type":"pit-trial","trial_index":34,"time_elapsed":547530,"internal_node_id":"0.0-8.0","task_version":"battery-v0.2-trt","session":3},{"rune":"Y","rune_set":"bacs2","hex":"#3366ff99","correct":-1,"choice":32,"rt":646.2850000243634,"accuracy":0,"outcome":"+1","keys":[2146.645000029821],"total_keys":1,"block":1,"trial":4,"stimulus":0,"robot":2,"valence":"win","action":"no-go","sham":0,"trial_type":"pit-trial","trial_index":35,"time_elapsed":550890,"internal_node_id":"0.0-9.0","task_version":"battery-v0.2-trt","session":3},{"rune":"T","rune_set":"bacs2","hex":"#f73b6a7A","correct":32,"choice":-1,"rt":-1,"accuracy":0,"outcome":"-10","keys":[],"total_keys":0,"block":1,"trial":5,"stimulus":1,"robot":3,"valence":"lose","action":"go","sham":0,"trial_type":"pit-trial","trial_index":36,"time_elapsed":554901,"internal_node_id":"0.0-10.0","task_version":"battery-v0.2-trt","session":3},{"rune":"Q","rune_set":"bacs2","hex":"#f73b6a7A","correct":-1,"choice":-1,"rt":-1,"accuracy":1,"outcome":"-1","keys":[],"total_keys":0,"block":1,"trial":6,"stimulus":2,"robot":4,"valence":"lose","action":"no-go","sham":0,"trial_type":"pit-trial","trial_index":37,"time_elapsed":558921,"internal_node_id":"0.0-11.0","task_version":"battery-v0.2-trt","session":3},{"rune":"H","rune_set":"bacs2","hex":"#3366ff99","correct":32,"choice":-1,"rt":-1,"accuracy":0,"outcome":"+1","keys":[],"total_keys":0,"block":1,"trial":7,"stimulus":3,"robot":1,"valence":"win","action":"go","sham":0,"trial_type":"pit-trial","trial_index":38,"time_elapsed":562945,"internal_node_id":"0.0-12.0","task_version":"battery-v0.2-trt","session":3},{"rune":"Y","rune_set":"bacs2","hex":"#3366ff99","correct":-1,"choice":32,"rt":858.2900000037625,"accuracy":0,"outcome":"+1","keys":[2361.819999990985],"total_keys":1,"block":1,"trial":8,"stimulus":0,"robot":2,"valence":"win","action":"no-go","sham":0,"trial_type":"pit-trial","trial_index":39,"time_elapsed":566510,"internal_node_id":"0.0-13.0","task_version":"battery-v0.2-trt","session":3},{"rune":"H","rune_set":"bacs2","hex":"#3366ff99","correct":32,"choice":-1,"rt":-1,"accuracy":0,"outcome":"+10","keys":[],"total_keys":0,"block":1,"trial":9,"stimulus":3,"robot":1,"valence":"win","action":"go","sham":1,"trial_type":"pit-trial","trial_index":40,"time_elapsed":570528,"internal_node_id":"0.0-14.0","task_version":"battery-v0.2-trt","session":3},{"rune":"T","rune_set":"bacs2","hex":"#f73b6a7A","correct":32,"choice":32,"rt":1092.7999999839813,"accuracy":1,"outcome":"-1","keys":[2593.7900000135414],"total_keys":1,"block":1,"trial":10,"stimulus":1,"robot":3,"valence":"lose","action":"go","sham":0,"trial_type":"pit-trial","trial_index":41,"time_elapsed":574330,"internal_node_id":"0.0-15.0","task_version":"battery-v0.2-trt","session":3},{"rune":"Q","rune_set":"bacs2","hex":"#f73b6a7A","correct":-1,"choice":-1,"rt":-1,"accuracy":1,"outcome":"-1","keys":[],"total_keys":0,"block":1,"trial":11,"stimulus":2,"robot":4,"valence":"lose","action":"no-go","sham":0,"trial_type":"pit-trial","trial_index":42,"time_elapsed":578341,"internal_node_id":"0.0-16.0","task_version":"battery-v0.2-trt","session":3},{"rune":"Y","rune_set":"bacs2","hex":"#3366ff99","correct":-1,"choice":32,"rt":1007.3299999930896,"accuracy":0,"outcome":"+1","keys":[2507.530000002589],"total_keys":1,"block":1,"trial":12,"stimulus":0,"robot":2,"valence":"win","action":"no-go","sham":0,"trial_type":"pit-trial","trial_index":43,"time_elapsed":582055,"internal_node_id":"0.0-17.0","task_version":"battery-v0.2-trt","session":3},{"rune":"H","rune_set":"bacs2","hex":"#3366ff99","correct":32,"choice":-1,"rt":-1,"accuracy":0,"outcome":"+10","keys":[],"total_keys":0,"block":1,"trial":13,"stimulus":3,"robot":1,"valence":"win","action":"go","sham":1,"trial_type":"pit-trial","trial_index":44,"time_elapsed":586072,"internal_node_id":"0.0-18.0","task_version":"battery-v0.2-trt","session":3},{"rune":"Y","rune_set":"bacs2","hex":"#3366ff99","correct":-1,"choice":-1,"rt":-1,"accuracy":1,"outcome":"+10","keys":[],"total_keys":0,"block":1,"trial":14,"stimulus":0,"robot":2,"valence":"win","action":"no-go","sham":0,"trial_type":"pit-trial","trial_index":45,"time_elapsed":590097,"internal_node_id":"0.0-19.0","task_version":"battery-v0.2-trt","session":3},{"rune":"Q","rune_set":"bacs2","hex":"#f73b6a7A","correct":-1,"choice":-1,"rt":-1,"accuracy":1,"outcome":"-1","keys":[],"total_keys":0,"block":1,"trial":15,"stimulus":2,"robot":4,"valence":"lose","action":"no-go","sham":0,"trial_type":"pit-trial","trial_index":46,"time_elapsed":594114,"internal_node_id":"0.0-20.0","task_version":"battery-v0.2-trt","session":3},{"rune":"T","rune_set":"bacs2","hex":"#f73b6a7A","correct":32,"choice":32,"rt":818.8899999950081,"accuracy":1,"outcome":"-10","keys":[2323.844999948051],"total_keys":1,"block":1,"trial":16,"stimulus":1,"robot":3,"valence":"lose","action":"go","sham":1,"trial_type":"pit-trial","trial_index":47,"time_elapsed":597646,"internal_node_id":"0.0-21.0","task_version":"battery-v0.2-trt","session":3},{"rune":"T","rune_set":"bacs2","hex":"#f73b6a7A","correct":32,"choice":-1,"rt":-1,"accuracy":0,"outcome":"-10","keys":[],"total_keys":0,"block":1,"trial":17,"stimulus":1,"robot":3,"valence":"lose","action":"go","sham":0,"trial_type":"pit-trial","trial_index":48,"time_elapsed":601652,"internal_node_id":"0.0-22.0","task_version":"battery-v0.2-trt","session":3},{"rune":"H","rune_set":"bacs2","hex":"#3366ff99","correct":32,"choice":-1,"rt":-1,"accuracy":0,"outcome":"+1","keys":[],"total_keys":0,"block":1,"trial":18,"stimulus":3,"robot":1,"valence":"win","action":"go","sham":0,"trial_type":"pit-trial","trial_index":49,"time_elapsed":605663,"internal_node_id":"0.0-23.0","task_version":"battery-v0.2-trt","session":3},{"rune":"Q","rune_set":"bacs2","hex":"#f73b6a7A","correct":-1,"choice":-1,"rt":-1,"accuracy":1,"outcome":"-1","keys":[],"total_keys":0,"block":1,"trial":19,"stimulus":2,"robot":4,"valence":"lose","action":"no-go","sham":0,"trial_type":"pit-trial","trial_index":50,"time_elapsed":609684,"internal_node_id":"0.0-24.0","task_version":"battery-v0.2-trt","session":3},{"rune":"Y","rune_set":"bacs2","hex":"#3366ff99","correct":-1,"choice":-1,"rt":-1,"accuracy":1,"outcome":"+10","keys":[],"total_keys":0,"block":1,"trial":20,"stimulus":0,"robot":2,"valence":"win","action":"no-go","sham":0,"trial_type":"pit-trial","trial_index":51,"time_elapsed":613699,"internal_node_id":"0.0-25.0","task_version":"battery-v0.2-trt","session":3},{"rune":"T","rune_set":"bacs2","hex":"#f73b6a7A","correct":32,"choice":-1,"rt":-1,"accuracy":0,"outcome":"-10","keys":[],"total_keys":0,"block":1,"trial":21,"stimulus":1,"robot":3,"valence":"lose","action":"go","sham":0,"trial_type":"pit-trial","trial_index":52,"time_elapsed":617710,"internal_node_id":"0.0-26.0","task_version":"battery-v0.2-trt","session":3},{"rune":"Q","rune_set":"bacs2","hex":"#f73b6a7A","correct":-1,"choice":-1,"rt":-1,"accuracy":1,"outcome":"-1","keys":[],"total_keys":0,"block":1,"trial":22,"stimulus":2,"robot":4,"valence":"lose","action":"no-go","sham":0,"trial_type":"pit-trial","trial_index":53,"time_elapsed":621716,"internal_node_id":"0.0-27.0","task_version":"battery-v0.2-trt","session":3},{"rune":"Y","rune_set":"bacs2","hex":"#3366ff99","correct":-1,"choice":32,"rt":1178.7299999850802,"accuracy":0,"outcome":"+1","keys":[2682.334999961313],"total_keys":1,"block":1,"trial":23,"stimulus":0,"robot":2,"valence":"win","action":"no-go","sham":0,"trial_type":"pit-trial","trial_index":54,"time_elapsed":625607,"internal_node_id":"0.0-28.0","task_version":"battery-v0.2-trt","session":3},{"rune":"H","rune_set":"bacs2","hex":"#3366ff99","correct":32,"choice":-1,"rt":-1,"accuracy":0,"outcome":"+10","keys":[],"total_keys":0,"block":1,"trial":24,"stimulus":3,"robot":1,"valence":"win","action":"go","sham":1,"trial_type":"pit-trial","trial_index":55,"time_elapsed":629624,"internal_node_id":"0.0-29.0","task_version":"battery-v0.2-trt","session":3},{"rune":"T","rune_set":"bacs2","hex":"#f73b6a7A","correct":32,"choice":32,"rt":793.5300000244752,"accuracy":1,"outcome":"-10","keys":[2294.235000037588],"total_keys":1,"block":1,"trial":25,"stimulus":1,"robot":3,"valence":"lose","action":"go","sham":1,"trial_type":"pit-trial","trial_index":56,"time_elapsed":633123,"internal_node_id":"0.0-30.0","task_version":"battery-v0.2-trt","session":3},{"rune":"H","rune_set":"bacs2","hex":"#3366ff99","correct":32,"choice":-1,"rt":-1,"accuracy":0,"outcome":"+10","keys":[],"total_keys":0,"block":1,"trial":26,"stimulus":3,"robot":1,"valence":"win","action":"go","sham":1,"trial_type":"pit-trial","trial_index":57,"time_elapsed":637135,"internal_node_id":"0.0-31.0","task_version":"battery-v0.2-trt","session":3},{"rune":"Q","rune_set":"bacs2","hex":"#f73b6a7A","correct":-1,"choice":-1,"rt":-1,"accuracy":1,"outcome":"-1","keys":[],"total_keys":0,"block":1,"trial":27,"stimulus":2,"robot":4,"valence":"lose","action":"no-go","sham":0,"trial_type":"pit-trial","trial_index":58,"time_elapsed":641154,"internal_node_id":"0.0-32.0","task_version":"battery-v0.2-trt","session":3},{"rune":"Y","rune_set":"bacs2","hex":"#3366ff99","correct":-1,"choice":-1,"rt":-1,"accuracy":1,"outcome":"+10","keys":[],"total_keys":0,"block":1,"trial":28,"stimulus":0,"robot":2,"valence":"win","action":"no-go","sham":0,"trial_type":"pit-trial","trial_index":59,"time_elapsed":645173,"internal_node_id":"0.0-33.0","task_version":"battery-v0.2-trt","session":3},{"rune":"T","rune_set":"bacs2","hex":"#f73b6a7A","correct":32,"choice":32,"rt":1067.8850000258535,"accuracy":1,"outcome":"-1","keys":[2569.7200000286102],"total_keys":1,"block":1,"trial":29,"stimulus":1,"robot":3,"valence":"lose","action":"go","sham":0,"trial_type":"pit-trial","trial_index":60,"time_elapsed":648946,"internal_node_id":"0.0-34.0","task_version":"battery-v0.2-trt","session":3},{"rune":"H","rune_set":"bacs2","hex":"#3366ff99","correct":32,"choice":-1,"rt":-1,"accuracy":0,"outcome":"+1","keys":[],"total_keys":0,"block":1,"trial":30,"stimulus":3,"robot":1,"valence":"win","action":"go","sham":0,"trial_type":"pit-trial","trial_index":61,"time_elapsed":652958,"internal_node_id":"0.0-35.0","task_version":"battery-v0.2-trt","session":3},{"rune":"Y","rune_set":"bacs2","hex":"#3366ff99","correct":-1,"choice":-1,"rt":-1,"accuracy":1,"outcome":"+10","keys":[],"total_keys":0,"block":1,"trial":31,"stimulus":0,"robot":2,"valence":"win","action":"no-go","sham":0,"trial_type":"pit-trial","trial_index":62,"time_elapsed":656973,"internal_node_id":"0.0-36.0","task_version":"battery-v0.2-trt","session":3},{"rune":"Q","rune_set":"bacs2","hex":"#f73b6a7A","correct":-1,"choice":-1,"rt":-1,"accuracy":1,"outcome":"-1","keys":[],"total_keys":0,"block":1,"trial":32,"stimulus":2,"robot":4,"valence":"lose","action":"no-go","sham":0,"trial_type":"pit-trial","trial_index":63,"time_elapsed":660984,"internal_node_id":"0.0-37.0","task_version":"battery-v0.2-trt","session":3},{"rune":"T","rune_set":"bacs2","hex":"#f73b6a7A","correct":32,"choice":32,"rt":872.6199999800883,"accuracy":1,"outcome":"-1","keys":[2377.2200000239536],"total_keys":1,"block":1,"trial":33,"stimulus":1,"robot":3,"valence":"lose","action":"go","sham":0,"trial_type":"pit-trial","trial_index":64,"time_elapsed":664569,"internal_node_id":"0.0-38.0","task_version":"battery-v0.2-trt","session":3},{"rune":"Q","rune_set":"bacs2","hex":"#f73b6a7A","correct":-1,"choice":-1,"rt":-1,"accuracy":1,"outcome":"-1","keys":[],"total_keys":0,"block":1,"trial":34,"stimulus":2,"robot":4,"valence":"lose","action":"no-go","sham":0,"trial_type":"pit-trial","trial_index":65,"time_elapsed":668577,"internal_node_id":"0.0-39.0","task_version":"battery-v0.2-trt","session":3},{"rune":"E","rune_set":"bacs2","hex":"#f73b6a7A","correct":32,"choice":-1,"rt":-1,"accuracy":0,"outcome":"-10","keys":[],"total_keys":0,"block":1,"trial":35,"stimulus":4,"robot":3,"valence":"lose","action":"go","sham":0,"trial_type":"pit-trial","trial_index":66,"time_elapsed":672602,"internal_node_id":"0.0-40.0","task_version":"battery-v0.2-trt","session":3},{"rune":"C","rune_set":"bacs2","hex":"#f73b6a7A","correct":-1,"choice":32,"rt":1026.6999999876134,"accuracy":0,"outcome":"-10","keys":[2529.045000032056],"total_keys":1,"block":1,"trial":36,"stimulus":5,"robot":4,"valence":"lose","action":"no-go","sham":0,"trial_type":"pit-trial","trial_index":67,"time_elapsed":676335,"internal_node_id":"0.0-41.0","task_version":"battery-v0.2-trt","session":3},{"rune":"Q","rune_set":"bacs2","hex":"#f73b6a7A","correct":-1,"choice":-1,"rt":-1,"accuracy":1,"outcome":"-1","keys":[],"total_keys":0,"block":1,"trial":37,"stimulus":2,"robot":4,"valence":"lose","action":"no-go","sham":0,"trial_type":"pit-trial","trial_index":68,"time_elapsed":680341,"internal_node_id":"0.0-42.0","task_version":"battery-v0.2-trt","session":3},{"rune":"E","rune_set":"bacs2","hex":"#f73b6a7A","correct":32,"choice":32,"rt":649.0549999871291,"accuracy":1,"outcome":"-1","keys":[2153.3349999808706],"total_keys":1,"block":1,"trial":38,"stimulus":4,"robot":3,"valence":"lose","action":"go","sham":0,"trial_type":"pit-trial","trial_index":69,"time_elapsed":683702,"internal_node_id":"0.0-43.0","task_version":"battery-v0.2-trt","session":3},{"rune":"T","rune_set":"bacs2","hex":"#f73b6a7A","correct":32,"choice":32,"rt":880.8950000093319,"accuracy":1,"outcome":"-10","keys":[2386.454999970738],"total_keys":1,"block":1,"trial":39,"stimulus":1,"robot":3,"valence":"lose","action":"go","sham":1,"trial_type":"pit-trial","trial_index":70,"time_elapsed":687293,"internal_node_id":"0.0-44.0","task_version":"battery-v0.2-trt","session":3},{"rune":"C","rune_set":"bacs2","hex":"#f73b6a7A","correct":-1,"choice":-1,"rt":-1,"accuracy":1,"outcome":"-10","keys":[],"total_keys":0,"block":1,"trial":40,"stimulus":5,"robot":4,"valence":"lose","action":"no-go","sham":1,"trial_type":"pit-trial","trial_index":71,"time_elapsed":691309,"internal_node_id":"0.0-45.0","task_version":"battery-v0.2-trt","session":3},{"rune":"E","rune_set":"bacs2","hex":"#f73b6a7A","correct":32,"choice":32,"rt":894.0850000362843,"accuracy":1,"outcome":"-1","keys":[2394.579999963753],"total_keys":1,"block":1,"trial":41,"stimulus":4,"robot":3,"valence":"lose","action":"go","sham":0,"trial_type":"pit-trial","trial_index":72,"time_elapsed":694913,"internal_node_id":"0.0-46.0","task_version":"battery-v0.2-trt","session":3},{"rune":"Q","rune_set":"bacs2","hex":"#f73b6a7A","correct":-1,"choice":-1,"rt":-1,"accuracy":1,"outcome":"-1","keys":[],"total_keys":0,"block":1,"trial":42,"stimulus":2,"robot":4,"valence":"lose","action":"no-go","sham":0,"trial_type":"pit-trial","trial_index":73,"time_elapsed":698929,"internal_node_id":"0.0-47.0","task_version":"battery-v0.2-trt","session":3},{"rune":"C","rune_set":"bacs2","hex":"#f73b6a7A","correct":-1,"choice":32,"rt":769.4099999498576,"accuracy":0,"outcome":"-1","keys":[2271.5149999712594],"total_keys":1,"block":1,"trial":43,"stimulus":5,"robot":4,"valence":"lose","action":"no-go","sham":1,"trial_type":"pit-trial","trial_index":74,"time_elapsed":702408,"internal_node_id":"0.0-48.0","task_version":"battery-v0.2-trt","session":3},{"rune":"O","rune_set":"bacs2","hex":"#3366ff99","correct":-1,"choice":32,"rt":993.5100000002421,"accuracy":0,"outcome":"+1","keys":[2496.2700000032783],"total_keys":1,"block":1,"trial":44,"stimulus":6,"robot":2,"valence":"win","action":"no-go","sham":0,"trial_type":"pit-trial","trial_index":75,"time_elapsed":706109,"internal_node_id":"0.0-49.0","task_version":"battery-v0.2-trt","session":3},{"rune":"C","rune_set":"bacs2","hex":"#f73b6a7A","correct":-1,"choice":32,"rt":849.3550000130199,"accuracy":0,"outcome":"-1","keys":[2352.009999973234],"total_keys":1,"block":1,"trial":45,"stimulus":5,"robot":4,"valence":"lose","action":"no-go","sham":1,"trial_type":"pit-trial","trial_index":76,"time_elapsed":709680,"internal_node_id":"0.0-50.0","task_version":"battery-v0.2-trt","session":3},{"rune":"O","rune_set":"bacs2","hex":"#3366ff99","correct":-1,"choice":32,"rt":1144.4550000014715,"accuracy":0,"outcome":"+1","keys":[2648.044999979902],"total_keys":1,"block":1,"trial":46,"stimulus":6,"robot":2,"valence":"win","action":"no-go","sham":0,"trial_type":"pit-trial","trial_index":77,"time_elapsed":713538,"internal_node_id":"0.0-51.0","task_version":"battery-v0.2-trt","session":3},{"rune":"Q","rune_set":"bacs2","hex":"#f73b6a7A","correct":-1,"choice":32,"rt":830.4099999950267,"accuracy":0,"outcome":"-10","keys":[2331.225000030827],"total_keys":1,"block":1,"trial":47,"stimulus":2,"robot":4,"valence":"lose","action":"no-go","sham":0,"trial_type":"pit-trial","trial_index":78,"time_elapsed":717074,"internal_node_id":"0.0-52.0","task_version":"battery-v0.2-trt","session":3},{"rune":"E","rune_set":"bacs2","hex":"#f73b6a7A","correct":32,"choice":32,"rt":801.0299999732524,"accuracy":1,"outcome":"-1","keys":[2303.3050000085495],"total_keys":1,"block":1,"trial":48,"stimulus":4,"robot":3,"valence":"lose","action":"go","sham":0,"trial_type":"pit-trial","trial_index":79,"time_elapsed":720596,"internal_node_id":"0.0-53.0","task_version":"battery-v0.2-trt","session":3},{"rune":"O","rune_set":"bacs2","hex":"#3366ff99","correct":-1,"choice":-1,"rt":-1,"accuracy":1,"outcome":"+10","keys":[],"total_keys":0,"block":1,"trial":49,"stimulus":6,"robot":2,"valence":"win","action":"no-go","sham":0,"trial_type":"pit-trial","trial_index":80,"time_elapsed":724609,"internal_node_id":"0.0-54.0","task_version":"battery-v0.2-trt","session":3},{"rune":"E","rune_set":"bacs2","hex":"#f73b6a7A","correct":32,"choice":32,"rt":828.8000000175089,"accuracy":1,"outcome":"-1","keys":[2331.4850000315346],"total_keys":1,"block":1,"trial":50,"stimulus":4,"robot":3,"valence":"lose","action":"go","sham":0,"trial_type":"pit-trial","trial_index":81,"time_elapsed":728146,"internal_node_id":"0.0-55.0","task_version":"battery-v0.2-trt","session":3},{"rune":"G","rune_set":"bacs2","hex":"#3366ff99","correct":32,"choice":32,"rt":1028.9849999826401,"accuracy":1,"outcome":"+10","keys":[2530.999999959022],"total_keys":1,"block":1,"trial":51,"stimulus":7,"robot":1,"valence":"win","action":"go","sham":0,"trial_type":"pit-trial","trial_index":82,"time_elapsed":731883,"internal_node_id":"0.0-56.0","task_version":"battery-v0.2-trt","session":3},{"rune":"C","rune_set":"bacs2","hex":"#f73b6a7A","correct":-1,"choice":32,"rt":839.3299999879673,"accuracy":0,"outcome":"-1","keys":[2343.0199999711476],"total_keys":1,"block":1,"trial":52,"stimulus":5,"robot":4,"valence":"lose","action":"no-go","sham":1,"trial_type":"pit-trial","trial_index":83,"time_elapsed":735429,"internal_node_id":"0.0-57.0","task_version":"battery-v0.2-trt","session":3},{"rune":"O","rune_set":"bacs2","hex":"#3366ff99","correct":-1,"choice":-1,"rt":-1,"accuracy":1,"outcome":"+10","keys":[],"total_keys":0,"block":1,"trial":53,"stimulus":6,"robot":2,"valence":"win","action":"no-go","sham":0,"trial_type":"pit-trial","trial_index":84,"time_elapsed":739441,"internal_node_id":"0.0-58.0","task_version":"battery-v0.2-trt","session":3},{"rune":"G","rune_set":"bacs2","hex":"#3366ff99","correct":32,"choice":-1,"rt":-1,"accuracy":0,"outcome":"+1","keys":[],"total_keys":0,"block":1,"trial":54,"stimulus":7,"robot":1,"valence":"win","action":"go","sham":0,"trial_type":"pit-trial","trial_index":85,"time_elapsed":743455,"internal_node_id":"0.0-59.0","task_version":"battery-v0.2-trt","session":3},{"rune":"C","rune_set":"bacs2","hex":"#f73b6a7A","correct":-1,"choice":32,"rt":648.3149999985471,"accuracy":0,"outcome":"-10","keys":[2150.465000013355],"total_keys":1,"block":1,"trial":55,"stimulus":5,"robot":4,"valence":"lose","action":"no-go","sham":0,"trial_type":"pit-trial","trial_index":86,"time_elapsed":746809,"internal_node_id":"0.0-60.0","task_version":"battery-v0.2-trt","session":3},{"rune":"E","rune_set":"bacs2","hex":"#f73b6a7A","correct":32,"choice":32,"rt":1172.3800000036135,"accuracy":1,"outcome":"-10","keys":[2672.519999963697],"total_keys":1,"block":1,"trial":56,"stimulus":4,"robot":3,"valence":"lose","action":"go","sham":1,"trial_type":"pit-trial","trial_index":87,"time_elapsed":750691,"internal_node_id":"0.0-61.0","task_version":"battery-v0.2-trt","session":3},{"rune":"O","rune_set":"bacs2","hex":"#3366ff99","correct":-1,"choice":-1,"rt":-1,"accuracy":1,"outcome":"+10","keys":[],"total_keys":0,"block":1,"trial":57,"stimulus":6,"robot":2,"valence":"win","action":"no-go","sham":0,"trial_type":"pit-trial","trial_index":88,"time_elapsed":754698,"internal_node_id":"0.0-62.0","task_version":"battery-v0.2-trt","session":3},{"rune":"C","rune_set":"bacs2","hex":"#f73b6a7A","correct":-1,"choice":32,"rt":621.9000000273809,"accuracy":0,"outcome":"-10","keys":[2125.754999986384],"total_keys":1,"block":1,"trial":58,"stimulus":5,"robot":4,"valence":"lose","action":"no-go","sham":0,"trial_type":"pit-trial","trial_index":89,"time_elapsed":758033,"internal_node_id":"0.0-63.0","task_version":"battery-v0.2-trt","session":3},{"rune":"G","rune_set":"bacs2","hex":"#3366ff99","correct":32,"choice":-1,"rt":-1,"accuracy":0,"outcome":"+1","keys":[],"total_keys":0,"block":1,"trial":59,"stimulus":7,"robot":1,"valence":"win","action":"go","sham":0,"trial_type":"pit-trial","trial_index":90,"time_elapsed":762045,"internal_node_id":"0.0-64.0","task_version":"battery-v0.2-trt","session":3},{"rune":"E","rune_set":"bacs2","hex":"#f73b6a7A","correct":32,"choice":32,"rt":872.7599999983795,"accuracy":1,"outcome":"-1","keys":[2372.9700000258163],"total_keys":1,"block":1,"trial":60,"stimulus":4,"robot":3,"valence":"lose","action":"go","sham":0,"trial_type":"pit-trial","trial_index":91,"time_elapsed":765622,"internal_node_id":"0.0-65.0","task_version":"battery-v0.2-trt","session":3},{"rune":"O","rune_set":"bacs2","hex":"#3366ff99","correct":-1,"choice":-1,"rt":-1,"accuracy":1,"outcome":"+10","keys":[],"total_keys":0,"block":1,"trial":61,"stimulus":6,"robot":2,"valence":"win","action":"no-go","sham":0,"trial_type":"pit-trial","trial_index":92,"time_elapsed":769634,"internal_node_id":"0.0-66.0","task_version":"battery-v0.2-trt","session":3},{"rune":"E","rune_set":"bacs2","hex":"#f73b6a7A","correct":32,"choice":-1,"rt":-1,"accuracy":0,"outcome":"-10","keys":[],"total_keys":0,"block":1,"trial":62,"stimulus":4,"robot":3,"valence":"lose","action":"go","sham":0,"trial_type":"pit-trial","trial_index":93,"time_elapsed":773646,"internal_node_id":"0.0-67.0","task_version":"battery-v0.2-trt","session":3},{"rune":"G","rune_set":"bacs2","hex":"#3366ff99","correct":32,"choice":-1,"rt":-1,"accuracy":0,"outcome":"+1","keys":[],"total_keys":0,"block":1,"trial":63,"stimulus":7,"robot":1,"valence":"win","action":"go","sham":0,"trial_type":"pit-trial","trial_index":94,"time_elapsed":777661,"internal_node_id":"0.0-68.0","task_version":"battery-v0.2-trt","session":3},{"rune":"C","rune_set":"bacs2","hex":"#f73b6a7A","correct":-1,"choice":32,"rt":740.4500000411645,"accuracy":0,"outcome":"-1","keys":[2244.4599999580532],"total_keys":1,"block":1,"trial":64,"stimulus":5,"robot":4,"valence":"lose","action":"no-go","sham":1,"trial_type":"pit-trial","trial_index":95,"time_elapsed":781111,"internal_node_id":"0.0-69.0","task_version":"battery-v0.2-trt","session":3},{"rune":"E","rune_set":"bacs2","hex":"#f73b6a7A","correct":32,"choice":32,"rt":736.81500001112,"accuracy":1,"outcome":"-1","keys":[2238.0649999831803],"total_keys":1,"block":1,"trial":65,"stimulus":4,"robot":3,"valence":"lose","action":"go","sham":0,"trial_type":"pit-trial","trial_index":96,"time_elapsed":784566,"internal_node_id":"0.0-70.0","task_version":"battery-v0.2-trt","session":3},{"rune":"C","rune_set":"bacs2","hex":"#f73b6a7A","correct":-1,"choice":32,"rt":1026.6050000209361,"accuracy":0,"outcome":"-10","keys":[2532.6050000148825],"total_keys":1,"block":1,"trial":66,"stimulus":5,"robot":4,"valence":"lose","action":"no-go","sham":0,"trial_type":"pit-trial","trial_index":97,"time_elapsed":788303,"internal_node_id":"0.0-71.0","task_version":"battery-v0.2-trt","session":3},{"rune":"G","rune_set":"bacs2","hex":"#3366ff99","correct":32,"choice":32,"rt":785.585000005085,"accuracy":1,"outcome":"+10","keys":[2288.769999984652],"total_keys":1,"block":1,"trial":67,"stimulus":7,"robot":1,"valence":"win","action":"go","sham":0,"trial_type":"pit-trial","trial_index":98,"time_elapsed":791795,"internal_node_id":"0.0-72.0","task_version":"battery-v0.2-trt","session":3},{"rune":"O","rune_set":"bacs2","hex":"#3366ff99","correct":-1,"choice":-1,"rt":-1,"accuracy":1,"outcome":"+10","keys":[],"total_keys":0,"block":1,"trial":68,"stimulus":6,"robot":2,"valence":"win","action":"no-go","sham":0,"trial_type":"pit-trial","trial_index":99,"time_elapsed":795802,"internal_node_id":"0.0-73.0","task_version":"battery-v0.2-trt","session":3},{"rune":"C","rune_set":"bacs2","hex":"#f73b6a7A","correct":-1,"choice":32,"rt":779.515000001993,"accuracy":0,"outcome":"-10","keys":[2281.2100000446662],"total_keys":1,"block":1,"trial":69,"stimulus":5,"robot":4,"valence":"lose","action":"no-go","sham":0,"trial_type":"pit-trial","trial_index":100,"time_elapsed":799292,"internal_node_id":"0.0-74.0","task_version":"battery-v0.2-trt","session":3},{"rune":"G","rune_set":"bacs2","hex":"#3366ff99","correct":32,"choice":32,"rt":772.7450000238605,"accuracy":1,"outcome":"+10","keys":[2275.034999998752],"total_keys":1,"block":1,"trial":70,"stimulus":7,"robot":1,"valence":"win","action":"go","sham":0,"trial_type":"pit-trial","trial_index":101,"time_elapsed":802785,"internal_node_id":"0.0-75.0","task_version":"battery-v0.2-trt","session":3},{"rune":"O","rune_set":"bacs2","hex":"#3366ff99","correct":-1,"choice":-1,"rt":-1,"accuracy":1,"outcome":"+1","keys":[],"total_keys":0,"block":1,"trial":71,"stimulus":6,"robot":2,"valence":"win","action":"no-go","sham":1,"trial_type":"pit-trial","trial_index":102,"time_elapsed":806804,"internal_node_id":"0.0-76.0","task_version":"battery-v0.2-trt","session":3},{"rune":"E","rune_set":"bacs2","hex":"#f73b6a7A","correct":32,"choice":32,"rt":961.1199999926612,"accuracy":1,"outcome":"-10","keys":[2463.6249999748543],"total_keys":1,"block":1,"trial":72,"stimulus":4,"robot":3,"valence":"lose","action":"go","sham":1,"trial_type":"pit-trial","trial_index":103,"time_elapsed":810477,"internal_node_id":"0.0-77.0","task_version":"battery-v0.2-trt","session":3},{"rune":"E","rune_set":"bacs2","hex":"#f73b6a7A","correct":32,"choice":32,"rt":1048.7649999558926,"accuracy":1,"outcome":"-10","keys":[2551.5250000171363],"total_keys":1,"block":1,"trial":73,"stimulus":4,"robot":3,"valence":"lose","action":"go","sham":1,"trial_type":"pit-trial","trial_index":104,"time_elapsed":814238,"internal_node_id":"0.0-78.0","task_version":"battery-v0.2-trt","session":3},{"rune":"O","rune_set":"bacs2","hex":"#3366ff99","correct":-1,"choice":-1,"rt":-1,"accuracy":1,"outcome":"+10","keys":[],"total_keys":0,"block":1,"trial":74,"stimulus":6,"robot":2,"valence":"win","action":"no-go","sham":0,"trial_type":"pit-trial","trial_index":105,"time_elapsed":818249,"internal_node_id":"0.0-79.0","task_version":"battery-v0.2-trt","session":3},{"rune":"Z","rune_set":"bacs2","hex":"#3366ff99","correct":32,"choice":32,"rt":1015.3799999970943,"accuracy":1,"outcome":"+10","keys":[2517.195000022184],"total_keys":1,"block":1,"trial":75,"stimulus":8,"robot":1,"valence":"win","action":"go","sham":0,"trial_type":"pit-trial","trial_index":106,"time_elapsed":821974,"internal_node_id":"0.0-80.0","task_version":"battery-v0.2-trt","session":3},{"rune":"G","rune_set":"bacs2","hex":"#3366ff99","correct":32,"choice":-1,"rt":-1,"accuracy":0,"outcome":"+10","keys":[],"total_keys":0,"block":1,"trial":76,"stimulus":7,"robot":1,"valence":"win","action":"go","sham":1,"trial_type":"pit-trial","trial_index":107,"time_elapsed":825988,"internal_node_id":"0.0-81.0","task_version":"battery-v0.2-trt","session":3},{"rune":"E","rune_set":"bacs2","hex":"#f73b6a7A","correct":32,"choice":32,"rt":1017.1799999661744,"accuracy":1,"outcome":"-1","keys":[2518.495000025723],"total_keys":1,"block":1,"trial":77,"stimulus":4,"robot":3,"valence":"lose","action":"go","sham":0,"trial_type":"pit-trial","trial_index":108,"time_elapsed":829710,"internal_node_id":"0.0-82.0","task_version":"battery-v0.2-trt","session":3},{"rune":"Z","rune_set":"bacs2","hex":"#3366ff99","correct":32,"choice":-1,"rt":-1,"accuracy":0,"outcome":"+1","keys":[],"total_keys":0,"block":1,"trial":78,"stimulus":8,"robot":1,"valence":"win","action":"go","sham":0,"trial_type":"pit-trial","trial_index":109,"time_elapsed":833724,"internal_node_id":"0.0-83.0","task_version":"battery-v0.2-trt","session":3},{"rune":"O","rune_set":"bacs2","hex":"#3366ff99","correct":-1,"choice":-1,"rt":-1,"accuracy":1,"outcome":"+1","keys":[],"total_keys":0,"block":1,"trial":79,"stimulus":6,"robot":2,"valence":"win","action":"no-go","sham":1,"trial_type":"pit-trial","trial_index":110,"time_elapsed":837733,"internal_node_id":"0.0-84.0","task_version":"battery-v0.2-trt","session":3},{"rune":"G","rune_set":"bacs2","hex":"#3366ff99","correct":32,"choice":32,"rt":833.5349999833852,"accuracy":1,"outcome":"+1","keys":[2335.594999953173],"total_keys":1,"block":1,"trial":80,"stimulus":7,"robot":1,"valence":"win","action":"go","sham":1,"trial_type":"pit-trial","trial_index":111,"time_elapsed":841275,"internal_node_id":"0.0-85.0","task_version":"battery-v0.2-trt","session":3},{"rune":"Z","rune_set":"bacs2","hex":"#3366ff99","correct":32,"choice":32,"rt":784.3149999971502,"accuracy":1,"outcome":"+10","keys":[2285.665000032168],"total_keys":1,"block":1,"trial":81,"stimulus":8,"robot":1,"valence":"win","action":"go","sham":0,"trial_type":"pit-trial","trial_index":112,"time_elapsed":844766,"internal_node_id":"0.0-86.0","task_version":"battery-v0.2-trt","session":3},{"rune":"X","rune_set":"bacs2","hex":"#3366ff99","correct":-1,"choice":-1,"rt":-1,"accuracy":1,"outcome":"+10","keys":[],"total_keys":0,"block":1,"trial":82,"stimulus":9,"robot":2,"valence":"win","action":"no-go","sham":0,"trial_type":"pit-trial","trial_index":113,"time_elapsed":848772,"internal_node_id":"0.0-87.0","task_version":"battery-v0.2-trt","session":3},{"rune":"O","rune_set":"bacs2","hex":"#3366ff99","correct":-1,"choice":-1,"rt":-1,"accuracy":1,"outcome":"+1","keys":[],"total_keys":0,"block":1,"trial":83,"stimulus":6,"robot":2,"valence":"win","action":"no-go","sham":1,"trial_type":"pit-trial","trial_index":114,"time_elapsed":852788,"internal_node_id":"0.0-88.0","task_version":"battery-v0.2-trt","session":3},{"rune":"G","rune_set":"bacs2","hex":"#3366ff99","correct":32,"choice":32,"rt":753.1149999704212,"accuracy":1,"outcome":"+1","keys":[2256.465000042226],"total_keys":1,"block":1,"trial":84,"stimulus":7,"robot":1,"valence":"win","action":"go","sham":1,"trial_type":"pit-trial","trial_index":115,"time_elapsed":856251,"internal_node_id":"0.0-89.0","task_version":"battery-v0.2-trt","session":3},{"rune":"G","rune_set":"bacs2","hex":"#3366ff99","correct":32,"choice":-1,"rt":-1,"accuracy":0,"outcome":"+1","keys":[],"total_keys":0,"block":1,"trial":85,"stimulus":7,"robot":1,"valence":"win","action":"go","sham":0,"trial_type":"pit-trial","trial_index":116,"time_elapsed":860258,"internal_node_id":"0.0-90.0","task_version":"battery-v0.2-trt","session":3},{"rune":"Z","rune_set":"bacs2","hex":"#3366ff99","correct":32,"choice":32,"rt":706.1249999678694,"accuracy":1,"outcome":"+10","keys":[2208.26499996474],"total_keys":1,"block":1,"trial":86,"stimulus":8,"robot":1,"valence":"win","action":"go","sham":0,"trial_type":"pit-trial","trial_index":117,"time_elapsed":863669,"internal_node_id":"0.0-91.0","task_version":"battery-v0.2-trt","session":3},{"rune":"X","rune_set":"bacs2","hex":"#3366ff99","correct":-1,"choice":32,"rt":1078.5249999607913,"accuracy":0,"outcome":"+1","keys":[2582.894999999553],"total_keys":1,"block":1,"trial":87,"stimulus":9,"robot":2,"valence":"win","action":"no-go","sham":0,"trial_type":"pit-trial","trial_index":118,"time_elapsed":867462,"internal_node_id":"0.0-92.0","task_version":"battery-v0.2-trt","session":3},{"rune":"O","rune_set":"bacs2","hex":"#3366ff99","correct":-1,"choice":-1,"rt":-1,"accuracy":1,"outcome":"+10","keys":[],"total_keys":0,"block":1,"trial":88,"stimulus":6,"robot":2,"valence":"win","action":"no-go","sham":0,"trial_type":"pit-trial","trial_index":119,"time_elapsed":871475,"internal_node_id":"0.0-93.0","task_version":"battery-v0.2-trt","session":3},{"rune":"Z","rune_set":"bacs2","hex":"#3366ff99","correct":32,"choice":32,"rt":738.8750000391155,"accuracy":1,"outcome":"+10","keys":[2241.6599999996834],"total_keys":1,"block":1,"trial":89,"stimulus":8,"robot":1,"valence":"win","action":"go","sham":0,"trial_type":"pit-trial","trial_index":120,"time_elapsed":874932,"internal_node_id":"0.0-94.0","task_version":"battery-v0.2-trt","session":3},{"rune":"W","rune_set":"bacs2","hex":"#f73b6a7A","correct":32,"choice":32,"rt":1095.5100000137463,"accuracy":1,"outcome":"-10","keys":[2596.0049999994226],"total_keys":1,"block":1,"trial":90,"stimulus":10,"robot":3,"valence":"lose","action":"go","sham":1,"trial_type":"pit-trial","trial_index":121,"time_elapsed":878733,"internal_node_id":"0.0-95.0","task_version":"battery-v0.2-trt","session":3},{"rune":"J","rune_set":"bacs2","hex":"#f73b6a7A","correct":-1,"choice":-1,"rt":-1,"accuracy":1,"outcome":"-1","keys":[],"total_keys":0,"block":1,"trial":91,"stimulus":11,"robot":4,"valence":"lose","action":"no-go","sham":0,"trial_type":"pit-trial","trial_index":122,"time_elapsed":882755,"internal_node_id":"0.0-96.0","task_version":"battery-v0.2-trt","session":3},{"rune":"X","rune_set":"bacs2","hex":"#3366ff99","correct":-1,"choice":-1,"rt":-1,"accuracy":1,"outcome":"+10","keys":[],"total_keys":0,"block":1,"trial":92,"stimulus":9,"robot":2,"valence":"win","action":"no-go","sham":0,"trial_type":"pit-trial","trial_index":123,"time_elapsed":886770,"internal_node_id":"0.0-97.0","task_version":"battery-v0.2-trt","session":3},{"rune":"J","rune_set":"bacs2","hex":"#f73b6a7A","correct":-1,"choice":-1,"rt":-1,"accuracy":1,"outcome":"-1","keys":[],"total_keys":0,"block":1,"trial":93,"stimulus":11,"robot":4,"valence":"lose","action":"no-go","sham":0,"trial_type":"pit-trial","trial_index":124,"time_elapsed":890784,"internal_node_id":"0.0-98.0","task_version":"battery-v0.2-trt","session":3},{"rune":"X","rune_set":"bacs2","hex":"#3366ff99","correct":-1,"choice":-1,"rt":-1,"accuracy":1,"outcome":"+1","keys":[],"total_keys":0,"block":1,"trial":94,"stimulus":9,"robot":2,"valence":"win","action":"no-go","sham":1,"trial_type":"pit-trial","trial_index":125,"time_elapsed":894794,"internal_node_id":"0.0-99.0","task_version":"battery-v0.2-trt","session":3},{"rune":"Z","rune_set":"bacs2","hex":"#3366ff99","correct":32,"choice":32,"rt":818.3650000137277,"accuracy":1,"outcome":"+10","keys":[2320.469999976922],"total_keys":1,"block":1,"trial":95,"stimulus":8,"robot":1,"valence":"win","action":"go","sham":0,"trial_type":"pit-trial","trial_index":126,"time_elapsed":898321,"internal_node_id":"0.0-100.0","task_version":"battery-v0.2-trt","session":3},{"rune":"W","rune_set":"bacs2","hex":"#f73b6a7A","correct":32,"choice":-1,"rt":-1,"accuracy":0,"outcome":"-10","keys":[],"total_keys":0,"block":1,"trial":96,"stimulus":10,"robot":3,"valence":"lose","action":"go","sham":0,"trial_type":"pit-trial","trial_index":127,"time_elapsed":902331,"internal_node_id":"0.0-101.0","task_version":"battery-v0.2-trt","session":3},{"rune":"Z","rune_set":"bacs2","hex":"#3366ff99","correct":32,"choice":32,"rt":852.7699999976903,"accuracy":1,"outcome":"+10","keys":[2355.6850000168197],"total_keys":1,"block":1,"trial":97,"stimulus":8,"robot":1,"valence":"win","action":"go","sham":0,"trial_type":"pit-trial","trial_index":128,"time_elapsed":905897,"internal_node_id":"0.0-102.0","task_version":"battery-v0.2-trt","session":3},{"rune":"W","rune_set":"bacs2","hex":"#f73b6a7A","correct":32,"choice":32,"rt":659.990000014659,"accuracy":1,"outcome":"-1","keys":[2163.37999998359],"total_keys":1,"block":1,"trial":98,"stimulus":10,"robot":3,"valence":"lose","action":"go","sham":0,"trial_type":"pit-trial","trial_index":129,"time_elapsed":909269,"internal_node_id":"0.0-103.0","task_version":"battery-v0.2-trt","session":3},{"rune":"J","rune_set":"bacs2","hex":"#f73b6a7A","correct":-1,"choice":-1,"rt":-1,"accuracy":1,"outcome":"-1","keys":[],"total_keys":0,"block":1,"trial":99,"stimulus":11,"robot":4,"valence":"lose","action":"no-go","sham":0,"trial_type":"pit-trial","trial_index":130,"time_elapsed":913279,"internal_node_id":"0.0-104.0","task_version":"battery-v0.2-trt","session":3},{"rune":"X","rune_set":"bacs2","hex":"#3366ff99","correct":-1,"choice":-1,"rt":-1,"accuracy":1,"outcome":"+1","keys":[],"total_keys":0,"block":1,"trial":100,"stimulus":9,"robot":2,"valence":"win","action":"no-go","sham":1,"trial_type":"pit-trial","trial_index":131,"time_elapsed":917294,"internal_node_id":"0.0-105.0","task_version":"battery-v0.2-trt","session":3},{"rune":"J","rune_set":"bacs2","hex":"#f73b6a7A","correct":-1,"choice":-1,"rt":-1,"accuracy":1,"outcome":"-10","keys":[],"total_keys":0,"block":1,"trial":101,"stimulus":11,"robot":4,"valence":"lose","action":"no-go","sham":1,"trial_type":"pit-trial","trial_index":132,"time_elapsed":921309,"internal_node_id":"0.0-106.0","task_version":"battery-v0.2-trt","session":3},{"rune":"W","rune_set":"bacs2","hex":"#f73b6a7A","correct":32,"choice":32,"rt":923.464999999851,"accuracy":1,"outcome":"-1","keys":[2425.364999973681],"total_keys":1,"block":1,"trial":102,"stimulus":10,"robot":3,"valence":"lose","action":"go","sham":0,"trial_type":"pit-trial","trial_index":133,"time_elapsed":924940,"internal_node_id":"0.0-107.0","task_version":"battery-v0.2-trt","session":3},{"rune":"Z","rune_set":"bacs2","hex":"#3366ff99","correct":32,"choice":32,"rt":798.1249999720603,"accuracy":1,"outcome":"+10","keys":[2299.7599999653175],"total_keys":1,"block":1,"trial":103,"stimulus":8,"robot":1,"valence":"win","action":"go","sham":0,"trial_type":"pit-trial","trial_index":134,"time_elapsed":928446,"internal_node_id":"0.0-108.0","task_version":"battery-v0.2-trt","session":3},{"rune":"X","rune_set":"bacs2","hex":"#3366ff99","correct":-1,"choice":32,"rt":968.1250000139698,"accuracy":0,"outcome":"+1","keys":[2470.259999972768],"total_keys":1,"block":1,"trial":104,"stimulus":9,"robot":2,"valence":"win","action":"no-go","sham":0,"trial_type":"pit-trial","trial_index":135,"time_elapsed":932122,"internal_node_id":"0.0-109.0","task_version":"battery-v0.2-trt","session":3},{"rune":"W","rune_set":"bacs2","hex":"#f73b6a7A","correct":32,"choice":32,"rt":763.6650000349618,"accuracy":1,"outcome":"-1","keys":[2265.7100000069477],"total_keys":1,"block":1,"trial":105,"stimulus":10,"robot":3,"valence":"lose","action":"go","sham":0,"trial_type":"pit-trial","trial_index":136,"time_elapsed":935595,"internal_node_id":"0.0-110.0","task_version":"battery-v0.2-trt","session":3},{"rune":"J","rune_set":"bacs2","hex":"#f73b6a7A","correct":-1,"choice":-1,"rt":-1,"accuracy":1,"outcome":"-10","keys":[],"total_keys":0,"block":1,"trial":106,"stimulus":11,"robot":4,"valence":"lose","action":"no-go","sham":1,"trial_type":"pit-trial","trial_index":137,"time_elapsed":939601,"internal_node_id":"0.0-111.0","task_version":"battery-v0.2-trt","session":3},{"rune":"Z","rune_set":"bacs2","hex":"#3366ff99","correct":32,"choice":32,"rt":723.3349999878556,"accuracy":1,"outcome":"+10","keys":[2227.9299999936484],"total_keys":1,"block":1,"trial":107,"stimulus":8,"robot":1,"valence":"win","action":"go","sham":0,"trial_type":"pit-trial","trial_index":138,"time_elapsed":943039,"internal_node_id":"0.0-112.0","task_version":"battery-v0.2-trt","session":3},{"rune":"X","rune_set":"bacs2","hex":"#3366ff99","correct":-1,"choice":-1,"rt":-1,"accuracy":1,"outcome":"+10","keys":[],"total_keys":0,"block":1,"trial":108,"stimulus":9,"robot":2,"valence":"win","action":"no-go","sham":0,"trial_type":"pit-trial","trial_index":139,"time_elapsed":947050,"internal_node_id":"0.0-113.0","task_version":"battery-v0.2-trt","session":3},{"rune":"Z","rune_set":"bacs2","hex":"#3366ff99","correct":32,"choice":32,"rt":699.4800000102259,"accuracy":1,"outcome":"+10","keys":[2200.539999990724],"total_keys":1,"block":1,"trial":109,"stimulus":8,"robot":1,"valence":"win","action":"go","sham":0,"trial_type":"pit-trial","trial_index":140,"time_elapsed":950458,"internal_node_id":"0.0-114.0","task_version":"battery-v0.2-trt","session":3},{"rune":"X","rune_set":"bacs2","hex":"#3366ff99","correct":-1,"choice":32,"rt":1187.3350000241771,"accuracy":0,"outcome":"+1","keys":[2690.325000032317],"total_keys":1,"block":1,"trial":110,"stimulus":9,"robot":2,"valence":"win","action":"no-go","sham":0,"trial_type":"pit-trial","trial_index":141,"time_elapsed":954358,"internal_node_id":"0.0-115.0","task_version":"battery-v0.2-trt","session":3},{"rune":"W","rune_set":"bacs2","hex":"#f73b6a7A","correct":32,"choice":32,"rt":747.2099999431521,"accuracy":1,"outcome":"-1","keys":[2250.3299999516457],"total_keys":1,"block":1,"trial":111,"stimulus":10,"robot":3,"valence":"lose","action":"go","sham":0,"trial_type":"pit-trial","trial_index":142,"time_elapsed":957812,"internal_node_id":"0.0-116.0","task_version":"battery-v0.2-trt","session":3},{"rune":"J","rune_set":"bacs2","hex":"#f73b6a7A","correct":-1,"choice":-1,"rt":-1,"accuracy":1,"outcome":"-1","keys":[],"total_keys":0,"block":1,"trial":112,"stimulus":11,"robot":4,"valence":"lose","action":"no-go","sham":0,"trial_type":"pit-trial","trial_index":143,"time_elapsed":961824,"internal_node_id":"0.0-117.0","task_version":"battery-v0.2-trt","session":3},{"rune":"W","rune_set":"bacs2","hex":"#f73b6a7A","correct":32,"choice":32,"rt":679.8149999813177,"accuracy":1,"outcome":"-1","keys":[2181.700000015553],"total_keys":1,"block":1,"trial":113,"stimulus":10,"robot":3,"valence":"lose","action":"go","sham":0,"trial_type":"pit-trial","trial_index":144,"time_elapsed":965209,"internal_node_id":"0.0-118.0","task_version":"battery-v0.2-trt","session":3},{"rune":"Z","rune_set":"bacs2","hex":"#3366ff99","correct":32,"choice":32,"rt":1004.3949999962933,"accuracy":1,"outcome":"+10","keys":[2508.57999996515],"total_keys":1,"block":1,"trial":114,"stimulus":8,"robot":1,"valence":"win","action":"go","sham":0,"trial_type":"pit-trial","trial_index":145,"time_elapsed":968927,"internal_node_id":"0.0-119.0","task_version":"battery-v0.2-trt","session":3},{"rune":"X","rune_set":"bacs2","hex":"#3366ff99","correct":-1,"choice":-1,"rt":-1,"accuracy":1,"outcome":"+1","keys":[],"total_keys":0,"block":1,"trial":115,"stimulus":9,"robot":2,"valence":"win","action":"no-go","sham":1,"trial_type":"pit-trial","trial_index":146,"time_elapsed":972930,"internal_node_id":"0.0-120.0","task_version":"battery-v0.2-trt","session":3},{"rune":"J","rune_set":"bacs2","hex":"#f73b6a7A","correct":-1,"choice":-1,"rt":-1,"accuracy":1,"outcome":"-1","keys":[],"total_keys":0,"block":1,"trial":116,"stimulus":11,"robot":4,"valence":"lose","action":"no-go","sham":0,"trial_type":"pit-trial","trial_index":147,"time_elapsed":976941,"internal_node_id":"0.0-121.0","task_version":"battery-v0.2-trt","session":3},{"rune":"X","rune_set":"bacs2","hex":"#3366ff99","correct":-1,"choice":32,"rt":896.2900000042282,"accuracy":0,"outcome":"+1","keys":[2396.4150000247173],"total_keys":1,"block":1,"trial":117,"stimulus":9,"robot":2,"valence":"win","action":"no-go","sham":0,"trial_type":"pit-trial","trial_index":148,"time_elapsed":980541,"internal_node_id":"0.0-122.0","task_version":"battery-v0.2-trt","session":3},{"rune":"Z","rune_set":"bacs2","hex":"#3366ff99","correct":32,"choice":32,"rt":583.7849999661557,"accuracy":1,"outcome":"+10","keys":[2089.849999989383],"total_keys":1,"block":1,"trial":118,"stimulus":8,"robot":1,"valence":"win","action":"go","sham":0,"trial_type":"pit-trial","trial_index":149,"time_elapsed":983840,"internal_node_id":"0.0-123.0","task_version":"battery-v0.2-trt","session":3},{"rune":"W","rune_set":"bacs2","hex":"#f73b6a7A","correct":32,"choice":32,"rt":702.579999982845,"accuracy":1,"outcome":"-1","keys":[2207.4049999937415],"total_keys":1,"block":1,"trial":119,"stimulus":10,"robot":3,"valence":"lose","action":"go","sham":0,"trial_type":"pit-trial","trial_index":150,"time_elapsed":987250,"internal_node_id":"0.0-124.0","task_version":"battery-v0.2-trt","session":3},{"rune":"J","rune_set":"bacs2","hex":"#f73b6a7A","correct":-1,"choice":-1,"rt":-1,"accuracy":1,"outcome":"-1","keys":[],"total_keys":0,"block":1,"trial":120,"stimulus":11,"robot":4,"valence":"lose","action":"no-go","sham":0,"trial_type":"pit-trial","trial_index":151,"time_elapsed":991256,"internal_node_id":"0.0-125.0","task_version":"battery-v0.2-trt","session":3},{"view_history":"[{\"page_index\":0,\"viewing_time\":39900.38499998627},{\"page_index\":1,\"viewing_time\":6079.864999977872}]","rt":45980.74999998789,"trial_type":"pit-instructions","trial_index":152,"time_elapsed":1037235,"internal_node_id":"0.0-126.0","task_version":"battery-v0.2-trt","session":3},{"rune":"N","rune_set":"bacs2","hex":"#3366ff99","correct":-1,"choice":32,"rt":704.1849999804981,"accuracy":0,"outcome":"+10","keys":[2209.5599999884143],"total_keys":1,"block":2,"trial":121,"stimulus":0,"robot":2,"valence":"win","action":"no-go","sham":1,"trial_type":"pit-trial","trial_index":153,"time_elapsed":1040650,"internal_node_id":"0.0-127.0","task_version":"battery-v0.2-trt","session":3},{"rune":"A","rune_set":"bacs2","hex":"#3366ff99","correct":32,"choice":-1,"rt":-1,"accuracy":0,"outcome":"+10","keys":[],"total_keys":0,"block":2,"trial":122,"stimulus":2,"robot":1,"valence":"win","action":"go","sham":1,"trial_type":"pit-trial","trial_index":154,"time_elapsed":1044655,"internal_node_id":"0.0-128.0","task_version":"battery-v0.2-trt","session":3},{"rune":"U","rune_set":"bacs2","hex":"#f73b6a7A","correct":32,"choice":-1,"rt":-1,"accuracy":0,"outcome":"-10","keys":[],"total_keys":0,"block":2,"trial":123,"stimulus":3,"robot":3,"valence":"lose","action":"go","sham":0,"trial_type":"pit-trial","trial_index":155,"time_elapsed":1048665,"internal_node_id":"0.0-129.0","task_version":"battery-v0.2-trt","session":3},{"rune":"F","rune_set":"bacs2","hex":"#3366ff99","correct":-1,"choice":32,"rt":795.6600000034086,"accuracy":0,"outcome":"+10","keys":[2297.6699999999255],"total_keys":1,"block":2,"trial":124,"stimulus":1,"robot":2,"valence":"win","action":"no-go","sham":1,"trial_type":"pit-trial","trial_index":156,"time_elapsed":1052172,"internal_node_id":"0.0-130.0","task_version":"battery-v0.2-trt","session":3},{"rune":"N","rune_set":"bacs2","hex":"#3366ff99","correct":-1,"choice":32,"rt":705.4849999840371,"accuracy":0,"outcome":"+1","keys":[2206.410000042524],"total_keys":1,"block":2,"trial":125,"stimulus":0,"robot":2,"valence":"win","action":"no-go","sham":0,"trial_type":"pit-trial","trial_index":157,"time_elapsed":1055593,"internal_node_id":"0.0-131.0","task_version":"battery-v0.2-trt","session":3},{"rune":"F","rune_set":"bacs2","hex":"#3366ff99","correct":-1,"choice":32,"rt":1037.0000000111759,"accuracy":0,"outcome":"+1","keys":[2541.1650000023656],"total_keys":1,"block":2,"trial":126,"stimulus":1,"robot":2,"valence":"win","action":"no-go","sham":0,"trial_type":"pit-trial","trial_index":158,"time_elapsed":1059341,"internal_node_id":"0.0-132.0","task_version":"battery-v0.2-trt","session":3},{"rune":"U","rune_set":"bacs2","hex":"#f73b6a7A","correct":32,"choice":32,"rt":877.3450000444427,"accuracy":1,"outcome":"-1","keys":[2381.0499999672174],"total_keys":1,"block":2,"trial":127,"stimulus":3,"robot":3,"valence":"lose","action":"go","sham":0,"trial_type":"pit-trial","trial_index":159,"time_elapsed":1062930,"internal_node_id":"0.0-133.0","task_version":"battery-v0.2-trt","session":3},{"rune":"A","rune_set":"bacs2","hex":"#3366ff99","correct":32,"choice":-1,"rt":-1,"accuracy":0,"outcome":"+1","keys":[],"total_keys":0,"block":2,"trial":128,"stimulus":2,"robot":1,"valence":"win","action":"go","sham":0,"trial_type":"pit-trial","trial_index":160,"time_elapsed":1066935,"internal_node_id":"0.0-134.0","task_version":"battery-v0.2-trt","session":3},{"rune":"N","rune_set":"bacs2","hex":"#3366ff99","correct":-1,"choice":-1,"rt":-1,"accuracy":1,"outcome":"+10","keys":[],"total_keys":0,"block":2,"trial":129,"stimulus":0,"robot":2,"valence":"win","action":"no-go","sham":0,"trial_type":"pit-trial","trial_index":161,"time_elapsed":1070950,"internal_node_id":"0.0-135.0","task_version":"battery-v0.2-trt","session":3},{"rune":"U","rune_set":"bacs2","hex":"#f73b6a7A","correct":32,"choice":32,"rt":631.630000018049,"accuracy":1,"outcome":"-10","keys":[2133.765000035055],"total_keys":1,"block":2,"trial":130,"stimulus":3,"robot":3,"valence":"lose","action":"go","sham":1,"trial_type":"pit-trial","trial_index":162,"time_elapsed":1074292,"internal_node_id":"0.0-136.0","task_version":"battery-v0.2-trt","session":3},{"rune":"F","rune_set":"bacs2","hex":"#3366ff99","correct":-1,"choice":-1,"rt":-1,"accuracy":1,"outcome":"+10","keys":[],"total_keys":0,"block":2,"trial":131,"stimulus":1,"robot":2,"valence":"win","action":"no-go","sham":0,"trial_type":"pit-trial","trial_index":163,"time_elapsed":1078304,"internal_node_id":"0.0-137.0","task_version":"battery-v0.2-trt","session":3},{"rune":"A","rune_set":"bacs2","hex":"#3366ff99","correct":32,"choice":-1,"rt":-1,"accuracy":0,"outcome":"+1","keys":[],"total_keys":0,"block":2,"trial":132,"stimulus":2,"robot":1,"valence":"win","action":"go","sham":0,"trial_type":"pit-trial","trial_index":164,"time_elapsed":1082315,"internal_node_id":"0.0-138.0","task_version":"battery-v0.2-trt","session":3},{"rune":"A","rune_set":"bacs2","hex":"#3366ff99","correct":32,"choice":32,"rt":652.8099999995902,"accuracy":1,"outcome":"+10","keys":[2154.389999981504],"total_keys":1,"block":2,"trial":133,"stimulus":2,"robot":1,"valence":"win","action":"go","sham":0,"trial_type":"pit-trial","trial_index":165,"time_elapsed":1085679,"internal_node_id":"0.0-139.0","task_version":"battery-v0.2-trt","session":3},{"rune":"N","rune_set":"bacs2","hex":"#3366ff99","correct":-1,"choice":-1,"rt":-1,"accuracy":1,"outcome":"+10","keys":[],"total_keys":0,"block":2,"trial":134,"stimulus":0,"robot":2,"valence":"win","action":"no-go","sham":0,"trial_type":"pit-trial","trial_index":166,"time_elapsed":1089683,"internal_node_id":"0.0-140.0","task_version":"battery-v0.2-trt","session":3},{"rune":"U","rune_set":"bacs2","hex":"#f73b6a7A","correct":32,"choice":32,"rt":630.0000000046566,"accuracy":1,"outcome":"-1","keys":[2133.2149999798276],"total_keys":1,"block":2,"trial":135,"stimulus":3,"robot":3,"valence":"lose","action":"go","sham":0,"trial_type":"pit-trial","trial_index":167,"time_elapsed":1093024,"internal_node_id":"0.0-141.0","task_version":"battery-v0.2-trt","session":3},{"rune":"F","rune_set":"bacs2","hex":"#3366ff99","correct":-1,"choice":-1,"rt":-1,"accuracy":1,"outcome":"+10","keys":[],"total_keys":0,"block":2,"trial":136,"stimulus":1,"robot":2,"valence":"win","action":"no-go","sham":0,"trial_type":"pit-trial","trial_index":168,"time_elapsed":1097043,"internal_node_id":"0.0-142.0","task_version":"battery-v0.2-trt","session":3},{"rune":"A","rune_set":"bacs2","hex":"#3366ff99","correct":32,"choice":32,"rt":1155.869999958668,"accuracy":1,"outcome":"+10","keys":[2659.1299999854527],"total_keys":1,"block":2,"trial":137,"stimulus":2,"robot":1,"valence":"win","action":"go","sham":0,"trial_type":"pit-trial","trial_index":169,"time_elapsed":1100913,"internal_node_id":"0.0-143.0","task_version":"battery-v0.2-trt","session":3},{"rune":"N","rune_set":"bacs2","hex":"#3366ff99","correct":-1,"choice":-1,"rt":-1,"accuracy":1,"outcome":"+10","keys":[],"total_keys":0,"block":2,"trial":138,"stimulus":0,"robot":2,"valence":"win","action":"no-go","sham":0,"trial_type":"pit-trial","trial_index":170,"time_elapsed":1104922,"internal_node_id":"0.0-144.0","task_version":"battery-v0.2-trt","session":3},{"rune":"U","rune_set":"bacs2","hex":"#f73b6a7A","correct":32,"choice":32,"rt":476.69000003952533,"accuracy":1,"outcome":"-1","keys":[1980.2649999619462],"total_keys":1,"block":2,"trial":139,"stimulus":3,"robot":3,"valence":"lose","action":"go","sham":0,"trial_type":"pit-trial","trial_index":171,"time_elapsed":1108111,"internal_node_id":"0.0-145.0","task_version":"battery-v0.2-trt","session":3},{"rune":"F","rune_set":"bacs2","hex":"#3366ff99","correct":-1,"choice":-1,"rt":-1,"accuracy":1,"outcome":"+10","keys":[],"total_keys":0,"block":2,"trial":140,"stimulus":1,"robot":2,"valence":"win","action":"no-go","sham":0,"trial_type":"pit-trial","trial_index":172,"time_elapsed":1112123,"internal_node_id":"0.0-146.0","task_version":"battery-v0.2-trt","session":3},{"rune":"A","rune_set":"bacs2","hex":"#3366ff99","correct":32,"choice":32,"rt":566.4650000398979,"accuracy":1,"outcome":"+10","keys":[2067.665000038687],"total_keys":1,"block":2,"trial":141,"stimulus":2,"robot":1,"valence":"win","action":"go","sham":0,"trial_type":"pit-trial","trial_index":173,"time_elapsed":1115396,"internal_node_id":"0.0-147.0","task_version":"battery-v0.2-trt","session":3},{"rune":"N","rune_set":"bacs2","hex":"#3366ff99","correct":-1,"choice":-1,"rt":-1,"accuracy":1,"outcome":"+10","keys":[],"total_keys":0,"block":2,"trial":142,"stimulus":0,"robot":2,"valence":"win","action":"no-go","sham":0,"trial_type":"pit-trial","trial_index":174,"time_elapsed":1119406,"internal_node_id":"0.0-148.0","task_version":"battery-v0.2-trt","session":3},{"rune":"F","rune_set":"bacs2","hex":"#3366ff99","correct":-1,"choice":-1,"rt":-1,"accuracy":1,"outcome":"+10","keys":[],"total_keys":0,"block":2,"trial":143,"stimulus":1,"robot":2,"valence":"win","action":"no-go","sham":0,"trial_type":"pit-trial","trial_index":175,"time_elapsed":1123417,"internal_node_id":"0.0-149.0","task_version":"battery-v0.2-trt","session":3},{"rune":"U","rune_set":"bacs2","hex":"#f73b6a7A","correct":32,"choice":32,"rt":524.0800000028685,"accuracy":1,"outcome":"-10","keys":[2027.3449999513105],"total_keys":1,"block":2,"trial":144,"stimulus":3,"robot":3,"valence":"lose","action":"go","sham":1,"trial_type":"pit-trial","trial_index":176,"time_elapsed":1126654,"internal_node_id":"0.0-150.0","task_version":"battery-v0.2-trt","session":3},{"rune":"U","rune_set":"bacs2","hex":"#f73b6a7A","correct":32,"choice":32,"rt":846.5250000008382,"accuracy":1,"outcome":"-1","keys":[2349.240000010468],"total_keys":1,"block":2,"trial":145,"stimulus":3,"robot":3,"valence":"lose","action":"go","sham":0,"trial_type":"pit-trial","trial_index":177,"time_elapsed":1130207,"internal_node_id":"0.0-151.0","task_version":"battery-v0.2-trt","session":3},{"rune":"A","rune_set":"bacs2","hex":"#3366ff99","correct":32,"choice":32,"rt":790.6399999628775,"accuracy":1,"outcome":"+10","keys":[2291.4050000254065],"total_keys":1,"block":2,"trial":146,"stimulus":2,"robot":1,"valence":"win","action":"go","sham":0,"trial_type":"pit-trial","trial_index":178,"time_elapsed":1133713,"internal_node_id":"0.0-152.0","task_version":"battery-v0.2-trt","session":3},{"rune":"F","rune_set":"bacs2","hex":"#3366ff99","correct":-1,"choice":-1,"rt":-1,"accuracy":1,"outcome":"+10","keys":[],"total_keys":0,"block":2,"trial":147,"stimulus":1,"robot":2,"valence":"win","action":"no-go","sham":0,"trial_type":"pit-trial","trial_index":179,"time_elapsed":1137725,"internal_node_id":"0.0-153.0","task_version":"battery-v0.2-trt","session":3},{"rune":"N","rune_set":"bacs2","hex":"#3366ff99","correct":-1,"choice":-1,"rt":-1,"accuracy":1,"outcome":"+10","keys":[],"total_keys":0,"block":2,"trial":148,"stimulus":0,"robot":2,"valence":"win","action":"no-go","sham":0,"trial_type":"pit-trial","trial_index":180,"time_elapsed":1141735,"internal_node_id":"0.0-154.0","task_version":"battery-v0.2-trt","session":3},{"rune":"U","rune_set":"bacs2","hex":"#f73b6a7A","correct":32,"choice":32,"rt":669.8050000122748,"accuracy":1,"outcome":"-1","keys":[2171.779999975115],"total_keys":1,"block":2,"trial":149,"stimulus":3,"robot":3,"valence":"lose","action":"go","sham":0,"trial_type":"pit-trial","trial_index":181,"time_elapsed":1145109,"internal_node_id":"0.0-155.0","task_version":"battery-v0.2-trt","session":3},{"rune":"A","rune_set":"bacs2","hex":"#3366ff99","correct":32,"choice":32,"rt":521.5050000115298,"accuracy":1,"outcome":"+10","keys":[2023.1650000205263],"total_keys":1,"block":2,"trial":150,"stimulus":2,"robot":1,"valence":"win","action":"go","sham":0,"trial_type":"pit-trial","trial_index":182,"time_elapsed":1148339,"internal_node_id":"0.0-156.0","task_version":"battery-v0.2-trt","session":3},{"rune":"N","rune_set":"bacs2","hex":"#3366ff99","correct":-1,"choice":-1,"rt":-1,"accuracy":1,"outcome":"+10","keys":[],"total_keys":0,"block":2,"trial":151,"stimulus":0,"robot":2,"valence":"win","action":"no-go","sham":0,"trial_type":"pit-trial","trial_index":183,"time_elapsed":1152359,"internal_node_id":"0.0-157.0","task_version":"battery-v0.2-trt","session":3},{"rune":"F","rune_set":"bacs2","hex":"#3366ff99","correct":-1,"choice":-1,"rt":-1,"accuracy":1,"outcome":"+10","keys":[],"total_keys":0,"block":2,"trial":152,"stimulus":1,"robot":2,"valence":"win","action":"no-go","sham":0,"trial_type":"pit-trial","trial_index":184,"time_elapsed":1156369,"internal_node_id":"0.0-158.0","task_version":"battery-v0.2-trt","session":3},{"rune":"S","rune_set":"bacs2","hex":"#f73b6a7A","correct":-1,"choice":32,"rt":882.6300000073388,"accuracy":0,"outcome":"-10","keys":[2382.9050000058487],"total_keys":1,"block":2,"trial":153,"stimulus":4,"robot":4,"valence":"lose","action":"no-go","sham":0,"trial_type":"pit-trial","trial_index":185,"time_elapsed":1159954,"internal_node_id":"0.0-159.0","task_version":"battery-v0.2-trt","session":3},{"rune":"A","rune_set":"bacs2","hex":"#3366ff99","correct":32,"choice":32,"rt":639.8599999956787,"accuracy":1,"outcome":"+1","keys":[2143.4749999898486],"total_keys":1,"block":2,"trial":154,"stimulus":2,"robot":1,"valence":"win","action":"go","sham":1,"trial_type":"pit-trial","trial_index":186,"time_elapsed":1163303,"internal_node_id":"0.0-160.0","task_version":"battery-v0.2-trt","session":3},{"rune":"L","rune_set":"bacs2","hex":"#f73b6a7A","correct":32,"choice":-1,"rt":-1,"accuracy":0,"outcome":"-10","keys":[],"total_keys":0,"block":2,"trial":155,"stimulus":5,"robot":3,"valence":"lose","action":"go","sham":0,"trial_type":"pit-trial","trial_index":187,"time_elapsed":1167315,"internal_node_id":"0.0-161.0","task_version":"battery-v0.2-trt","session":3},{"rune":"N","rune_set":"bacs2","hex":"#3366ff99","correct":-1,"choice":-1,"rt":-1,"accuracy":1,"outcome":"+10","keys":[],"total_keys":0,"block":2,"trial":156,"stimulus":0,"robot":2,"valence":"win","action":"no-go","sham":0,"trial_type":"pit-trial","trial_index":188,"time_elapsed":1171333,"internal_node_id":"0.0-162.0","task_version":"battery-v0.2-trt","session":3},{"rune":"L","rune_set":"bacs2","hex":"#f73b6a7A","correct":32,"choice":32,"rt":958.2800000207499,"accuracy":1,"outcome":"-1","keys":[2461.5299999713898],"total_keys":1,"block":2,"trial":157,"stimulus":5,"robot":3,"valence":"lose","action":"go","sham":0,"trial_type":"pit-trial","trial_index":189,"time_elapsed":1175004,"internal_node_id":"0.0-163.0","task_version":"battery-v0.2-trt","session":3},{"rune":"N","rune_set":"bacs2","hex":"#3366ff99","correct":-1,"choice":-1,"rt":-1,"accuracy":1,"outcome":"+10","keys":[],"total_keys":0,"block":2,"trial":158,"stimulus":0,"robot":2,"valence":"win","action":"no-go","sham":0,"trial_type":"pit-trial","trial_index":190,"time_elapsed":1179021,"internal_node_id":"0.0-164.0","task_version":"battery-v0.2-trt","session":3},{"rune":"S","rune_set":"bacs2","hex":"#f73b6a7A","correct":-1,"choice":32,"rt":924.6099999872968,"accuracy":0,"outcome":"-10","keys":[2428.3850000356324],"total_keys":1,"block":2,"trial":159,"stimulus":4,"robot":4,"valence":"lose","action":"no-go","sham":0,"trial_type":"pit-trial","trial_index":191,"time_elapsed":1182658,"internal_node_id":"0.0-165.0","task_version":"battery-v0.2-trt","session":3},{"rune":"A","rune_set":"bacs2","hex":"#3366ff99","correct":32,"choice":32,"rt":561.4449999993667,"accuracy":1,"outcome":"+10","keys":[2066.0700000007637],"total_keys":1,"block":2,"trial":160,"stimulus":2,"robot":1,"valence":"win","action":"go","sham":0,"trial_type":"pit-trial","trial_index":192,"time_elapsed":1185942,"internal_node_id":"0.0-166.0","task_version":"battery-v0.2-trt","session":3},{"rune":"S","rune_set":"bacs2","hex":"#f73b6a7A","correct":-1,"choice":32,"rt":882.2849999996834,"accuracy":0,"outcome":"-1","keys":[2383.434999966994],"total_keys":1,"block":2,"trial":161,"stimulus":4,"robot":4,"valence":"lose","action":"no-go","sham":1,"trial_type":"pit-trial","trial_index":193,"time_elapsed":1189535,"internal_node_id":"0.0-167.0","task_version":"battery-v0.2-trt","session":3},{"rune":"A","rune_set":"bacs2","hex":"#3366ff99","correct":32,"choice":32,"rt":632.5049999868497,"accuracy":1,"outcome":"+10","keys":[2134.729999990668],"total_keys":1,"block":2,"trial":162,"stimulus":2,"robot":1,"valence":"win","action":"go","sham":0,"trial_type":"pit-trial","trial_index":194,"time_elapsed":1192876,"internal_node_id":"0.0-168.0","task_version":"battery-v0.2-trt","session":3},{"rune":"P","rune_set":"bacs2","hex":"#3366ff99","correct":-1,"choice":32,"rt":1029.1050000232644,"accuracy":0,"outcome":"+1","keys":[2531.3000000314787],"total_keys":1,"block":2,"trial":163,"stimulus":6,"robot":2,"valence":"win","action":"no-go","sham":0,"trial_type":"pit-trial","trial_index":195,"time_elapsed":1196613,"internal_node_id":"0.0-169.0","task_version":"battery-v0.2-trt","session":3},{"rune":"L","rune_set":"bacs2","hex":"#f73b6a7A","correct":32,"choice":-1,"rt":-1,"accuracy":0,"outcome":"-10","keys":[2820.6600000266917],"total_keys":1,"block":2,"trial":164,"stimulus":5,"robot":3,"valence":"lose","action":"go","sham":0,"trial_type":"pit-trial","trial_index":196,"time_elapsed":1200622,"internal_node_id":"0.0-170.0","task_version":"battery-v0.2-trt","session":3},{"rune":"A","rune_set":"bacs2","hex":"#3366ff99","correct":32,"choice":32,"rt":591.8650000239722,"accuracy":1,"outcome":"+10","keys":[2094.534999981988],"total_keys":1,"block":2,"trial":165,"stimulus":2,"robot":1,"valence":"win","action":"go","sham":0,"trial_type":"pit-trial","trial_index":197,"time_elapsed":1203919,"internal_node_id":"0.0-171.0","task_version":"battery-v0.2-trt","session":3},{"rune":"S","rune_set":"bacs2","hex":"#f73b6a7A","correct":-1,"choice":32,"rt":910.5550000094809,"accuracy":0,"outcome":"-10","keys":[2414.290000044275],"total_keys":1,"block":2,"trial":166,"stimulus":4,"robot":4,"valence":"lose","action":"no-go","sham":0,"trial_type":"pit-trial","trial_index":198,"time_elapsed":1207539,"internal_node_id":"0.0-172.0","task_version":"battery-v0.2-trt","session":3},{"rune":"P","rune_set":"bacs2","hex":"#3366ff99","correct":-1,"choice":32,"rt":1213.5899999993853,"accuracy":0,"outcome":"+10","keys":[2713.8799999956973],"total_keys":1,"block":2,"trial":167,"stimulus":6,"robot":2,"valence":"win","action":"no-go","sham":1,"trial_type":"pit-trial","trial_index":199,"time_elapsed":1211459,"internal_node_id":"0.0-173.0","task_version":"battery-v0.2-trt","session":3},{"rune":"L","rune_set":"bacs2","hex":"#f73b6a7A","correct":32,"choice":-1,"rt":-1,"accuracy":0,"outcome":"-10","keys":[],"total_keys":0,"block":2,"trial":168,"stimulus":5,"robot":3,"valence":"lose","action":"go","sham":0,"trial_type":"pit-trial","trial_index":200,"time_elapsed":1215475,"internal_node_id":"0.0-174.0","task_version":"battery-v0.2-trt","session":3},{"rune":"P","rune_set":"bacs2","hex":"#3366ff99","correct":-1,"choice":32,"rt":856.8150000064634,"accuracy":0,"outcome":"+1","keys":[2363.370000035502],"total_keys":1,"block":2,"trial":169,"stimulus":6,"robot":2,"valence":"win","action":"no-go","sham":0,"trial_type":"pit-trial","trial_index":201,"time_elapsed":1219049,"internal_node_id":"0.0-175.0","task_version":"battery-v0.2-trt","session":3},{"rune":"R","rune_set":"bacs2","hex":"#f73b6a7A","correct":-1,"choice":32,"rt":912.949999968987,"accuracy":0,"outcome":"-10","keys":[2413.624999986496],"total_keys":1,"block":2,"trial":170,"stimulus":7,"robot":4,"valence":"lose","action":"no-go","sham":0,"trial_type":"pit-trial","trial_index":202,"time_elapsed":1222669,"internal_node_id":"0.0-176.0","task_version":"battery-v0.2-trt","session":3},{"rune":"S","rune_set":"bacs2","hex":"#f73b6a7A","correct":-1,"choice":-1,"rt":-1,"accuracy":1,"outcome":"-10","keys":[],"total_keys":0,"block":2,"trial":171,"stimulus":4,"robot":4,"valence":"lose","action":"no-go","sham":1,"trial_type":"pit-trial","trial_index":203,"time_elapsed":1226683,"internal_node_id":"0.0-177.0","task_version":"battery-v0.2-trt","session":3},{"rune":"L","rune_set":"bacs2","hex":"#f73b6a7A","correct":32,"choice":32,"rt":925.4750000545755,"accuracy":1,"outcome":"-1","keys":[2427.659999986645],"total_keys":1,"block":2,"trial":172,"stimulus":5,"robot":3,"valence":"lose","action":"go","sham":0,"trial_type":"pit-trial","trial_index":204,"time_elapsed":1230320,"internal_node_id":"0.0-178.0","task_version":"battery-v0.2-trt","session":3},{"rune":"L","rune_set":"bacs2","hex":"#f73b6a7A","correct":32,"choice":32,"rt":929.9899999750778,"accuracy":1,"outcome":"-10","keys":[2430.9699999867007],"total_keys":1,"block":2,"trial":173,"stimulus":5,"robot":3,"valence":"lose","action":"go","sham":1,"trial_type":"pit-trial","trial_index":205,"time_elapsed":1233961,"internal_node_id":"0.0-179.0","task_version":"battery-v0.2-trt","session":3},{"rune":"P","rune_set":"bacs2","hex":"#3366ff99","correct":-1,"choice":-1,"rt":-1,"accuracy":1,"outcome":"+1","keys":[],"total_keys":0,"block":2,"trial":174,"stimulus":6,"robot":2,"valence":"win","action":"no-go","sham":1,"trial_type":"pit-trial","trial_index":206,"time_elapsed":1237980,"internal_node_id":"0.0-180.0","task_version":"battery-v0.2-trt","session":3},{"rune":"S","rune_set":"bacs2","hex":"#f73b6a7A","correct":-1,"choice":32,"rt":1082.5149999582209,"accuracy":0,"outcome":"-10","keys":[2584.0499999467283],"total_keys":1,"block":2,"trial":175,"stimulus":4,"robot":4,"valence":"lose","action":"no-go","sham":0,"trial_type":"pit-trial","trial_index":207,"time_elapsed":1241769,"internal_node_id":"0.0-181.0","task_version":"battery-v0.2-trt","session":3},{"rune":"R","rune_set":"bacs2","hex":"#f73b6a7A","correct":-1,"choice":-1,"rt":-1,"accuracy":1,"outcome":"-1","keys":[],"total_keys":0,"block":2,"trial":176,"stimulus":7,"robot":4,"valence":"lose","action":"no-go","sham":0,"trial_type":"pit-trial","trial_index":208,"time_elapsed":1245781,"internal_node_id":"0.0-182.0","task_version":"battery-v0.2-trt","session":3},{"rune":"P","rune_set":"bacs2","hex":"#3366ff99","correct":-1,"choice":-1,"rt":-1,"accuracy":1,"outcome":"+10","keys":[],"total_keys":0,"block":2,"trial":177,"stimulus":6,"robot":2,"valence":"win","action":"no-go","sham":0,"trial_type":"pit-trial","trial_index":209,"time_elapsed":1249790,"internal_node_id":"0.0-183.0","task_version":"battery-v0.2-trt","session":3},{"rune":"R","rune_set":"bacs2","hex":"#f73b6a7A","correct":-1,"choice":-1,"rt":-1,"accuracy":1,"outcome":"-1","keys":[],"total_keys":0,"block":2,"trial":178,"stimulus":7,"robot":4,"valence":"lose","action":"no-go","sham":0,"trial_type":"pit-trial","trial_index":210,"time_elapsed":1253816,"internal_node_id":"0.0-184.0","task_version":"battery-v0.2-trt","session":3},{"rune":"S","rune_set":"bacs2","hex":"#f73b6a7A","correct":-1,"choice":-1,"rt":-1,"accuracy":1,"outcome":"-10","keys":[],"total_keys":0,"block":2,"trial":179,"stimulus":4,"robot":4,"valence":"lose","action":"no-go","sham":1,"trial_type":"pit-trial","trial_index":211,"time_elapsed":1257826,"internal_node_id":"0.0-185.0","task_version":"battery-v0.2-trt","session":3},{"rune":"L","rune_set":"bacs2","hex":"#f73b6a7A","correct":32,"choice":32,"rt":804.3049999978393,"accuracy":1,"outcome":"-1","keys":[2308.4300000336953],"total_keys":1,"block":2,"trial":180,"stimulus":5,"robot":3,"valence":"lose","action":"go","sham":0,"trial_type":"pit-trial","trial_index":212,"time_elapsed":1261344,"internal_node_id":"0.0-186.0","task_version":"battery-v0.2-trt","session":3},{"rune":"R","rune_set":"bacs2","hex":"#f73b6a7A","correct":-1,"choice":-1,"rt":-1,"accuracy":1,"outcome":"-1","keys":[2829.92499996908],"total_keys":1,"block":2,"trial":181,"stimulus":7,"robot":4,"valence":"lose","action":"no-go","sham":0,"trial_type":"pit-trial","trial_index":213,"time_elapsed":1265352,"internal_node_id":"0.0-187.0","task_version":"battery-v0.2-trt","session":3},{"rune":"L","rune_set":"bacs2","hex":"#f73b6a7A","correct":32,"choice":-1,"rt":-1,"accuracy":0,"outcome":"-10","keys":[],"total_keys":0,"block":2,"trial":182,"stimulus":5,"robot":3,"valence":"lose","action":"go","sham":0,"trial_type":"pit-trial","trial_index":214,"time_elapsed":1269358,"internal_node_id":"0.0-188.0","task_version":"battery-v0.2-trt","session":3},{"rune":"S","rune_set":"bacs2","hex":"#f73b6a7A","correct":-1,"choice":-1,"rt":-1,"accuracy":1,"outcome":"-1","keys":[],"total_keys":0,"block":2,"trial":183,"stimulus":4,"robot":4,"valence":"lose","action":"no-go","sham":0,"trial_type":"pit-trial","trial_index":215,"time_elapsed":1273369,"internal_node_id":"0.0-189.0","task_version":"battery-v0.2-trt","session":3},{"rune":"P","rune_set":"bacs2","hex":"#3366ff99","correct":-1,"choice":32,"rt":1220.1449999702163,"accuracy":0,"outcome":"+1","keys":[2725.5500000319444],"total_keys":1,"block":2,"trial":184,"stimulus":6,"robot":2,"valence":"win","action":"no-go","sham":0,"trial_type":"pit-trial","trial_index":216,"time_elapsed":1277305,"internal_node_id":"0.0-190.0","task_version":"battery-v0.2-trt","session":3},{"rune":"L","rune_set":"bacs2","hex":"#f73b6a7A","correct":32,"choice":32,"rt":1034.5350000425242,"accuracy":1,"outcome":"-1","keys":[2536.9300000020303],"total_keys":1,"block":2,"trial":185,"stimulus":5,"robot":3,"valence":"lose","action":"go","sham":0,"trial_type":"pit-trial","trial_index":217,"time_elapsed":1281049,"internal_node_id":"0.0-191.0","task_version":"battery-v0.2-trt","session":3},{"rune":"S","rune_set":"bacs2","hex":"#f73b6a7A","correct":-1,"choice":-1,"rt":-1,"accuracy":1,"outcome":"-1","keys":[],"total_keys":0,"block":2,"trial":186,"stimulus":4,"robot":4,"valence":"lose","action":"no-go","sham":0,"trial_type":"pit-trial","trial_index":218,"time_elapsed":1285060,"internal_node_id":"0.0-192.0","task_version":"battery-v0.2-trt","session":3},{"rune":"P","rune_set":"bacs2","hex":"#3366ff99","correct":-1,"choice":32,"rt":675.7050000014715,"accuracy":0,"outcome":"+1","keys":[2180.8450000244193],"total_keys":1,"block":2,"trial":187,"stimulus":6,"robot":2,"valence":"win","action":"no-go","sham":0,"trial_type":"pit-trial","trial_index":219,"time_elapsed":1288445,"internal_node_id":"0.0-193.0","task_version":"battery-v0.2-trt","session":3},{"rune":"R","rune_set":"bacs2","hex":"#f73b6a7A","correct":-1,"choice":-1,"rt":-1,"accuracy":1,"outcome":"-1","keys":[],"total_keys":0,"block":2,"trial":188,"stimulus":7,"robot":4,"valence":"lose","action":"no-go","sham":0,"trial_type":"pit-trial","trial_index":220,"time_elapsed":1292460,"internal_node_id":"0.0-194.0","task_version":"battery-v0.2-trt","session":3},{"rune":"L","rune_set":"bacs2","hex":"#f73b6a7A","correct":32,"choice":-1,"rt":-1,"accuracy":0,"outcome":"-10","keys":[],"total_keys":0,"block":2,"trial":189,"stimulus":5,"robot":3,"valence":"lose","action":"go","sham":0,"trial_type":"pit-trial","trial_index":221,"time_elapsed":1296482,"internal_node_id":"0.0-195.0","task_version":"battery-v0.2-trt","session":3},{"rune":"R","rune_set":"bacs2","hex":"#f73b6a7A","correct":-1,"choice":32,"rt":1020.7450000452809,"accuracy":0,"outcome":"-1","keys":[2521.145000006072],"total_keys":1,"block":2,"trial":190,"stimulus":7,"robot":4,"valence":"lose","action":"no-go","sham":1,"trial_type":"pit-trial","trial_index":222,"time_elapsed":1300211,"internal_node_id":"0.0-196.0","task_version":"battery-v0.2-trt","session":3},{"rune":"P","rune_set":"bacs2","hex":"#3366ff99","correct":-1,"choice":32,"rt":794.545000011567,"accuracy":0,"outcome":"+10","keys":[2295.0199999613687],"total_keys":1,"block":2,"trial":191,"stimulus":6,"robot":2,"valence":"win","action":"no-go","sham":1,"trial_type":"pit-trial","trial_index":223,"time_elapsed":1303709,"internal_node_id":"0.0-197.0","task_version":"battery-v0.2-trt","session":3},{"rune":"S","rune_set":"bacs2","hex":"#f73b6a7A","correct":-1,"choice":32,"rt":829.5950000174344,"accuracy":0,"outcome":"-10","keys":[2335.350000008475],"total_keys":1,"block":2,"trial":192,"stimulus":4,"robot":4,"valence":"lose","action":"no-go","sham":0,"trial_type":"pit-trial","trial_index":224,"time_elapsed":1307248,"internal_node_id":"0.0-198.0","task_version":"battery-v0.2-trt","session":3},{"rune":"L","rune_set":"bacs2","hex":"#f73b6a7A","correct":32,"choice":32,"rt":767.035000026226,"accuracy":1,"outcome":"-10","keys":[2269.2600000300445],"total_keys":1,"block":2,"trial":193,"stimulus":5,"robot":3,"valence":"lose","action":"go","sham":1,"trial_type":"pit-trial","trial_index":225,"time_elapsed":1310727,"internal_node_id":"0.0-199.0","task_version":"battery-v0.2-trt","session":3},{"rune":"V","rune_set":"bacs2","hex":"#f73b6a7A","correct":-1,"choice":-1,"rt":-1,"accuracy":1,"outcome":"-1","keys":[],"total_keys":0,"block":2,"trial":194,"stimulus":8,"robot":4,"valence":"lose","action":"no-go","sham":0,"trial_type":"pit-trial","trial_index":226,"time_elapsed":1314748,"internal_node_id":"0.0-200.0","task_version":"battery-v0.2-trt","session":3},{"rune":"R","rune_set":"bacs2","hex":"#f73b6a7A","correct":-1,"choice":32,"rt":963.5250000283122,"accuracy":0,"outcome":"-10","keys":[2464.395000017248],"total_keys":1,"block":2,"trial":195,"stimulus":7,"robot":4,"valence":"lose","action":"no-go","sham":0,"trial_type":"pit-trial","trial_index":227,"time_elapsed":1318419,"internal_node_id":"0.0-201.0","task_version":"battery-v0.2-trt","session":3},{"rune":"P","rune_set":"bacs2","hex":"#3366ff99","correct":-1,"choice":-1,"rt":-1,"accuracy":1,"outcome":"+10","keys":[],"total_keys":0,"block":2,"trial":196,"stimulus":6,"robot":2,"valence":"win","action":"no-go","sham":0,"trial_type":"pit-trial","trial_index":228,"time_elapsed":1322431,"internal_node_id":"0.0-202.0","task_version":"battery-v0.2-trt","session":3},{"rune":"V","rune_set":"bacs2","hex":"#f73b6a7A","correct":-1,"choice":-1,"rt":-1,"accuracy":1,"outcome":"-10","keys":[],"total_keys":0,"block":2,"trial":197,"stimulus":8,"robot":4,"valence":"lose","action":"no-go","sham":1,"trial_type":"pit-trial","trial_index":229,"time_elapsed":1326435,"internal_node_id":"0.0-203.0","task_version":"battery-v0.2-trt","session":3},{"rune":"P","rune_set":"bacs2","hex":"#3366ff99","correct":-1,"choice":32,"rt":1285.8800000394695,"accuracy":0,"outcome":"+1","keys":[2788.219999987632],"total_keys":1,"block":2,"trial":198,"stimulus":6,"robot":2,"valence":"win","action":"no-go","sham":0,"trial_type":"pit-trial","trial_index":230,"time_elapsed":1330429,"internal_node_id":"0.0-204.0","task_version":"battery-v0.2-trt","session":3},{"rune":"R","rune_set":"bacs2","hex":"#f73b6a7A","correct":-1,"choice":32,"rt":807.630000053905,"accuracy":0,"outcome":"-10","keys":[2309.8149999859743],"total_keys":1,"block":2,"trial":199,"stimulus":7,"robot":4,"valence":"lose","action":"no-go","sham":0,"trial_type":"pit-trial","trial_index":231,"time_elapsed":1333942,"internal_node_id":"0.0-205.0","task_version":"battery-v0.2-trt","session":3},{"rune":"L","rune_set":"bacs2","hex":"#f73b6a7A","correct":32,"choice":-1,"rt":-1,"accuracy":0,"outcome":"-10","keys":[],"total_keys":0,"block":2,"trial":200,"stimulus":5,"robot":3,"valence":"lose","action":"go","sham":0,"trial_type":"pit-trial","trial_index":232,"time_elapsed":1337955,"internal_node_id":"0.0-206.0","task_version":"battery-v0.2-trt","session":3},{"rune":"K","rune_set":"bacs2","hex":"#3366ff99","correct":32,"choice":32,"rt":912.5699999858625,"accuracy":1,"outcome":"+1","keys":[2414.7349999984726],"total_keys":1,"block":2,"trial":201,"stimulus":9,"robot":1,"valence":"win","action":"go","sham":1,"trial_type":"pit-trial","trial_index":233,"time_elapsed":1341573,"internal_node_id":"0.0-207.0","task_version":"battery-v0.2-trt","session":3},{"rune":"P","rune_set":"bacs2","hex":"#3366ff99","correct":-1,"choice":32,"rt":885.3949999902397,"accuracy":0,"outcome":"+1","keys":[2386.5550000336953],"total_keys":1,"block":2,"trial":202,"stimulus":6,"robot":2,"valence":"win","action":"no-go","sham":0,"trial_type":"pit-trial","trial_index":234,"time_elapsed":1345169,"internal_node_id":"0.0-208.0","task_version":"battery-v0.2-trt","session":3},{"rune":"B","rune_set":"bacs2","hex":"#f73b6a7A","correct":32,"choice":-1,"rt":-1,"accuracy":0,"outcome":"-10","keys":[],"total_keys":0,"block":2,"trial":203,"stimulus":10,"robot":3,"valence":"lose","action":"go","sham":0,"trial_type":"pit-trial","trial_index":235,"time_elapsed":1349175,"internal_node_id":"0.0-209.0","task_version":"battery-v0.2-trt","session":3},{"rune":"V","rune_set":"bacs2","hex":"#f73b6a7A","correct":-1,"choice":32,"rt":769.0000000293367,"accuracy":0,"outcome":"-10","keys":[2272.3799999803305],"total_keys":1,"block":2,"trial":204,"stimulus":8,"robot":4,"valence":"lose","action":"no-go","sham":0,"trial_type":"pit-trial","trial_index":236,"time_elapsed":1352663,"internal_node_id":"0.0-210.0","task_version":"battery-v0.2-trt","session":3},{"rune":"V","rune_set":"bacs2","hex":"#f73b6a7A","correct":-1,"choice":-1,"rt":-1,"accuracy":1,"outcome":"-1","keys":[],"total_keys":0,"block":2,"trial":205,"stimulus":8,"robot":4,"valence":"lose","action":"no-go","sham":0,"trial_type":"pit-trial","trial_index":237,"time_elapsed":1356669,"internal_node_id":"0.0-211.0","task_version":"battery-v0.2-trt","session":3},{"rune":"P","rune_set":"bacs2","hex":"#3366ff99","correct":-1,"choice":-1,"rt":-1,"accuracy":1,"outcome":"+10","keys":[],"total_keys":0,"block":2,"trial":206,"stimulus":6,"robot":2,"valence":"win","action":"no-go","sham":0,"trial_type":"pit-trial","trial_index":238,"time_elapsed":1360689,"internal_node_id":"0.0-212.0","task_version":"battery-v0.2-trt","session":3},{"rune":"B","rune_set":"bacs2","hex":"#f73b6a7A","correct":32,"choice":-1,"rt":-1,"accuracy":0,"outcome":"-10","keys":[],"total_keys":0,"block":2,"trial":207,"stimulus":10,"robot":3,"valence":"lose","action":"go","sham":0,"trial_type":"pit-trial","trial_index":239,"time_elapsed":1364708,"internal_node_id":"0.0-213.0","task_version":"battery-v0.2-trt","session":3},{"rune":"K","rune_set":"bacs2","hex":"#3366ff99","correct":32,"choice":32,"rt":918.0250000208616,"accuracy":1,"outcome":"+10","keys":[2420.644999947399],"total_keys":1,"block":2,"trial":208,"stimulus":9,"robot":1,"valence":"win","action":"go","sham":0,"trial_type":"pit-trial","trial_index":240,"time_elapsed":1368337,"internal_node_id":"0.0-214.0","task_version":"battery-v0.2-trt","session":3},{"rune":"K","rune_set":"bacs2","hex":"#3366ff99","correct":32,"choice":32,"rt":823.7049999879673,"accuracy":1,"outcome":"+10","keys":[2327.6649999897927],"total_keys":1,"block":2,"trial":209,"stimulus":9,"robot":1,"valence":"win","action":"go","sham":0,"trial_type":"pit-trial","trial_index":241,"time_elapsed":1371868,"internal_node_id":"0.0-215.0","task_version":"battery-v0.2-trt","session":3},{"rune":"B","rune_set":"bacs2","hex":"#f73b6a7A","correct":32,"choice":-1,"rt":-1,"accuracy":0,"outcome":"-10","keys":[],"total_keys":0,"block":2,"trial":210,"stimulus":10,"robot":3,"valence":"lose","action":"go","sham":0,"trial_type":"pit-trial","trial_index":242,"time_elapsed":1375879,"internal_node_id":"0.0-216.0","task_version":"battery-v0.2-trt","session":3},{"rune":"M","rune_set":"bacs2","hex":"#3366ff99","correct":32,"choice":32,"rt":872.4200000287965,"accuracy":1,"outcome":"+1","keys":[2372.849999985192],"total_keys":1,"block":2,"trial":211,"stimulus":11,"robot":1,"valence":"win","action":"go","sham":1,"trial_type":"pit-trial","trial_index":243,"time_elapsed":1379459,"internal_node_id":"0.0-217.0","task_version":"battery-v0.2-trt","session":3},{"rune":"V","rune_set":"bacs2","hex":"#f73b6a7A","correct":-1,"choice":-1,"rt":-1,"accuracy":1,"outcome":"-1","keys":[],"total_keys":0,"block":2,"trial":212,"stimulus":8,"robot":4,"valence":"lose","action":"no-go","sham":0,"trial_type":"pit-trial","trial_index":244,"time_elapsed":1383471,"internal_node_id":"0.0-218.0","task_version":"battery-v0.2-trt","session":3},{"rune":"V","rune_set":"bacs2","hex":"#f73b6a7A","correct":-1,"choice":-1,"rt":-1,"accuracy":1,"outcome":"-1","keys":[],"total_keys":0,"block":2,"trial":213,"stimulus":8,"robot":4,"valence":"lose","action":"no-go","sham":0,"trial_type":"pit-trial","trial_index":245,"time_elapsed":1387482,"internal_node_id":"0.0-219.0","task_version":"battery-v0.2-trt","session":3},{"rune":"B","rune_set":"bacs2","hex":"#f73b6a7A","correct":32,"choice":32,"rt":915.0000000372529,"accuracy":1,"outcome":"-1","keys":[2416.890000051353],"total_keys":1,"block":2,"trial":214,"stimulus":10,"robot":3,"valence":"lose","action":"go","sham":0,"trial_type":"pit-trial","trial_index":246,"time_elapsed":1391102,"internal_node_id":"0.0-220.0","task_version":"battery-v0.2-trt","session":3},{"rune":"K","rune_set":"bacs2","hex":"#3366ff99","correct":32,"choice":32,"rt":768.1900000316091,"accuracy":1,"outcome":"+1","keys":[2270.9150000009686],"total_keys":1,"block":2,"trial":215,"stimulus":9,"robot":1,"valence":"win","action":"go","sham":1,"trial_type":"pit-trial","trial_index":247,"time_elapsed":1394580,"internal_node_id":"0.0-221.0","task_version":"battery-v0.2-trt","session":3},{"rune":"M","rune_set":"bacs2","hex":"#3366ff99","correct":32,"choice":32,"rt":1094.4849999505095,"accuracy":1,"outcome":"+10","keys":[2596.610000007786],"total_keys":1,"block":2,"trial":216,"stimulus":11,"robot":1,"valence":"win","action":"go","sham":0,"trial_type":"pit-trial","trial_index":248,"time_elapsed":1398385,"internal_node_id":"0.0-222.0","task_version":"battery-v0.2-trt","session":3},{"rune":"K","rune_set":"bacs2","hex":"#3366ff99","correct":32,"choice":32,"rt":885.1950000389479,"accuracy":1,"outcome":"+10","keys":[2390.765000018291],"total_keys":1,"block":2,"trial":217,"stimulus":9,"robot":1,"valence":"win","action":"go","sham":0,"trial_type":"pit-trial","trial_index":249,"time_elapsed":1401989,"internal_node_id":"0.0-223.0","task_version":"battery-v0.2-trt","session":3},{"rune":"B","rune_set":"bacs2","hex":"#f73b6a7A","correct":32,"choice":32,"rt":792.4500000081025,"accuracy":1,"outcome":"-1","keys":[2293.2700000237674],"total_keys":1,"block":2,"trial":218,"stimulus":10,"robot":3,"valence":"lose","action":"go","sham":0,"trial_type":"pit-trial","trial_index":250,"time_elapsed":1405486,"internal_node_id":"0.0-224.0","task_version":"battery-v0.2-trt","session":3},{"rune":"V","rune_set":"bacs2","hex":"#f73b6a7A","correct":-1,"choice":-1,"rt":-1,"accuracy":1,"outcome":"-1","keys":[],"total_keys":0,"block":2,"trial":219,"stimulus":8,"robot":4,"valence":"lose","action":"no-go","sham":0,"trial_type":"pit-trial","trial_index":251,"time_elapsed":1409501,"internal_node_id":"0.0-225.0","task_version":"battery-v0.2-trt","session":3},{"rune":"M","rune_set":"bacs2","hex":"#3366ff99","correct":32,"choice":32,"rt":669.4150000112131,"accuracy":1,"outcome":"+10","keys":[2171.020000008866],"total_keys":1,"block":2,"trial":220,"stimulus":11,"robot":1,"valence":"win","action":"go","sham":0,"trial_type":"pit-trial","trial_index":252,"time_elapsed":1412881,"internal_node_id":"0.0-226.0","task_version":"battery-v0.2-trt","session":3},{"rune":"V","rune_set":"bacs2","hex":"#f73b6a7A","correct":-1,"choice":32,"rt":1267.859999963548,"accuracy":0,"outcome":"-10","keys":[2767.924999992829],"total_keys":1,"block":2,"trial":221,"stimulus":8,"robot":4,"valence":"lose","action":"no-go","sham":0,"trial_type":"pit-trial","trial_index":253,"time_elapsed":1416856,"internal_node_id":"0.0-227.0","task_version":"battery-v0.2-trt","session":3},{"rune":"K","rune_set":"bacs2","hex":"#3366ff99","correct":32,"choice":32,"rt":672.6100000087172,"accuracy":1,"outcome":"+1","keys":[2174.959999974817],"total_keys":1,"block":2,"trial":222,"stimulus":9,"robot":1,"valence":"win","action":"go","sham":1,"trial_type":"pit-trial","trial_index":254,"time_elapsed":1420245,"internal_node_id":"0.0-228.0","task_version":"battery-v0.2-trt","session":3},{"rune":"B","rune_set":"bacs2","hex":"#f73b6a7A","correct":32,"choice":32,"rt":937.7749999985099,"accuracy":1,"outcome":"-1","keys":[2441.835000005085],"total_keys":1,"block":2,"trial":223,"stimulus":10,"robot":3,"valence":"lose","action":"go","sham":0,"trial_type":"pit-trial","trial_index":255,"time_elapsed":1423897,"internal_node_id":"0.0-229.0","task_version":"battery-v0.2-trt","session":3},{"rune":"M","rune_set":"bacs2","hex":"#3366ff99","correct":32,"choice":32,"rt":565.7500000088476,"accuracy":1,"outcome":"+10","keys":[2068.4000000474043],"total_keys":1,"block":2,"trial":224,"stimulus":11,"robot":1,"valence":"win","action":"go","sham":0,"trial_type":"pit-trial","trial_index":256,"time_elapsed":1427170,"internal_node_id":"0.0-230.0","task_version":"battery-v0.2-trt","session":3},{"rune":"K","rune_set":"bacs2","hex":"#3366ff99","correct":32,"choice":-1,"rt":-1,"accuracy":0,"outcome":"+1","keys":[],"total_keys":0,"block":2,"trial":225,"stimulus":9,"robot":1,"valence":"win","action":"go","sham":0,"trial_type":"pit-trial","trial_index":257,"time_elapsed":1431175,"internal_node_id":"0.0-231.0","task_version":"battery-v0.2-trt","session":3},{"rune":"B","rune_set":"bacs2","hex":"#f73b6a7A","correct":32,"choice":32,"rt":691.385000012815,"accuracy":1,"outcome":"-1","keys":[2191.7300000204705],"total_keys":1,"block":2,"trial":226,"stimulus":10,"robot":3,"valence":"lose","action":"go","sham":0,"trial_type":"pit-trial","trial_index":258,"time_elapsed":1434577,"internal_node_id":"0.0-232.0","task_version":"battery-v0.2-trt","session":3},{"rune":"V","rune_set":"bacs2","hex":"#f73b6a7A","correct":-1,"choice":-1,"rt":-1,"accuracy":1,"outcome":"-1","keys":[],"total_keys":0,"block":2,"trial":227,"stimulus":8,"robot":4,"valence":"lose","action":"no-go","sham":0,"trial_type":"pit-trial","trial_index":259,"time_elapsed":1438584,"internal_node_id":"0.0-233.0","task_version":"battery-v0.2-trt","session":3},{"rune":"M","rune_set":"bacs2","hex":"#3366ff99","correct":32,"choice":32,"rt":578.525000018999,"accuracy":1,"outcome":"+10","keys":[2080.695000011474],"total_keys":1,"block":2,"trial":228,"stimulus":11,"robot":1,"valence":"win","action":"go","sham":0,"trial_type":"pit-trial","trial_index":260,"time_elapsed":1441875,"internal_node_id":"0.0-234.0","task_version":"battery-v0.2-trt","session":3},{"rune":"M","rune_set":"bacs2","hex":"#3366ff99","correct":32,"choice":-1,"rt":-1,"accuracy":0,"outcome":"+1","keys":[],"total_keys":0,"block":2,"trial":229,"stimulus":11,"robot":1,"valence":"win","action":"go","sham":0,"trial_type":"pit-trial","trial_index":261,"time_elapsed":1445889,"internal_node_id":"0.0-235.0","task_version":"battery-v0.2-trt","session":3},{"rune":"B","rune_set":"bacs2","hex":"#f73b6a7A","correct":32,"choice":32,"rt":814.2150000203401,"accuracy":1,"outcome":"-1","keys":[2319.934999977704],"total_keys":1,"block":2,"trial":230,"stimulus":10,"robot":3,"valence":"lose","action":"go","sham":0,"trial_type":"pit-trial","trial_index":262,"time_elapsed":1449412,"internal_node_id":"0.0-236.0","task_version":"battery-v0.2-trt","session":3},{"rune":"V","rune_set":"bacs2","hex":"#f73b6a7A","correct":-1,"choice":-1,"rt":-1,"accuracy":1,"outcome":"-1","keys":[],"total_keys":0,"block":2,"trial":231,"stimulus":8,"robot":4,"valence":"lose","action":"no-go","sham":0,"trial_type":"pit-trial","trial_index":263,"time_elapsed":1453440,"internal_node_id":"0.0-237.0","task_version":"battery-v0.2-trt","session":3},{"rune":"K","rune_set":"bacs2","hex":"#3366ff99","correct":32,"choice":32,"rt":606.3999999896623,"accuracy":1,"outcome":"+1","keys":[2110.129999986384],"total_keys":1,"block":2,"trial":232,"stimulus":9,"robot":1,"valence":"win","action":"go","sham":1,"trial_type":"pit-trial","trial_index":264,"time_elapsed":1456759,"internal_node_id":"0.0-238.0","task_version":"battery-v0.2-trt","session":3},{"rune":"B","rune_set":"bacs2","hex":"#f73b6a7A","correct":32,"choice":32,"rt":1046.695000026375,"accuracy":1,"outcome":"-1","keys":[2546.7700000153854],"total_keys":1,"block":2,"trial":233,"stimulus":10,"robot":3,"valence":"lose","action":"go","sham":0,"trial_type":"pit-trial","trial_index":265,"time_elapsed":1460524,"internal_node_id":