[{"view_history":"[{\"page_index\":0,\"viewing_time\":4902.090000003227}]","rt":4902.8049999978975,"trial_type":"instructions","trial_index":0,"time_elapsed":4937,"internal_node_id":"0.0-0.0","task_version":"battery-v0.2-trt","session":3},{"slider_type":"valence","raw_loc":341,"loc":0.182,"trial_type":"affective-slider","trial_index":1,"time_elapsed":14573,"internal_node_id":"0.0-1.0","task_version":"battery-v0.2-trt","session":3},{"responses":{"Q03":"3","Q05":"2","Q04":"3","Q08":"0","Q01":"3","Q06":"1","Q02":"3","Q07":"3"},"rt":29544.465000006312,"item_order":[2,4,3,7,0,5,1,6],"radio_events":[5111.245000000054,8155.5200000002515,9829.675000000861,12581.775000006019,15197.82000000123,18798.005000004196,21269.995000002382,26894.110000001092],"key_events":[],"mouse_events":[5111.245000000054,8155.5200000002515,9829.675000000861,12581.775000006019,14693.644999999378,15197.82000000123,18798.005000004196,21269.995000002382,25398.135000003094,26894.110000001092,29542.050000003655],"straightlining":0.625,"zigzagging":0.5714285714285714,"survey":"gad7","trial_type":"survey-template","trial_index":2,"time_elapsed":44160,"internal_node_id":"0.0-2.0","task_version":"battery-v0.2-trt","session":3,"infrequency":0},{"responses":{"Q07":"2","Q02":"2","Q06":"2","Q03":"3","Q01":"2","Q05":"2","Q08":"3","Q04":"2"},"rt":44494.38000000373,"item_order":[6,1,5,2,0,4,7,3],"radio_events":[2996.5850000007777,4213.115000005928,4925.350000004983,9020.510000002105,13780.920000004699,17517.24000000104,18317.13000000309,23197.180000002845,24301.295000004757,27172.540000006848,30854.525000002468,35556.74500000168],"key_events":[],"mouse_events":[2996.5850000007777,4213.115000005928,4925.350000004983,8525.045000002137,9020.510000002105,13276.975000000675,13780.920000004699,17517.24000000104,18317.13000000309,23197.180000002845,23853.925000003073,24301.295000004757,27172.540000006848,30854.525000002468,35556.74500000168,44492.96000000322],"straightlining":0.75,"zigzagging":0.5714285714285714,"survey":"dass_d","trial_type":"survey-template","trial_index":3,"time_elapsed":88658,"internal_node_id":"0.0-3.0","task_version":"battery-v0.2-trt","session":3,"infrequency":0},{"view_history":"[{\"page_index\":0,\"viewing_time\":7889.23000000068},{\"page_index\":1,\"viewing_time\":7144.064999993134},{\"page_index\":2,\"viewing_time\":8207.870000005641},{\"page_index\":3,\"viewing_time\":7976.249999999709},{\"page_index\":4,\"viewing_time\":7399.639999995998},{\"page_index\":5,\"viewing_time\":5704.280000005383},{\"page_index\":6,\"viewing_time\":6023.699999997916},{\"page_index\":7,\"viewing_time\":9944.125000001804},{\"page_index\":8,\"viewing_time\":16072.164999997767},{\"page_index\":9,\"viewing_time\":3103.479999997944}]","rt":79465.34499999689,"trial_type":"pit-instructions","trial_index":4,"time_elapsed":168128,"internal_node_id":"0.0-4.0-0.0","task_version":"battery-v0.2-trt","session":3},{"rune":"1","rune_set":"elianto","hex":"#3366ff99","correct":32,"choice":32,"rt":905.6149999960326,"accuracy":1,"outcome":"+10","keys":[2406.735000004119],"total_keys":1,"block":0,"practice":1,"trial_type":"pit-trial","trial_index":5,"time_elapsed":171786,"internal_node_id":"0.0-4.0-1.0-0.0","task_version":"battery-v0.2-trt","session":3},{"rune":"1","rune_set":"elianto","hex":"#3366ff99","correct":32,"choice":32,"rt":477.2549999979674,"accuracy":1,"outcome":"+10","keys":[1977.5249999947846],"total_keys":1,"block":0,"practice":1,"trial_type":"pit-trial","trial_index":6,"time_elapsed":174968,"internal_node_id":"0.0-4.0-1.1-0.1","task_version":"battery-v0.2-trt","session":3},{"rune":"1","rune_set":"elianto","hex":"#3366ff99","correct":32,"choice":32,"rt":303.4800000023097,"accuracy":1,"outcome":"+10","keys":[1804.6849999955157],"total_keys":1,"block":0,"practice":1,"trial_type":"pit-trial","trial_index":7,"time_elapsed":177980,"internal_node_id":"0.0-4.0-1.2-0.2","task_version":"battery-v0.2-trt","session":3},{"rune":"1","rune_set":"elianto","hex":"#3366ff99","correct":32,"choice":32,"rt":218.93000000272878,"accuracy":1,"outcome":"+10","keys":[1719.0200000040932],"total_keys":1,"block":0,"practice":1,"trial_type":"pit-trial","trial_index":8,"time_elapsed":180908,"internal_node_id":"0.0-4.0-1.3-0.3","task_version":"battery-v0.2-trt","session":3},{"trial_type":"call-function","trial_index":9,"time_elapsed":180912,"internal_node_id":"0.0-4.0-2.0","task_version":"battery-v0.2-trt","session":3},{"view_history":"[{\"page_index\":0,\"viewing_time\":7525.800000003073},{\"page_index\":1,\"viewing_time\":3816.2200000006123}]","rt":11342.62999999919,"trial_type":"pit-instructions","trial_index":10,"time_elapsed":192256,"internal_node_id":"0.0-4.0-3.0","task_version":"battery-v0.2-trt","session":3},{"rune":"2","rune_set":"elianto","hex":"#3366ff99","correct":-1,"choice":-1,"rt":-1,"accuracy":1,"outcome":"+10","keys":[],"total_keys":0,"block":0,"practice":2,"trial_type":"pit-trial","trial_index":11,"time_elapsed":196265,"internal_node_id":"0.0-4.0-4.0-0.0","task_version":"battery-v0.2-trt","session":3},{"rune":"2","rune_set":"elianto","hex":"#3366ff99","correct":-1,"choice":-1,"rt":-1,"accuracy":1,"outcome":"+10","keys":[],"total_keys":0,"block":0,"practice":2,"trial_type":"pit-trial","trial_index":12,"time_elapsed":200276,"internal_node_id":"0.0-4.0-4.1-0.1","task_version":"battery-v0.2-trt","session":3},{"rune":"2","rune_set":"elianto","hex":"#3366ff99","correct":-1,"choice":-1,"rt":-1,"accuracy":1,"outcome":"+10","keys":[],"total_keys":0,"block":0,"practice":2,"trial_type":"pit-trial","trial_index":13,"time_elapsed":204283,"internal_node_id":"0.0-4.0-4.2-0.2","task_version":"battery-v0.2-trt","session":3},{"rune":"2","rune_set":"elianto","hex":"#3366ff99","correct":-1,"choice":-1,"rt":-1,"accuracy":1,"outcome":"+10","keys":[],"total_keys":0,"block":0,"practice":2,"trial_type":"pit-trial","trial_index":14,"time_elapsed":208291,"internal_node_id":"0.0-4.0-4.3-0.3","task_version":"battery-v0.2-trt","session":3},{"trial_type":"call-function","trial_index":15,"time_elapsed":208294,"internal_node_id":"0.0-4.0-5.0","task_version":"battery-v0.2-trt","session":3},{"view_history":"[{\"page_index\":0,\"viewing_time\":6926.184999996622},{\"page_index\":1,\"viewing_time\":4264.160000006086}]","rt":11190.70500000089,"trial_type":"pit-instructions","trial_index":16,"time_elapsed":219487,"internal_node_id":"0.0-4.0-6.0","task_version":"battery-v0.2-trt","session":3},{"rune":"3","rune_set":"elianto","hex":"#f73b6a7A","correct":-1,"choice":32,"rt":297.12499999732245,"accuracy":0,"outcome":"-10","keys":[1797.8499999953783],"total_keys":1,"block":0,"practice":3,"trial_type":"pit-trial","trial_index":17,"time_elapsed":222490,"internal_node_id":"0.0-4.0-7.0-0.0","task_version":"battery-v0.2-trt","session":3},{"rune":"3","rune_set":"elianto","hex":"#f73b6a7A","correct":-1,"choice":-1,"rt":-1,"accuracy":1,"outcome":"-1","keys":[],"total_keys":0,"block":0,"practice":3,"trial_type":"pit-trial","trial_index":18,"time_elapsed":226502,"internal_node_id":"0.0-4.0-7.1-0.1","task_version":"battery-v0.2-trt","session":3},{"rune":"3","rune_set":"elianto","hex":"#f73b6a7A","correct":-1,"choice":-1,"rt":-1,"accuracy":1,"outcome":"-1","keys":[],"total_keys":0,"block":0,"practice":3,"trial_type":"pit-trial","trial_index":19,"time_elapsed":230507,"internal_node_id":"0.0-4.0-7.2-0.2","task_version":"battery-v0.2-trt","session":3},{"rune":"3","rune_set":"elianto","hex":"#f73b6a7A","correct":-1,"choice":-1,"rt":-1,"accuracy":1,"outcome":"-1","keys":[],"total_keys":0,"block":0,"practice":3,"trial_type":"pit-trial","trial_index":20,"time_elapsed":234512,"internal_node_id":"0.0-4.0-7.3-0.3","task_version":"battery-v0.2-trt","session":3},{"trial_type":"call-function","trial_index":21,"time_elapsed":234515,"internal_node_id":"0.0-4.0-8.0","task_version":"battery-v0.2-trt","session":3},{"view_history":"[{\"page_index\":0,\"viewing_time\":3483.124999998836},{\"page_index\":1,\"viewing_time\":1239.4300000014482}]","rt":4722.930000003544,"trial_type":"pit-instructions","trial_index":22,"time_elapsed":239239,"internal_node_id":"0.0-4.0-9.0","task_version":"battery-v0.2-trt","session":3},{"rune":"4","rune_set":"elianto","hex":"#f73b6a7A","correct":32,"choice":32,"rt":314.5600000061677,"accuracy":1,"outcome":"-1","keys":[1830.614999998943],"total_keys":1,"block":0,"practice":4,"trial_type":"pit-trial","trial_index":23,"time_elapsed":242274,"internal_node_id":"0.0-4.0-10.0-0.0","task_version":"battery-v0.2-trt","session":3},{"rune":"4","rune_set":"elianto","hex":"#f73b6a7A","correct":32,"choice":32,"rt":293.11500000039814,"accuracy":1,"outcome":"-1","keys":[1801.8650000012713],"total_keys":1,"block":0,"practice":4,"trial_type":"pit-trial","trial_index":24,"time_elapsed":245281,"internal_node_id":"0.0-4.0-10.1-0.1","task_version":"battery-v0.2-trt","session":3},{"rune":"4","rune_set":"elianto","hex":"#f73b6a7A","correct":32,"choice":32,"rt":291.79499999736436,"accuracy":1,"outcome":"-1","keys":[1795.0300000011339],"total_keys":1,"block":0,"practice":4,"trial_type":"pit-trial","trial_index":25,"time_elapsed":248281,"internal_node_id":"0.0-4.0-10.2-0.2","task_version":"battery-v0.2-trt","session":3},{"rune":"4","rune_set":"elianto","hex":"#f73b6a7A","correct":32,"choice":32,"rt":213.68499999516644,"accuracy":1,"outcome":"-1","keys":[1714.9649999992107],"total_keys":1,"block":0,"practice":4,"trial_type":"pit-trial","trial_index":26,"time_elapsed":251200,"internal_node_id":"0.0-4.0-10.3-0.3","task_version":"battery-v0.2-trt","session":3},{"trial_type":"call-function","trial_index":27,"time_elapsed":251201,"internal_node_id":"0.0-4.0-11.0","task_version":"battery-v0.2-trt","session":3},{"view_history":"[{\"page_index\":0,\"viewing_time\":2949.2000000027474},{\"page_index\":1,\"viewing_time\":7440.484999999171},{\"page_index\":2,\"viewing_time\":4377.164999998058},{\"page_index\":3,\"viewing_time\":3374.210000001767},{\"page_index\":4,\"viewing_time\":6015.995000001567},{\"page_index\":5,\"viewing_time\":2416.1499999972875}]","rt":26573.609999999462,"trial_type":"pit-instructions","trial_index":28,"time_elapsed":277775,"internal_node_id":"0.0-4.0-12.0","task_version":"battery-v0.2-trt","session":3},{"responses":["Press SPACE","+10","-1","True","True"],"num_errors":0,"rt":37918.78999999608,"trial_type":"pit-comprehension","trial_index":29,"time_elapsed":315697,"internal_node_id":"0.0-4.0-13.0","task_version":"battery-v0.2-trt","session":3},{"view_history":"[{\"page_index\":0,\"viewing_time\":2914.4999999989523},{\"page_index\":1,\"viewing_time\":4639.740000005986}]","rt":7554.650000005495,"trial_type":"pit-instructions","trial_index":30,"time_elapsed":323255,"internal_node_id":"0.0-5.0","task_version":"battery-v0.2-trt","session":3},{"rune":"Z","rune_set":"bacs1","hex":"#3366ff99","correct":-1,"choice":32,"rt":601.7399999982445,"accuracy":0,"outcome":"+1","keys":[2115.4349999997066],"total_keys":1,"block":1,"trial":1,"stimulus":1,"robot":2,"valence":"win","action":"no-go","sham":0,"trial_type":"pit-trial","trial_index":31,"time_elapsed":326580,"internal_node_id":"0.0-6.0","task_version":"battery-v0.2-trt","session":3},{"rune":"B","rune_set":"bacs1","hex":"#3366ff99","correct":-1,"choice":32,"rt":686.7050000000745,"accuracy":0,"outcome":"+1","keys":[2188.365000001795],"total_keys":1,"block":1,"trial":2,"stimulus":0,"robot":2,"valence":"win","action":"no-go","sham":0,"trial_type":"pit-trial","trial_index":32,"time_elapsed":329972,"internal_node_id":"0.0-7.0","task_version":"battery-v0.2-trt","session":3},{"rune":"J","rune_set":"bacs1","hex":"#3366ff99","correct":32,"choice":32,"rt":813.9999999984866,"accuracy":1,"outcome":"+10","keys":[2314.715000000433],"total_keys":1,"block":1,"trial":3,"stimulus":2,"robot":1,"valence":"win","action":"go","sham":0,"trial_type":"pit-trial","trial_index":33,"time_elapsed":333490,"internal_node_id":"0.0-8.0","task_version":"battery-v0.2-trt","session":3},{"rune":"R","rune_set":"bacs1","hex":"#f73b6a7A","correct":32,"choice":32,"rt":798.1500000023516,"accuracy":1,"outcome":"-1","keys":[2298.450000002049],"total_keys":1,"block":1,"trial":4,"stimulus":3,"robot":3,"valence":"lose","action":"go","sham":0,"trial_type":"pit-trial","trial_index":34,"time_elapsed":336992,"internal_node_id":"0.0-9.0","task_version":"battery-v0.2-trt","session":3},{"rune":"R","rune_set":"bacs1","hex":"#f73b6a7A","correct":32,"choice":32,"rt":615.7549999988987,"accuracy":1,"outcome":"-1","keys":[2116.4800000042305],"total_keys":1,"block":1,"trial":5,"stimulus":3,"robot":3,"valence":"lose","action":"go","sham":0,"trial_type":"pit-trial","trial_index":35,"time_elapsed":340315,"internal_node_id":"0.0-10.0","task_version":"battery-v0.2-trt","session":3},{"rune":"Z","rune_set":"bacs1","hex":"#3366ff99","correct":-1,"choice":-1,"rt":-1,"accuracy":1,"outcome":"+10","keys":[],"total_keys":0,"block":1,"trial":6,"stimulus":1,"robot":2,"valence":"win","action":"no-go","sham":0,"trial_type":"pit-trial","trial_index":36,"time_elapsed":344323,"internal_node_id":"0.0-11.0","task_version":"battery-v0.2-trt","session":3},{"rune":"J","rune_set":"bacs1","hex":"#3366ff99","correct":32,"choice":32,"rt":572.4150000023656,"accuracy":1,"outcome":"+10","keys":[2074.3599999987055],"total_keys":1,"block":1,"trial":7,"stimulus":2,"robot":1,"valence":"win","action":"go","sham":0,"trial_type":"pit-trial","trial_index":37,"time_elapsed":347602,"internal_node_id":"0.0-12.0","task_version":"battery-v0.2-trt","session":3},{"rune":"B","rune_set":"bacs1","hex":"#3366ff99","correct":-1,"choice":-1,"rt":-1,"accuracy":1,"outcome":"+10","keys":[],"total_keys":0,"block":1,"trial":8,"stimulus":0,"robot":2,"valence":"win","action":"no-go","sham":0,"trial_type":"pit-trial","trial_index":38,"time_elapsed":351606,"internal_node_id":"0.0-13.0","task_version":"battery-v0.2-trt","session":3},{"rune":"R","rune_set":"bacs1","hex":"#f73b6a7A","correct":32,"choice":32,"rt":418.80500000115717,"accuracy":1,"outcome":"-1","keys":[1919.8649999962072],"total_keys":1,"block":1,"trial":9,"stimulus":3,"robot":3,"valence":"lose","action":"go","sham":0,"trial_type":"pit-trial","trial_index":39,"time_elapsed":354753,"internal_node_id":"0.0-14.0","task_version":"battery-v0.2-trt","session":3},{"rune":"B","rune_set":"bacs1","hex":"#3366ff99","correct":-1,"choice":-1,"rt":-1,"accuracy":1,"outcome":"+10","keys":[],"total_keys":0,"block":1,"trial":10,"stimulus":0,"robot":2,"valence":"win","action":"no-go","sham":0,"trial_type":"pit-trial","trial_index":40,"time_elapsed":358769,"internal_node_id":"0.0-15.0","task_version":"battery-v0.2-trt","session":3},{"rune":"Z","rune_set":"bacs1","hex":"#3366ff99","correct":-1,"choice":-1,"rt":-1,"accuracy":1,"outcome":"+10","keys":[],"total_keys":0,"block":1,"trial":11,"stimulus":1,"robot":2,"valence":"win","action":"no-go","sham":0,"trial_type":"pit-trial","trial_index":41,"time_elapsed":362778,"internal_node_id":"0.0-16.0","task_version":"battery-v0.2-trt","session":3},{"rune":"J","rune_set":"bacs1","hex":"#3366ff99","correct":32,"choice":32,"rt":523.1449999992037,"accuracy":1,"outcome":"+10","keys":[2024.360000003071],"total_keys":1,"block":1,"trial":12,"stimulus":2,"robot":1,"valence":"win","action":"go","sham":0,"trial_type":"pit-trial","trial_index":42,"time_elapsed":366010,"internal_node_id":"0.0-17.0","task_version":"battery-v0.2-trt","session":3},{"rune":"R","rune_set":"bacs1","hex":"#f73b6a7A","correct":32,"choice":32,"rt":518.9949999985402,"accuracy":1,"outcome":"-1","keys":[2025.6799999988289],"total_keys":1,"block":1,"trial":13,"stimulus":3,"robot":3,"valence":"lose","action":"go","sham":0,"trial_type":"pit-trial","trial_index":43,"time_elapsed":369241,"internal_node_id":"0.0-18.0","task_version":"battery-v0.2-trt","session":3},{"rune":"Z","rune_set":"bacs1","hex":"#3366ff99","correct":-1,"choice":-1,"rt":-1,"accuracy":1,"outcome":"+1","keys":[],"total_keys":0,"block":1,"trial":14,"stimulus":1,"robot":2,"valence":"win","action":"no-go","sham":1,"trial_type":"pit-trial","trial_index":44,"time_elapsed":373244,"internal_node_id":"0.0-19.0","task_version":"battery-v0.2-trt","session":3},{"rune":"B","rune_set":"bacs1","hex":"#3366ff99","correct":-1,"choice":-1,"rt":-1,"accuracy":1,"outcome":"+10","keys":[],"total_keys":0,"block":1,"trial":15,"stimulus":0,"robot":2,"valence":"win","action":"no-go","sham":0,"trial_type":"pit-trial","trial_index":45,"time_elapsed":377256,"internal_node_id":"0.0-20.0","task_version":"battery-v0.2-trt","session":3},{"rune":"J","rune_set":"bacs1","hex":"#3366ff99","correct":32,"choice":32,"rt":601.8000000040047,"accuracy":1,"outcome":"+10","keys":[2102.725000004284],"total_keys":1,"block":1,"trial":16,"stimulus":2,"robot":1,"valence":"win","action":"go","sham":0,"trial_type":"pit-trial","trial_index":46,"time_elapsed":380564,"internal_node_id":"0.0-21.0","task_version":"battery-v0.2-trt","session":3},{"rune":"R","rune_set":"bacs1","hex":"#f73b6a7A","correct":32,"choice":32,"rt":521.5800000005402,"accuracy":1,"outcome":"-1","keys":[2025.9300000034273],"total_keys":1,"block":1,"trial":17,"stimulus":3,"robot":3,"valence":"lose","action":"go","sham":0,"trial_type":"pit-trial","trial_index":47,"time_elapsed":383795,"internal_node_id":"0.0-22.0","task_version":"battery-v0.2-trt","session":3},{"rune":"B","rune_set":"bacs1","hex":"#3366ff99","correct":-1,"choice":-1,"rt":-1,"accuracy":1,"outcome":"+1","keys":[],"total_keys":0,"block":1,"trial":18,"stimulus":0,"robot":2,"valence":"win","action":"no-go","sham":1,"trial_type":"pit-trial","trial_index":48,"time_elapsed":387799,"internal_node_id":"0.0-23.0","task_version":"battery-v0.2-trt","session":3},{"rune":"J","rune_set":"bacs1","hex":"#3366ff99","correct":32,"choice":32,"rt":535.8300000007148,"accuracy":1,"outcome":"+10","keys":[2037.6949999990757],"total_keys":1,"block":1,"trial":19,"stimulus":2,"robot":1,"valence":"win","action":"go","sham":0,"trial_type":"pit-trial","trial_index":49,"time_elapsed":391041,"internal_node_id":"0.0-24.0","task_version":"battery-v0.2-trt","session":3},{"rune":"Z","rune_set":"bacs1","hex":"#3366ff99","correct":-1,"choice":-1,"rt":-1,"accuracy":1,"outcome":"+10","keys":[],"total_keys":0,"block":1,"trial":20,"stimulus":1,"robot":2,"valence":"win","action":"no-go","sham":0,"trial_type":"pit-trial","trial_index":50,"time_elapsed":395049,"internal_node_id":"0.0-25.0","task_version":"battery-v0.2-trt","session":3},{"rune":"Z","rune_set":"bacs1","hex":"#3366ff99","correct":-1,"choice":-1,"rt":-1,"accuracy":1,"outcome":"+10","keys":[],"total_keys":0,"block":1,"trial":21,"stimulus":1,"robot":2,"valence":"win","action":"no-go","sham":0,"trial_type":"pit-trial","trial_index":51,"time_elapsed":399055,"internal_node_id":"0.0-26.0","task_version":"battery-v0.2-trt","session":3},{"rune":"B","rune_set":"bacs1","hex":"#3366ff99","correct":-1,"choice":-1,"rt":-1,"accuracy":1,"outcome":"+10","keys":[],"total_keys":0,"block":1,"trial":22,"stimulus":0,"robot":2,"valence":"win","action":"no-go","sham":0,"trial_type":"pit-trial","trial_index":52,"time_elapsed":403060,"internal_node_id":"0.0-27.0","task_version":"battery-v0.2-trt","session":3},{"rune":"J","rune_set":"bacs1","hex":"#3366ff99","correct":32,"choice":32,"rt":504.7999999951571,"accuracy":1,"outcome":"+10","keys":[2006.5449999965494],"total_keys":1,"block":1,"trial":23,"stimulus":2,"robot":1,"valence":"win","action":"go","sham":0,"trial_type":"pit-trial","trial_index":53,"time_elapsed":406276,"internal_node_id":"0.0-28.0","task_version":"battery-v0.2-trt","session":3},{"rune":"R","rune_set":"bacs1","hex":"#f73b6a7A","correct":32,"choice":32,"rt":499.6499999979278,"accuracy":1,"outcome":"-1","keys":[2026.1549999995623],"total_keys":1,"block":1,"trial":24,"stimulus":3,"robot":3,"valence":"lose","action":"go","sham":0,"trial_type":"pit-trial","trial_index":54,"time_elapsed":409506,"internal_node_id":"0.0-29.0","task_version":"battery-v0.2-trt","session":3},{"rune":"J","rune_set":"bacs1","hex":"#3366ff99","correct":32,"choice":32,"rt":522.3349999942002,"accuracy":1,"outcome":"+10","keys":[2023.589999997057],"total_keys":1,"block":1,"trial":25,"stimulus":2,"robot":1,"valence":"win","action":"go","sham":0,"trial_type":"pit-trial","trial_index":55,"time_elapsed":412757,"internal_node_id":"0.0-30.0","task_version":"battery-v0.2-trt","session":3},{"rune":"Z","rune_set":"bacs1","hex":"#3366ff99","correct":-1,"choice":-1,"rt":-1,"accuracy":1,"outcome":"+10","keys":[],"total_keys":0,"block":1,"trial":26,"stimulus":1,"robot":2,"valence":"win","action":"no-go","sham":0,"trial_type":"pit-trial","trial_index":56,"time_elapsed":416776,"internal_node_id":"0.0-31.0","task_version":"battery-v0.2-trt","session":3},{"rune":"B","rune_set":"bacs1","hex":"#3366ff99","correct":-1,"choice":-1,"rt":-1,"accuracy":1,"outcome":"+10","keys":[],"total_keys":0,"block":1,"trial":27,"stimulus":0,"robot":2,"valence":"win","action":"no-go","sham":0,"trial_type":"pit-trial","trial_index":57,"time_elapsed":420798,"internal_node_id":"0.0-32.0","task_version":"battery-v0.2-trt","session":3},{"rune":"R","rune_set":"bacs1","hex":"#f73b6a7A","correct":32,"choice":32,"rt":506.18499999836786,"accuracy":1,"outcome":"-1","keys":[2007.275000003574],"total_keys":1,"block":1,"trial":28,"stimulus":3,"robot":3,"valence":"lose","action":"go","sham":0,"trial_type":"pit-trial","trial_index":58,"time_elapsed":424011,"internal_node_id":"0.0-33.0","task_version":"battery-v0.2-trt","session":3},{"rune":"J","rune_set":"bacs1","hex":"#3366ff99","correct":32,"choice":32,"rt":471.14000000146916,"accuracy":1,"outcome":"+10","keys":[1971.3550000014948],"total_keys":1,"block":1,"trial":29,"stimulus":2,"robot":1,"valence":"win","action":"go","sham":0,"trial_type":"pit-trial","trial_index":59,"time_elapsed":427186,"internal_node_id":"0.0-34.0","task_version":"battery-v0.2-trt","session":3},{"rune":"B","rune_set":"bacs1","hex":"#3366ff99","correct":-1,"choice":-1,"rt":-1,"accuracy":1,"outcome":"+10","keys":[],"total_keys":0,"block":1,"trial":30,"stimulus":0,"robot":2,"valence":"win","action":"no-go","sham":0,"trial_type":"pit-trial","trial_index":60,"time_elapsed":431194,"internal_node_id":"0.0-35.0","task_version":"battery-v0.2-trt","session":3},{"rune":"Z","rune_set":"bacs1","hex":"#3366ff99","correct":-1,"choice":-1,"rt":-1,"accuracy":1,"outcome":"+10","keys":[],"total_keys":0,"block":1,"trial":31,"stimulus":1,"robot":2,"valence":"win","action":"no-go","sham":0,"trial_type":"pit-trial","trial_index":61,"time_elapsed":435204,"internal_node_id":"0.0-36.0","task_version":"battery-v0.2-trt","session":3},{"rune":"R","rune_set":"bacs1","hex":"#f73b6a7A","correct":32,"choice":32,"rt":453.205000005255,"accuracy":1,"outcome":"-1","keys":[1954.0100000012899],"total_keys":1,"block":1,"trial":32,"stimulus":3,"robot":3,"valence":"lose","action":"go","sham":0,"trial_type":"pit-trial","trial_index":62,"time_elapsed":438363,"internal_node_id":"0.0-37.0","task_version":"battery-v0.2-trt","session":3},{"rune":"V","rune_set":"bacs1","hex":"#f73b6a7A","correct":-1,"choice":-1,"rt":-1,"accuracy":1,"outcome":"-1","keys":[],"total_keys":0,"block":1,"trial":33,"stimulus":4,"robot":4,"valence":"lose","action":"no-go","sham":0,"trial_type":"pit-trial","trial_index":63,"time_elapsed":442367,"internal_node_id":"0.0-38.0","task_version":"battery-v0.2-trt","session":3},{"rune":"E","rune_set":"bacs1","hex":"#f73b6a7A","correct":32,"choice":32,"rt":1028.1300000060583,"accuracy":1,"outcome":"-10","keys":[2528.265000000829],"total_keys":1,"block":1,"trial":34,"stimulus":5,"robot":3,"valence":"lose","action":"go","sham":1,"trial_type":"pit-trial","trial_index":64,"time_elapsed":446099,"internal_node_id":"0.0-39.0","task_version":"battery-v0.2-trt","session":3},{"rune":"J","rune_set":"bacs1","hex":"#3366ff99","correct":32,"choice":32,"rt":532.5549999979557,"accuracy":1,"outcome":"+10","keys":[2034.285000001546],"total_keys":1,"block":1,"trial":35,"stimulus":2,"robot":1,"valence":"win","action":"go","sham":0,"trial_type":"pit-trial","trial_index":65,"time_elapsed":449341,"internal_node_id":"0.0-40.0","task_version":"battery-v0.2-trt","session":3},{"rune":"B","rune_set":"bacs1","hex":"#3366ff99","correct":-1,"choice":-1,"rt":-1,"accuracy":1,"outcome":"+10","keys":[],"total_keys":0,"block":1,"trial":36,"stimulus":0,"robot":2,"valence":"win","action":"no-go","sham":0,"trial_type":"pit-trial","trial_index":66,"time_elapsed":453348,"internal_node_id":"0.0-41.0","task_version":"battery-v0.2-trt","session":3},{"rune":"E","rune_set":"bacs1","hex":"#f73b6a7A","correct":32,"choice":-1,"rt":-1,"accuracy":0,"outcome":"-1","keys":[],"total_keys":0,"block":1,"trial":37,"stimulus":5,"robot":3,"valence":"lose","action":"go","sham":1,"trial_type":"pit-trial","trial_index":67,"time_elapsed":457353,"internal_node_id":"0.0-42.0","task_version":"battery-v0.2-trt","session":3},{"rune":"B","rune_set":"bacs1","hex":"#3366ff99","correct":-1,"choice":-1,"rt":-1,"accuracy":1,"outcome":"+10","keys":[],"total_keys":0,"block":1,"trial":38,"stimulus":0,"robot":2,"valence":"win","action":"no-go","sham":0,"trial_type":"pit-trial","trial_index":68,"time_elapsed":461360,"internal_node_id":"0.0-43.0","task_version":"battery-v0.2-trt","session":3},{"rune":"V","rune_set":"bacs1","hex":"#f73b6a7A","correct":-1,"choice":-1,"rt":-1,"accuracy":1,"outcome":"-1","keys":[],"total_keys":0,"block":1,"trial":39,"stimulus":4,"robot":4,"valence":"lose","action":"no-go","sham":0,"trial_type":"pit-trial","trial_index":69,"time_elapsed":465369,"internal_node_id":"0.0-44.0","task_version":"battery-v0.2-trt","session":3},{"rune":"J","rune_set":"bacs1","hex":"#3366ff99","correct":32,"choice":32,"rt":519.8300000047311,"accuracy":1,"outcome":"+10","keys":[2021.1399999971036],"total_keys":1,"block":1,"trial":40,"stimulus":2,"robot":1,"valence":"win","action":"go","sham":0,"trial_type":"pit-trial","trial_index":70,"time_elapsed":468596,"internal_node_id":"0.0-45.0","task_version":"battery-v0.2-trt","session":3},{"rune":"J","rune_set":"bacs1","hex":"#3366ff99","correct":32,"choice":32,"rt":458.7949999986449,"accuracy":1,"outcome":"+10","keys":[1959.5100000005914],"total_keys":1,"block":1,"trial":41,"stimulus":2,"robot":1,"valence":"win","action":"go","sham":0,"trial_type":"pit-trial","trial_index":71,"time_elapsed":471774,"internal_node_id":"0.0-46.0","task_version":"battery-v0.2-trt","session":3},{"rune":"T","rune_set":"bacs1","hex":"#3366ff99","correct":-1,"choice":32,"rt":923.0049999969197,"accuracy":0,"outcome":"+1","keys":[2423.3449999956065],"total_keys":1,"block":1,"trial":42,"stimulus":6,"robot":2,"valence":"win","action":"no-go","sham":0,"trial_type":"pit-trial","trial_index":72,"time_elapsed":475401,"internal_node_id":"0.0-47.0","task_version":"battery-v0.2-trt","session":3},{"rune":"E","rune_set":"bacs1","hex":"#f73b6a7A","correct":32,"choice":-1,"rt":-1,"accuracy":0,"outcome":"-1","keys":[],"total_keys":0,"block":1,"trial":43,"stimulus":5,"robot":3,"valence":"lose","action":"go","sham":1,"trial_type":"pit-trial","trial_index":73,"time_elapsed":479408,"internal_node_id":"0.0-48.0","task_version":"battery-v0.2-trt","session":3},{"rune":"V","rune_set":"bacs1","hex":"#f73b6a7A","correct":-1,"choice":-1,"rt":-1,"accuracy":1,"outcome":"-1","keys":[],"total_keys":0,"block":1,"trial":44,"stimulus":4,"robot":4,"valence":"lose","action":"no-go","sham":0,"trial_type":"pit-trial","trial_index":74,"time_elapsed":483414,"internal_node_id":"0.0-49.0","task_version":"battery-v0.2-trt","session":3},{"rune":"J","rune_set":"bacs1","hex":"#3366ff99","correct":32,"choice":32,"rt":430.25499999930616,"accuracy":1,"outcome":"+10","keys":[1933.9799999943352],"total_keys":1,"block":1,"trial":45,"stimulus":2,"robot":1,"valence":"win","action":"go","sham":0,"trial_type":"pit-trial","trial_index":75,"time_elapsed":486552,"internal_node_id":"0.0-50.0","task_version":"battery-v0.2-trt","session":3},{"rune":"E","rune_set":"bacs1","hex":"#f73b6a7A","correct":32,"choice":-1,"rt":-1,"accuracy":0,"outcome":"-10","keys":[],"total_keys":0,"block":1,"trial":46,"stimulus":5,"robot":3,"valence":"lose","action":"go","sham":0,"trial_type":"pit-trial","trial_index":76,"time_elapsed":490558,"internal_node_id":"0.0-51.0","task_version":"battery-v0.2-trt","session":3},{"rune":"T","rune_set":"bacs1","hex":"#3366ff99","correct":-1,"choice":-1,"rt":-1,"accuracy":1,"outcome":"+1","keys":[],"total_keys":0,"block":1,"trial":47,"stimulus":6,"robot":2,"valence":"win","action":"no-go","sham":1,"trial_type":"pit-trial","trial_index":77,"time_elapsed":494562,"internal_node_id":"0.0-52.0","task_version":"battery-v0.2-trt","session":3},{"rune":"V","rune_set":"bacs1","hex":"#f73b6a7A","correct":-1,"choice":-1,"rt":-1,"accuracy":1,"outcome":"-1","keys":[],"total_keys":0,"block":1,"trial":48,"stimulus":4,"robot":4,"valence":"lose","action":"no-go","sham":0,"trial_type":"pit-trial","trial_index":78,"time_elapsed":498565,"internal_node_id":"0.0-53.0","task_version":"battery-v0.2-trt","session":3},{"rune":"F","rune_set":"bacs1","hex":"#f73b6a7A","correct":-1,"choice":32,"rt":1114.6349999980885,"accuracy":0,"outcome":"-1","keys":[2616.0500000041793],"total_keys":1,"block":1,"trial":49,"stimulus":7,"robot":4,"valence":"lose","action":"no-go","sham":1,"trial_type":"pit-trial","trial_index":79,"time_elapsed":502384,"internal_node_id":"0.0-54.0","task_version":"battery-v0.2-trt","session":3},{"rune":"T","rune_set":"bacs1","hex":"#3366ff99","correct":-1,"choice":32,"rt":592.4750000049244,"accuracy":0,"outcome":"+10","keys":[2093.430000000808],"total_keys":1,"block":1,"trial":50,"stimulus":6,"robot":2,"valence":"win","action":"no-go","sham":1,"trial_type":"pit-trial","trial_index":80,"time_elapsed":505681,"internal_node_id":"0.0-55.0","task_version":"battery-v0.2-trt","session":3},{"rune":"E","rune_set":"bacs1","hex":"#f73b6a7A","correct":32,"choice":-1,"rt":-1,"accuracy":0,"outcome":"-1","keys":[],"total_keys":0,"block":1,"trial":51,"stimulus":5,"robot":3,"valence":"lose","action":"go","sham":1,"trial_type":"pit-trial","trial_index":81,"time_elapsed":509687,"internal_node_id":"0.0-56.0","task_version":"battery-v0.2-trt","session":3},{"rune":"V","rune_set":"bacs1","hex":"#f73b6a7A","correct":-1,"choice":-1,"rt":-1,"accuracy":1,"outcome":"-1","keys":[],"total_keys":0,"block":1,"trial":52,"stimulus":4,"robot":4,"valence":"lose","action":"no-go","sham":0,"trial_type":"pit-trial","trial_index":82,"time_elapsed":513692,"internal_node_id":"0.0-57.0","task_version":"battery-v0.2-trt","session":3},{"rune":"F","rune_set":"bacs1","hex":"#f73b6a7A","correct":-1,"choice":32,"rt":1040.4550000021118,"accuracy":0,"outcome":"-10","keys":[2541.83500000363],"total_keys":1,"block":1,"trial":53,"stimulus":7,"robot":4,"valence":"lose","action":"no-go","sham":0,"trial_type":"pit-trial","trial_index":83,"time_elapsed":517440,"internal_node_id":"0.0-58.0","task_version":"battery-v0.2-trt","session":3},{"rune":"V","rune_set":"bacs1","hex":"#f73b6a7A","correct":-1,"choice":-1,"rt":-1,"accuracy":1,"outcome":"-1","keys":[],"total_keys":0,"block":1,"trial":54,"stimulus":4,"robot":4,"valence":"lose","action":"no-go","sham":0,"trial_type":"pit-trial","trial_index":84,"time_elapsed":521460,"internal_node_id":"0.0-59.0","task_version":"battery-v0.2-trt","session":3},{"rune":"E","rune_set":"bacs1","hex":"#f73b6a7A","correct":32,"choice":-1,"rt":-1,"accuracy":0,"outcome":"-10","keys":[],"total_keys":0,"block":1,"trial":55,"stimulus":5,"robot":3,"valence":"lose","action":"go","sham":0,"trial_type":"pit-trial","trial_index":85,"time_elapsed":525477,"internal_node_id":"0.0-60.0","task_version":"battery-v0.2-trt","session":3},{"rune":"T","rune_set":"bacs1","hex":"#3366ff99","correct":-1,"choice":32,"rt":595.0100000044331,"accuracy":0,"outcome":"+1","keys":[2097.2499999989523],"total_keys":1,"block":1,"trial":56,"stimulus":6,"robot":2,"valence":"win","action":"no-go","sham":0,"trial_type":"pit-trial","trial_index":86,"time_elapsed":528777,"internal_node_id":"0.0-61.0","task_version":"battery-v0.2-trt","session":3},{"rune":"F","rune_set":"bacs1","hex":"#f73b6a7A","correct":-1,"choice":-1,"rt":-1,"accuracy":1,"outcome":"-1","keys":[],"total_keys":0,"block":1,"trial":57,"stimulus":7,"robot":4,"valence":"lose","action":"no-go","sham":0,"trial_type":"pit-trial","trial_index":87,"time_elapsed":532787,"internal_node_id":"0.0-62.0","task_version":"battery-v0.2-trt","session":3},{"rune":"T","rune_set":"bacs1","hex":"#3366ff99","correct":-1,"choice":32,"rt":668.3699999994133,"accuracy":0,"outcome":"+1","keys":[2170.060000004014],"total_keys":1,"block":1,"trial":58,"stimulus":6,"robot":2,"valence":"win","action":"no-go","sham":0,"trial_type":"pit-trial","trial_index":88,"time_elapsed":536160,"internal_node_id":"0.0-63.0","task_version":"battery-v0.2-trt","session":3},{"rune":"E","rune_set":"bacs1","hex":"#f73b6a7A","correct":32,"choice":-1,"rt":-1,"accuracy":0,"outcome":"-1","keys":[],"total_keys":0,"block":1,"trial":59,"stimulus":5,"robot":3,"valence":"lose","action":"go","sham":1,"trial_type":"pit-trial","trial_index":89,"time_elapsed":540163,"internal_node_id":"0.0-64.0","task_version":"battery-v0.2-trt","session":3},{"rune":"V","rune_set":"bacs1","hex":"#f73b6a7A","correct":-1,"choice":-1,"rt":-1,"accuracy":1,"outcome":"-1","keys":[],"total_keys":0,"block":1,"trial":60,"stimulus":4,"robot":4,"valence":"lose","action":"no-go","sham":0,"trial_type":"pit-trial","trial_index":90,"time_elapsed":544174,"internal_node_id":"0.0-65.0","task_version":"battery-v0.2-trt","session":3},{"rune":"V","rune_set":"bacs1","hex":"#f73b6a7A","correct":-1,"choice":-1,"rt":-1,"accuracy":1,"outcome":"-1","keys":[],"total_keys":0,"block":1,"trial":61,"stimulus":4,"robot":4,"valence":"lose","action":"no-go","sham":0,"trial_type":"pit-trial","trial_index":91,"time_elapsed":548220,"internal_node_id":"0.0-66.0","task_version":"battery-v0.2-trt","session":3},{"rune":"T","rune_set":"bacs1","hex":"#3366ff99","correct":-1,"choice":-1,"rt":-1,"accuracy":1,"outcome":"+1","keys":[],"total_keys":0,"block":1,"trial":62,"stimulus":6,"robot":2,"valence":"win","action":"no-go","sham":1,"trial_type":"pit-trial","trial_index":92,"time_elapsed":552226,"internal_node_id":"0.0-67.0","task_version":"battery-v0.2-trt","session":3},{"rune":"F","rune_set":"bacs1","hex":"#f73b6a7A","correct":-1,"choice":-1,"rt":-1,"accuracy":1,"outcome":"-1","keys":[],"total_keys":0,"block":1,"trial":63,"stimulus":7,"robot":4,"valence":"lose","action":"no-go","sham":0,"trial_type":"pit-trial","trial_index":93,"time_elapsed":556231,"internal_node_id":"0.0-68.0","task_version":"battery-v0.2-trt","session":3},{"rune":"E","rune_set":"bacs1","hex":"#f73b6a7A","correct":32,"choice":-1,"rt":-1,"accuracy":0,"outcome":"-10","keys":[],"total_keys":0,"block":1,"trial":64,"stimulus":5,"robot":3,"valence":"lose","action":"go","sham":0,"trial_type":"pit-trial","trial_index":94,"time_elapsed":560243,"internal_node_id":"0.0-69.0","task_version":"battery-v0.2-trt","session":3},{"rune":"V","rune_set":"bacs1","hex":"#f73b6a7A","correct":-1,"choice":-1,"rt":-1,"accuracy":1,"outcome":"-1","keys":[],"total_keys":0,"block":1,"trial":65,"stimulus":4,"robot":4,"valence":"lose","action":"no-go","sham":0,"trial_type":"pit-trial","trial_index":95,"time_elapsed":564250,"internal_node_id":"0.0-70.0","task_version":"battery-v0.2-trt","session":3},{"rune":"T","rune_set":"bacs1","hex":"#3366ff99","correct":-1,"choice":-1,"rt":-1,"accuracy":1,"outcome":"+10","keys":[],"total_keys":0,"block":1,"trial":66,"stimulus":6,"robot":2,"valence":"win","action":"no-go","sham":0,"trial_type":"pit-trial","trial_index":96,"time_elapsed":568254,"internal_node_id":"0.0-71.0","task_version":"battery-v0.2-trt","session":3},{"rune":"F","rune_set":"bacs1","hex":"#f73b6a7A","correct":-1,"choice":-1,"rt":-1,"accuracy":1,"outcome":"-1","keys":[],"total_keys":0,"block":1,"trial":67,"stimulus":7,"robot":4,"valence":"lose","action":"no-go","sham":0,"trial_type":"pit-trial","trial_index":97,"time_elapsed":572260,"internal_node_id":"0.0-72.0","task_version":"battery-v0.2-trt","session":3},{"rune":"E","rune_set":"bacs1","hex":"#f73b6a7A","correct":32,"choice":-1,"rt":-1,"accuracy":0,"outcome":"-1","keys":[],"total_keys":0,"block":1,"trial":68,"stimulus":5,"robot":3,"valence":"lose","action":"go","sham":1,"trial_type":"pit-trial","trial_index":98,"time_elapsed":576265,"internal_node_id":"0.0-73.0","task_version":"battery-v0.2-trt","session":3},{"rune":"F","rune_set":"bacs1","hex":"#f73b6a7A","correct":-1,"choice":-1,"rt":-1,"accuracy":1,"outcome":"-10","keys":[],"total_keys":0,"block":1,"trial":69,"stimulus":7,"robot":4,"valence":"lose","action":"no-go","sham":1,"trial_type":"pit-trial","trial_index":99,"time_elapsed":580271,"internal_node_id":"0.0-74.0","task_version":"battery-v0.2-trt","session":3},{"rune":"E","rune_set":"bacs1","hex":"#f73b6a7A","correct":32,"choice":-1,"rt":-1,"accuracy":0,"outcome":"-10","keys":[],"total_keys":0,"block":1,"trial":70,"stimulus":5,"robot":3,"valence":"lose","action":"go","sham":0,"trial_type":"pit-trial","trial_index":100,"time_elapsed":584339,"internal_node_id":"0.0-75.0","task_version":"battery-v0.2-trt","session":3},{"rune":"V","rune_set":"bacs1","hex":"#f73b6a7A","correct":-1,"choice":-1,"rt":-1,"accuracy":1,"outcome":"-1","keys":[],"total_keys":0,"block":1,"trial":71,"stimulus":4,"robot":4,"valence":"lose","action":"no-go","sham":0,"trial_type":"pit-trial","trial_index":101,"time_elapsed":588344,"internal_node_id":"0.0-76.0","task_version":"battery-v0.2-trt","session":3},{"rune":"T","rune_set":"bacs1","hex":"#3366ff99","correct":-1,"choice":-1,"rt":-1,"accuracy":1,"outcome":"+10","keys":[],"total_keys":0,"block":1,"trial":72,"stimulus":6,"robot":2,"valence":"win","action":"no-go","sham":0,"trial_type":"pit-trial","trial_index":102,"time_elapsed":592350,"internal_node_id":"0.0-77.0","task_version":"battery-v0.2-trt","session":3},{"rune":"F","rune_set":"bacs1","hex":"#f73b6a7A","correct":-1,"choice":-1,"rt":-1,"accuracy":1,"outcome":"-1","keys":[],"total_keys":0,"block":1,"trial":73,"stimulus":7,"robot":4,"valence":"lose","action":"no-go","sham":0,"trial_type":"pit-trial","trial_index":103,"time_elapsed":596355,"internal_node_id":"0.0-78.0","task_version":"battery-v0.2-trt","session":3},{"rune":"A","rune_set":"bacs1","hex":"#f73b6a7A","correct":-1,"choice":32,"rt":924.0549999959767,"accuracy":0,"outcome":"-10","keys":[2424.9500000005355],"total_keys":1,"block":1,"trial":74,"stimulus":8,"robot":4,"valence":"lose","action":"no-go","sham":0,"trial_type":"pit-trial","trial_index":104,"time_elapsed":599985,"internal_node_id":"0.0-79.0","task_version":"battery-v0.2-trt","session":3},{"rune":"E","rune_set":"bacs1","hex":"#f73b6a7A","correct":32,"choice":-1,"rt":-1,"accuracy":0,"outcome":"-10","keys":[],"total_keys":0,"block":1,"trial":75,"stimulus":5,"robot":3,"valence":"lose","action":"go","sham":0,"trial_type":"pit-trial","trial_index":105,"time_elapsed":603999,"internal_node_id":"0.0-80.0","task_version":"battery-v0.2-trt","session":3},{"rune":"T","rune_set":"bacs1","hex":"#3366ff99","correct":-1,"choice":-1,"rt":-1,"accuracy":1,"outcome":"+10","keys":[],"total_keys":0,"block":1,"trial":76,"stimulus":6,"robot":2,"valence":"win","action":"no-go","sham":0,"trial_type":"pit-trial","trial_index":106,"time_elapsed":608009,"internal_node_id":"0.0-81.0","task_version":"battery-v0.2-trt","session":3},{"rune":"E","rune_set":"bacs1","hex":"#f73b6a7A","correct":32,"choice":-1,"rt":-1,"accuracy":0,"outcome":"-10","keys":[],"total_keys":0,"block":1,"trial":77,"stimulus":5,"robot":3,"valence":"lose","action":"go","sham":0,"trial_type":"pit-trial","trial_index":107,"time_elapsed":612015,"internal_node_id":"0.0-82.0","task_version":"battery-v0.2-trt","session":3},{"rune":"T","rune_set":"bacs1","hex":"#3366ff99","correct":-1,"choice":-1,"rt":-1,"accuracy":1,"outcome":"+10","keys":[],"total_keys":0,"block":1,"trial":78,"stimulus":6,"robot":2,"valence":"win","action":"no-go","sham":0,"trial_type":"pit-trial","trial_index":108,"time_elapsed":616022,"internal_node_id":"0.0-83.0","task_version":"battery-v0.2-trt","session":3},{"rune":"A","rune_set":"bacs1","hex":"#f73b6a7A","correct":-1,"choice":32,"rt":713.3949999988545,"accuracy":0,"outcome":"-10","keys":[2215.089999997872],"total_keys":1,"block":1,"trial":79,"stimulus":8,"robot":4,"valence":"lose","action":"no-go","sham":0,"trial_type":"pit-trial","trial_index":109,"time_elapsed":619441,"internal_node_id":"0.0-84.0","task_version":"battery-v0.2-trt","session":3},{"rune":"F","rune_set":"bacs1","hex":"#f73b6a7A","correct":-1,"choice":32,"rt":615.434999999823,"accuracy":0,"outcome":"-1","keys":[2116.4950000019744],"total_keys":1,"block":1,"trial":80,"stimulus":7,"robot":4,"valence":"lose","action":"no-go","sham":1,"trial_type":"pit-trial","trial_index":110,"time_elapsed":622765,"internal_node_id":"0.0-85.0","task_version":"battery-v0.2-trt","session":3},{"rune":"A","rune_set":"bacs1","hex":"#f73b6a7A","correct":-1,"choice":-1,"rt":-1,"accuracy":1,"outcome":"-1","keys":[],"total_keys":0,"block":1,"trial":81,"stimulus":8,"robot":4,"valence":"lose","action":"no-go","sham":0,"trial_type":"pit-trial","trial_index":111,"time_elapsed":626781,"internal_node_id":"0.0-86.0","task_version":"battery-v0.2-trt","session":3},{"rune":"C","rune_set":"bacs1","hex":"#3366ff99","correct":32,"choice":-1,"rt":-1,"accuracy":0,"outcome":"+1","keys":[],"total_keys":0,"block":1,"trial":82,"stimulus":9,"robot":1,"valence":"win","action":"go","sham":0,"trial_type":"pit-trial","trial_index":112,"time_elapsed":630794,"internal_node_id":"0.0-87.0","task_version":"battery-v0.2-trt","session":3},{"rune":"T","rune_set":"bacs1","hex":"#3366ff99","correct":-1,"choice":-1,"rt":-1,"accuracy":1,"outcome":"+1","keys":[],"total_keys":0,"block":1,"trial":83,"stimulus":6,"robot":2,"valence":"win","action":"no-go","sham":1,"trial_type":"pit-trial","trial_index":113,"time_elapsed":634804,"internal_node_id":"0.0-88.0","task_version":"battery-v0.2-trt","session":3},{"rune":"L","rune_set":"bacs1","hex":"#f73b6a7A","correct":32,"choice":-1,"rt":-1,"accuracy":0,"outcome":"-1","keys":[],"total_keys":0,"block":1,"trial":84,"stimulus":10,"robot":3,"valence":"lose","action":"go","sham":1,"trial_type":"pit-trial","trial_index":114,"time_elapsed":638808,"internal_node_id":"0.0-89.0","task_version":"battery-v0.2-trt","session":3},{"rune":"L","rune_set":"bacs1","hex":"#f73b6a7A","correct":32,"choice":-1,"rt":-1,"accuracy":0,"outcome":"-10","keys":[],"total_keys":0,"block":1,"trial":85,"stimulus":10,"robot":3,"valence":"lose","action":"go","sham":0,"trial_type":"pit-trial","trial_index":115,"time_elapsed":642812,"internal_node_id":"0.0-90.0","task_version":"battery-v0.2-trt","session":3},{"rune":"A","rune_set":"bacs1","hex":"#f73b6a7A","correct":-1,"choice":-1,"rt":-1,"accuracy":1,"outcome":"-1","keys":[],"total_keys":0,"block":1,"trial":86,"stimulus":8,"robot":4,"valence":"lose","action":"no-go","sham":0,"trial_type":"pit-trial","trial_index":116,"time_elapsed":646817,"internal_node_id":"0.0-91.0","task_version":"battery-v0.2-trt","session":3},{"rune":"C","rune_set":"bacs1","hex":"#3366ff99","correct":32,"choice":-1,"rt":-1,"accuracy":0,"outcome":"+1","keys":[],"total_keys":0,"block":1,"trial":87,"stimulus":9,"robot":1,"valence":"win","action":"go","sham":0,"trial_type":"pit-trial","trial_index":117,"time_elapsed":650822,"internal_node_id":"0.0-92.0","task_version":"battery-v0.2-trt","session":3},{"rune":"T","rune_set":"bacs1","hex":"#3366ff99","correct":-1,"choice":-1,"rt":-1,"accuracy":1,"outcome":"+1","keys":[],"total_keys":0,"block":1,"trial":88,"stimulus":6,"robot":2,"valence":"win","action":"no-go","sham":1,"trial_type":"pit-trial","trial_index":118,"time_elapsed":654826,"internal_node_id":"0.0-93.0","task_version":"battery-v0.2-trt","session":3},{"rune":"L","rune_set":"bacs1","hex":"#f73b6a7A","correct":32,"choice":-1,"rt":-1,"accuracy":0,"outcome":"-10","keys":[],"total_keys":0,"block":1,"trial":89,"stimulus":10,"robot":3,"valence":"lose","action":"go","sham":0,"trial_type":"pit-trial","trial_index":119,"time_elapsed":658829,"internal_node_id":"0.0-94.0","task_version":"battery-v0.2-trt","session":3},{"rune":"A","rune_set":"bacs1","hex":"#f73b6a7A","correct":-1,"choice":-1,"rt":-1,"accuracy":1,"outcome":"-1","keys":[],"total_keys":0,"block":1,"trial":90,"stimulus":8,"robot":4,"valence":"lose","action":"no-go","sham":0,"trial_type":"pit-trial","trial_index":120,"time_elapsed":662834,"internal_node_id":"0.0-95.0","task_version":"battery-v0.2-trt","session":3},{"rune":"C","rune_set":"bacs1","hex":"#3366ff99","correct":32,"choice":32,"rt":840.1250000025611,"accuracy":1,"outcome":"+10","keys":[2340.5300000013085],"total_keys":1,"block":1,"trial":91,"stimulus":9,"robot":1,"valence":"win","action":"go","sham":0,"trial_type":"pit-trial","trial_index":121,"time_elapsed":666378,"internal_node_id":"0.0-96.0","task_version":"battery-v0.2-trt","session":3},{"rune":"Q","rune_set":"bacs1","hex":"#3366ff99","correct":32,"choice":-1,"rt":-1,"accuracy":0,"outcome":"+1","keys":[],"total_keys":0,"block":1,"trial":92,"stimulus":11,"robot":1,"valence":"win","action":"go","sham":0,"trial_type":"pit-trial","trial_index":122,"time_elapsed":670406,"internal_node_id":"0.0-97.0","task_version":"battery-v0.2-trt","session":3},{"rune":"A","rune_set":"bacs1","hex":"#f73b6a7A","correct":-1,"choice":-1,"rt":-1,"accuracy":1,"outcome":"-1","keys":[],"total_keys":0,"block":1,"trial":93,"stimulus":8,"robot":4,"valence":"lose","action":"no-go","sham":0,"trial_type":"pit-trial","trial_index":123,"time_elapsed":674410,"internal_node_id":"0.0-98.0","task_version":"battery-v0.2-trt","session":3},{"rune":"Q","rune_set":"bacs1","hex":"#3366ff99","correct":32,"choice":-1,"rt":-1,"accuracy":0,"outcome":"+10","keys":[],"total_keys":0,"block":1,"trial":94,"stimulus":11,"robot":1,"valence":"win","action":"go","sham":1,"trial_type":"pit-trial","trial_index":124,"time_elapsed":678415,"internal_node_id":"0.0-99.0","task_version":"battery-v0.2-trt","session":3},{"rune":"C","rune_set":"bacs1","hex":"#3366ff99","correct":32,"choice":32,"rt":762.2199999969453,"accuracy":1,"outcome":"+10","keys":[2263.599999998347],"total_keys":1,"block":1,"trial":95,"stimulus":9,"robot":1,"valence":"win","action":"go","sham":0,"trial_type":"pit-trial","trial_index":125,"time_elapsed":681884,"internal_node_id":"0.0-100.0","task_version":"battery-v0.2-trt","session":3},{"rune":"L","rune_set":"bacs1","hex":"#f73b6a7A","correct":32,"choice":32,"rt":749.534999995376,"accuracy":1,"outcome":"-10","keys":[2250.7549999937182],"total_keys":1,"block":1,"trial":96,"stimulus":10,"robot":3,"valence":"lose","action":"go","sham":1,"trial_type":"pit-trial","trial_index":126,"time_elapsed":685340,"internal_node_id":"0.0-101.0","task_version":"battery-v0.2-trt","session":3},{"rune":"C","rune_set":"bacs1","hex":"#3366ff99","correct":32,"choice":32,"rt":674.9400000044843,"accuracy":1,"outcome":"+10","keys":[2175.3499999976484],"total_keys":1,"block":1,"trial":97,"stimulus":9,"robot":1,"valence":"win","action":"go","sham":0,"trial_type":"pit-trial","trial_index":127,"time_elapsed":688726,"internal_node_id":"0.0-102.0","task_version":"battery-v0.2-trt","session":3},{"rune":"L","rune_set":"bacs1","hex":"#f73b6a7A","correct":32,"choice":-1,"rt":-1,"accuracy":0,"outcome":"-10","keys":[],"total_keys":0,"block":1,"trial":98,"stimulus":10,"robot":3,"valence":"lose","action":"go","sham":0,"trial_type":"pit-trial","trial_index":128,"time_elapsed":692750,"internal_node_id":"0.0-103.0","task_version":"battery-v0.2-trt","session":3},{"rune":"A","rune_set":"bacs1","hex":"#f73b6a7A","correct":-1,"choice":-1,"rt":-1,"accuracy":1,"outcome":"-10","keys":[],"total_keys":0,"block":1,"trial":99,"stimulus":8,"robot":4,"valence":"lose","action":"no-go","sham":1,"trial_type":"pit-trial","trial_index":129,"time_elapsed":696792,"internal_node_id":"0.0-104.0","task_version":"battery-v0.2-trt","session":3},{"rune":"Q","rune_set":"bacs1","hex":"#3366ff99","correct":32,"choice":-1,"rt":-1,"accuracy":0,"outcome":"+1","keys":[],"total_keys":0,"block":1,"trial":100,"stimulus":11,"robot":1,"valence":"win","action":"go","sham":0,"trial_type":"pit-trial","trial_index":130,"time_elapsed":700808,"internal_node_id":"0.0-105.0","task_version":"battery-v0.2-trt","session":3},{"rune":"L","rune_set":"bacs1","hex":"#f73b6a7A","correct":32,"choice":-1,"rt":-1,"accuracy":0,"outcome":"-10","keys":[],"total_keys":0,"block":1,"trial":101,"stimulus":10,"robot":3,"valence":"lose","action":"go","sham":0,"trial_type":"pit-trial","trial_index":131,"time_elapsed":704812,"internal_node_id":"0.0-106.0","task_version":"battery-v0.2-trt","session":3},{"rune":"C","rune_set":"bacs1","hex":"#3366ff99","correct":32,"choice":32,"rt":566.3999999960652,"accuracy":1,"outcome":"+10","keys":[2067.134999997448],"total_keys":1,"block":1,"trial":102,"stimulus":9,"robot":1,"valence":"win","action":"go","sham":0,"trial_type":"pit-trial","trial_index":132,"time_elapsed":708084,"internal_node_id":"0.0-107.0","task_version":"battery-v0.2-trt","session":3},{"rune":"Q","rune_set":"bacs1","hex":"#3366ff99","correct":32,"choice":32,"rt":673.1299999954645,"accuracy":1,"outcome":"+10","keys":[2178.829999997164],"total_keys":1,"block":1,"trial":103,"stimulus":11,"robot":1,"valence":"win","action":"go","sham":0,"trial_type":"pit-trial","trial_index":133,"time_elapsed":711466,"internal_node_id":"0.0-108.0","task_version":"battery-v0.2-trt","session":3},{"rune":"A","rune_set":"bacs1","hex":"#f73b6a7A","correct":-1,"choice":-1,"rt":-1,"accuracy":1,"outcome":"-1","keys":[],"total_keys":0,"block":1,"trial":104,"stimulus":8,"robot":4,"valence":"lose","action":"no-go","sham":0,"trial_type":"pit-trial","trial_index":134,"time_elapsed":715471,"internal_node_id":"0.0-109.0","task_version":"battery-v0.2-trt","session":3},{"rune":"A","rune_set":"bacs1","hex":"#f73b6a7A","correct":-1,"choice":-1,"rt":-1,"accuracy":1,"outcome":"-1","keys":[],"total_keys":0,"block":1,"trial":105,"stimulus":8,"robot":4,"valence":"lose","action":"no-go","sham":0,"trial_type":"pit-trial","trial_index":135,"time_elapsed":719474,"internal_node_id":"0.0-110.0","task_version":"battery-v0.2-trt","session":3},{"rune":"L","rune_set":"bacs1","hex":"#f73b6a7A","correct":32,"choice":-1,"rt":-1,"accuracy":0,"outcome":"-10","keys":[2892.9150000039954],"total_keys":1,"block":1,"trial":106,"stimulus":10,"robot":3,"valence":"lose","action":"go","sham":0,"trial_type":"pit-trial","trial_index":136,"time_elapsed":723479,"internal_node_id":"0.0-111.0","task_version":"battery-v0.2-trt","session":3},{"rune":"C","rune_set":"bacs1","hex":"#3366ff99","correct":32,"choice":32,"rt":537.8049999999348,"accuracy":1,"outcome":"+10","keys":[2038.3600000059232],"total_keys":1,"block":1,"trial":107,"stimulus":9,"robot":1,"valence":"win","action":"go","sham":0,"trial_type":"pit-trial","trial_index":137,"time_elapsed":726741,"internal_node_id":"0.0-112.0","task_version":"battery-v0.2-trt","session":3},{"rune":"Q","rune_set":"bacs1","hex":"#3366ff99","correct":32,"choice":32,"rt":715.9200000024866,"accuracy":1,"outcome":"+10","keys":[2216.5900000035763],"total_keys":1,"block":1,"trial":108,"stimulus":11,"robot":1,"valence":"win","action":"go","sham":0,"trial_type":"pit-trial","trial_index":138,"time_elapsed":730171,"internal_node_id":"0.0-113.0","task_version":"battery-v0.2-trt","session":3},{"rune":"C","rune_set":"bacs1","hex":"#3366ff99","correct":32,"choice":32,"rt":494.34499999927357,"accuracy":1,"outcome":"+1","keys":[1995.1949999958742],"total_keys":1,"block":1,"trial":109,"stimulus":9,"robot":1,"valence":"win","action":"go","sham":1,"trial_type":"pit-trial","trial_index":139,"time_elapsed":733368,"internal_node_id":"0.0-114.0","task_version":"battery-v0.2-trt","session":3},{"rune":"Q","rune_set":"bacs1","hex":"#3366ff99","correct":32,"choice":-1,"rt":-1,"accuracy":0,"outcome":"+1","keys":[],"total_keys":0,"block":1,"trial":110,"stimulus":11,"robot":1,"valence":"win","action":"go","sham":0,"trial_type":"pit-trial","trial_index":140,"time_elapsed":737374,"internal_node_id":"0.0-115.0","task_version":"battery-v0.2-trt","session":3},{"rune":"L","rune_set":"bacs1","hex":"#f73b6a7A","correct":32,"choice":-1,"rt":-1,"accuracy":0,"outcome":"-10","keys":[],"total_keys":0,"block":1,"trial":111,"stimulus":10,"robot":3,"valence":"lose","action":"go","sham":0,"trial_type":"pit-trial","trial_index":141,"time_elapsed":741379,"internal_node_id":"0.0-116.0","task_version":"battery-v0.2-trt","session":3},{"rune":"A","rune_set":"bacs1","hex":"#f73b6a7A","correct":-1,"choice":-1,"rt":-1,"accuracy":1,"outcome":"-1","keys":[],"total_keys":0,"block":1,"trial":112,"stimulus":8,"robot":4,"valence":"lose","action":"no-go","sham":0,"trial_type":"pit-trial","trial_index":142,"time_elapsed":745395,"internal_node_id":"0.0-117.0","task_version":"battery-v0.2-trt","session":3},{"rune":"A","rune_set":"bacs1","hex":"#f73b6a7A","correct":-1,"choice":-1,"rt":-1,"accuracy":1,"outcome":"-1","keys":[],"total_keys":0,"block":1,"trial":113,"stimulus":8,"robot":4,"valence":"lose","action":"no-go","sham":0,"trial_type":"pit-trial","trial_index":143,"time_elapsed":749403,"internal_node_id":"0.0-118.0","task_version":"battery-v0.2-trt","session":3},{"rune":"Q","rune_set":"bacs1","hex":"#3366ff99","correct":32,"choice":32,"rt":630.4399999936577,"accuracy":1,"outcome":"+10","keys":[2153.5599999988917],"total_keys":1,"block":1,"trial":114,"stimulus":11,"robot":1,"valence":"win","action":"go","sham":0,"trial_type":"pit-trial","trial_index":144,"time_elapsed":752773,"internal_node_id":"0.0-119.0","task_version":"battery-v0.2-trt","session":3},{"rune":"C","rune_set":"bacs1","hex":"#3366ff99","correct":32,"choice":32,"rt":772.5100000025705,"accuracy":1,"outcome":"+10","keys":[2273.479999996256],"total_keys":1,"block":1,"trial":115,"stimulus":9,"robot":1,"valence":"win","action":"go","sham":0,"trial_type":"pit-trial","trial_index":145,"time_elapsed":756250,"internal_node_id":"0.0-120.0","task_version":"battery-v0.2-trt","session":3},{"rune":"L","rune_set":"bacs1","hex":"#f73b6a7A","correct":32,"choice":-1,"rt":-1,"accuracy":0,"outcome":"-10","keys":[],"total_keys":0,"block":1,"trial":116,"stimulus":10,"robot":3,"valence":"lose","action":"go","sham":0,"trial_type":"pit-trial","trial_index":146,"time_elapsed":760273,"internal_node_id":"0.0-121.0","task_version":"battery-v0.2-trt","session":3},{"rune":"Q","rune_set":"bacs1","hex":"#3366ff99","correct":32,"choice":32,"rt":686.3049999957439,"accuracy":1,"outcome":"+1","keys":[2187.695000000531],"total_keys":1,"block":1,"trial":117,"stimulus":11,"robot":1,"valence":"win","action":"go","sham":1,"trial_type":"pit-trial","trial_index":147,"time_elapsed":763665,"internal_node_id":"0.0-122.0","task_version":"battery-v0.2-trt","session":3},{"rune":"A","rune_set":"bacs1","hex":"#f73b6a7A","correct":-1,"choice":-1,"rt":-1,"accuracy":1,"outcome":"-1","keys":[],"total_keys":0,"block":1,"trial":118,"stimulus":8,"robot":4,"valence":"lose","action":"no-go","sham":0,"trial_type":"pit-trial","trial_index":148,"time_elapsed":767685,"internal_node_id":"0.0-123.0","task_version":"battery-v0.2-trt","session":3},{"rune":"L","rune_set":"bacs1","hex":"#f73b6a7A","correct":32,"choice":-1,"rt":-1,"accuracy":0,"outcome":"-10","keys":[],"total_keys":0,"block":1,"trial":119,"stimulus":10,"robot":3,"valence":"lose","action":"go","sham":0,"trial_type":"pit-trial","trial_index":149,"time_elapsed":771697,"internal_node_id":"0.0-124.0","task_version":"battery-v0.2-trt","session":3},{"rune":"C","rune_set":"bacs1","hex":"#3366ff99","correct":32,"choice":32,"rt":979.5049999956973,"accuracy":1,"outcome":"+10","keys":[2484.1549999981653],"total_keys":1,"block":1,"trial":120,"stimulus":9,"robot":1,"valence":"win","action":"go","sham":0,"trial_type":"pit-trial","trial_index":150,"time_elapsed":775386,"internal_node_id":"0.0-125.0","task_version":"battery-v0.2-trt","session":3},{"view_history":"[{\"page_index\":0,\"viewing_time\":5833.559999999125},{\"page_index\":1,\"viewing_time\":1456.4350000000559}]","rt":7290.354999997304,"trial_type":"pit-instructions","trial_index":151,"time_elapsed":782680,"internal_node_id":"0.0-126.0","task_version":"battery-v0.2-trt","session":3},{"rune":"I","rune_set":"bacs1","hex":"#f73b6a7A","correct":-1,"choice":32,"rt":727.2250000024214,"accuracy":0,"outcome":"-10","keys":[2228.210000001127],"total_keys":1,"block":2,"trial":121,"stimulus":2,"robot":4,"valence":"lose","action":"no-go","sham":0,"trial_type":"pit-trial","trial_index":152,"time_elapsed":786113,"internal_node_id":"0.0-127.0","task_version":"battery-v0.2-trt","session":3},{"rune":"N","rune_set":"bacs1","hex":"#3366ff99","correct":-1,"choice":32,"rt":599.1650000070222,"accuracy":0,"outcome":"+1","keys":[2100.3000000054017],"total_keys":1,"block":2,"trial":122,"stimulus":0,"robot":2,"valence":"win","action":"no-go","sham":0,"trial_type":"pit-trial","trial_index":153,"time_elapsed":789417,"internal_node_id":"0.0-128.0","task_version":"battery-v0.2-trt","session":3},{"rune":"G","rune_set":"bacs1","hex":"#f73b6a7A","correct":32,"choice":-1,"rt":-1,"accuracy":0,"outcome":"-1","keys":[],"total_keys":0,"block":2,"trial":123,"stimulus":1,"robot":3,"valence":"lose","action":"go","sham":1,"trial_type":"pit-trial","trial_index":154,"time_elapsed":793450,"internal_node_id":"0.0-129.0","task_version":"battery-v0.2-trt","session":3},{"rune":"O","rune_set":"bacs1","hex":"#3366ff99","correct":32,"choice":32,"rt":965.4750000045169,"accuracy":1,"outcome":"+1","keys":[2466.9750000030035],"total_keys":1,"block":2,"trial":124,"stimulus":3,"robot":1,"valence":"win","action":"go","sham":1,"trial_type":"pit-trial","trial_index":155,"time_elapsed":797120,"internal_node_id":"0.0-130.0","task_version":"battery-v0.2-trt","session":3},{"rune":"N","rune_set":"bacs1","hex":"#3366ff99","correct":-1,"choice":-1,"rt":-1,"accuracy":1,"outcome":"+1","keys":[],"total_keys":0,"block":2,"trial":125,"stimulus":0,"robot":2,"valence":"win","action":"no-go","sham":1,"trial_type":"pit-trial","trial_index":156,"time_elapsed":801130,"internal_node_id":"0.0-131.0","task_version":"battery-v0.2-trt","session":3},{"rune":"G","rune_set":"bacs1","hex":"#f73b6a7A","correct":32,"choice":-1,"rt":-1,"accuracy":0,"outcome":"-10","keys":[],"total_keys":0,"block":2,"trial":126,"stimulus":1,"robot":3,"valence":"lose","action":"go","sham":0,"trial_type":"pit-trial","trial_index":157,"time_elapsed":805135,"internal_node_id":"0.0-132.0","task_version":"battery-v0.2-trt","session":3},{"rune":"I","rune_set":"bacs1","hex":"#f73b6a7A","correct":-1,"choice":-1,"rt":-1,"accuracy":1,"outcome":"-1","keys":[],"total_keys":0,"block":2,"trial":127,"stimulus":2,"robot":4,"valence":"lose","action":"no-go","sham":0,"trial_type":"pit-trial","trial_index":158,"time_elapsed":809147,"internal_node_id":"0.0-133.0","task_version":"battery-v0.2-trt","session":3},{"rune":"O","rune_set":"bacs1","hex":"#3366ff99","correct":32,"choice":-1,"rt":-1,"accuracy":0,"outcome":"+10","keys":[],"total_keys":0,"block":2,"trial":128,"stimulus":3,"robot":1,"valence":"win","action":"go","sham":1,"trial_type":"pit-trial","trial_index":159,"time_elapsed":813188,"internal_node_id":"0.0-134.0","task_version":"battery-v0.2-trt","session":3},{"rune":"N","rune_set":"bacs1","hex":"#3366ff99","correct":-1,"choice":32,"rt":773.7649999981513,"accuracy":0,"outcome":"+1","keys":[2273.709999993909],"total_keys":1,"block":2,"trial":129,"stimulus":0,"robot":2,"valence":"win","action":"no-go","sham":0,"trial_type":"pit-trial","trial_index":160,"time_elapsed":816679,"internal_node_id":"0.0-135.0","task_version":"battery-v0.2-trt","session":3},{"rune":"G","rune_set":"bacs1","hex":"#f73b6a7A","correct":32,"choice":32,"rt":801.0199999989709,"accuracy":1,"outcome":"-1","keys":[2302.090000004624],"total_keys":1,"block":2,"trial":130,"stimulus":1,"robot":3,"valence":"lose","action":"go","sham":0,"trial_type":"pit-trial","trial_index":161,"time_elapsed":820186,"internal_node_id":"0.0-136.0","task_version":"battery-v0.2-trt","session":3},{"rune":"O","rune_set":"bacs1","hex":"#3366ff99","correct":32,"choice":-1,"rt":-1,"accuracy":0,"outcome":"+1","keys":[],"total_keys":0,"block":2,"trial":131,"stimulus":3,"robot":1,"valence":"win","action":"go","sham":0,"trial_type":"pit-trial","trial_index":162,"time_elapsed":824191,"internal_node_id":"0.0-137.0","task_version":"battery-v0.2-trt","session":3},{"rune":"I","rune_set":"bacs1","hex":"#f73b6a7A","correct":-1,"choice":-1,"rt":-1,"accuracy":1,"outcome":"-1","keys":[],"total_keys":0,"block":2,"trial":132,"stimulus":2,"robot":4,"valence":"lose","action":"no-go","sham":0,"trial_type":"pit-trial","trial_index":163,"time_elapsed":828197,"internal_node_id":"0.0-138.0","task_version":"battery-v0.2-trt","session":3},{"rune":"O","rune_set":"bacs1","hex":"#3366ff99","correct":32,"choice":32,"rt":641.1200000002282,"accuracy":1,"outcome":"+10","keys":[2141.3099999991246],"total_keys":1,"block":2,"trial":133,"stimulus":3,"robot":1,"valence":"win","action":"go","sham":0,"trial_type":"pit-trial","trial_index":164,"time_elapsed":831545,"internal_node_id":"0.0-139.0","task_version":"battery-v0.2-trt","session":3},{"rune":"G","rune_set":"bacs1","hex":"#f73b6a7A","correct":32,"choice":32,"rt":773.0900000024121,"accuracy":1,"outcome":"-1","keys":[2274.584999999148],"total_keys":1,"block":2,"trial":134,"stimulus":1,"robot":3,"valence":"lose","action":"go","sham":0,"trial_type":"pit-trial","trial_index":165,"time_elapsed":835026,"internal_node_id":"0.0-140.0","task_version":"battery-v0.2-trt","session":3},{"rune":"N","rune_set":"bacs1","hex":"#3366ff99","correct":-1,"choice":32,"rt":710.8349999979837,"accuracy":0,"outcome":"+1","keys":[2211.664999995148],"total_keys":1,"block":2,"trial":135,"stimulus":0,"robot":2,"valence":"win","action":"no-go","sham":0,"trial_type":"pit-trial","trial_index":166,"time_elapsed":838444,"internal_node_id":"0.0-141.0","task_version":"battery-v0.2-trt","session":3},{"rune":"I","rune_set":"bacs1","hex":"#f73b6a7A","correct":-1,"choice":-1,"rt":-1,"accuracy":1,"outcome":"-10","keys":[],"total_keys":0,"block":2,"trial":136,"stimulus":2,"robot":4,"valence":"lose","action":"no-go","sham":1,"trial_type":"pit-trial","trial_index":167,"time_elapsed":842451,"internal_node_id":"0.0-142.0","task_version":"battery-v0.2-trt","session":3},{"rune":"O","rune_set":"bacs1","hex":"#3366ff99","correct":32,"choice":32,"rt":540.4149999958463,"accuracy":1,"outcome":"+10","keys":[2042.6299999963958],"total_keys":1,"block":2,"trial":137,"stimulus":3,"robot":1,"valence":"win","action":"go","sham":0,"trial_type":"pit-trial","trial_index":168,"time_elapsed":845708,"internal_node_id":"0.0-143.0","task_version":"battery-v0.2-trt","session":3},{"rune":"I","rune_set":"bacs1","hex":"#f73b6a7A","correct":-1,"choice":-1,"rt":-1,"accuracy":1,"outcome":"-1","keys":[],"total_keys":0,"block":2,"trial":138,"stimulus":2,"robot":4,"valence":"lose","action":"no-go","sham":0,"trial_type":"pit-trial","trial_index":169,"time_elapsed":849734,"internal_node_id":"0.0-144.0","task_version":"battery-v0.2-trt","session":3},{"rune":"G","rune_set":"bacs1","hex":"#f73b6a7A","correct":32,"choice":32,"rt":572.0350000046892,"accuracy":1,"outcome":"-10","keys":[2072.500000001979],"total_keys":1,"block":2,"trial":139,"stimulus":1,"robot":3,"valence":"lose","action":"go","sham":1,"trial_type":"pit-trial","trial_index":170,"time_elapsed":853010,"internal_node_id":"0.0-145.0","task_version":"battery-v0.2-trt","session":3},{"rune":"N","rune_set":"bacs1","hex":"#3366ff99","correct":-1,"choice":32,"rt":616.9650000010151,"accuracy":0,"outcome":"+10","keys":[2119.7350000003353],"total_keys":1,"block":2,"trial":140,"stimulus":0,"robot":2,"valence":"win","action":"no-go","sham":1,"trial_type":"pit-trial","trial_index":171,"time_elapsed":856333,"internal_node_id":"0.0-146.0","task_version":"battery-v0.2-trt","session":3},{"rune":"G","rune_set":"bacs1","hex":"#f73b6a7A","correct":32,"choice":32,"rt":594.2250000006752,"accuracy":1,"outcome":"-1","keys":[2095.775000001653],"total_keys":1,"block":2,"trial":141,"stimulus":1,"robot":3,"valence":"lose","action":"go","sham":0,"trial_type":"pit-trial","trial_index":172,"time_elapsed":859634,"internal_node_id":"0.0-147.0","task_version":"battery-v0.2-trt","session":3},{"rune":"I","rune_set":"bacs1","hex":"#f73b6a7A","correct":-1,"choice":-1,"rt":-1,"accuracy":1,"outcome":"-1","keys":[],"total_keys":0,"block":2,"trial":142,"stimulus":2,"robot":4,"valence":"lose","action":"no-go","sham":0,"trial_type":"pit-trial","trial_index":173,"time_elapsed":863640,"internal_node_id":"0.0-148.0","task_version":"battery-v0.2-trt","session":3},{"rune":"O","rune_set":"bacs1","hex":"#3366ff99","correct":32,"choice":32,"rt":627.1399999968708,"accuracy":1,"outcome":"+10","keys":[2127.169999999809],"total_keys":1,"block":2,"trial":143,"stimulus":3,"robot":1,"valence":"win","action":"go","sham":0,"trial_type":"pit-trial","trial_index":174,"time_elapsed":866974,"internal_node_id":"0.0-149.0","task_version":"battery-v0.2-trt","session":3},{"rune":"N","rune_set":"bacs1","hex":"#3366ff99","correct":-1,"choice":32,"rt":570.6250000002328,"accuracy":0,"outcome":"+1","keys":[2071.3449999967124],"total_keys":1,"block":2,"trial":144,"stimulus":0,"robot":2,"valence":"win","action":"no-go","sham":0,"trial_type":"pit-trial","trial_index":175,"time_elapsed":870250,"internal_node_id":"0.0-150.0","task_version":"battery-v0.2-trt","session":3},{"rune":"G","rune_set":"bacs1","hex":"#f73b6a7A","correct":32,"choice":32,"rt":540.9850000068545,"accuracy":1,"outcome":"-1","keys":[2051.0749999957625],"total_keys":1,"block":2,"trial":145,"stimulus":1,"robot":3,"valence":"lose","action":"go","sham":0,"trial_type":"pit-trial","trial_index":176,"time_elapsed":873505,"internal_node_id":"0.0-151.0","task_version":"battery-v0.2-trt","session":3},{"rune":"I","rune_set":"bacs1","hex":"#f73b6a7A","correct":-1,"choice":-1,"rt":-1,"accuracy":1,"outcome":"-1","keys":[],"total_keys":0,"block":2,"trial":146,"stimulus":2,"robot":4,"valence":"lose","action":"no-go","sham":0,"trial_type":"pit-trial","trial_index":177,"time_elapsed":877510,"internal_node_id":"0.0-152.0","task_version":"battery-v0.2-trt","session":3},{"rune":"N","rune_set":"bacs1","hex":"#3366ff99","correct":-1,"choice":-1,"rt":-1,"accuracy":1,"outcome":"+1","keys":[],"total_keys":0,"block":2,"trial":147,"stimulus":0,"robot":2,"valence":"win","action":"no-go","sham":1,"trial_type":"pit-trial","trial_index":178,"time_elapsed":881514,"internal_node_id":"0.0-153.0","task_version":"battery-v0.2-trt","session":3},{"rune":"O","rune_set":"bacs1","hex":"#3366ff99","correct":32,"choice":32,"rt":514.3049999970244,"accuracy":1,"outcome":"+10","keys":[2017.9549999956507],"total_keys":1,"block":2,"trial":148,"stimulus":3,"robot":1,"valence":"win","action":"go","sham":0,"trial_type":"pit-trial","trial_index":179,"time_elapsed":884741,"internal_node_id":"0.0-154.0","task_version":"battery-v0.2-trt","session":3},{"rune":"I","rune_set":"bacs1","hex":"#f73b6a7A","correct":-1,"choice":-1,"rt":-1,"accuracy":1,"outcome":"-1","keys":[],"total_keys":0,"block":2,"trial":149,"stimulus":2,"robot":4,"valence":"lose","action":"no-go","sham":0,"trial_type":"pit-trial","trial_index":180,"time_elapsed":888753,"internal_node_id":"0.0-155.0","task_version":"battery-v0.2-trt","session":3},{"rune":"O","rune_set":"bacs1","hex":"#3366ff99","correct":32,"choice":32,"rt":504.5749999990221,"accuracy":1,"outcome":"+1","keys":[2012.1700000017881],"total_keys":1,"block":2,"trial":150,"stimulus":3,"robot":1,"valence":"win","action":"go","sham":1,"trial_type":"pit-trial","trial_index":181,"time_elapsed":891969,"internal_node_id":"0.0-156.0","task_version":"battery-v0.2-trt","session":3},{"rune":"G","rune_set":"bacs1","hex":"#f73b6a7A","correct":32,"choice":32,"rt":515.5099999974482,"accuracy":1,"outcome":"-1","keys":[2036.8799999996554],"total_keys":1,"block":2,"trial":151,"stimulus":1,"robot":3,"valence":"lose","action":"go","sham":0,"trial_type":"pit-trial","trial_index":182,"time_elapsed":895220,"internal_node_id":"0.0-157.0","task_version":"battery-v0.2-trt","session":3},{"rune":"N","rune_set":"bacs1","hex":"#3366ff99","correct":-1,"choice":32,"rt":853.4050000016578,"accuracy":0,"outcome":"+1","keys":[2370.725000000559],"total_keys":1,"block":2,"trial":152,"stimulus":0,"robot":2,"valence":"win","action":"no-go","sham":0,"trial_type":"pit-trial","trial_index":183,"time_elapsed":898801,"internal_node_id":"0.0-158.0","task_version":"battery-v0.2-trt","session":3},{"rune":"K","rune_set":"bacs1","hex":"#f73b6a7A","correct":-1,"choice":-1,"rt":-1,"accuracy":1,"outcome":"-1","keys":[],"total_keys":0,"block":2,"trial":153,"stimulus":5,"robot":4,"valence":"lose","action":"no-go","sham":0,"trial_type":"pit-trial","trial_index":184,"time_elapsed":902813,"internal_node_id":"0.0-159.0","task_version":"battery-v0.2-trt","session":3},{"rune":"I","rune_set":"bacs1","hex":"#f73b6a7A","correct":-1,"choice":-1,"rt":-1,"accuracy":1,"outcome":"-1","keys":[],"total_keys":0,"block":2,"trial":154,"stimulus":2,"robot":4,"valence":"lose","action":"no-go","sham":0,"trial_type":"pit-trial","trial_index":185,"time_elapsed":906824,"internal_node_id":"0.0-160.0","task_version":"battery-v0.2-trt","session":3},{"rune":"D","rune_set":"bacs1","hex":"#f73b6a7A","correct":32,"choice":32,"rt":784.2549999987241,"accuracy":1,"outcome":"-1","keys":[2286.045000000624],"total_keys":1,"block":2,"trial":155,"stimulus":4,"robot":3,"valence":"lose","action":"go","sham":0,"trial_type":"pit-trial","trial_index":186,"time_elapsed":910323,"internal_node_id":"0.0-161.0","task_version":"battery-v0.2-trt","session":3},{"rune":"G","rune_set":"bacs1","hex":"#f73b6a7A","correct":32,"choice":32,"rt":836.8150000022724,"accuracy":1,"outcome":"-10","keys":[2338.2200000050943],"total_keys":1,"block":2,"trial":156,"stimulus":1,"robot":3,"valence":"lose","action":"go","sham":1,"trial_type":"pit-trial","trial_index":187,"time_elapsed":913865,"internal_node_id":"0.0-162.0","task_version":"battery-v0.2-trt","session":3},{"rune":"D","rune_set":"bacs1","hex":"#f73b6a7A","correct":32,"choice":32,"rt":831.6249999989523,"accuracy":1,"outcome":"-1","keys":[2333.305000000051],"total_keys":1,"block":2,"trial":157,"stimulus":4,"robot":3,"valence":"lose","action":"go","sham":0,"trial_type":"pit-trial","trial_index":188,"time_elapsed":917403,"internal_node_id":"0.0-163.0","task_version":"battery-v0.2-trt","session":3},{"rune":"I","rune_set":"bacs1","hex":"#f73b6a7A","correct":-1,"choice":-1,"rt":-1,"accuracy":1,"outcome":"-1","keys":[],"total_keys":0,"block":2,"trial":158,"stimulus":2,"robot":4,"valence":"lose","action":"no-go","sham":0,"trial_type":"pit-trial","trial_index":189,"time_elapsed":921409,"internal_node_id":"0.0-164.0","task_version":"battery-v0.2-trt","session":3},{"rune":"G","rune_set":"bacs1","hex":"#f73b6a7A","correct":32,"choice":32,"rt":595.0400000002701,"accuracy":1,"outcome":"-10","keys":[2095.535000000382],"total_keys":1,"block":2,"trial":159,"stimulus":1,"robot":3,"valence":"lose","action":"go","sham":1,"trial_type":"pit-trial","trial_index":190,"time_elapsed":924758,"internal_node_id":"0.0-165.0","task_version":"battery-v0.2-trt","session":3},{"rune":"K","rune_set":"bacs1","hex":"#f73b6a7A","correct":-1,"choice":-1,"rt":-1,"accuracy":1,"outcome":"-10","keys":[],"total_keys":0,"block":2,"trial":160,"stimulus":5,"robot":4,"valence":"lose","action":"no-go","sham":1,"trial_type":"pit-trial","trial_index":191,"time_elapsed":928761,"internal_node_id":"0.0-166.0","task_version":"battery-v0.2-trt","session":3},{"rune":"S","rune_set":"bacs1","hex":"#3366ff99","correct":-1,"choice":32,"rt":718.4849999975413,"accuracy":0,"outcome":"+1","keys":[2219.119999994291],"total_keys":1,"block":2,"trial":161,"stimulus":6,"robot":2,"valence":"win","action":"no-go","sham":0,"trial_type":"pit-trial","trial_index":192,"time_elapsed":932185,"internal_node_id":"0.0-167.0","task_version":"battery-v0.2-trt","session":3},{"rune":"I","rune_set":"bacs1","hex":"#f73b6a7A","correct":-1,"choice":-1,"rt":-1,"accuracy":1,"outcome":"-1","keys":[],"total_keys":0,"block":2,"trial":162,"stimulus":2,"robot":4,"valence":"lose","action":"no-go","sham":0,"trial_type":"pit-trial","trial_index":193,"time_elapsed":936190,"internal_node_id":"0.0-168.0","task_version":"battery-v0.2-trt","session":3},{"rune":"K","rune_set":"bacs1","hex":"#f73b6a7A","correct":-1,"choice":32,"rt":753.6350000009406,"accuracy":0,"outcome":"-10","keys":[2254.41499999573],"total_keys":1,"block":2,"trial":163,"stimulus":5,"robot":4,"valence":"lose","action":"no-go","sham":0,"trial_type":"pit-trial","trial_index":194,"time_elapsed":939650,"internal_node_id":"0.0-169.0","task_version":"battery-v0.2-trt","session":3},{"rune":"D","rune_set":"bacs1","hex":"#f73b6a7A","correct":32,"choice":32,"rt":701.7000000050757,"accuracy":1,"outcome":"-1","keys":[2212.05500000366],"total_keys":1,"block":2,"trial":164,"stimulus":4,"robot":3,"valence":"lose","action":"go","sham":0,"trial_type":"pit-trial","trial_index":195,"time_elapsed":943066,"internal_node_id":"0.0-170.0","task_version":"battery-v0.2-trt","session":3},{"rune":"K","rune_set":"bacs1","hex":"#f73b6a7A","correct":-1,"choice":-1,"rt":-1,"accuracy":1,"outcome":"-1","keys":[],"total_keys":0,"block":2,"trial":165,"stimulus":5,"robot":4,"valence":"lose","action":"no-go","sham":0,"trial_type":"pit-trial","trial_index":196,"time_elapsed":947072,"internal_node_id":"0.0-171.0","task_version":"battery-v0.2-trt","session":3},{"rune":"I","rune_set":"bacs1","hex":"#f73b6a7A","correct":-1,"choice":-1,"rt":-1,"accuracy":1,"outcome":"-1","keys":[],"total_keys":0,"block":2,"trial":166,"stimulus":2,"robot":4,"valence":"lose","action":"no-go","sham":0,"trial_type":"pit-trial","trial_index":197,"time_elapsed":951077,"internal_node_id":"0.0-172.0","task_version":"battery-v0.2-trt","session":3},{"rune":"S","rune_set":"bacs1","hex":"#3366ff99","correct":-1,"choice":-1,"rt":-1,"accuracy":1,"outcome":"+10","keys":[],"total_keys":0,"block":2,"trial":167,"stimulus":6,"robot":2,"valence":"win","action":"no-go","sham":0,"trial_type":"pit-trial","trial_index":198,"time_elapsed":955082,"internal_node_id":"0.0-173.0","task_version":"battery-v0.2-trt","session":3},{"rune":"D","rune_set":"bacs1","hex":"#f73b6a7A","correct":32,"choice":32,"rt":567.5349999946775,"accuracy":1,"outcome":"-1","keys":[2068.310000002384],"total_keys":1,"block":2,"trial":168,"stimulus":4,"robot":3,"valence":"lose","action":"go","sham":0,"trial_type":"pit-trial","trial_index":199,"time_elapsed":958354,"internal_node_id":"0.0-174.0","task_version":"battery-v0.2-trt","session":3},{"rune":"S","rune_set":"bacs1","hex":"#3366ff99","correct":-1,"choice":-1,"rt":-1,"accuracy":1,"outcome":"+10","keys":[],"total_keys":0,"block":2,"trial":169,"stimulus":6,"robot":2,"valence":"win","action":"no-go","sham":0,"trial_type":"pit-trial","trial_index":200,"time_elapsed":962359,"internal_node_id":"0.0-175.0","task_version":"battery-v0.2-trt","session":3},{"rune":"D","rune_set":"bacs1","hex":"#f73b6a7A","correct":32,"choice":32,"rt":537.7850000004983,"accuracy":1,"outcome":"-1","keys":[2038.70000000461],"total_keys":1,"block":2,"trial":170,"stimulus":4,"robot":3,"valence":"lose","action":"go","sham":0,"trial_type":"pit-trial","trial_index":201,"time_elapsed":965602,"internal_node_id":"0.0-176.0","task_version":"battery-v0.2-trt","session":3},{"rune":"U","rune_set":"bacs1","hex":"#3366ff99","correct":32,"choice":-1,"rt":-1,"accuracy":0,"outcome":"+1","keys":[],"total_keys":0,"block":2,"trial":171,"stimulus":7,"robot":1,"valence":"win","action":"go","sham":0,"trial_type":"pit-trial","trial_index":202,"time_elapsed":969608,"internal_node_id":"0.0-177.0","task_version":"battery-v0.2-trt","session":3},{"rune":"K","rune_set":"bacs1","hex":"#f73b6a7A","correct":-1,"choice":-1,"rt":-1,"accuracy":1,"outcome":"-1","keys":[],"total_keys":0,"block":2,"trial":172,"stimulus":5,"robot":4,"valence":"lose","action":"no-go","sham":0,"trial_type":"pit-trial","trial_index":203,"time_elapsed":973622,"internal_node_id":"0.0-178.0","task_version":"battery-v0.2-trt","session":3},{"rune":"U","rune_set":"bacs1","hex":"#3366ff99","correct":32,"choice":32,"rt":715.6749999995809,"accuracy":1,"outcome":"+10","keys":[2216.710000000545],"total_keys":1,"block":2,"trial":173,"stimulus":7,"robot":1,"valence":"win","action":"go","sham":0,"trial_type":"pit-trial","trial_index":204,"time_elapsed":977043,"internal_node_id":"0.0-179.0","task_version":"battery-v0.2-trt","session":3},{"rune":"S","rune_set":"bacs1","hex":"#3366ff99","correct":-1,"choice":-1,"rt":-1,"accuracy":1,"outcome":"+1","keys":[],"total_keys":0,"block":2,"trial":174,"stimulus":6,"robot":2,"valence":"win","action":"no-go","sham":1,"trial_type":"pit-trial","trial_index":205,"time_elapsed":981047,"internal_node_id":"0.0-180.0","task_version":"battery-v0.2-trt","session":3},{"rune":"K","rune_set":"bacs1","hex":"#f73b6a7A","correct":-1,"choice":-1,"rt":-1,"accuracy":1,"outcome":"-10","keys":[],"total_keys":0,"block":2,"trial":175,"stimulus":5,"robot":4,"valence":"lose","action":"no-go","sham":1,"trial_type":"pit-trial","trial_index":206,"time_elapsed":985051,"internal_node_id":"0.0-181.0","task_version":"battery-v0.2-trt","session":3},{"rune":"D","rune_set":"bacs1","hex":"#f73b6a7A","correct":32,"choice":32,"rt":526.1600000011967,"accuracy":1,"outcome":"-1","keys":[2026.9550000011222],"total_keys":1,"block":2,"trial":176,"stimulus":4,"robot":3,"valence":"lose","action":"go","sham":0,"trial_type":"pit-trial","trial_index":207,"time_elapsed":988281,"internal_node_id":"0.0-182.0","task_version":"battery-v0.2-trt","session":3},{"rune":"S","rune_set":"bacs1","hex":"#3366ff99","correct":-1,"choice":32,"rt":638.234999998589,"accuracy":0,"outcome":"+1","keys":[2140.2000000016997],"total_keys":1,"block":2,"trial":177,"stimulus":6,"robot":2,"valence":"win","action":"no-go","sham":0,"trial_type":"pit-trial","trial_index":208,"time_elapsed":991643,"internal_node_id":"0.0-183.0","task_version":"battery-v0.2-trt","session":3},{"rune":"U","rune_set":"bacs1","hex":"#3366ff99","correct":32,"choice":32,"rt":662.6399999950081,"accuracy":1,"outcome":"+1","keys":[2163.5400000014342],"total_keys":1,"block":2,"trial":178,"stimulus":7,"robot":1,"valence":"win","action":"go","sham":1,"trial_type":"pit-trial","trial_index":209,"time_elapsed":995012,"internal_node_id":"0.0-184.0","task_version":"battery-v0.2-trt","session":3},{"rune":"K","rune_set":"bacs1","hex":"#f73b6a7A","correct":-1,"choice":32,"rt":1153.5799999983283,"accuracy":0,"outcome":"-10","keys":[2655.384999998263],"total_keys":1,"block":2,"trial":179,"stimulus":5,"robot":4,"valence":"lose","action":"no-go","sham":0,"trial_type":"pit-trial","trial_index":210,"time_elapsed":998888,"internal_node_id":"0.0-185.0","task_version":"battery-v0.2-trt","session":3},{"rune":"D","rune_set":"bacs1","hex":"#f73b6a7A","correct":32,"choice":32,"rt":461.6350000068778,"accuracy":1,"outcome":"-1","keys":[1963.689999996801],"total_keys":1,"block":2,"trial":180,"stimulus":4,"robot":3,"valence":"lose","action":"go","sham":0,"trial_type":"pit-trial","trial_index":211,"time_elapsed":1002056,"internal_node_id":"0.0-186.0","task_version":"battery-v0.2-trt","session":3},{"rune":"D","rune_set":"bacs1","hex":"#f73b6a7A","correct":32,"choice":32,"rt":456.6999999952968,"accuracy":1,"outcome":"-1","keys":[1957.8550000005635],"total_keys":1,"block":2,"trial":181,"stimulus":4,"robot":3,"valence":"lose","action":"go","sham":0,"trial_type":"pit-trial","trial_index":212,"time_elapsed":1005221,"internal_node_id":"0.0-187.0","task_version":"battery-v0.2-trt","session":3},{"rune":"U","rune_set":"bacs1","hex":"#3366ff99","correct":32,"choice":-1,"rt":-1,"accuracy":0,"outcome":"+10","keys":[],"total_keys":0,"block":2,"trial":182,"stimulus":7,"robot":1,"valence":"win","action":"go","sham":1,"trial_type":"pit-trial","trial_index":213,"time_elapsed":1009228,"internal_node_id":"0.0-188.0","task_version":"battery-v0.2-trt","session":3},{"rune":"K","rune_set":"bacs1","hex":"#f73b6a7A","correct":-1,"choice":-1,"rt":-1,"accuracy":1,"outcome":"-10","keys":[],"total_keys":0,"block":2,"trial":183,"stimulus":5,"robot":4,"valence":"lose","action":"no-go","sham":1,"trial_type":"pit-trial","trial_index":214,"time_elapsed":1013232,"internal_node_id":"0.0-189.0","task_version":"battery-v0.2-trt","session":3},{"rune":"S","rune_set":"bacs1","hex":"#3366ff99","correct":-1,"choice":-1,"rt":-1,"accuracy":1,"outcome":"+1","keys":[],"total_keys":0,"block":2,"trial":184,"stimulus":6,"robot":2,"valence":"win","action":"no-go","sham":1,"trial_type":"pit-trial","trial_index":215,"time_elapsed":1017236,"internal_node_id":"0.0-190.0","task_version":"battery-v0.2-trt","session":3},{"rune":"K","rune_set":"bacs1","hex":"#f73b6a7A","correct":-1,"choice":-1,"rt":-1,"accuracy":1,"outcome":"-10","keys":[],"total_keys":0,"block":2,"trial":185,"stimulus":5,"robot":4,"valence":"lose","action":"no-go","sham":1,"trial_type":"pit-trial","trial_index":216,"time_elapsed":1021240,"internal_node_id":"0.0-191.0","task_version":"battery-v0.2-trt","session":3},{"rune":"U","rune_set":"bacs1","hex":"#3366ff99","correct":32,"choice":-1,"rt":-1,"accuracy":0,"outcome":"+1","keys":[],"total_keys":0,"block":2,"trial":186,"stimulus":7,"robot":1,"valence":"win","action":"go","sham":0,"trial_type":"pit-trial","trial_index":217,"time_elapsed":1025252,"internal_node_id":"0.0-192.0","task_version":"battery-v0.2-trt","session":3},{"rune":"S","rune_set":"bacs1","hex":"#3366ff99","correct":-1,"choice":32,"rt":772.6599999950267,"accuracy":0,"outcome":"+1","keys":[2274.230000002659],"total_keys":1,"block":2,"trial":187,"stimulus":6,"robot":2,"valence":"win","action":"no-go","sham":0,"trial_type":"pit-trial","trial_index":218,"time_elapsed":1028744,"internal_node_id":"0.0-193.0","task_version":"battery-v0.2-trt","session":3},{"rune":"D","rune_set":"bacs1","hex":"#f73b6a7A","correct":32,"choice":32,"rt":609.5750000021653,"accuracy":1,"outcome":"-10","keys":[2110.9599999981],"total_keys":1,"block":2,"trial":188,"stimulus":4,"robot":3,"valence":"lose","action":"go","sham":1,"trial_type":"pit-trial","trial_index":219,"time_elapsed":1032066,"internal_node_id":"0.0-194.0","task_version":"battery-v0.2-trt","session":3},{"rune":"K","rune_set":"bacs1","hex":"#f73b6a7A","correct":-1,"choice":-1,"rt":-1,"accuracy":1,"outcome":"-1","keys":[],"total_keys":0,"block":2,"trial":189,"stimulus":5,"robot":4,"valence":"lose","action":"no-go","sham":0,"trial_type":"pit-trial","trial_index":220,"time_elapsed":1036074,"internal_node_id":"0.0-195.0","task_version":"battery-v0.2-trt","session":3},{"rune":"U","rune_set":"bacs1","hex":"#3366ff99","correct":32,"choice":-1,"rt":-1,"accuracy":0,"outcome":"+1","keys":[],"total_keys":0,"block":2,"trial":190,"stimulus":7,"robot":1,"valence":"win","action":"go","sham":0,"trial_type":"pit-trial","trial_index":221,"time_elapsed":1040081,"internal_node_id":"0.0-196.0","task_version":"battery-v0.2-trt","session":3},{"rune":"S","rune_set":"bacs1","hex":"#3366ff99","correct":-1,"choice":32,"rt":759.1949999986682,"accuracy":0,"outcome":"+10","keys":[2260.1600000052713],"total_keys":1,"block":2,"trial":191,"stimulus":6,"robot":2,"valence":"win","action":"no-go","sham":1,"trial_type":"pit-trial","trial_index":222,"time_elapsed":1043547,"internal_node_id":"0.0-197.0","task_version":"battery-v0.2-trt","session":3},{"rune":"D","rune_set":"bacs1","hex":"#f73b6a7A","correct":32,"choice":32,"rt":844.1049999964889,"accuracy":1,"outcome":"-1","keys":[2346.1999999999534],"total_keys":1,"block":2,"trial":192,"stimulus":4,"robot":3,"valence":"lose","action":"go","sham":0,"trial_type":"pit-trial","trial_index":223,"time_elapsed":1047098,"internal_node_id":"0.0-198.0","task_version":"battery-v0.2-trt","session":3},{"rune":"S","rune_set":"bacs1","hex":"#3366ff99","correct":-1,"choice":32,"rt":880.2099999957718,"accuracy":0,"outcome":"+10","keys":[2382.749999996973],"total_keys":1,"block":2,"trial":193,"stimulus":6,"robot":2,"valence":"win","action":"no-go","sham":1,"trial_type":"pit-trial","trial_index":224,"time_elapsed":1050686,"internal_node_id":"0.0-199.0","task_version":"battery-v0.2-trt","session":3},{"rune":"M","rune_set":"bacs1","hex":"#3366ff99","correct":32,"choice":32,"rt":734.7650000010617,"accuracy":1,"outcome":"+10","keys":[2239.4700000006706],"total_keys":1,"block":2,"trial":194,"stimulus":8,"robot":1,"valence":"win","action":"go","sham":0,"trial_type":"pit-trial","trial_index":225,"time_elapsed":1054140,"internal_node_id":"0.0-200.0","task_version":"battery-v0.2-trt","session":3},{"rune":"D","rune_set":"bacs1","hex":"#f73b6a7A","correct":32,"choice":32,"rt":668.705000003567,"accuracy":1,"outcome":"-1","keys":[2169.6749999974854],"total_keys":1,"block":2,"trial":195,"stimulus":4,"robot":3,"valence":"lose","action":"go","sham":0,"trial_type":"pit-trial","trial_index":226,"time_elapsed":1057512,"internal_node_id":"0.0-201.0","task_version":"battery-v0.2-trt","session":3},{"rune":"U","rune_set":"bacs1","hex":"#3366ff99","correct":32,"choice":32,"rt":773.9949999959208,"accuracy":1,"outcome":"+10","keys":[2276.799999999581],"total_keys":1,"block":2,"trial":196,"stimulus":7,"robot":1,"valence":"win","action":"go","sham":0,"trial_type":"pit-trial","trial_index":227,"time_elapsed":1060993,"internal_node_id":"0.0-202.0","task_version":"battery-v0.2-trt","session":3},{"rune":"M","rune_set":"bacs1","hex":"#3366ff99","correct":32,"choice":32,"rt":631.4100000017788,"accuracy":1,"outcome":"+10","keys":[2131.43500000285],"total_keys":1,"block":2,"trial":197,"stimulus":8,"robot":1,"valence":"win","action":"go","sham":0,"trial_type":"pit-trial","trial_index":228,"time_elapsed":1064329,"internal_node_id":"0.0-203.0","task_version":"battery-v0.2-trt","session":3},{"rune":"S","rune_set":"bacs1","hex":"#3366ff99","correct":-1,"choice":32,"rt":488.810000002617,"accuracy":0,"outcome":"+10","keys":[1989.6500000031665],"total_keys":1,"block":2,"trial":198,"stimulus":6,"robot":2,"valence":"win","action":"no-go","sham":1,"trial_type":"pit-trial","trial_index":229,"time_elapsed":1067522,"internal_node_id":"0.0-204.0","task_version":"battery-v0.2-trt","session":3},{"rune":"D","rune_set":"bacs1","hex":"#f73b6a7A","correct":32,"choice":32,"rt":535.4650000010151,"accuracy":1,"outcome":"-1","keys":[2059.60999999661],"total_keys":1,"block":2,"trial":199,"stimulus":4,"robot":3,"valence":"lose","action":"go","sham":0,"trial_type":"pit-trial","trial_index":230,"time_elapsed":1070790,"internal_node_id":"0.0-205.0","task_version":"battery-v0.2-trt","session":3},{"rune":"U","rune_set":"bacs1","hex":"#3366ff99","correct":32,"choice":32,"rt":354.8400000000838,"accuracy":1,"outcome":"+10","keys":[1855.2850000050385],"total_keys":1,"block":2,"trial":200,"stimulus":7,"robot":1,"valence":"win","action":"go","sham":0,"trial_type":"pit-trial","trial_index":231,"time_elapsed":1073851,"internal_node_id":"0.0-206.0","task_version":"battery-v0.2-trt","session":3},{"rune":"U","rune_set":"bacs1","hex":"#3366ff99","correct":32,"choice":32,"rt":606.3199999991339,"accuracy":1,"outcome":"+10","keys":[2107.0999999938067],"total_keys":1,"block":2,"trial":201,"stimulus":7,"robot":1,"valence":"win","action":"go","sham":0,"trial_type":"pit-trial","trial_index":232,"time_elapsed":1077161,"internal_node_id":"0.0-207.0","task_version":"battery-v0.2-trt","session":3},{"rune":"S","rune_set":"bacs1","hex":"#3366ff99","correct":-1,"choice":32,"rt":385.929999996908,"accuracy":0,"outcome":"+1","keys":[1888.0399999979418],"total_keys":1,"block":2,"trial":202,"stimulus":6,"robot":2,"valence":"win","action":"no-go","sham":0,"trial_type":"pit-trial","trial_index":233,"time_elapsed":1080253,"internal_node_id":"0.0-208.0","task_version":"battery-v0.2-trt","session":3},{"rune":"P","rune_set":"bacs1","hex":"#3366ff99","correct":-1,"choice":32,"rt":585.9599999967031,"accuracy":0,"outcome":"+1","keys":[2087.8700000029057],"total_keys":1,"block":2,"trial":203,"stimulus":9,"robot":2,"valence":"win","action":"no-go","sham":0,"trial_type":"pit-trial","trial_index":234,"time_elapsed":1083547,"internal_node_id":"0.0-209.0","task_version":"battery-v0.2-trt","session":3},{"rune":"M","rune_set":"bacs1","hex":"#3366ff99","correct":32,"choice":32,"rt":604.8149999990128,"accuracy":1,"outcome":"+10","keys":[2106.9649999991525],"total_keys":1,"block":2,"trial":204,"stimulus":8,"robot":1,"valence":"win","action":"go","sham":0,"trial_type":"pit-trial","trial_index":235,"time_elapsed":1086857,"internal_node_id":"0.0-210.0","task_version":"battery-v0.2-trt","session":3},{"rune":"U","rune_set":"bacs1","hex":"#3366ff99","correct":32,"choice":32,"rt":456.98499999707565,"accuracy":1,"outcome":"+10","keys":[1958.7850000024773],"total_keys":1,"block":2,"trial":205,"stimulus":7,"robot":1,"valence":"win","action":"go","sham":0,"trial_type":"pit-trial","trial_index":236,"time_elapsed":1090022,"internal_node_id":"0.0-211.0","task_version":"battery-v0.2-trt","session":3},{"rune":"M","rune_set":"bacs1","hex":"#3366ff99","correct":32,"choice":32,"rt":531.2049999991432,"accuracy":1,"outcome":"+10","keys":[2032.5349999985192],"total_keys":1,"block":2,"trial":206,"stimulus":8,"robot":1,"valence":"win","action":"go","sham":0,"trial_type":"pit-trial","trial_index":237,"time_elapsed":1093260,"internal_node_id":"0.0-212.0","task_version":"battery-v0.2-trt","session":3},{"rune":"S","rune_set":"bacs1","hex":"#3366ff99","correct":-1,"choice":32,"rt":522.3650000044145,"accuracy":0,"outcome":"+10","keys":[2025.4050000002608],"total_keys":1,"block":2,"trial":207,"stimulus":6,"robot":2,"valence":"win","action":"no-go","sham":1,"trial_type":"pit-trial","trial_index":238,"time_elapsed":1096490,"internal_node_id":"0.0-213.0","task_version":"battery-v0.2-trt","session":3},{"rune":"P","rune_set":"bacs1","hex":"#3366ff99","correct":-1,"choice":-1,"rt":-1,"accuracy":1,"outcome":"+10","keys":[],"total_keys":0,"block":2,"trial":208,"stimulus":9,"robot":2,"valence":"win","action":"no-go","sham":0,"trial_type":"pit-trial","trial_index":239,"time_elapsed":1100507,"internal_node_id":"0.0-214.0","task_version":"battery-v0.2-trt","session":3},{"rune":"P","rune_set":"bacs1","hex":"#3366ff99","correct":-1,"choice":-1,"rt":-1,"accuracy":1,"outcome":"+10","keys":[],"total_keys":0,"block":2,"trial":209,"stimulus":9,"robot":2,"valence":"win","action":"no-go","sham":0,"trial_type":"pit-trial","trial_index":240,"time_elapsed":1104512,"internal_node_id":"0.0-215.0","task_version":"battery-v0.2-trt","session":3},{"rune":"M","rune_set":"bacs1","hex":"#3366ff99","correct":32,"choice":32,"rt":603.6600000006147,"accuracy":1,"outcome":"+10","keys":[2103.9449999951757],"total_keys":1,"block":2,"trial":210,"stimulus":8,"robot":1,"valence":"win","action":"go","sham":0,"trial_type":"pit-trial","trial_index":241,"time_elapsed":1107822,"internal_node_id":"0.0-216.0","task_version":"battery-v0.2-trt","session":3},{"rune":"H","rune_set":"bacs1","hex":"#f73b6a7A","correct":32,"choice":-1,"rt":-1,"accuracy":0,"outcome":"-10","keys":[],"total_keys":0,"block":2,"trial":211,"stimulus":10,"robot":3,"valence":"lose","action":"go","sham":0,"trial_type":"pit-trial","trial_index":242,"time_elapsed":1111827,"internal_node_id":"0.0-217.0","task_version":"battery-v0.2-trt","session":3},{"rune":"Y","rune_set":"bacs1","hex":"#f73b6a7A","correct":-1,"choice":32,"rt":571.875000001397,"accuracy":0,"outcome":"-1","keys":[2074.824999996228],"total_keys":1,"block":2,"trial":212,"stimulus":11,"robot":4,"valence":"lose","action":"no-go","sham":1,"trial_type":"pit-trial","trial_index":243,"time_elapsed":1115111,"internal_node_id":"0.0-218.0","task_version":"battery-v0.2-trt","session":3},{"rune":"H","rune_set":"bacs1","hex":"#f73b6a7A","correct":32,"choice":32,"rt":572.4300000001676,"accuracy":1,"outcome":"-1","keys":[2072.8200000012293],"total_keys":1,"block":2,"trial":213,"stimulus":10,"robot":3,"valence":"lose","action":"go","sham":0,"trial_type":"pit-trial","trial_index":244,"time_elapsed":1118418,"internal_node_id":"0.0-219.0","task_version":"battery-v0.2-trt","session":3},{"rune":"M","rune_set":"bacs1","hex":"#3366ff99","correct":32,"choice":32,"rt":565.7200000057928,"accuracy":1,"outcome":"+10","keys":[2067.484999999637],"total_keys":1,"block":2,"trial":214,"stimulus":8,"robot":1,"valence":"win","action":"go","sham":0,"trial_type":"pit-trial","trial_index":245,"time_elapsed":1121688,"internal_node_id":"0.0-220.0","task_version":"battery-v0.2-trt","session":3},{"rune":"Y","rune_set":"bacs1","hex":"#f73b6a7A","correct":-1,"choice":-1,"rt":-1,"accuracy":1,"outcome":"-10","keys":[],"total_keys":0,"block":2,"trial":215,"stimulus":11,"robot":4,"valence":"lose","action":"no-go","sham":1,"trial_type":"pit-trial","trial_index":246,"time_elapsed":1125692,"internal_node_id":"0.0-221.0","task_version":"battery-v0.2-trt","session":3},{"rune":"P","rune_set":"bacs1","hex":"#3366ff99","correct":-1,"choice":-1,"rt":-1,"accuracy":1,"outcome":"+10","keys":[],"total_keys":0,"block":2,"trial":216,"stimulus":9,"robot":2,"valence":"win","action":"no-go","sham":0,"trial_type":"pit-trial","trial_index":247,"time_elapsed":1129695,"internal_node_id":"0.0-222.0","task_version":"battery-v0.2-trt","session":3},{"rune":"Y","rune_set":"bacs1","hex":"#f73b6a7A","correct":-1,"choice":32,"rt":674.4949999991804,"accuracy":0,"outcome":"-10","keys":[2178.254999998957],"total_keys":1,"block":2,"trial":217,"stimulus":11,"robot":4,"valence":"lose","action":"no-go","sham":0,"trial_type":"pit-trial","trial_index":248,"time_elapsed":1133077,"internal_node_id":"0.0-223.0","task_version":"battery-v0.2-trt","session":3},{"rune":"M","rune_set":"bacs1","hex":"#3366ff99","correct":32,"choice":32,"rt":516.990000003716,"accuracy":1,"outcome":"+1","keys":[2016.9650000024121],"total_keys":1,"block":2,"trial":218,"stimulus":8,"robot":1,"valence":"win","action":"go","sham":1,"trial_type":"pit-trial","trial_index":249,"time_elapsed":1136301,"internal_node_id":"0.0-224.0","task_version":"battery-v0.2-trt","session":3},{"rune":"H","rune_set":"bacs1","hex":"#f73b6a7A","correct":32,"choice":32,"rt":651.0200000049081,"accuracy":1,"outcome":"-1","keys":[2152.6599999996834],"total_keys":1,"block":2,"trial":219,"stimulus":10,"robot":3,"valence":"lose","action":"go","sham":0,"trial_type":"pit-trial","trial_index":250,"time_elapsed":1139657,"internal_node_id":"0.0-225.0","task_version":"battery-v0.2-trt","session":3},{"rune":"P","rune_set":"bacs1","hex":"#3366ff99","correct":-1,"choice":-1,"rt":-1,"accuracy":1,"outcome":"+10","keys":[],"total_keys":0,"block":2,"trial":220,"stimulus":9,"robot":2,"valence":"win","action":"no-go","sham":0,"trial_type":"pit-trial","trial_index":251,"time_elapsed":1143663,"internal_node_id":"0.0-226.0","task_version":"battery-v0.2-trt","session":3},{"rune":"H","rune_set":"bacs1","hex":"#f73b6a7A","correct":32,"choice":32,"rt":594.7600000000093,"accuracy":1,"outcome":"-1","keys":[2103.019999995129],"total_keys":1,"block":2,"trial":221,"stimulus":10,"robot":3,"valence":"lose","action":"go","sham":0,"trial_type":"pit-trial","trial_index":252,"time_elapsed":1146968,"internal_node_id":"0.0-227.0","task_version":"battery-v0.2-trt","session":3},{"rune":"P","rune_set":"bacs1","hex":"#3366ff99","correct":-1,"choice":-1,"rt":-1,"accuracy":1,"outcome":"+10","keys":[],"total_keys":0,"block":2,"trial":222,"stimulus":9,"robot":2,"valence":"win","action":"no-go","sham":0,"trial_type":"pit-trial","trial_index":253,"time_elapsed":1150973,"internal_node_id":"0.0-228.0","task_version":"battery-v0.2-trt","session":3},{"rune":"M","rune_set":"bacs1","hex":"#3366ff99","correct":32,"choice":32,"rt":555.9300000022631,"accuracy":1,"outcome":"+10","keys":[2057.3149999980815],"total_keys":1,"block":2,"trial":223,"stimulus":8,"robot":1,"valence":"win","action":"go","sham":0,"trial_type":"pit-trial","trial_index":254,"time_elapsed":1154234,"internal_node_id":"0.0-229.0","task_version":"battery-v0.2-trt","session":3},{"rune":"Y","rune_set":"bacs1","hex":"#f73b6a7A","correct":-1,"choice":-1,"rt":-1,"accuracy":1,"outcome":"-1","keys":[],"total_keys":0,"block":2,"trial":224,"stimulus":11,"robot":4,"valence":"lose","action":"no-go","sham":0,"trial_type":"pit-trial","trial_index":255,"time_elapsed":1158240,"internal_node_id":"0.0-230.0","task_version":"battery-v0.2-trt","session":3},{"rune":"P","rune_set":"bacs1","hex":"#3366ff99","correct":-1,"choice":-1,"rt":-1,"accuracy":1,"outcome":"+10","keys":[],"total_keys":0,"block":2,"trial":225,"stimulus":9,"robot":2,"valence":"win","action":"no-go","sham":0,"trial_type":"pit-trial","trial_index":256,"time_elapsed":1162243,"internal_node_id":"0.0-231.0","task_version":"battery-v0.2-trt","session":3},{"rune":"Y","rune_set":"bacs1","hex":"#f73b6a7A","correct":-1,"choice":32,"rt":598.7150000000838,"accuracy":0,"outcome":"-1","keys":[2099.3000000016764],"total_keys":1,"block":2,"trial":226,"stimulus":11,"robot":4,"valence":"lose","action":"no-go","sham":1,"trial_type":"pit-trial","trial_index":257,"time_elapsed":1165548,"internal_node_id":"0.0-232.0","task_version":"battery-v0.2-trt","session":3},{"rune":"H","rune_set":"bacs1","hex":"#f73b6a7A","correct":32,"choice":32,"rt":531.070000004489,"accuracy":1,"outcome":"-1","keys":[2032.780000001192],"total_keys":1,"block":2,"trial":227,"stimulus":10,"robot":3,"valence":"lose","action":"go","sham":0,"trial_type":"pit-trial","trial_index":258,"time_elapsed":1168787,"internal_node_id":"0.0-233.0","task_version":"battery-v0.2-trt","session":3},{"rune":"M","rune_set":"bacs1","hex":"#3366ff99","correct":32,"choice":32,"rt":486.0800000024028,"accuracy":1,"outcome":"+10","keys":[1986.7750000047963],"total_keys":1,"block":2,"trial":228,"stimulus":8,"robot":1,"valence":"win","action":"go","sham":0,"trial_type":"pit-trial","trial_index":259,"time_elapsed":1171976,"internal_node_id":"0.0-234.0","task_version":"battery-v0.2-trt","session":3},{"rune":"Y","rune_set":"bacs1","hex":"#f73b6a7A","correct":-1,"choice":32,"rt":905.5149999985006,"accuracy":0,"outcome":"-10","keys":[2406.085000002291],"total_keys":1,"block":2,"trial":229,"stimulus":11,"robot":4,"valence":"lose","action":"no-go","sham":0,"trial_type":"pit-trial","trial_index":260,"time_elapsed":1175585,"internal_node_id":"0.0-235.0","task_version":"battery-v0.2-trt","session":3},{"rune":"M","rune_set":"bacs1","hex":"#3366ff99","correct":32,"choice":32,"rt":446.0299999990966,"accuracy":1,"outcome":"+10","keys":[1946.934999999823],"total_keys":1,"block":2,"trial":230,"stimulus":8,"robot":1,"valence":"win","action":"go","sham":0,"trial_type":"pit-trial","trial_index":261,"time_elapsed":1178757,"internal_node_id":"0.0-236.0","task_version":"battery-v0.2-trt","session":3},{"rune":"P","rune_set":"bacs1","hex":"#3366ff99","correct":-1,"choice":-1,"rt":-1,"accuracy":1,"outcome":"+10","keys":[],"total_keys":0,"block":2,"trial":231,"stimulus":9,"robot":2,"valence":"win","action":"no-go","sham":0,"trial_type":"pit-trial","trial_index":262,"time_elapsed":1182769,"internal_node_id":"0.0-237.0","task_version":"battery-v0.2-trt","session":3},{"rune":"H","rune_set":"bacs1","hex":"#f73b6a7A","correct":32,"choice":32,"rt":533.6800000004005,"accuracy":1,"outcome":"-1","keys":[2037.3949999993201],"total_keys":1,"block":2,"trial":232,"stimulus":10,"robot":3,"valence":"lose","action":"go","sham":0,"trial_type":"pit-trial","trial_index":263,"time_elapsed":1186011,"internal_node_id":"0.0-238.0","task_version":"battery-v0.2-trt","session":3},{"rune":"M","rune_set":"bacs1","hex":"#3366ff99","correct":32,"choice":32,"rt":479.2149999993853,"accuracy":1,"outcome":"+10","keys":[1986.9250000047032],"total_keys":1,"block":2,"trial":233,"stimulus":8,"robot":1,"valence":"win","action":"go","sham":0,"trial_type":"pit-trial","trial_index":264,"time_elapsed":1189222,"internal_node_id":"0.0-239.0","task_version":"battery-v0.2-trt","session":3},{"rune":"P","rune_set":"bacs1","hex":"#3366ff99","correct":-1,"choice":-1,"rt":-1,"accuracy":1,"outcome":"+10","keys":[],"total_keys":0,"block":2,"trial":234,"stimulus":9,"robot":2,"valence":"win","action":"no-go","sham":0,"trial_type":"pit-trial","trial_index":265,"time_elapsed":1193227,"internal_node_id":"0.0-240.0","task_version":"battery-v0.2-trt","session":3},{"rune":"H","rune_set":"bacs1","hex":"#f73b6a7A","correct":32,"choice":32,"rt":508.1399999980349,"accuracy":1,"outcome":"-1","keys":[