[{"view_history":"[{\"page_index\":0,\"viewing_time\":1342}]","rt":1343,"trial_type":"instructions","trial_index":0,"time_elapsed":1346,"internal_node_id":"0.0-0.0","task_version":"battery-v0.2-trt","session":3},{"slider_type":"valence","raw_loc":619,"loc":0.738,"trial_type":"affective-slider","trial_index":1,"time_elapsed":4728,"internal_node_id":"0.0-1.0","task_version":"battery-v0.2-trt","session":3},{"responses":{"Q04":"1","Q05":"1","Q06":"1","Q02":"1","Q01":"0","Q03":"0","Q08":"3","Q07":"0"},"rt":22026,"item_order":[3,4,5,1,0,2,7,6],"radio_events":[4344,5860,6848,8547,11792,12705,15730,17466],"key_events":[],"mouse_events":[4344,5860,6848,8547,10538,11792,12705,15730,17466,22026],"straightlining":0.5,"zigzagging":0.42857142857142855,"survey":"dass_d","trial_type":"survey-template","trial_index":2,"time_elapsed":26758,"internal_node_id":"0.0-2.0","task_version":"battery-v0.2-trt","session":3,"infrequency":0},{"responses":{"Q04":"1","Q02":"2","Q05":"0","Q01":"1","Q08":"0","Q03":"2","Q06":"1","Q07":"1"},"rt":19084,"item_order":[3,1,4,0,7,2,5,6],"radio_events":[2495,4099,6434,8318,10553,14099,16182,17854],"key_events":[],"mouse_events":[2495,4099,6434,8318,10553,12878,14099,16182,17854,19083],"straightlining":0.5,"zigzagging":0.5714285714285714,"survey":"gad7","trial_type":"survey-template","trial_index":3,"time_elapsed":45846,"internal_node_id":"0.0-3.0","task_version":"battery-v0.2-trt","session":3,"infrequency":0},{"view_history":"[{\"page_index\":0,\"viewing_time\":2494},{\"page_index\":1,\"viewing_time\":3004},{\"page_index\":2,\"viewing_time\":3059},{\"page_index\":3,\"viewing_time\":2053},{\"page_index\":4,\"viewing_time\":2353},{\"page_index\":5,\"viewing_time\":2055},{\"page_index\":6,\"viewing_time\":1151},{\"page_index\":7,\"viewing_time\":2631},{\"page_index\":8,\"viewing_time\":3275},{\"page_index\":9,\"viewing_time\":1623}]","rt":23698,"trial_type":"pit-instructions","trial_index":4,"time_elapsed":69548,"internal_node_id":"0.0-4.0-0.0","task_version":"battery-v0.2-trt","session":3},{"rune":"1","rune_set":"elianto","hex":"#3366ff99","correct":32,"choice":32,"rt":73,"accuracy":1,"outcome":"+10","keys":[1574],"total_keys":1,"block":0,"practice":1,"trial_type":"pit-trial","trial_index":5,"time_elapsed":72328,"internal_node_id":"0.0-4.0-1.0-0.0","task_version":"battery-v0.2-trt","session":3},{"rune":"1","rune_set":"elianto","hex":"#3366ff99","correct":32,"choice":32,"rt":516,"accuracy":1,"outcome":"+10","keys":[2026],"total_keys":1,"block":0,"practice":1,"trial_type":"pit-trial","trial_index":6,"time_elapsed":75571,"internal_node_id":"0.0-4.0-1.1-0.1","task_version":"battery-v0.2-trt","session":3},{"rune":"1","rune_set":"elianto","hex":"#3366ff99","correct":32,"choice":32,"rt":275,"accuracy":1,"outcome":"+10","keys":[1786],"total_keys":1,"block":0,"practice":1,"trial_type":"pit-trial","trial_index":7,"time_elapsed":78567,"internal_node_id":"0.0-4.0-1.2-0.2","task_version":"battery-v0.2-trt","session":3},{"rune":"1","rune_set":"elianto","hex":"#3366ff99","correct":32,"choice":32,"rt":333,"accuracy":1,"outcome":"+10","keys":[1833],"total_keys":1,"block":0,"practice":1,"trial_type":"pit-trial","trial_index":8,"time_elapsed":81612,"internal_node_id":"0.0-4.0-1.3-0.3","task_version":"battery-v0.2-trt","session":3},{"trial_type":"call-function","trial_index":9,"time_elapsed":81613,"internal_node_id":"0.0-4.0-2.0","task_version":"battery-v0.2-trt","session":3},{"view_history":"[{\"page_index\":0,\"viewing_time\":2852},{\"page_index\":1,\"viewing_time\":3167}]","rt":6019,"trial_type":"pit-instructions","trial_index":10,"time_elapsed":87632,"internal_node_id":"0.0-4.0-3.0","task_version":"battery-v0.2-trt","session":3},{"rune":"2","rune_set":"elianto","hex":"#3366ff99","correct":-1,"choice":32,"rt":290,"accuracy":0,"outcome":"+1","keys":[1802],"total_keys":1,"block":0,"practice":2,"trial_type":"pit-trial","trial_index":11,"time_elapsed":90651,"internal_node_id":"0.0-4.0-4.0-0.0","task_version":"battery-v0.2-trt","session":3},{"rune":"2","rune_set":"elianto","hex":"#3366ff99","correct":-1,"choice":-1,"rt":-1,"accuracy":1,"outcome":"+10","keys":[],"total_keys":0,"block":0,"practice":2,"trial_type":"pit-trial","trial_index":12,"time_elapsed":94667,"internal_node_id":"0.0-4.0-4.1-0.1","task_version":"battery-v0.2-trt","session":3},{"rune":"2","rune_set":"elianto","hex":"#3366ff99","correct":-1,"choice":-1,"rt":-1,"accuracy":1,"outcome":"+10","keys":[],"total_keys":0,"block":0,"practice":2,"trial_type":"pit-trial","trial_index":13,"time_elapsed":98688,"internal_node_id":"0.0-4.0-4.2-0.2","task_version":"battery-v0.2-trt","session":3},{"rune":"2","rune_set":"elianto","hex":"#3366ff99","correct":-1,"choice":-1,"rt":-1,"accuracy":1,"outcome":"+10","keys":[],"total_keys":0,"block":0,"practice":2,"trial_type":"pit-trial","trial_index":14,"time_elapsed":102713,"internal_node_id":"0.0-4.0-4.3-0.3","task_version":"battery-v0.2-trt","session":3},{"trial_type":"call-function","trial_index":15,"time_elapsed":102714,"internal_node_id":"0.0-4.0-5.0","task_version":"battery-v0.2-trt","session":3},{"view_history":"[{\"page_index\":0,\"viewing_time\":3003},{\"page_index\":1,\"viewing_time\":6701}]","rt":9705,"trial_type":"pit-instructions","trial_index":16,"time_elapsed":112420,"internal_node_id":"0.0-4.0-6.0","task_version":"battery-v0.2-trt","session":3},{"rune":"3","rune_set":"elianto","hex":"#f73b6a7A","correct":-1,"choice":32,"rt":518,"accuracy":0,"outcome":"-10","keys":[2027],"total_keys":1,"block":0,"practice":3,"trial_type":"pit-trial","trial_index":17,"time_elapsed":115657,"internal_node_id":"0.0-4.0-7.0-0.0","task_version":"battery-v0.2-trt","session":3},{"rune":"3","rune_set":"elianto","hex":"#f73b6a7A","correct":-1,"choice":-1,"rt":-1,"accuracy":1,"outcome":"-1","keys":[],"total_keys":0,"block":0,"practice":3,"trial_type":"pit-trial","trial_index":18,"time_elapsed":119665,"internal_node_id":"0.0-4.0-7.1-0.1","task_version":"battery-v0.2-trt","session":3},{"rune":"3","rune_set":"elianto","hex":"#f73b6a7A","correct":-1,"choice":-1,"rt":-1,"accuracy":1,"outcome":"-1","keys":[],"total_keys":0,"block":0,"practice":3,"trial_type":"pit-trial","trial_index":19,"time_elapsed":123670,"internal_node_id":"0.0-4.0-7.2-0.2","task_version":"battery-v0.2-trt","session":3},{"rune":"3","rune_set":"elianto","hex":"#f73b6a7A","correct":-1,"choice":-1,"rt":-1,"accuracy":1,"outcome":"-1","keys":[],"total_keys":0,"block":0,"practice":3,"trial_type":"pit-trial","trial_index":20,"time_elapsed":127686,"internal_node_id":"0.0-4.0-7.3-0.3","task_version":"battery-v0.2-trt","session":3},{"trial_type":"call-function","trial_index":21,"time_elapsed":127688,"internal_node_id":"0.0-4.0-8.0","task_version":"battery-v0.2-trt","session":3},{"view_history":"[{\"page_index\":0,\"viewing_time\":4389},{\"page_index\":1,\"viewing_time\":1792}]","rt":6181,"trial_type":"pit-instructions","trial_index":22,"time_elapsed":133870,"internal_node_id":"0.0-4.0-9.0","task_version":"battery-v0.2-trt","session":3},{"rune":"4","rune_set":"elianto","hex":"#f73b6a7A","correct":32,"choice":32,"rt":514,"accuracy":1,"outcome":"-1","keys":[2026],"total_keys":1,"block":0,"practice":4,"trial_type":"pit-trial","trial_index":23,"time_elapsed":137103,"internal_node_id":"0.0-4.0-10.0-0.0","task_version":"battery-v0.2-trt","session":3},{"rune":"4","rune_set":"elianto","hex":"#f73b6a7A","correct":32,"choice":32,"rt":349,"accuracy":1,"outcome":"-1","keys":[1856],"total_keys":1,"block":0,"practice":4,"trial_type":"pit-trial","trial_index":24,"time_elapsed":140169,"internal_node_id":"0.0-4.0-10.1-0.1","task_version":"battery-v0.2-trt","session":3},{"rune":"4","rune_set":"elianto","hex":"#f73b6a7A","correct":32,"choice":32,"rt":592,"accuracy":1,"outcome":"-1","keys":[2093],"total_keys":1,"block":0,"practice":4,"trial_type":"pit-trial","trial_index":25,"time_elapsed":143484,"internal_node_id":"0.0-4.0-10.2-0.2","task_version":"battery-v0.2-trt","session":3},{"rune":"4","rune_set":"elianto","hex":"#f73b6a7A","correct":32,"choice":32,"rt":375,"accuracy":1,"outcome":"-1","keys":[1889],"total_keys":1,"block":0,"practice":4,"trial_type":"pit-trial","trial_index":26,"time_elapsed":146576,"internal_node_id":"0.0-4.0-10.3-0.3","task_version":"battery-v0.2-trt","session":3},{"trial_type":"call-function","trial_index":27,"time_elapsed":146578,"internal_node_id":"0.0-4.0-11.0","task_version":"battery-v0.2-trt","session":3},{"view_history":"[{\"page_index\":0,\"viewing_time\":3159},{\"page_index\":1,\"viewing_time\":3306},{\"page_index\":2,\"viewing_time\":4047},{\"page_index\":3,\"viewing_time\":4576},{\"page_index\":4,\"viewing_time\":2330},{\"page_index\":5,\"viewing_time\":1394}]","rt":18812,"trial_type":"pit-instructions","trial_index":28,"time_elapsed":165390,"internal_node_id":"0.0-4.0-12.0","task_version":"battery-v0.2-trt","session":3},{"responses":["Press SPACE","+10","-1","True","True"],"num_errors":0,"rt":14111,"trial_type":"pit-comprehension","trial_index":29,"time_elapsed":179505,"internal_node_id":"0.0-4.0-13.0","task_version":"battery-v0.2-trt","session":3},{"view_history":"[{\"page_index\":0,\"viewing_time\":2257},{\"page_index\":1,\"viewing_time\":9413}]","rt":11670,"trial_type":"pit-instructions","trial_index":30,"time_elapsed":191178,"internal_node_id":"0.0-5.0","task_version":"battery-v0.2-trt","session":3},{"rune":"V","rune_set":"elianto","hex":"#3366ff99","correct":-1,"choice":32,"rt":626,"accuracy":0,"outcome":"+1","keys":[2130],"total_keys":1,"block":1,"trial":1,"stimulus":0,"robot":2,"valence":"win","action":"no-go","sham":0,"trial_type":"pit-trial","trial_index":31,"time_elapsed":194514,"internal_node_id":"0.0-6.0","task_version":"battery-v0.2-trt","session":3},{"rune":"D","rune_set":"elianto","hex":"#3366ff99","correct":32,"choice":32,"rt":456,"accuracy":1,"outcome":"+10","keys":[1964],"total_keys":1,"block":1,"trial":2,"stimulus":2,"robot":1,"valence":"win","action":"go","sham":0,"trial_type":"pit-trial","trial_index":32,"time_elapsed":197695,"internal_node_id":"0.0-7.0","task_version":"battery-v0.2-trt","session":3},{"rune":"K","rune_set":"elianto","hex":"#f73b6a7A","correct":32,"choice":32,"rt":624,"accuracy":1,"outcome":"-10","keys":[2135],"total_keys":1,"block":1,"trial":3,"stimulus":3,"robot":3,"valence":"lose","action":"go","sham":1,"trial_type":"pit-trial","trial_index":33,"time_elapsed":201040,"internal_node_id":"0.0-8.0","task_version":"battery-v0.2-trt","session":3},{"rune":"J","rune_set":"elianto","hex":"#3366ff99","correct":-1,"choice":32,"rt":575,"accuracy":0,"outcome":"+1","keys":[2085],"total_keys":1,"block":1,"trial":4,"stimulus":1,"robot":2,"valence":"win","action":"no-go","sham":0,"trial_type":"pit-trial","trial_index":34,"time_elapsed":204332,"internal_node_id":"0.0-9.0","task_version":"battery-v0.2-trt","session":3},{"rune":"J","rune_set":"elianto","hex":"#3366ff99","correct":-1,"choice":-1,"rt":-1,"accuracy":1,"outcome":"+10","keys":[],"total_keys":0,"block":1,"trial":5,"stimulus":1,"robot":2,"valence":"win","action":"no-go","sham":0,"trial_type":"pit-trial","trial_index":35,"time_elapsed":208343,"internal_node_id":"0.0-10.0","task_version":"battery-v0.2-trt","session":3},{"rune":"V","rune_set":"elianto","hex":"#3366ff99","correct":-1,"choice":32,"rt":557,"accuracy":0,"outcome":"+1","keys":[2068],"total_keys":1,"block":1,"trial":6,"stimulus":0,"robot":2,"valence":"win","action":"no-go","sham":0,"trial_type":"pit-trial","trial_index":36,"time_elapsed":211621,"internal_node_id":"0.0-11.0","task_version":"battery-v0.2-trt","session":3},{"rune":"D","rune_set":"elianto","hex":"#3366ff99","correct":32,"choice":32,"rt":653,"accuracy":1,"outcome":"+10","keys":[2166],"total_keys":1,"block":1,"trial":7,"stimulus":2,"robot":1,"valence":"win","action":"go","sham":0,"trial_type":"pit-trial","trial_index":37,"time_elapsed":215006,"internal_node_id":"0.0-12.0","task_version":"battery-v0.2-trt","session":3},{"rune":"K","rune_set":"elianto","hex":"#f73b6a7A","correct":32,"choice":32,"rt":717,"accuracy":1,"outcome":"-10","keys":[2224],"total_keys":1,"block":1,"trial":8,"stimulus":3,"robot":3,"valence":"lose","action":"go","sham":1,"trial_type":"pit-trial","trial_index":38,"time_elapsed":218440,"internal_node_id":"0.0-13.0","task_version":"battery-v0.2-trt","session":3},{"rune":"V","rune_set":"elianto","hex":"#3366ff99","correct":-1,"choice":-1,"rt":-1,"accuracy":1,"outcome":"+1","keys":[],"total_keys":0,"block":1,"trial":9,"stimulus":0,"robot":2,"valence":"win","action":"no-go","sham":1,"trial_type":"pit-trial","trial_index":39,"time_elapsed":222464,"internal_node_id":"0.0-14.0","task_version":"battery-v0.2-trt","session":3},{"rune":"D","rune_set":"elianto","hex":"#3366ff99","correct":32,"choice":32,"rt":417,"accuracy":1,"outcome":"+10","keys":[1929],"total_keys":1,"block":1,"trial":10,"stimulus":2,"robot":1,"valence":"win","action":"go","sham":0,"trial_type":"pit-trial","trial_index":40,"time_elapsed":225604,"internal_node_id":"0.0-15.0","task_version":"battery-v0.2-trt","session":3},{"rune":"J","rune_set":"elianto","hex":"#3366ff99","correct":-1,"choice":-1,"rt":-1,"accuracy":1,"outcome":"+1","keys":[],"total_keys":0,"block":1,"trial":11,"stimulus":1,"robot":2,"valence":"win","action":"no-go","sham":1,"trial_type":"pit-trial","trial_index":41,"time_elapsed":229610,"internal_node_id":"0.0-16.0","task_version":"battery-v0.2-trt","session":3},{"rune":"K","rune_set":"elianto","hex":"#f73b6a7A","correct":32,"choice":-1,"rt":-1,"accuracy":0,"outcome":"-10","keys":[],"total_keys":0,"block":1,"trial":12,"stimulus":3,"robot":3,"valence":"lose","action":"go","sham":0,"trial_type":"pit-trial","trial_index":42,"time_elapsed":233636,"internal_node_id":"0.0-17.0","task_version":"battery-v0.2-trt","session":3},{"rune":"K","rune_set":"elianto","hex":"#f73b6a7A","correct":32,"choice":-1,"rt":-1,"accuracy":0,"outcome":"-10","keys":[],"total_keys":0,"block":1,"trial":13,"stimulus":3,"robot":3,"valence":"lose","action":"go","sham":0,"trial_type":"pit-trial","trial_index":43,"time_elapsed":237642,"internal_node_id":"0.0-18.0","task_version":"battery-v0.2-trt","session":3},{"rune":"V","rune_set":"elianto","hex":"#3366ff99","correct":-1,"choice":32,"rt":1115,"accuracy":0,"outcome":"+1","keys":[2623],"total_keys":1,"block":1,"trial":14,"stimulus":0,"robot":2,"valence":"win","action":"no-go","sham":0,"trial_type":"pit-trial","trial_index":44,"time_elapsed":241470,"internal_node_id":"0.0-19.0","task_version":"battery-v0.2-trt","session":3},{"rune":"D","rune_set":"elianto","hex":"#3366ff99","correct":32,"choice":32,"rt":475,"accuracy":1,"outcome":"+10","keys":[1980],"total_keys":1,"block":1,"trial":15,"stimulus":2,"robot":1,"valence":"win","action":"go","sham":0,"trial_type":"pit-trial","trial_index":45,"time_elapsed":244670,"internal_node_id":"0.0-20.0","task_version":"battery-v0.2-trt","session":3},{"rune":"J","rune_set":"elianto","hex":"#3366ff99","correct":-1,"choice":-1,"rt":-1,"accuracy":1,"outcome":"+10","keys":[],"total_keys":0,"block":1,"trial":16,"stimulus":1,"robot":2,"valence":"win","action":"no-go","sham":0,"trial_type":"pit-trial","trial_index":46,"time_elapsed":248685,"internal_node_id":"0.0-21.0","task_version":"battery-v0.2-trt","session":3},{"rune":"J","rune_set":"elianto","hex":"#3366ff99","correct":-1,"choice":-1,"rt":-1,"accuracy":1,"outcome":"+1","keys":[],"total_keys":0,"block":1,"trial":17,"stimulus":1,"robot":2,"valence":"win","action":"no-go","sham":1,"trial_type":"pit-trial","trial_index":47,"time_elapsed":252694,"internal_node_id":"0.0-22.0","task_version":"battery-v0.2-trt","session":3},{"rune":"K","rune_set":"elianto","hex":"#f73b6a7A","correct":32,"choice":-1,"rt":-1,"accuracy":0,"outcome":"-1","keys":[],"total_keys":0,"block":1,"trial":18,"stimulus":3,"robot":3,"valence":"lose","action":"go","sham":1,"trial_type":"pit-trial","trial_index":48,"time_elapsed":256713,"internal_node_id":"0.0-23.0","task_version":"battery-v0.2-trt","session":3},{"rune":"D","rune_set":"elianto","hex":"#3366ff99","correct":32,"choice":32,"rt":280,"accuracy":1,"outcome":"+10","keys":[1794],"total_keys":1,"block":1,"trial":19,"stimulus":2,"robot":1,"valence":"win","action":"go","sham":0,"trial_type":"pit-trial","trial_index":49,"time_elapsed":259717,"internal_node_id":"0.0-24.0","task_version":"battery-v0.2-trt","session":3},{"rune":"V","rune_set":"elianto","hex":"#3366ff99","correct":-1,"choice":-1,"rt":-1,"accuracy":1,"outcome":"+10","keys":[],"total_keys":0,"block":1,"trial":20,"stimulus":0,"robot":2,"valence":"win","action":"no-go","sham":0,"trial_type":"pit-trial","trial_index":50,"time_elapsed":263727,"internal_node_id":"0.0-25.0","task_version":"battery-v0.2-trt","session":3},{"rune":"D","rune_set":"elianto","hex":"#3366ff99","correct":32,"choice":32,"rt":597,"accuracy":1,"outcome":"+1","keys":[2101],"total_keys":1,"block":1,"trial":21,"stimulus":2,"robot":1,"valence":"win","action":"go","sham":1,"trial_type":"pit-trial","trial_index":51,"time_elapsed":267045,"internal_node_id":"0.0-26.0","task_version":"battery-v0.2-trt","session":3},{"rune":"K","rune_set":"elianto","hex":"#f73b6a7A","correct":32,"choice":-1,"rt":-1,"accuracy":0,"outcome":"-10","keys":[],"total_keys":0,"block":1,"trial":22,"stimulus":3,"robot":3,"valence":"lose","action":"go","sham":0,"trial_type":"pit-trial","trial_index":52,"time_elapsed":271061,"internal_node_id":"0.0-27.0","task_version":"battery-v0.2-trt","session":3},{"rune":"V","rune_set":"elianto","hex":"#3366ff99","correct":-1,"choice":-1,"rt":-1,"accuracy":1,"outcome":"+10","keys":[],"total_keys":0,"block":1,"trial":23,"stimulus":0,"robot":2,"valence":"win","action":"no-go","sham":0,"trial_type":"pit-trial","trial_index":53,"time_elapsed":275072,"internal_node_id":"0.0-28.0","task_version":"battery-v0.2-trt","session":3},{"rune":"J","rune_set":"elianto","hex":"#3366ff99","correct":-1,"choice":-1,"rt":-1,"accuracy":1,"outcome":"+1","keys":[],"total_keys":0,"block":1,"trial":24,"stimulus":1,"robot":2,"valence":"win","action":"no-go","sham":1,"trial_type":"pit-trial","trial_index":54,"time_elapsed":279078,"internal_node_id":"0.0-29.0","task_version":"battery-v0.2-trt","session":3},{"rune":"K","rune_set":"elianto","hex":"#f73b6a7A","correct":32,"choice":-1,"rt":-1,"accuracy":0,"outcome":"-10","keys":[],"total_keys":0,"block":1,"trial":25,"stimulus":3,"robot":3,"valence":"lose","action":"go","sham":0,"trial_type":"pit-trial","trial_index":55,"time_elapsed":283088,"internal_node_id":"0.0-30.0","task_version":"battery-v0.2-trt","session":3},{"rune":"J","rune_set":"elianto","hex":"#3366ff99","correct":-1,"choice":32,"rt":536,"accuracy":0,"outcome":"+1","keys":[2040],"total_keys":1,"block":1,"trial":26,"stimulus":1,"robot":2,"valence":"win","action":"no-go","sham":0,"trial_type":"pit-trial","trial_index":56,"time_elapsed":286341,"internal_node_id":"0.0-31.0","task_version":"battery-v0.2-trt","session":3},{"rune":"V","rune_set":"elianto","hex":"#3366ff99","correct":-1,"choice":-1,"rt":-1,"accuracy":1,"outcome":"+10","keys":[],"total_keys":0,"block":1,"trial":27,"stimulus":0,"robot":2,"valence":"win","action":"no-go","sham":0,"trial_type":"pit-trial","trial_index":57,"time_elapsed":290360,"internal_node_id":"0.0-32.0","task_version":"battery-v0.2-trt","session":3},{"rune":"D","rune_set":"elianto","hex":"#3366ff99","correct":32,"choice":32,"rt":493,"accuracy":1,"outcome":"+10","keys":[2000],"total_keys":1,"block":1,"trial":28,"stimulus":2,"robot":1,"valence":"win","action":"go","sham":0,"trial_type":"pit-trial","trial_index":58,"time_elapsed":293567,"internal_node_id":"0.0-33.0","task_version":"battery-v0.2-trt","session":3},{"rune":"J","rune_set":"elianto","hex":"#3366ff99","correct":-1,"choice":32,"rt":772,"accuracy":0,"outcome":"+1","keys":[2275],"total_keys":1,"block":1,"trial":29,"stimulus":1,"robot":2,"valence":"win","action":"no-go","sham":0,"trial_type":"pit-trial","trial_index":59,"time_elapsed":297056,"internal_node_id":"0.0-34.0","task_version":"battery-v0.2-trt","session":3},{"rune":"D","rune_set":"elianto","hex":"#3366ff99","correct":32,"choice":32,"rt":304,"accuracy":1,"outcome":"+10","keys":[1812],"total_keys":1,"block":1,"trial":30,"stimulus":2,"robot":1,"valence":"win","action":"go","sham":0,"trial_type":"pit-trial","trial_index":60,"time_elapsed":300077,"internal_node_id":"0.0-35.0","task_version":"battery-v0.2-trt","session":3},{"rune":"V","rune_set":"elianto","hex":"#3366ff99","correct":-1,"choice":-1,"rt":-1,"accuracy":1,"outcome":"+10","keys":[],"total_keys":0,"block":1,"trial":31,"stimulus":0,"robot":2,"valence":"win","action":"no-go","sham":0,"trial_type":"pit-trial","trial_index":61,"time_elapsed":304083,"internal_node_id":"0.0-36.0","task_version":"battery-v0.2-trt","session":3},{"rune":"K","rune_set":"elianto","hex":"#f73b6a7A","correct":32,"choice":-1,"rt":-1,"accuracy":0,"outcome":"-10","keys":[],"total_keys":0,"block":1,"trial":32,"stimulus":3,"robot":3,"valence":"lose","action":"go","sham":0,"trial_type":"pit-trial","trial_index":62,"time_elapsed":308098,"internal_node_id":"0.0-37.0","task_version":"battery-v0.2-trt","session":3},{"rune":"W","rune_set":"elianto","hex":"#f73b6a7A","correct":32,"choice":-1,"rt":-1,"accuracy":0,"outcome":"-10","keys":[2893],"total_keys":1,"block":1,"trial":33,"stimulus":5,"robot":3,"valence":"lose","action":"go","sham":0,"trial_type":"pit-trial","trial_index":63,"time_elapsed":312105,"internal_node_id":"0.0-38.0","task_version":"battery-v0.2-trt","session":3},{"rune":"V","rune_set":"elianto","hex":"#3366ff99","correct":-1,"choice":32,"rt":1057,"accuracy":0,"outcome":"+10","keys":[2569],"total_keys":1,"block":1,"trial":34,"stimulus":0,"robot":2,"valence":"win","action":"no-go","sham":1,"trial_type":"pit-trial","trial_index":64,"time_elapsed":315876,"internal_node_id":"0.0-39.0","task_version":"battery-v0.2-trt","session":3},{"rune":"E","rune_set":"elianto","hex":"#f73b6a7A","correct":-1,"choice":32,"rt":722,"accuracy":0,"outcome":"-10","keys":[2226],"total_keys":1,"block":1,"trial":35,"stimulus":4,"robot":4,"valence":"lose","action":"no-go","sham":0,"trial_type":"pit-trial","trial_index":65,"time_elapsed":319316,"internal_node_id":"0.0-40.0","task_version":"battery-v0.2-trt","session":3},{"rune":"D","rune_set":"elianto","hex":"#3366ff99","correct":32,"choice":32,"rt":544,"accuracy":1,"outcome":"+10","keys":[2056],"total_keys":1,"block":1,"trial":36,"stimulus":2,"robot":1,"valence":"win","action":"go","sham":0,"trial_type":"pit-trial","trial_index":66,"time_elapsed":322585,"internal_node_id":"0.0-41.0","task_version":"battery-v0.2-trt","session":3},{"rune":"W","rune_set":"elianto","hex":"#f73b6a7A","correct":32,"choice":32,"rt":719,"accuracy":1,"outcome":"-1","keys":[2221],"total_keys":1,"block":1,"trial":37,"stimulus":5,"robot":3,"valence":"lose","action":"go","sham":0,"trial_type":"pit-trial","trial_index":67,"time_elapsed":326015,"internal_node_id":"0.0-42.0","task_version":"battery-v0.2-trt","session":3},{"rune":"E","rune_set":"elianto","hex":"#f73b6a7A","correct":-1,"choice":-1,"rt":-1,"accuracy":1,"outcome":"-1","keys":[],"total_keys":0,"block":1,"trial":38,"stimulus":4,"robot":4,"valence":"lose","action":"no-go","sham":0,"trial_type":"pit-trial","trial_index":68,"time_elapsed":330025,"internal_node_id":"0.0-43.0","task_version":"battery-v0.2-trt","session":3},{"rune":"D","rune_set":"elianto","hex":"#3366ff99","correct":32,"choice":32,"rt":533,"accuracy":1,"outcome":"+10","keys":[2041],"total_keys":1,"block":1,"trial":39,"stimulus":2,"robot":1,"valence":"win","action":"go","sham":0,"trial_type":"pit-trial","trial_index":69,"time_elapsed":333270,"internal_node_id":"0.0-44.0","task_version":"battery-v0.2-trt","session":3},{"rune":"V","rune_set":"elianto","hex":"#3366ff99","correct":-1,"choice":-1,"rt":-1,"accuracy":1,"outcome":"+10","keys":[],"total_keys":0,"block":1,"trial":40,"stimulus":0,"robot":2,"valence":"win","action":"no-go","sham":0,"trial_type":"pit-trial","trial_index":70,"time_elapsed":337278,"internal_node_id":"0.0-45.0","task_version":"battery-v0.2-trt","session":3},{"rune":"S","rune_set":"elianto","hex":"#3366ff99","correct":-1,"choice":32,"rt":594,"accuracy":0,"outcome":"+1","keys":[2107],"total_keys":1,"block":1,"trial":41,"stimulus":6,"robot":2,"valence":"win","action":"no-go","sham":0,"trial_type":"pit-trial","trial_index":71,"time_elapsed":340597,"internal_node_id":"0.0-46.0","task_version":"battery-v0.2-trt","session":3},{"rune":"W","rune_set":"elianto","hex":"#f73b6a7A","correct":32,"choice":32,"rt":709,"accuracy":1,"outcome":"-10","keys":[2213],"total_keys":1,"block":1,"trial":42,"stimulus":5,"robot":3,"valence":"lose","action":"go","sham":1,"trial_type":"pit-trial","trial_index":72,"time_elapsed":344025,"internal_node_id":"0.0-47.0","task_version":"battery-v0.2-trt","session":3},{"rune":"E","rune_set":"elianto","hex":"#f73b6a7A","correct":-1,"choice":-1,"rt":-1,"accuracy":1,"outcome":"-1","keys":[],"total_keys":0,"block":1,"trial":43,"stimulus":4,"robot":4,"valence":"lose","action":"no-go","sham":0,"trial_type":"pit-trial","trial_index":73,"time_elapsed":348041,"internal_node_id":"0.0-48.0","task_version":"battery-v0.2-trt","session":3},{"rune":"D","rune_set":"elianto","hex":"#3366ff99","correct":32,"choice":32,"rt":551,"accuracy":1,"outcome":"+10","keys":[2054],"total_keys":1,"block":1,"trial":44,"stimulus":2,"robot":1,"valence":"win","action":"go","sham":0,"trial_type":"pit-trial","trial_index":74,"time_elapsed":351312,"internal_node_id":"0.0-49.0","task_version":"battery-v0.2-trt","session":3},{"rune":"D","rune_set":"elianto","hex":"#3366ff99","correct":32,"choice":32,"rt":511,"accuracy":1,"outcome":"+10","keys":[2020],"total_keys":1,"block":1,"trial":45,"stimulus":2,"robot":1,"valence":"win","action":"go","sham":0,"trial_type":"pit-trial","trial_index":75,"time_elapsed":354542,"internal_node_id":"0.0-50.0","task_version":"battery-v0.2-trt","session":3},{"rune":"E","rune_set":"elianto","hex":"#f73b6a7A","correct":-1,"choice":-1,"rt":-1,"accuracy":1,"outcome":"-1","keys":[],"total_keys":0,"block":1,"trial":46,"stimulus":4,"robot":4,"valence":"lose","action":"no-go","sham":0,"trial_type":"pit-trial","trial_index":76,"time_elapsed":358547,"internal_node_id":"0.0-51.0","task_version":"battery-v0.2-trt","session":3},{"rune":"W","rune_set":"elianto","hex":"#f73b6a7A","correct":32,"choice":-1,"rt":-1,"accuracy":0,"outcome":"-10","keys":[],"total_keys":0,"block":1,"trial":47,"stimulus":5,"robot":3,"valence":"lose","action":"go","sham":0,"trial_type":"pit-trial","trial_index":77,"time_elapsed":362563,"internal_node_id":"0.0-52.0","task_version":"battery-v0.2-trt","session":3},{"rune":"S","rune_set":"elianto","hex":"#3366ff99","correct":-1,"choice":32,"rt":718,"accuracy":0,"outcome":"+1","keys":[2227],"total_keys":1,"block":1,"trial":48,"stimulus":6,"robot":2,"valence":"win","action":"no-go","sham":0,"trial_type":"pit-trial","trial_index":78,"time_elapsed":365991,"internal_node_id":"0.0-53.0","task_version":"battery-v0.2-trt","session":3},{"rune":"S","rune_set":"elianto","hex":"#3366ff99","correct":-1,"choice":-1,"rt":-1,"accuracy":1,"outcome":"+1","keys":[],"total_keys":0,"block":1,"trial":49,"stimulus":6,"robot":2,"valence":"win","action":"no-go","sham":1,"trial_type":"pit-trial","trial_index":79,"time_elapsed":369997,"internal_node_id":"0.0-54.0","task_version":"battery-v0.2-trt","session":3},{"rune":"E","rune_set":"elianto","hex":"#f73b6a7A","correct":-1,"choice":-1,"rt":-1,"accuracy":1,"outcome":"-10","keys":[],"total_keys":0,"block":1,"trial":50,"stimulus":4,"robot":4,"valence":"lose","action":"no-go","sham":1,"trial_type":"pit-trial","trial_index":80,"time_elapsed":374021,"internal_node_id":"0.0-55.0","task_version":"battery-v0.2-trt","session":3},{"rune":"P","rune_set":"elianto","hex":"#f73b6a7A","correct":-1,"choice":32,"rt":558,"accuracy":0,"outcome":"-1","keys":[2068],"total_keys":1,"block":1,"trial":51,"stimulus":7,"robot":4,"valence":"lose","action":"no-go","sham":1,"trial_type":"pit-trial","trial_index":81,"time_elapsed":377295,"internal_node_id":"0.0-56.0","task_version":"battery-v0.2-trt","session":3},{"rune":"W","rune_set":"elianto","hex":"#f73b6a7A","correct":32,"choice":32,"rt":777,"accuracy":1,"outcome":"-1","keys":[2284],"total_keys":1,"block":1,"trial":52,"stimulus":5,"robot":3,"valence":"lose","action":"go","sham":0,"trial_type":"pit-trial","trial_index":82,"time_elapsed":380785,"internal_node_id":"0.0-57.0","task_version":"battery-v0.2-trt","session":3},{"rune":"P","rune_set":"elianto","hex":"#f73b6a7A","correct":-1,"choice":32,"rt":610,"accuracy":0,"outcome":"-1","keys":[2119],"total_keys":1,"block":1,"trial":53,"stimulus":7,"robot":4,"valence":"lose","action":"no-go","sham":1,"trial_type":"pit-trial","trial_index":83,"time_elapsed":384116,"internal_node_id":"0.0-58.0","task_version":"battery-v0.2-trt","session":3},{"rune":"W","rune_set":"elianto","hex":"#f73b6a7A","correct":32,"choice":-1,"rt":-1,"accuracy":0,"outcome":"-10","keys":[],"total_keys":0,"block":1,"trial":54,"stimulus":5,"robot":3,"valence":"lose","action":"go","sham":0,"trial_type":"pit-trial","trial_index":84,"time_elapsed":388127,"internal_node_id":"0.0-59.0","task_version":"battery-v0.2-trt","session":3},{"rune":"E","rune_set":"elianto","hex":"#f73b6a7A","correct":-1,"choice":-1,"rt":-1,"accuracy":1,"outcome":"-1","keys":[],"total_keys":0,"block":1,"trial":55,"stimulus":4,"robot":4,"valence":"lose","action":"no-go","sham":0,"trial_type":"pit-trial","trial_index":85,"time_elapsed":392136,"internal_node_id":"0.0-60.0","task_version":"battery-v0.2-trt","session":3},{"rune":"S","rune_set":"elianto","hex":"#3366ff99","correct":-1,"choice":32,"rt":631,"accuracy":0,"outcome":"+1","keys":[2144],"total_keys":1,"block":1,"trial":56,"stimulus":6,"robot":2,"valence":"win","action":"no-go","sham":0,"trial_type":"pit-trial","trial_index":86,"time_elapsed":395495,"internal_node_id":"0.0-61.0","task_version":"battery-v0.2-trt","session":3},{"rune":"S","rune_set":"elianto","hex":"#3366ff99","correct":-1,"choice":-1,"rt":-1,"accuracy":1,"outcome":"+1","keys":[],"total_keys":0,"block":1,"trial":57,"stimulus":6,"robot":2,"valence":"win","action":"no-go","sham":1,"trial_type":"pit-trial","trial_index":87,"time_elapsed":399506,"internal_node_id":"0.0-62.0","task_version":"battery-v0.2-trt","session":3},{"rune":"W","rune_set":"elianto","hex":"#f73b6a7A","correct":32,"choice":32,"rt":788,"accuracy":1,"outcome":"-10","keys":[2293],"total_keys":1,"block":1,"trial":58,"stimulus":5,"robot":3,"valence":"lose","action":"go","sham":1,"trial_type":"pit-trial","trial_index":88,"time_elapsed":403013,"internal_node_id":"0.0-63.0","task_version":"battery-v0.2-trt","session":3},{"rune":"E","rune_set":"elianto","hex":"#f73b6a7A","correct":-1,"choice":-1,"rt":-1,"accuracy":1,"outcome":"-1","keys":[],"total_keys":0,"block":1,"trial":59,"stimulus":4,"robot":4,"valence":"lose","action":"no-go","sham":0,"trial_type":"pit-trial","trial_index":89,"time_elapsed":407023,"internal_node_id":"0.0-64.0","task_version":"battery-v0.2-trt","session":3},{"rune":"P","rune_set":"elianto","hex":"#f73b6a7A","correct":-1,"choice":-1,"rt":-1,"accuracy":1,"outcome":"-1","keys":[],"total_keys":0,"block":1,"trial":60,"stimulus":7,"robot":4,"valence":"lose","action":"no-go","sham":0,"trial_type":"pit-trial","trial_index":90,"time_elapsed":411034,"internal_node_id":"0.0-65.0","task_version":"battery-v0.2-trt","session":3},{"rune":"W","rune_set":"elianto","hex":"#f73b6a7A","correct":32,"choice":32,"rt":617,"accuracy":1,"outcome":"-1","keys":[2130],"total_keys":1,"block":1,"trial":61,"stimulus":5,"robot":3,"valence":"lose","action":"go","sham":0,"trial_type":"pit-trial","trial_index":91,"time_elapsed":414373,"internal_node_id":"0.0-66.0","task_version":"battery-v0.2-trt","session":3},{"rune":"P","rune_set":"elianto","hex":"#f73b6a7A","correct":-1,"choice":32,"rt":525,"accuracy":0,"outcome":"-10","keys":[2033],"total_keys":1,"block":1,"trial":62,"stimulus":7,"robot":4,"valence":"lose","action":"no-go","sham":0,"trial_type":"pit-trial","trial_index":92,"time_elapsed":417618,"internal_node_id":"0.0-67.0","task_version":"battery-v0.2-trt","session":3},{"rune":"S","rune_set":"elianto","hex":"#3366ff99","correct":-1,"choice":32,"rt":697,"accuracy":0,"outcome":"+1","keys":[2203],"total_keys":1,"block":1,"trial":63,"stimulus":6,"robot":2,"valence":"win","action":"no-go","sham":0,"trial_type":"pit-trial","trial_index":93,"time_elapsed":421029,"internal_node_id":"0.0-68.0","task_version":"battery-v0.2-trt","session":3},{"rune":"E","rune_set":"elianto","hex":"#f73b6a7A","correct":-1,"choice":-1,"rt":-1,"accuracy":1,"outcome":"-10","keys":[],"total_keys":0,"block":1,"trial":64,"stimulus":4,"robot":4,"valence":"lose","action":"no-go","sham":1,"trial_type":"pit-trial","trial_index":94,"time_elapsed":425050,"internal_node_id":"0.0-69.0","task_version":"battery-v0.2-trt","session":3},{"rune":"S","rune_set":"elianto","hex":"#3366ff99","correct":-1,"choice":-1,"rt":-1,"accuracy":1,"outcome":"+1","keys":[],"total_keys":0,"block":1,"trial":65,"stimulus":6,"robot":2,"valence":"win","action":"no-go","sham":1,"trial_type":"pit-trial","trial_index":95,"time_elapsed":429053,"internal_node_id":"0.0-70.0","task_version":"battery-v0.2-trt","session":3},{"rune":"W","rune_set":"elianto","hex":"#f73b6a7A","correct":32,"choice":32,"rt":638,"accuracy":1,"outcome":"-1","keys":[2146],"total_keys":1,"block":1,"trial":66,"stimulus":5,"robot":3,"valence":"lose","action":"go","sham":0,"trial_type":"pit-trial","trial_index":96,"time_elapsed":432406,"internal_node_id":"0.0-71.0","task_version":"battery-v0.2-trt","session":3},{"rune":"E","rune_set":"elianto","hex":"#f73b6a7A","correct":-1,"choice":-1,"rt":-1,"accuracy":1,"outcome":"-1","keys":[],"total_keys":0,"block":1,"trial":67,"stimulus":4,"robot":4,"valence":"lose","action":"no-go","sham":0,"trial_type":"pit-trial","trial_index":97,"time_elapsed":436422,"internal_node_id":"0.0-72.0","task_version":"battery-v0.2-trt","session":3},{"rune":"P","rune_set":"elianto","hex":"#f73b6a7A","correct":-1,"choice":-1,"rt":-1,"accuracy":1,"outcome":"-10","keys":[],"total_keys":0,"block":1,"trial":68,"stimulus":7,"robot":4,"valence":"lose","action":"no-go","sham":1,"trial_type":"pit-trial","trial_index":98,"time_elapsed":440434,"internal_node_id":"0.0-73.0","task_version":"battery-v0.2-trt","session":3},{"rune":"W","rune_set":"elianto","hex":"#f73b6a7A","correct":32,"choice":32,"rt":1073,"accuracy":1,"outcome":"-1","keys":[2581],"total_keys":1,"block":1,"trial":69,"stimulus":5,"robot":3,"valence":"lose","action":"go","sham":0,"trial_type":"pit-trial","trial_index":99,"time_elapsed":444218,"internal_node_id":"0.0-74.0","task_version":"battery-v0.2-trt","session":3},{"rune":"E","rune_set":"elianto","hex":"#f73b6a7A","correct":-1,"choice":-1,"rt":-1,"accuracy":1,"outcome":"-1","keys":[],"total_keys":0,"block":1,"trial":70,"stimulus":4,"robot":4,"valence":"lose","action":"no-go","sham":0,"trial_type":"pit-trial","trial_index":100,"time_elapsed":448238,"internal_node_id":"0.0-75.0","task_version":"battery-v0.2-trt","session":3},{"rune":"S","rune_set":"elianto","hex":"#3366ff99","correct":-1,"choice":32,"rt":536,"accuracy":0,"outcome":"+1","keys":[2046],"total_keys":1,"block":1,"trial":71,"stimulus":6,"robot":2,"valence":"win","action":"no-go","sham":0,"trial_type":"pit-trial","trial_index":101,"time_elapsed":451495,"internal_node_id":"0.0-76.0","task_version":"battery-v0.2-trt","session":3},{"rune":"P","rune_set":"elianto","hex":"#f73b6a7A","correct":-1,"choice":32,"rt":1106,"accuracy":0,"outcome":"-1","keys":[2610],"total_keys":1,"block":1,"trial":72,"stimulus":7,"robot":4,"valence":"lose","action":"no-go","sham":1,"trial_type":"pit-trial","trial_index":102,"time_elapsed":455307,"internal_node_id":"0.0-77.0","task_version":"battery-v0.2-trt","session":3},{"rune":"P","rune_set":"elianto","hex":"#f73b6a7A","correct":-1,"choice":32,"rt":1181,"accuracy":0,"outcome":"-10","keys":[2692],"total_keys":1,"block":1,"trial":73,"stimulus":7,"robot":4,"valence":"lose","action":"no-go","sham":0,"trial_type":"pit-trial","trial_index":103,"time_elapsed":459208,"internal_node_id":"0.0-78.0","task_version":"battery-v0.2-trt","session":3},{"rune":"G","rune_set":"elianto","hex":"#f73b6a7A","correct":-1,"choice":32,"rt":664,"accuracy":0,"outcome":"-10","keys":[2172],"total_keys":1,"block":1,"trial":74,"stimulus":8,"robot":4,"valence":"lose","action":"no-go","sham":0,"trial_type":"pit-trial","trial_index":104,"time_elapsed":462590,"internal_node_id":"0.0-79.0","task_version":"battery-v0.2-trt","session":3},{"rune":"S","rune_set":"elianto","hex":"#3366ff99","correct":-1,"choice":32,"rt":713,"accuracy":0,"outcome":"+1","keys":[2223],"total_keys":1,"block":1,"trial":75,"stimulus":6,"robot":2,"valence":"win","action":"no-go","sham":0,"trial_type":"pit-trial","trial_index":105,"time_elapsed":466029,"internal_node_id":"0.0-80.0","task_version":"battery-v0.2-trt","session":3},{"rune":"W","rune_set":"elianto","hex":"#f73b6a7A","correct":32,"choice":-1,"rt":-1,"accuracy":0,"outcome":"-10","keys":[],"total_keys":0,"block":1,"trial":76,"stimulus":5,"robot":3,"valence":"lose","action":"go","sham":0,"trial_type":"pit-trial","trial_index":106,"time_elapsed":470038,"internal_node_id":"0.0-81.0","task_version":"battery-v0.2-trt","session":3},{"rune":"W","rune_set":"elianto","hex":"#f73b6a7A","correct":32,"choice":32,"rt":662,"accuracy":1,"outcome":"-1","keys":[2168],"total_keys":1,"block":1,"trial":77,"stimulus":5,"robot":3,"valence":"lose","action":"go","sham":0,"trial_type":"pit-trial","trial_index":107,"time_elapsed":473421,"internal_node_id":"0.0-82.0","task_version":"battery-v0.2-trt","session":3},{"rune":"P","rune_set":"elianto","hex":"#f73b6a7A","correct":-1,"choice":-1,"rt":-1,"accuracy":1,"outcome":"-1","keys":[],"total_keys":0,"block":1,"trial":78,"stimulus":7,"robot":4,"valence":"lose","action":"no-go","sham":0,"trial_type":"pit-trial","trial_index":108,"time_elapsed":477435,"internal_node_id":"0.0-83.0","task_version":"battery-v0.2-trt","session":3},{"rune":"G","rune_set":"elianto","hex":"#f73b6a7A","correct":-1,"choice":-1,"rt":-1,"accuracy":1,"outcome":"-1","keys":[],"total_keys":0,"block":1,"trial":79,"stimulus":8,"robot":4,"valence":"lose","action":"no-go","sham":0,"trial_type":"pit-trial","trial_index":109,"time_elapsed":481451,"internal_node_id":"0.0-84.0","task_version":"battery-v0.2-trt","session":3},{"rune":"S","rune_set":"elianto","hex":"#3366ff99","correct":-1,"choice":-1,"rt":-1,"accuracy":1,"outcome":"+10","keys":[],"total_keys":0,"block":1,"trial":80,"stimulus":6,"robot":2,"valence":"win","action":"no-go","sham":0,"trial_type":"pit-trial","trial_index":110,"time_elapsed":485472,"internal_node_id":"0.0-85.0","task_version":"battery-v0.2-trt","session":3},{"rune":"G","rune_set":"elianto","hex":"#f73b6a7A","correct":-1,"choice":-1,"rt":-1,"accuracy":1,"outcome":"-1","keys":[],"total_keys":0,"block":1,"trial":81,"stimulus":8,"robot":4,"valence":"lose","action":"no-go","sham":0,"trial_type":"pit-trial","trial_index":111,"time_elapsed":489485,"internal_node_id":"0.0-86.0","task_version":"battery-v0.2-trt","session":3},{"rune":"L","rune_set":"elianto","hex":"#f73b6a7A","correct":32,"choice":-1,"rt":-1,"accuracy":0,"outcome":"-10","keys":[],"total_keys":0,"block":1,"trial":82,"stimulus":10,"robot":3,"valence":"lose","action":"go","sham":0,"trial_type":"pit-trial","trial_index":112,"time_elapsed":493496,"internal_node_id":"0.0-87.0","task_version":"battery-v0.2-trt","session":3},{"rune":"S","rune_set":"elianto","hex":"#3366ff99","correct":-1,"choice":-1,"rt":-1,"accuracy":1,"outcome":"+10","keys":[],"total_keys":0,"block":1,"trial":83,"stimulus":6,"robot":2,"valence":"win","action":"no-go","sham":0,"trial_type":"pit-trial","trial_index":113,"time_elapsed":497510,"internal_node_id":"0.0-88.0","task_version":"battery-v0.2-trt","session":3},{"rune":"A","rune_set":"elianto","hex":"#3366ff99","correct":32,"choice":32,"rt":743,"accuracy":1,"outcome":"+10","keys":[2255],"total_keys":1,"block":1,"trial":84,"stimulus":9,"robot":1,"valence":"win","action":"go","sham":0,"trial_type":"pit-trial","trial_index":114,"time_elapsed":500977,"internal_node_id":"0.0-89.0","task_version":"battery-v0.2-trt","session":3},{"rune":"S","rune_set":"elianto","hex":"#3366ff99","correct":-1,"choice":-1,"rt":-1,"accuracy":1,"outcome":"+1","keys":[],"total_keys":0,"block":1,"trial":85,"stimulus":6,"robot":2,"valence":"win","action":"no-go","sham":1,"trial_type":"pit-trial","trial_index":115,"time_elapsed":504994,"internal_node_id":"0.0-90.0","task_version":"battery-v0.2-trt","session":3},{"rune":"L","rune_set":"elianto","hex":"#f73b6a7A","correct":32,"choice":32,"rt":693,"accuracy":1,"outcome":"-10","keys":[2196],"total_keys":1,"block":1,"trial":86,"stimulus":10,"robot":3,"valence":"lose","action":"go","sham":1,"trial_type":"pit-trial","trial_index":116,"time_elapsed":508405,"internal_node_id":"0.0-91.0","task_version":"battery-v0.2-trt","session":3},{"rune":"G","rune_set":"elianto","hex":"#f73b6a7A","correct":-1,"choice":32,"rt":1102,"accuracy":0,"outcome":"-10","keys":[2612],"total_keys":1,"block":1,"trial":87,"stimulus":8,"robot":4,"valence":"lose","action":"no-go","sham":0,"trial_type":"pit-trial","trial_index":117,"time_elapsed":512233,"internal_node_id":"0.0-92.0","task_version":"battery-v0.2-trt","session":3},{"rune":"A","rune_set":"elianto","hex":"#3366ff99","correct":32,"choice":32,"rt":677,"accuracy":1,"outcome":"+10","keys":[2192],"total_keys":1,"block":1,"trial":88,"stimulus":9,"robot":1,"valence":"win","action":"go","sham":0,"trial_type":"pit-trial","trial_index":118,"time_elapsed":515636,"internal_node_id":"0.0-93.0","task_version":"battery-v0.2-trt","session":3},{"rune":"A","rune_set":"elianto","hex":"#3366ff99","correct":32,"choice":32,"rt":557,"accuracy":1,"outcome":"+1","keys":[2058],"total_keys":1,"block":1,"trial":89,"stimulus":9,"robot":1,"valence":"win","action":"go","sham":1,"trial_type":"pit-trial","trial_index":119,"time_elapsed":518901,"internal_node_id":"0.0-94.0","task_version":"battery-v0.2-trt","session":3},{"rune":"L","rune_set":"elianto","hex":"#f73b6a7A","correct":32,"choice":-1,"rt":-1,"accuracy":0,"outcome":"-10","keys":[],"total_keys":0,"block":1,"trial":90,"stimulus":10,"robot":3,"valence":"lose","action":"go","sham":0,"trial_type":"pit-trial","trial_index":120,"time_elapsed":522906,"internal_node_id":"0.0-95.0","task_version":"battery-v0.2-trt","session":3},{"rune":"G","rune_set":"elianto","hex":"#f73b6a7A","correct":-1,"choice":-1,"rt":-1,"accuracy":1,"outcome":"-10","keys":[],"total_keys":0,"block":1,"trial":91,"stimulus":8,"robot":4,"valence":"lose","action":"no-go","sham":1,"trial_type":"pit-trial","trial_index":121,"time_elapsed":526933,"internal_node_id":"0.0-96.0","task_version":"battery-v0.2-trt","session":3},{"rune":"U","rune_set":"elianto","hex":"#3366ff99","correct":32,"choice":32,"rt":587,"accuracy":1,"outcome":"+10","keys":[2093],"total_keys":1,"block":1,"trial":92,"stimulus":11,"robot":1,"valence":"win","action":"go","sham":0,"trial_type":"pit-trial","trial_index":122,"time_elapsed":530240,"internal_node_id":"0.0-97.0","task_version":"battery-v0.2-trt","session":3},{"rune":"L","rune_set":"elianto","hex":"#f73b6a7A","correct":32,"choice":32,"rt":1010,"accuracy":1,"outcome":"-1","keys":[2514],"total_keys":1,"block":1,"trial":93,"stimulus":10,"robot":3,"valence":"lose","action":"go","sham":0,"trial_type":"pit-trial","trial_index":123,"time_elapsed":533963,"internal_node_id":"0.0-98.0","task_version":"battery-v0.2-trt","session":3},{"rune":"G","rune_set":"elianto","hex":"#f73b6a7A","correct":-1,"choice":32,"rt":1173,"accuracy":0,"outcome":"-10","keys":[2677],"total_keys":1,"block":1,"trial":94,"stimulus":8,"robot":4,"valence":"lose","action":"no-go","sham":0,"trial_type":"pit-trial","trial_index":124,"time_elapsed":537853,"internal_node_id":"0.0-99.0","task_version":"battery-v0.2-trt","session":3},{"rune":"A","rune_set":"elianto","hex":"#3366ff99","correct":32,"choice":32,"rt":462,"accuracy":1,"outcome":"+10","keys":[1970],"total_keys":1,"block":1,"trial":95,"stimulus":9,"robot":1,"valence":"win","action":"go","sham":0,"trial_type":"pit-trial","trial_index":125,"time_elapsed":541036,"internal_node_id":"0.0-100.0","task_version":"battery-v0.2-trt","session":3},{"rune":"U","rune_set":"elianto","hex":"#3366ff99","correct":32,"choice":32,"rt":1085,"accuracy":1,"outcome":"+10","keys":[2586],"total_keys":1,"block":1,"trial":96,"stimulus":11,"robot":1,"valence":"win","action":"go","sham":0,"trial_type":"pit-trial","trial_index":126,"time_elapsed":544829,"internal_node_id":"0.0-101.0","task_version":"battery-v0.2-trt","session":3},{"rune":"A","rune_set":"elianto","hex":"#3366ff99","correct":32,"choice":32,"rt":532,"accuracy":1,"outcome":"+10","keys":[2033],"total_keys":1,"block":1,"trial":97,"stimulus":9,"robot":1,"valence":"win","action":"go","sham":0,"trial_type":"pit-trial","trial_index":127,"time_elapsed":548070,"internal_node_id":"0.0-102.0","task_version":"battery-v0.2-trt","session":3},{"rune":"L","rune_set":"elianto","hex":"#f73b6a7A","correct":32,"choice":-1,"rt":-1,"accuracy":0,"outcome":"-10","keys":[],"total_keys":0,"block":1,"trial":98,"stimulus":10,"robot":3,"valence":"lose","action":"go","sham":0,"trial_type":"pit-trial","trial_index":128,"time_elapsed":552098,"internal_node_id":"0.0-103.0","task_version":"battery-v0.2-trt","session":3},{"rune":"U","rune_set":"elianto","hex":"#3366ff99","correct":32,"choice":32,"rt":489,"accuracy":1,"outcome":"+10","keys":[2002],"total_keys":1,"block":1,"trial":99,"stimulus":11,"robot":1,"valence":"win","action":"go","sham":0,"trial_type":"pit-trial","trial_index":129,"time_elapsed":555317,"internal_node_id":"0.0-104.0","task_version":"battery-v0.2-trt","session":3},{"rune":"G","rune_set":"elianto","hex":"#f73b6a7A","correct":-1,"choice":-1,"rt":-1,"accuracy":1,"outcome":"-1","keys":[],"total_keys":0,"block":1,"trial":100,"stimulus":8,"robot":4,"valence":"lose","action":"no-go","sham":0,"trial_type":"pit-trial","trial_index":130,"time_elapsed":559334,"internal_node_id":"0.0-105.0","task_version":"battery-v0.2-trt","session":3},{"rune":"G","rune_set":"elianto","hex":"#f73b6a7A","correct":-1,"choice":-1,"rt":-1,"accuracy":1,"outcome":"-1","keys":[],"total_keys":0,"block":1,"trial":101,"stimulus":8,"robot":4,"valence":"lose","action":"no-go","sham":0,"trial_type":"pit-trial","trial_index":131,"time_elapsed":563343,"internal_node_id":"0.0-106.0","task_version":"battery-v0.2-trt","session":3},{"rune":"A","rune_set":"elianto","hex":"#3366ff99","correct":32,"choice":32,"rt":466,"accuracy":1,"outcome":"+10","keys":[1969],"total_keys":1,"block":1,"trial":102,"stimulus":9,"robot":1,"valence":"win","action":"go","sham":0,"trial_type":"pit-trial","trial_index":132,"time_elapsed":566521,"internal_node_id":"0.0-107.0","task_version":"battery-v0.2-trt","session":3},{"rune":"L","rune_set":"elianto","hex":"#f73b6a7A","correct":32,"choice":-1,"rt":-1,"accuracy":0,"outcome":"-10","keys":[],"total_keys":0,"block":1,"trial":103,"stimulus":10,"robot":3,"valence":"lose","action":"go","sham":0,"trial_type":"pit-trial","trial_index":133,"time_elapsed":570530,"internal_node_id":"0.0-108.0","task_version":"battery-v0.2-trt","session":3},{"rune":"U","rune_set":"elianto","hex":"#3366ff99","correct":32,"choice":32,"rt":499,"accuracy":1,"outcome":"+10","keys":[1999],"total_keys":1,"block":1,"trial":104,"stimulus":11,"robot":1,"valence":"win","action":"go","sham":0,"trial_type":"pit-trial","trial_index":134,"time_elapsed":573733,"internal_node_id":"0.0-109.0","task_version":"battery-v0.2-trt","session":3},{"rune":"G","rune_set":"elianto","hex":"#f73b6a7A","correct":-1,"choice":-1,"rt":-1,"accuracy":1,"outcome":"-10","keys":[],"total_keys":0,"block":1,"trial":105,"stimulus":8,"robot":4,"valence":"lose","action":"no-go","sham":1,"trial_type":"pit-trial","trial_index":135,"time_elapsed":577747,"internal_node_id":"0.0-110.0","task_version":"battery-v0.2-trt","session":3},{"rune":"U","rune_set":"elianto","hex":"#3366ff99","correct":32,"choice":32,"rt":467,"accuracy":1,"outcome":"+10","keys":[1978],"total_keys":1,"block":1,"trial":106,"stimulus":11,"robot":1,"valence":"win","action":"go","sham":0,"trial_type":"pit-trial","trial_index":136,"time_elapsed":580933,"internal_node_id":"0.0-111.0","task_version":"battery-v0.2-trt","session":3},{"rune":"A","rune_set":"elianto","hex":"#3366ff99","correct":32,"choice":32,"rt":392,"accuracy":1,"outcome":"+10","keys":[1899],"total_keys":1,"block":1,"trial":107,"stimulus":9,"robot":1,"valence":"win","action":"go","sham":0,"trial_type":"pit-trial","trial_index":137,"time_elapsed":584044,"internal_node_id":"0.0-112.0","task_version":"battery-v0.2-trt","session":3},{"rune":"L","rune_set":"elianto","hex":"#f73b6a7A","correct":32,"choice":32,"rt":783,"accuracy":1,"outcome":"-10","keys":[2295],"total_keys":1,"block":1,"trial":108,"stimulus":10,"robot":3,"valence":"lose","action":"go","sham":1,"trial_type":"pit-trial","trial_index":138,"time_elapsed":587551,"internal_node_id":"0.0-113.0","task_version":"battery-v0.2-trt","session":3},{"rune":"A","rune_set":"elianto","hex":"#3366ff99","correct":32,"choice":32,"rt":438,"accuracy":1,"outcome":"+10","keys":[619,1946],"total_keys":2,"block":1,"trial":109,"stimulus":9,"robot":1,"valence":"win","action":"go","sham":0,"trial_type":"pit-trial","trial_index":139,"time_elapsed":590716,"internal_node_id":"0.0-114.0","task_version":"battery-v0.2-trt","session":3},{"rune":"L","rune_set":"elianto","hex":"#f73b6a7A","correct":32,"choice":32,"rt":571,"accuracy":1,"outcome":"-1","keys":[2078],"total_keys":1,"block":1,"trial":110,"stimulus":10,"robot":3,"valence":"lose","action":"go","sham":0,"trial_type":"pit-trial","trial_index":140,"time_elapsed":594005,"internal_node_id":"0.0-115.0","task_version":"battery-v0.2-trt","session":3},{"rune":"G","rune_set":"elianto","hex":"#f73b6a7A","correct":-1,"choice":32,"rt":505,"accuracy":0,"outcome":"-10","keys":[2007],"total_keys":1,"block":1,"trial":111,"stimulus":8,"robot":4,"valence":"lose","action":"no-go","sham":0,"trial_type":"pit-trial","trial_index":141,"time_elapsed":597215,"internal_node_id":"0.0-116.0","task_version":"battery-v0.2-trt","session":3},{"rune":"U","rune_set":"elianto","hex":"#3366ff99","correct":32,"choice":32,"rt":524,"accuracy":1,"outcome":"+10","keys":[2027],"total_keys":1,"block":1,"trial":112,"stimulus":11,"robot":1,"valence":"win","action":"go","sham":0,"trial_type":"pit-trial","trial_index":142,"time_elapsed":600449,"internal_node_id":"0.0-117.0","task_version":"battery-v0.2-trt","session":3},{"rune":"A","rune_set":"elianto","hex":"#3366ff99","correct":32,"choice":32,"rt":462,"accuracy":1,"outcome":"+10","keys":[1973],"total_keys":1,"block":1,"trial":113,"stimulus":9,"robot":1,"valence":"win","action":"go","sham":0,"trial_type":"pit-trial","trial_index":143,"time_elapsed":603630,"internal_node_id":"0.0-118.0","task_version":"battery-v0.2-trt","session":3},{"rune":"G","rune_set":"elianto","hex":"#f73b6a7A","correct":-1,"choice":-1,"rt":-1,"accuracy":1,"outcome":"-10","keys":[],"total_keys":0,"block":1,"trial":114,"stimulus":8,"robot":4,"valence":"lose","action":"no-go","sham":1,"trial_type":"pit-trial","trial_index":144,"time_elapsed":607651,"internal_node_id":"0.0-119.0","task_version":"battery-v0.2-trt","session":3},{"rune":"U","rune_set":"elianto","hex":"#3366ff99","correct":32,"choice":32,"rt":399,"accuracy":1,"outcome":"+10","keys":[1910],"total_keys":1,"block":1,"trial":115,"stimulus":11,"robot":1,"valence":"win","action":"go","sham":0,"trial_type":"pit-trial","trial_index":145,"time_elapsed":610776,"internal_node_id":"0.0-120.0","task_version":"battery-v0.2-trt","session":3},{"rune":"L","rune_set":"elianto","hex":"#f73b6a7A","correct":32,"choice":32,"rt":612,"accuracy":1,"outcome":"-1","keys":[2120],"total_keys":1,"block":1,"trial":116,"stimulus":10,"robot":3,"valence":"lose","action":"go","sham":0,"trial_type":"pit-trial","trial_index":146,"time_elapsed":614112,"internal_node_id":"0.0-121.0","task_version":"battery-v0.2-trt","session":3},{"rune":"L","rune_set":"elianto","hex":"#f73b6a7A","correct":32,"choice":32,"rt":519,"accuracy":1,"outcome":"-1","keys":[2022],"total_keys":1,"block":1,"trial":117,"stimulus":10,"robot":3,"valence":"lose","action":"go","sham":0,"trial_type":"pit-trial","trial_index":147,"time_elapsed":617341,"internal_node_id":"0.0-122.0","task_version":"battery-v0.2-trt","session":3},{"rune":"G","rune_set":"elianto","hex":"#f73b6a7A","correct":-1,"choice":32,"rt":669,"accuracy":0,"outcome":"-10","keys":[2179],"total_keys":1,"block":1,"trial":118,"stimulus":8,"robot":4,"valence":"lose","action":"no-go","sham":0,"trial_type":"pit-trial","trial_index":148,"time_elapsed":620730,"internal_node_id":"0.0-123.0","task_version":"battery-v0.2-trt","session":3},{"rune":"A","rune_set":"elianto","hex":"#3366ff99","correct":32,"choice":32,"rt":515,"accuracy":1,"outcome":"+1","keys":[2026],"total_keys":1,"block":1,"trial":119,"stimulus":9,"robot":1,"valence":"win","action":"go","sham":1,"trial_type":"pit-trial","trial_index":149,"time_elapsed":623963,"internal_node_id":"0.0-124.0","task_version":"battery-v0.2-trt","session":3},{"rune":"U","rune_set":"elianto","hex":"#3366ff99","correct":32,"choice":32,"rt":719,"accuracy":1,"outcome":"+10","keys":[2226],"total_keys":1,"block":1,"trial":120,"stimulus":11,"robot":1,"valence":"win","action":"go","sham":0,"trial_type":"pit-trial","trial_index":150,"time_elapsed":627406,"internal_node_id":"0.0-125.0","task_version":"battery-v0.2-trt","session":3},{"view_history":"[{\"page_index\":0,\"viewing_time\":42786},{\"page_index\":1,\"viewing_time\":1420}]","rt":44207,"trial_type":"pit-instructions","trial_index":151,"time_elapsed":671614,"internal_node_id":"0.0-126.0","task_version":"battery-v0.2-trt","session":3},{"rune":"H","rune_set":"elianto","hex":"#3366ff99","correct":32,"choice":32,"rt":708,"accuracy":1,"outcome":"+10","keys":[2215],"total_keys":1,"block":2,"trial":121,"stimulus":3,"robot":1,"valence":"win","action":"go","sham":0,"trial_type":"pit-trial","trial_index":152,"time_elapsed":675041,"internal_node_id":"0.0-127.0","task_version":"battery-v0.2-trt","session":3},{"rune":"Y","rune_set":"elianto","hex":"#f73b6a7A","correct":-1,"choice":32,"rt":692,"accuracy":0,"outcome":"-10","keys":[2193],"total_keys":1,"block":2,"trial":122,"stimulus":2,"robot":4,"valence":"lose","action":"no-go","sham":0,"trial_type":"pit-trial","trial_index":153,"time_elapsed":678444,"internal_node_id":"0.0-128.0","task_version":"battery-v0.2-trt","session":3},{"rune":"R","rune_set":"elianto","hex":"#f73b6a7A","correct":32,"choice":-1,"rt":-1,"accuracy":0,"outcome":"-10","keys":[],"total_keys":0,"block":2,"trial":123,"stimulus":1,"robot":3,"valence":"lose","action":"go","sham":0,"trial_type":"pit-trial","trial_index":154,"time_elapsed":682456,"internal_node_id":"0.0-129.0","task_version":"battery-v0.2-trt","session":3},{"rune":"M","rune_set":"elianto","hex":"#3366ff99","correct":-1,"choice":32,"rt":515,"accuracy":0,"outcome":"+1","keys":[2024],"total_keys":1,"block":2,"trial":124,"stimulus":0,"robot":2,"valence":"win","action":"no-go","sham":0,"trial_type":"pit-trial","trial_index":155,"time_elapsed":685683,"internal_node_id":"0.0-130.0","task_version":"battery-v0.2-trt","session":3},{"rune":"M","rune_set":"elianto","hex":"#3366ff99","correct":-1,"choice":-1,"rt":-1,"accuracy":1,"outcome":"+10","keys":[],"total_keys":0,"block":2,"trial":125,"stimulus":0,"robot":2,"valence":"win","action":"no-go","sham":0,"trial_type":"pit-trial","trial_index":156,"time_elapsed":689699,"internal_node_id":"0.0-131.0","task_version":"battery-v0.2-trt","session":3},{"rune":"H","rune_set":"elianto","hex":"#3366ff99","correct":32,"choice":32,"rt":514,"accuracy":1,"outcome":"+1","keys":[2024],"total_keys":1,"block":2,"trial":126,"stimulus":3,"robot":1,"valence":"win","action":"go","sham":1,"trial_type":"pit-trial","trial_index":157,"time_elapsed":692935,"internal_node_id":"0.0-132.0","task_version":"battery-v0.2-trt","session":3},{"rune":"Y","rune_set":"elianto","hex":"#f73b6a7A","correct":-1,"choice":32,"rt":641,"accuracy":0,"outcome":"-10","keys":[2153],"total_keys":1,"block":2,"trial":127,"stimulus":2,"robot":4,"valence":"lose","action":"no-go","sham":0,"trial_type":"pit-trial","trial_index":158,"time_elapsed":696291,"internal_node_id":"0.0-133.0","task_version":"battery-v0.2-trt","session":3},{"rune":"R","rune_set":"elianto","hex":"#f73b6a7A","correct":32,"choice":-1,"rt":-1,"accuracy":0,"outcome":"-10","keys":[],"total_keys":0,"block":2,"trial":128,"stimulus":1,"robot":3,"valence":"lose","action":"go","sham":0,"trial_type":"pit-trial","trial_index":159,"time_elapsed":700309,"internal_node_id":"0.0-134.0","task_version":"battery-v0.2-trt","session":3},{"rune":"Y","rune_set":"elianto","hex":"#f73b6a7A","correct":-1,"choice":32,"rt":566,"accuracy":0,"outcome":"-10","keys":[2073],"total_keys":1,"block":2,"trial":129,"stimulus":2,"robot":4,"valence":"lose","action":"no-go","sham":0,"trial_type":"pit-trial","trial_index":160,"time_elapsed":703598,"internal_node_id":"0.0-135.0","task_version":"battery-v0.2-trt","session":3},{"rune":"H","rune_set":"elianto","hex":"#3366ff99","correct":32,"choice":32,"rt":500,"accuracy":1,"outcome":"+10","keys":[2007],"total_keys":1,"block":2,"trial":130,"stimulus":3,"robot":1,"valence":"win","action":"go","sham":0,"trial_type":"pit-trial","trial_index":161,"time_elapsed":706809,"internal_node_id":"0.0-136.0","task_version":"battery-v0.2-trt","session":3},{"rune":"M","rune_set":"elianto","hex":"#3366ff99","correct":-1,"choice":-1,"rt":-1,"accuracy":1,"outcome":"+10","keys":[],"total_keys":0,"block":2,"trial":131,"stimulus":0,"robot":2,"valence":"win","action":"no-go","sham":0,"trial_type":"pit-trial","trial_index":162,"time_elapsed":710827,"internal_node_id":"0.0-137.0","task_version":"battery-v0.2-trt","session":3},{"rune":"R","rune_set":"elianto","hex":"#f73b6a7A","correct":32,"choice":32,"rt":809,"accuracy":1,"outcome":"-1","keys":[2312],"total_keys":1,"block":2,"trial":132,"stimulus":1,"robot":3,"valence":"lose","action":"go","sham":0,"trial_type":"pit-trial","trial_index":163,"time_elapsed":714355,"internal_node_id":"0.0-138.0","task_version":"battery-v0.2-trt","session":3},{"rune":"R","rune_set":"elianto","hex":"#f73b6a7A","correct":32,"choice":32,"rt":494,"accuracy":1,"outcome":"-1","keys":[1996],"total_keys":1,"block":2,"trial":133,"stimulus":1,"robot":3,"valence":"lose","action":"go","sham":0,"trial_type":"pit-trial","trial_index":164,"time_elapsed":717560,"internal_node_id":"0.0-139.0","task_version":"battery-v0.2-trt","session":3},{"rune":"H","rune_set":"elianto","hex":"#3366ff99","correct":32,"choice":-1,"rt":-1,"accuracy":0,"outcome":"+1","keys":[],"total_keys":0,"block":2,"trial":134,"stimulus":3,"robot":1,"valence":"win","action":"go","sham":0,"trial_type":"pit-trial","trial_index":165,"time_elapsed":721567,"internal_node_id":"0.0-140.0","task_version":"battery-v0.2-trt","session":3},{"rune":"M","rune_set":"elianto","hex":"#3366ff99","correct":-1,"choice":32,"rt":528,"accuracy":0,"outcome":"+1","keys":[2037],"total_keys":1,"block":2,"trial":135,"stimulus":0,"robot":2,"valence":"win","action":"no-go","sham":0,"trial_type":"pit-trial","trial_index":166,"time_elapsed":724814,"internal_node_id":"0.0-141.0","task_version":"battery-v0.2-trt","session":3},{"rune":"Y","rune_set":"elianto","hex":"#f73b6a7A","correct":-1,"choice":32,"rt":823,"accuracy":0,"outcome":"-10","keys":[2331],"total_keys":1,"block":2,"trial":136,"stimulus":2,"robot":4,"valence":"lose","action":"no-go","sham":0,"trial_type":"pit-trial","trial_index":167,"time_elapsed":728359,"internal_node_id":"0.0-142.0","task_version":"battery-v0.2-trt","session":3},{"rune":"Y","rune_set":"elianto","hex":"#f73b6a7A","correct":-1,"choice":-1,"rt":-1,"accuracy":1,"outcome":"-1","keys":[],"total_keys":0,"block":2,"trial":137,"stimulus":2,"robot":4,"valence":"lose","action":"no-go","sham":0,"trial_type":"pit-trial","trial_index":168,"time_elapsed":732380,"internal_node_id":"0.0-143.0","task_version":"battery-v0.2-trt","session":3},{"rune":"R","rune_set":"elianto","hex":"#f73b6a7A","correct":32,"choice":-1,"rt":-1,"accuracy":0,"outcome":"-1","keys":[2884],"total_keys":1,"block":2,"trial":138,"stimulus":1,"robot":3,"valence":"lose","action":"go","sham":1,"trial_type":"pit-trial","trial_index":169,"time_elapsed":736404,"internal_node_id":"0.0-144.0","task_version":"battery-v0.2-trt","session":3},{"rune":"H","rune_set":"elianto","hex":"#3366ff99","correct":32,"choice":32,"rt":756,"accuracy":1,"outcome":"+10","keys":[2266],"total_keys":1,"block":2,"trial":139,"stimulus":3,"robot":1,"valence":"win","action":"go","sham":0,"trial_type":"pit-trial","trial_index":170,"time_elapsed":739887,"internal_node_id":"0.0-145.0","task_version":"battery-v0.2-trt","session":3},{"rune":"M","rune_set":"elianto","hex":"#3366ff99","correct":-1,"choice":-1,"rt":-1,"accuracy":1,"outcome":"+10","keys":[],"total_keys":0,"block":2,"trial":140,"stimulus":0,"robot":2,"valence":"win","action":"no-go","sham":0,"trial_type":"pit-trial","trial_index":171,"time_elapsed":743908,"internal_node_id":"0.0-146.0","task_version":"battery-v0.2-trt","session":3},{"rune":"Y","rune_set":"elianto","hex":"#f73b6a7A","correct":-1,"choice":32,"rt":1236,"accuracy":0,"outcome":"-10","keys":[2746],"total_keys":1,"block":2,"trial":141,"stimulus":2,"robot":4,"valence":"lose","action":"no-go","sham":0,"trial_type":"pit-trial","trial_index":172,"time_elapsed":747866,"internal_node_id":"0.0-147.0","task_version":"battery-v0.2-trt","session":3},{"rune":"R","rune_set":"elianto","hex":"#f73b6a7A","correct":32,"choice":32,"rt":750,"accuracy":1,"outcome":"-1","keys":[2258],"total_keys":1,"block":2,"trial":142,"stimulus":1,"robot":3,"valence":"lose","action":"go","sham":0,"trial_type":"pit-trial","trial_index":173,"time_elapsed":751333,"internal_node_id":"0.0-148.0","task_version":"battery-v0.2-trt","session":3},{"rune":"M","rune_set":"elianto","hex":"#3366ff99","correct":-1,"choice":-1,"rt":-1,"accuracy":1,"outcome":"+10","keys":[],"total_keys":0,"block":2,"trial":143,"stimulus":0,"robot":2,"valence":"win","action":"no-go","sham":0,"trial_type":"pit-trial","trial_index":174,"time_elapsed":755343,"internal_node_id":"0.0-149.0","task_version":"battery-v0.2-trt","session":3},{"rune":"H","rune_set":"elianto","hex":"#3366ff99","correct":32,"choice":32,"rt":878,"accuracy":1,"outcome":"+10","keys":[2388],"total_keys":1,"block":2,"trial":144,"stimulus":3,"robot":1,"valence":"win","action":"go","sham":0,"trial_type":"pit-trial","trial_index":175,"time_elapsed":758940,"internal_node_id":"0.0-150.0","task_version":"battery-v0.2-trt","session":3},{"rune":"M","rune_set":"elianto","hex":"#3366ff99","correct":-1,"choice":-1,"rt":-1,"accuracy":1,"outcome":"+10","keys":[2832],"total_keys":1,"block":2,"trial":145,"stimulus":0,"robot":2,"valence":"win","action":"no-go","sham":0,"trial_type":"pit-trial","trial_index":176,"time_elapsed":762953,"internal_node_id":"0.0-151.0","task_version":"battery-v0.2-trt","session":3},{"rune":"H","rune_set":"elianto","hex":"#3366ff99","correct":32,"choice":-1,"rt":-1,"accuracy":0,"outcome":"+1","keys":[],"total_keys":0,"block":2,"trial":146,"stimulus":3,"robot":1,"valence":"win","action":"go","sham":0,"trial_type":"pit-trial","trial_index":177,"time_elapsed":766969,"internal_node_id":"0.0-152.0","task_version":"battery-v0.2-trt","session":3},{"rune":"R","rune_set":"elianto","hex":"#f73b6a7A","correct":32,"choice":32,"rt":957,"accuracy":1,"outcome":"-1","keys":[2462],"total_keys":1,"block":2,"trial":147,"stimulus":1,"robot":3,"valence":"lose","action":"go","sham":0,"trial_type":"pit-trial","trial_index":178,"time_elapsed":770643,"internal_node_id":"0.0-153.0","task_version":"battery-v0.2-trt","session":3},{"rune":"Y","rune_set":"elianto","hex":"#f73b6a7A","correct":-1,"choice":-1,"rt":-1,"accuracy":1,"outcome":"-1","keys":[],"total_keys":0,"block":2,"trial":148,"stimulus":2,"robot":4,"valence":"lose","action":"no-go","sham":0,"trial_type":"pit-trial","trial_index":179,"time_elapsed":774651,"internal_node_id":"0.0-154.0","task_version":"battery-v0.2-trt","session":3},{"rune":"M","rune_set":"elianto","hex":"#3366ff99","correct":-1,"choice":-1,"rt":-1,"accuracy":1,"outcome":"+10","keys":[],"total_keys":0,"block":2,"trial":149,"stimulus":0,"robot":2,"valence":"win","action":"no-go","sham":0,"trial_type":"pit-trial","trial_index":180,"time_elapsed":778658,"internal_node_id":"0.0-155.0","task_version":"battery-v0.2-trt","session":3},{"rune":"R","rune_set":"elianto","hex":"#f73b6a7A","correct":32,"choice":32,"rt":898,"accuracy":1,"outcome":"-1","keys":[2405],"total_keys":1,"block":2,"trial":150,"stimulus":1,"robot":3,"valence":"lose","action":"go","sham":0,"trial_type":"pit-trial","trial_index":181,"time_elapsed":782275,"internal_node_id":"0.0-156.0","task_version":"battery-v0.2-trt","session":3},{"rune":"Y","rune_set":"elianto","hex":"#f73b6a7A","correct":-1,"choice":-1,"rt":-1,"accuracy":1,"outcome":"-1","keys":[],"total_keys":0,"block":2,"trial":151,"stimulus":2,"robot":4,"valence":"lose","action":"no-go","sham":0,"trial_type":"pit-trial","trial_index":182,"time_elapsed":786282,"internal_node_id":"0.0-157.0","task_version":"battery-v0.2-trt","session":3},{"rune":"H","rune_set":"elianto","hex":"#3366ff99","correct":32,"choice":32,"rt":1121,"accuracy":1,"outcome":"+10","keys":[2628],"total_keys":1,"block":2,"trial":152,"stimulus":3,"robot":1,"valence":"win","action":"go","sham":0,"trial_type":"pit-trial","trial_index":183,"time_elapsed":790124,"internal_node_id":"0.0-158.0","task_version":"battery-v0.2-trt","session":3},{"rune":"Y","rune_set":"elianto","hex":"#f73b6a7A","correct":-1,"choice":-1,"rt":-1,"accuracy":1,"outcome":"-1","keys":[],"total_keys":0,"block":2,"trial":153,"stimulus":2,"robot":4,"valence":"lose","action":"no-go","sham":0,"trial_type":"pit-trial","trial_index":184,"time_elapsed":794138,"internal_node_id":"0.0-159.0","task_version":"battery-v0.2-trt","session":3},{"rune":"Z","rune_set":"elianto","hex":"#f73b6a7A","correct":32,"choice":-1,"rt":-1,"accuracy":0,"outcome":"-10","keys":[],"total_keys":0,"block":2,"trial":154,"stimulus":4,"robot":3,"valence":"lose","action":"go","sham":0,"trial_type":"pit-trial","trial_index":185,"time_elapsed":798153,"internal_node_id":"0.0-160.0","task_version":"battery-v0.2-trt","session":3},{"rune":"C","rune_set":"elianto","hex":"#f73b6a7A","correct":-1,"choice":32,"rt":687,"accuracy":0,"outcome":"-10","keys":[2201],"total_keys":1,"block":2,"trial":155,"stimulus":5,"robot":4,"valence":"lose","action":"no-go","sham":0,"trial_type":"pit-trial","trial_index":186,"time_elapsed":801557,"internal_node_id":"0.0-161.0","task_version":"battery-v0.2-trt","session":3},{"rune":"R","rune_set":"elianto","hex":"#f73b6a7A","correct":32,"choice":32,"rt":1026,"accuracy":1,"outcome":"-1","keys":[2532],"total_keys":1,"block":2,"trial":156,"stimulus":1,"robot":3,"valence":"lose","action":"go","sham":0,"trial_type":"pit-trial","trial_index":187,"time_elapsed":805296,"internal_node_id":"0.0-162.0","task_version":"battery-v0.2-trt","session":3},{"rune":"Y","rune_set":"elianto","hex":"#f73b6a7A","correct":-1,"choice":-1,"rt":-1,"accuracy":1,"outcome":"-1","keys":[],"total_keys":0,"block":2,"trial":157,"stimulus":2,"robot":4,"valence":"lose","action":"no-go","sham":0,"trial_type":"pit-trial","trial_index":188,"time_elapsed":809312,"internal_node_id":"0.0-163.0","task_version":"battery-v0.2-trt","session":3},{"rune":"Z","rune_set":"elianto","hex":"#f73b6a7A","correct":32,"choice":-1,"rt":-1,"accuracy":0,"outcome":"-10","keys":[],"total_keys":0,"block":2,"trial":158,"stimulus":4,"robot":3,"valence":"lose","action":"go","sham":0,"trial_type":"pit-trial","trial_index":189,"time_elapsed":813324,"internal_node_id":"0.0-164.0","task_version":"battery-v0.2-trt","session":3},{"rune":"C","rune_set":"elianto","hex":"#f73b6a7A","correct":-1,"choice":-1,"rt":-1,"accuracy":1,"outcome":"-1","keys":[2834],"total_keys":1,"block":2,"trial":159,"stimulus":5,"robot":4,"valence":"lose","action":"no-go","sham":0,"trial_type":"pit-trial","trial_index":190,"time_elapsed":817338,"internal_node_id":"0.0-165.0","task_version":"battery-v0.2-trt","session":3},{"rune":"R","rune_set":"elianto","hex":"#f73b6a7A","correct":32,"choice":32,"rt":1191,"accuracy":1,"outcome":"-1","keys":[2705],"total_keys":1,"block":2,"trial":160,"stimulus":1,"robot":3,"valence":"lose","action":"go","sham":0,"trial_type":"pit-trial","trial_index":191,"time_elapsed":821253,"internal_node_id":"0.0-166.0","task_version":"battery-v0.2-trt","session":3},{"rune":"Z","rune_set":"elianto","hex":"#f73b6a7A","correct":32,"choice":32,"rt":1104,"accuracy":1,"outcome":"-1","keys":[2613],"total_keys":1,"block":2,"trial":161,"stimulus":4,"robot":3,"valence":"lose","action":"go","sham":0,"trial_type":"pit-trial","trial_index":192,"time_elapsed":825081,"internal_node_id":"0.0-167.0","task_version":"battery-v0.2-trt","session":3},{"rune":"C","rune_set":"elianto","hex":"#f73b6a7A","correct":-1,"choice":-1,"rt":-1,"accuracy":1,"outcome":"-1","keys":[],"total_keys":0,"block":2,"trial":162,"stimulus":5,"robot":4,"valence":"lose","action":"no-go","sham":0,"trial_type":"pit-trial","trial_index":193,"time_elapsed":829090,"internal_node_id":"0.0-168.0","task_version":"battery-v0.2-trt","session":3},{"rune":"Y","rune_set":"elianto","hex":"#f73b6a7A","correct":-1,"choice":32,"rt":877,"accuracy":0,"outcome":"-10","keys":[1229,2380],"total_keys":2,"block":2,"trial":163,"stimulus":2,"robot":4,"valence":"lose","action":"no-go","sham":0,"trial_type":"pit-trial","trial_index":194,"time_elapsed":832681,"internal_node_id":"0.0-169.0","task_version":"battery-v0.2-trt","session":3},{"rune":"B","rune_set":"elianto","hex":"#3366ff99","correct":-1,"choice":32,"rt":701,"accuracy":0,"outcome":"+1","keys":[2202],"total_keys":1,"block":2,"trial":164,"stimulus":6,"robot":2,"valence":"win","action":"no-go","sham":0,"trial_type":"pit-trial","trial_index":195,"time_elapsed":836094,"internal_node_id":"0.0-170.0","task_version":"battery-v0.2-trt","session":3},{"rune":"B","rune_set":"elianto","hex":"#3366ff99","correct":-1,"choice":-1,"rt":-1,"accuracy":1,"outcome":"+10","keys":[],"total_keys":0,"block":2,"trial":165,"stimulus":6,"robot":2,"valence":"win","action":"no-go","sham":0,"trial_type":"pit-trial","trial_index":196,"time_elapsed":840103,"internal_node_id":"0.0-171.0","task_version":"battery-v0.2-trt","session":3},{"rune":"Y","rune_set":"elianto","hex":"#f73b6a7A","correct":-1,"choice":-1,"rt":-1,"accuracy":1,"outcome":"-1","keys":[],"total_keys":0,"block":2,"trial":166,"stimulus":2,"robot":4,"valence":"lose","action":"no-go","sham":0,"trial_type":"pit-trial","trial_index":197,"time_elapsed":844109,"internal_node_id":"0.0-172.0","task_version":"battery-v0.2-trt","session":3},{"rune":"C","rune_set":"elianto","hex":"#f73b6a7A","correct":-1,"choice":-1,"rt":-1,"accuracy":1,"outcome":"-1","keys":[],"total_keys":0,"block":2,"trial":167,"stimulus":5,"robot":4,"valence":"lose","action":"no-go","sham":0,"trial_type":"pit-trial","trial_index":198,"time_elapsed":848118,"internal_node_id":"0.0-173.0","task_version":"battery-v0.2-trt","session":3},{"rune":"Z","rune_set":"elianto","hex":"#f73b6a7A","correct":32,"choice":32,"rt":458,"accuracy":1,"outcome":"-1","keys":[1963],"total_keys":1,"block":2,"trial":168,"stimulus":4,"robot":3,"valence":"lose","action":"go","sham":0,"trial_type":"pit-trial","trial_index":199,"time_elapsed":851293,"internal_node_id":"0.0-174.0","task_version":"battery-v0.2-trt","session":3},{"rune":"Z","rune_set":"elianto","hex":"#f73b6a7A","correct":32,"choice":32,"rt":728,"accuracy":1,"outcome":"-10","keys":[2239],"total_keys":1,"block":2,"trial":169,"stimulus":4,"robot":3,"valence":"lose","action":"go","sham":1,"trial_type":"pit-trial","trial_index":200,"time_elapsed":854747,"internal_node_id":"0.0-175.0","task_version":"battery-v0.2-trt","session":3},{"rune":"T","rune_set":"elianto","hex":"#3366ff99","correct":32,"choice":-1,"rt":-1,"accuracy":0,"outcome":"+1","keys":[3236],"total_keys":1,"block":2,"trial":170,"stimulus":7,"robot":1,"valence":"win","action":"go","sham":0,"trial_type":"pit-trial","trial_index":201,"time_elapsed":858778,"internal_node_id":"0.0-176.0","task_version":"battery-v0.2-trt","session":3},{"rune":"C","rune_set":"elianto","hex":"#f73b6a7A","correct":-1,"choice":32,"rt":1216,"accuracy":0,"outcome":"-10","keys":[2725],"total_keys":1,"block":2,"trial":171,"stimulus":5,"robot":4,"valence":"lose","action":"no-go","sham":0,"trial_type":"pit-trial","trial_index":202,"time_elapsed":862713,"internal_node_id":"0.0-177.0","task_version":"battery-v0.2-trt","session":3},{"rune":"B","rune_set":"elianto","hex":"#3366ff99","correct":-1,"choice":-1,"rt":-1,"accuracy":1,"outcome":"+10","keys":[],"total_keys":0,"block":2,"trial":172,"stimulus":6,"robot":2,"valence":"win","action":"no-go","sham":0,"trial_type":"pit-trial","trial_index":203,"time_elapsed":866733,"internal_node_id":"0.0-178.0","task_version":"battery-v0.2-trt","session":3},{"rune":"Z","rune_set":"elianto","hex":"#f73b6a7A","correct":32,"choice":32,"rt":1194,"accuracy":1,"outcome":"-1","keys":[2704],"total_keys":1,"block":2,"trial":173,"stimulus":4,"robot":3,"valence":"lose","action":"go","sham":0,"trial_type":"pit-trial","trial_index":204,"time_elapsed":870652,"internal_node_id":"0.0-179.0","task_version":"battery-v0.2-trt","session":3},{"rune":"T","rune_set":"elianto","hex":"#3366ff99","correct":32,"choice":32,"rt":725,"accuracy":1,"outcome":"+10","keys":[2229],"total_keys":1,"block":2,"trial":174,"stimulus":7,"robot":1,"valence":"win","action":"go","sham":0,"trial_type":"pit-trial","trial_index":205,"time_elapsed":874098,"internal_node_id":"0.0-180.0","task_version":"battery-v0.2-trt","session":3},{"rune":"B","rune_set":"elianto","hex":"#3366ff99","correct":-1,"choice":-1,"rt":-1,"accuracy":1,"outcome":"+10","keys":[],"total_keys":0,"block":2,"trial":175,"stimulus":6,"robot":2,"valence":"win","action":"no-go","sham":0,"trial_type":"pit-trial","trial_index":206,"time_elapsed":878108,"internal_node_id":"0.0-181.0","task_version":"battery-v0.2-trt","session":3},{"rune":"C","rune_set":"elianto","hex":"#f73b6a7A","correct":-1,"choice":-1,"rt":-1,"accuracy":1,"outcome":"-1","keys":[],"total_keys":0,"block":2,"trial":176,"stimulus":5,"robot":4,"valence":"lose","action":"no-go","sham":0,"trial_type":"pit-trial","trial_index":207,"time_elapsed":882121,"internal_node_id":"0.0-182.0","task_version":"battery-v0.2-trt","session":3},{"rune":"Z","rune_set":"elianto","hex":"#f73b6a7A","correct":32,"choice":32,"rt":1095,"accuracy":1,"outcome":"-10","keys":[2600],"total_keys":1,"block":2,"trial":177,"stimulus":4,"robot":3,"valence":"lose","action":"go","sham":1,"trial_type":"pit-trial","trial_index":208,"time_elapsed":885937,"internal_node_id":"0.0-183.0","task_version":"battery-v0.2-trt","session":3},{"rune":"B","rune_set":"elianto","hex":"#3366ff99","correct":-1,"choice":-1,"rt":-1,"accuracy":1,"outcome":"+10","keys":[],"total_keys":0,"block":2,"trial":178,"stimulus":6,"robot":2,"valence":"win","action":"no-go","sham":0,"trial_type":"pit-trial","trial_index":209,"time_elapsed":889948,"internal_node_id":"0.0-184.0","task_version":"battery-v0.2-trt","session":3},{"rune":"C","rune_set":"elianto","hex":"#f73b6a7A","correct":-1,"choice":-1,"rt":-1,"accuracy":1,"outcome":"-1","keys":[],"total_keys":0,"block":2,"trial":179,"stimulus":5,"robot":4,"valence":"lose","action":"no-go","sham":0,"trial_type":"pit-trial","trial_index":210,"time_elapsed":893964,"internal_node_id":"0.0-185.0","task_version":"battery-v0.2-trt","session":3},{"rune":"T","rune_set":"elianto","hex":"#3366ff99","correct":32,"choice":32,"rt":691,"accuracy":1,"outcome":"+10","keys":[2195],"total_keys":1,"block":2,"trial":180,"stimulus":7,"robot":1,"valence":"win","action":"go","sham":0,"trial_type":"pit-trial","trial_index":211,"time_elapsed":897372,"internal_node_id":"0.0-186.0","task_version":"battery-v0.2-trt","session":3},{"rune":"T","rune_set":"elianto","hex":"#3366ff99","correct":32,"choice":32,"rt":522,"accuracy":1,"outcome":"+10","keys":[2032],"total_keys":1,"block":2,"trial":181,"stimulus":7,"robot":1,"valence":"win","action":"go","sham":0,"trial_type":"pit-trial","trial_index":212,"time_elapsed":900608,"internal_node_id":"0.0-187.0","task_version":"battery-v0.2-trt","session":3},{"rune":"B","rune_set":"elianto","hex":"#3366ff99","correct":-1,"choice":-1,"rt":-1,"accuracy":1,"outcome":"+10","keys":[],"total_keys":0,"block":2,"trial":182,"stimulus":6,"robot":2,"valence":"win","action":"no-go","sham":0,"trial_type":"pit-trial","trial_index":213,"time_elapsed":904628,"internal_node_id":"0.0-188.0","task_version":"battery-v0.2-trt","session":3},{"rune":"Z","rune_set":"elianto","hex":"#f73b6a7A","correct":32,"choice":32,"rt":796,"accuracy":1,"outcome":"-1","keys":[2309],"total_keys":1,"block":2,"trial":183,"stimulus":4,"robot":3,"valence":"lose","action":"go","sham":0,"trial_type":"pit-trial","trial_index":214,"time_elapsed":908143,"internal_node_id":"0.0-189.0","task_version":"battery-v0.2-trt","session":3},{"rune":"C","rune_set":"elianto","hex":"#f73b6a7A","correct":-1,"choice":-1,"rt":-1,"accuracy":1,"outcome":"-1","keys":[],"total_keys":0,"block":2,"trial":184,"stimulus":5,"robot":4,"valence":"lose","action":"no-go","sham":0,"trial_type":"pit-trial","trial_index":215,"time_elapsed":912154,"internal_node_id":"0.0-190.0","task_version":"battery-v0.2-trt","session":3},{"rune":"Z","rune_set":"elianto","hex":"#f73b6a7A","correct":32,"choice":32,"rt":844,"accuracy":1,"outcome":"-1","keys":[2359],"total_keys":1,"block":2,"trial":185,"stimulus":4,"robot":3,"valence":"lose","action":"go","sham":0,"trial_type":"pit-trial","trial_index":216,"time_elapsed":915719,"internal_node_id":"0.0-191.0","task_version":"battery-v0.2-trt","session":3},{"rune":"B","rune_set":"elianto","hex":"#3366ff99","correct":-1,"choice":-1,"rt":-1,"accuracy":1,"outcome":"+10","keys":[],"total_keys":0,"block":2,"trial":186,"stimulus":6,"robot":2,"valence":"win","action":"no-go","sham":0,"trial_type":"pit-trial","trial_index":217,"time_elapsed":919751,"internal_node_id":"0.0-192.0","task_version":"battery-v0.2-trt","session":3},{"rune":"T","rune_set":"elianto","hex":"#3366ff99","correct":32,"choice":32,"rt":487,"accuracy":1,"outcome":"+10","keys":[1993],"total_keys":1,"block":2,"trial":187,"stimulus":7,"robot":1,"valence":"win","action":"go","sham":0,"trial_type":"pit-trial","trial_index":218,"time_elapsed":922950,"internal_node_id":"0.0-193.0","task_version":"battery-v0.2-trt","session":3},{"rune":"C","rune_set":"elianto","hex":"#f73b6a7A","correct":-1,"choice":-1,"rt":-1,"accuracy":1,"outcome":"-10","keys":[],"total_keys":0,"block":2,"trial":188,"stimulus":5,"robot":4,"valence":"lose","action":"no-go","sham":1,"trial_type":"pit-trial","trial_index":219,"time_elapsed":926962,"internal_node_id":"0.0-194.0","task_version":"battery-v0.2-trt","session":3},{"rune":"T","rune_set":"elianto","hex":"#3366ff99","correct":32,"choice":32,"rt":515,"accuracy":1,"outcome":"+10","keys":[2028],"total_keys":1,"block":2,"trial":189,"stimulus":7,"robot":1,"valence":"win","action":"go","sham":0,"trial_type":"pit-trial","trial_index":220,"time_elapsed":930209,"internal_node_id":"0.0-195.0","task_version":"battery-v0.2-trt","session":3},{"rune":"C","rune_set":"elianto","hex":"#f73b6a7A","correct":-1,"choice":-1,"rt":-1,"accuracy":1,"outcome":"-1","keys":[],"total_keys":0,"block":2,"trial":190,"stimulus":5,"robot":4,"valence":"lose","action":"no-go","sham":0,"trial_type":"pit-trial","trial_index":221,"time_elapsed":934236,"internal_node_id":"0.0-196.0","task_version":"battery-v0.2-trt","session":3},{"rune":"B","rune_set":"elianto","hex":"#3366ff99","correct":-1,"choice":-1,"rt":-1,"accuracy":1,"outcome":"+10","keys":[],"total_keys":0,"block":2,"trial":191,"stimulus":6,"robot":2,"valence":"win","action":"no-go","sham":0,"trial_type":"pit-trial","trial_index":222,"time_elapsed":938240,"internal_node_id":"0.0-197.0","task_version":"battery-v0.2-trt","session":3},{"rune":"Z","rune_set":"elianto","hex":"#f73b6a7A","correct":32,"choice":32,"rt":1041,"accuracy":1,"outcome":"-1","keys":[2553],"total_keys":1,"block":2,"trial":192,"stimulus":4,"robot":3,"valence":"lose","action":"go","sham":0,"trial_type":"pit-trial","trial_index":223,"time_elapsed":942009,"internal_node_id":"0.0-198.0","task_version":"battery-v0.2-trt","session":3},{"rune":"Z","rune_set":"elianto","hex":"#f73b6a7A","correct":32,"choice":32,"rt":798,"accuracy":1,"outcome":"-1","keys":[2302],"total_keys":1,"block":2,"trial":193,"stimulus":4,"robot":3,"valence":"lose","action":"go","sham":0,"trial_type":"pit-trial","trial_index":224,"time_elapsed":945513,"internal_node_id":"0.0-199.0","task_version":"battery-v0.2-trt","session":3},{"rune":"T","rune_set":"elianto","hex":"#3366ff99","correct":32,"choice":32,"rt":497,"accuracy":1,"outcome":"+1","keys":[2006],"total_keys":1,"block":2,"trial":194,"stimulus":7,"robot":1,"valence":"win","action":"go","sham":1,"trial_type":"pit-trial","trial_index":225,"time_elapsed":948730,"internal_node_id":"0.0-200.0","task_version":"battery-v0.2-trt","session":3},{"rune":"B","rune_set":"elianto","hex":"#3366ff99","correct":-1,"choice":-1,"rt":-1,"accuracy":1,"outcome":"+1","keys":[],"total_keys":0,"block":2,"trial":195,"stimulus":6,"robot":2,"valence":"win","action":"no-go","sham":1,"trial_type":"pit-trial","trial_index":226,"time_elapsed":952752,"internal_node_id":"0.0-201.0","task_version":"battery-v0.2-trt","session":3},{"rune":"X","rune_set":"elianto","hex":"#3366ff99","correct":32,"choice":32,"rt":671,"accuracy":1,"outcome":"+10","keys":[2179],"total_keys":1,"block":2,"trial":196,"stimulus":8,"robot":1,"valence":"win","action":"go","sham":0,"trial_type":"pit-trial","trial_index":227,"time_elapsed":956139,"internal_node_id":"0.0-202.0","task_version":"battery-v0.2-trt","session":3},{"rune":"Z","rune_set":"elianto","hex":"#f73b6a7A","correct":32,"choice":32,"rt":671,"accuracy":1,"outcome":"-1","keys":[2179],"total_keys":1,"block":2,"trial":197,"stimulus":4,"robot":3,"valence":"lose","action":"go","sham":0,"trial_type":"pit-trial","trial_index":228,"time_elapsed":959528,"internal_node_id":"0.0-203.0","task_version":"battery-v0.2-trt","session":3},{"rune":"X","rune_set":"elianto","hex":"#3366ff99","correct":32,"choice":32,"rt":499,"accuracy":1,"outcome":"+10","keys":[2003],"total_keys":1,"block":2,"trial":198,"stimulus":8,"robot":1,"valence":"win","action":"go","sham":0,"trial_type":"pit-trial","trial_index":229,"time_elapsed":962746,"internal_node_id":"0.0-204.0","task_version":"battery-v0.2-trt","session":3},{"rune":"B","rune_set":"elianto","hex":"#3366ff99","correct":-1,"choice":-1,"rt":-1,"accuracy":1,"outcome":"+1","keys":[],"total_keys":0,"block":2,"trial":199,"stimulus":6,"robot":2,"valence":"win","action":"no-go","sham":1,"trial_type":"pit-trial","trial_index":230,"time_elapsed":966761,"internal_node_id":"0.0-205.0","task_version":"battery-v0.2-trt","session":3},{"rune":"T","rune_set":"elianto","hex":"#3366ff99","correct":32,"choice":32,"rt":540,"accuracy":1,"outcome":"+10","keys":[2048],"total_keys":1,"block":2,"trial":200,"stimulus":7,"robot":1,"valence":"win","action":"go","sham":0,"trial_type":"pit-trial","trial_index":231,"time_elapsed":970020,"internal_node_id":"0.0-206.0","task_version":"battery-v0.2-trt","session":3},{"rune":"B","rune_set":"elianto","hex":"#3366ff99","correct":-1,"choice":-1,"rt":-1,"accuracy":1,"outcome":"+10","keys":[],"total_keys":0,"block":2,"trial":201,"stimulus":6,"robot":2,"valence":"win","action":"no-go","sham":0,"trial_type":"pit-trial","trial_index":232,"time_elapsed":974032,"internal_node_id":"0.0-207.0","task_version":"battery-v0.2-trt","session":3},{"rune":"T","rune_set":"elianto","hex":"#3366ff99","correct":32,"choice":32,"rt":520,"accuracy":1,"outcome":"+10","keys":[2032],"total_keys":1,"block":2,"trial":202,"stimulus":7,"robot":1,"valence":"win","action":"go","sham":0,"trial_type":"pit-trial","trial_index":233,"time_elapsed":977278,"internal_node_id":"0.0-208.0","task_version":"battery-v0.2-trt","session":3},{"rune":"X","rune_set":"elianto","hex":"#3366ff99","correct":32,"choice":32,"rt":810,"accuracy":1,"outcome":"+10","keys":[2316],"total_keys":1,"block":2,"trial":203,"stimulus":8,"robot":1,"valence":"win","action":"go","sham":0,"trial_type":"pit-trial","trial_index":234,"time_elapsed":980799,"internal_node_id":"0.0-209.0","task_version":"battery-v0.2-trt","session":3},{"rune":"F","rune_set":"elianto","hex":"#3366ff99","correct":-1,"choice":32,"rt":552,"accuracy":0,"outcome":"+1","keys":[2055],"total_keys":1,"block":2,"trial":204,"stimulus":9,"robot":2,"valence":"win","action":"no-go","sham":0,"trial_type":"pit-trial","trial_index":235,"time_elapsed":984058,"internal_node_id":"0.0-210.0","task_version":"battery-v0.2-trt","session":3},{"rune":"B","rune_set":"elianto","hex":"#3366ff99","correct":-1,"choice":-1,"rt":-1,"accuracy":1,"outcome":"+10","keys":[],"total_keys":0,"block":2,"trial":205,"stimulus":6,"robot":2,"valence":"win","action":"no-go","sham":0,"trial_type":"pit-trial","trial_index":236,"time_elapsed":988074,"internal_node_id":"0.0-211.0","task_version":"battery-v0.2-trt","session":3},{"rune":"F","rune_set":"elianto","hex":"#3366ff99","correct":-1,"choice":-1,"rt":-1,"accuracy":1,"outcome":"+10","keys":[],"total_keys":0,"block":2,"trial":206,"stimulus":9,"robot":2,"valence":"win","action":"no-go","sham":0,"trial_type":"pit-trial","trial_index":237,"time_elapsed":992105,"internal_node_id":"0.0-212.0","task_version":"battery-v0.2-trt","session":3},{"rune":"T","rune_set":"elianto","hex":"#3366ff99","correct":32,"choice":32,"rt":589,"accuracy":1,"outcome":"+10","keys":[2094],"total_keys":1,"block":2,"trial":207,"stimulus":7,"robot":1,"valence":"win","action":"go","sham":0,"trial_type":"pit-trial","trial_index":238,"time_elapsed":995410,"internal_node_id":"0.0-213.0","task_version":"battery-v0.2-trt","session":3},{"rune":"X","rune_set":"elianto","hex":"#3366ff99","correct":32,"choice":32,"rt":897,"accuracy":1,"outcome":"+10","keys":[2404],"total_keys":1,"block":2,"trial":208,"stimulus":8,"robot":1,"valence":"win","action":"go","sham":0,"trial_type":"pit-trial","trial_index":239,"time_elapsed":999027,"internal_node_id":"0.0-214.0","task_version":"battery-v0.2-trt","session":3},{"rune":"X","rune_set":"elianto","hex":"#3366ff99","correct":32,"choice":32,"rt":775,"accuracy":1,"outcome":"+10","keys":[2280],"total_keys":1,"block":2,"trial":209,"stimulus":8,"robot":1,"valence":"win","action":"go","sham":0,"trial_type":"pit-trial","trial_index":240,"time_elapsed":1002517,"internal_node_id":"0.0-215.0","task_version":"battery-v0.2-trt","session":3},{"rune":"Q","rune_set":"elianto","hex":"#f73b6a7A","correct":-1,"choice":32,"rt":775,"accuracy":0,"outcome":"-10","keys":[2283],"total_keys":1,"block":2,"trial":210,"stimulus":11,"robot":4,"valence":"lose","action":"no-go","sham":0,"trial_type":"pit-trial","trial_index":241,"time_elapsed":1006010,"internal_node_id":"0.0-216.0","task_version":"battery-v0.2-trt","session":3},{"rune":"N","rune_set":"elianto","hex":"#f73b6a7A","correct":32,"choice":-1,"rt":-1,"accuracy":0,"outcome":"-10","keys":[],"total_keys":0,"block":2,"trial":211,"stimulus":10,"robot":3,"valence":"lose","action":"go","sham":0,"trial_type":"pit-trial","trial_index":242,"time_elapsed":1010031,"internal_node_id":"0.0-217.0","task_version":"battery-v0.2-trt","session":3},{"rune":"F","rune_set":"elianto","hex":"#3366ff99","correct":-1,"choice":32,"rt":666,"accuracy":0,"outcome":"+1","keys":[2171],"total_keys":1,"block":2,"trial":212,"stimulus":9,"robot":2,"valence":"win","action":"no-go","sham":0,"trial_type":"pit-trial","trial_index":243,"time_elapsed":1013417,"internal_node_id":"0.0-218.0","task_version":"battery-v0.2-trt","session":3},{"rune":"Q","rune_set":"elianto","hex":"#f73b6a7A","correct":-1,"choice":-1,"rt":-1,"accuracy":1,"outcome":"-1","keys":[],"total_keys":0,"block":2,"trial":213,"stimulus":11,"robot":4,"valence":"lose","action":"no-go","sham":0,"trial_type":"pit-trial","trial_index":244,"time_elapsed":1017432,"internal_node_id":"0.0-219.0","task_version":"battery-v0.2-trt","session":3},{"rune":"X","rune_set":"elianto","hex":"#3366ff99","correct":32,"choice":32,"rt":553,"accuracy":1,"outcome":"+10","keys":[2069],"total_keys":1,"block":2,"trial":214,"stimulus":8,"robot":1,"valence":"win","action":"go","sham":0,"trial_type":"pit-trial","trial_index":245,"time_elapsed":1020713,"internal_node_id":"0.0-220.0","task_version":"battery-v0.2-trt","session":3},{"rune":"F","rune_set":"elianto","hex":"#3366ff99","correct":-1,"choice":-1,"rt":-1,"accuracy":1,"outcome":"+10","keys":[],"total_keys":0,"block":2,"trial":215,"stimulus":9,"robot":2,"valence":"win","action":"no-go","sham":0,"trial_type":"pit-trial","trial_index":246,"time_elapsed":1024731,"internal_node_id":"0.0-221.0","task_version":"battery-v0.2-trt","session":3},{"rune":"N","rune_set":"elianto","hex":"#f73b6a7A","correct":32,"choice":32,"rt":727,"accuracy":1,"outcome":"-1","keys":[2233],"total_keys":1,"block":2,"trial":216,"stimulus":10,"robot":3,"valence":"lose","action":"go","sham":0,"trial_type":"pit-trial","trial_index":247,"time_elapsed":1028182,"internal_node_id":"0.0-222.0","task_version":"battery-v0.2-trt","session":3},{"rune":"F","rune_set":"elianto","hex":"#3366ff99","correct":-1,"choice":32,"rt":648,"accuracy":0,"outcome":"+1","keys":[2154],"total_keys":1,"block":2,"trial":217,"stimulus":9,"robot":2,"valence":"win","action":"no-go","sham":0,"trial_type":"pit-trial","trial_index":248,"time_elapsed":1031548,"internal_node_id":"0.0-223.0","task_version":"battery-v0.2-trt","session":3},{"rune":"X","rune_set":"elianto","hex":"#3366ff99","correct":32,"choice":32,"rt":583,"accuracy":1,"outcome":"+1","keys":[2093],"total_keys":1,"block":2,"trial":218,"stimulus":8,"robot":1,"valence":"win","action":"go","sham":1,"trial_type":"pit-trial","trial_index":249,"time_elapsed":1034858,"internal_node_id":"0.0-224.0","task_version":"battery-v0.2-trt","session":3},{"rune":"Q","rune_set":"elianto","hex":"#f73b6a7A","correct":-1,"choice":-1,"rt":-1,"accuracy":1,"outcome":"-1","keys":[],"total_keys":0,"block":2,"trial":219,"stimulus":11,"robot":4,"valence":"lose","action":"no-go","sham":0,"trial_type":"pit-trial","trial_index":250,"time_elapsed":1038875,"internal_node_id":"0.0-225.0","task_version":"battery-v0.2-trt","session":3},{"rune":"N","rune_set":"elianto","hex":"#f73b6a7A","correct":32,"choice":32,"rt":477,"accuracy":1,"outcome":"-10","keys":[1985],"total_keys":1,"block":2,"trial":220,"stimulus":10,"robot":3,"valence":"lose","action":"go","sham":1,"trial_type":"pit-trial","trial_index":251,"time_elapsed":1042074,"internal_node_id":"0.0-226.0","task_version":"battery-v0.2-trt","session":3},{"rune":"X","rune_set":"elianto","hex":"#3366ff99","correct":32,"choice":32,"rt":610,"accuracy":1,"outcome":"+10","keys":[2125],"total_keys":1,"block":2,"trial":221,"stimulus":8,"robot":1,"valence":"win","action":"go","sham":0,"trial_type":"pit-trial","trial_index":252,"time_elapsed":1045414,"internal_node_id":"0.0-227.0","task_version":"battery-v0.2-trt","session":3},{"rune":"F","rune_set":"elianto","hex":"#3366ff99","correct":-1,"choice":32,"rt":532,"accuracy":0,"outcome":"+1","keys":[2041],"total_keys":1,"block":2,"trial":222,"stimulus":9,"robot":2,"valence":"win","action":"no-go","sham":0,"trial_type":"pit-trial","trial_index":253,"time_elapsed":1048672,"internal_node_id":"0.0-228.0","task_version":"battery-v0.2-trt","session":3},{"rune":"Q","rune_set":"elianto","hex":"#f73b6a7A","correct":-1,"choice":-1,"rt":-1,"accuracy":1,"outcome":"-10","keys":[],"total_keys":0,"block":2,"trial":223,"stimulus":11,"robot":4,"valence":"lose","action":"no-go","sham":1,"trial_type":"pit-trial","trial_index":254,"time_elapsed":1052685,"internal_node_id":"0.0-229.0","task_version":"battery-v0.2-trt","session":3},{"rune":"N","rune_set":"elianto","hex":"#f73b6a7A","correct":32,"choice":32,"rt":1059,"accuracy":1,"outcome":"-1","keys":[2565],"total_keys":1,"block":2,"trial":224,"stimulus":10,"robot":3,"valence":"lose","action":"go","sham":0,"trial_type":"pit-trial","trial_index":255,"time_elapsed":1056463,"internal_node_id":"0.0-230.0","task_version":"battery-v0.2-trt","session":3},{"rune":"Q","rune_set":"elianto","hex":"#f73b6a7A","correct":-1,"choice":32,"rt":1073,"accuracy":0,"outcome":"-10","keys":[2586],"total_keys":1,"block":2,"trial":225,"stimulus":11,"robot":4,"valence":"lose","action":"no-go","sham":0,"trial_type":"pit-trial","trial_index":256,"time_elapsed":1060254,"internal_node_id":"0.0-231.0","task_version":"battery-v0.2-trt","session":3},{"rune":"F","rune_set":"elianto","hex":"#3366ff99","correct":-1,"choice":32,"rt":510,"accuracy":0,"outcome":"+1","keys":[2020],"total_keys":1,"block":2,"trial":226,"stimulus":9,"robot":2,"valence":"win","action":"no-go","sham":0,"trial_type":"pit-trial","trial_index":257,"time_elapsed":1063487,"internal_node_id":"0.0-232.0","task_version":"battery-v0.2-trt","session":3},{"rune":"N","rune_set":"elianto","hex":"#f73b6a7A","correct":32,"choice":32,"rt":831,"accuracy":1,"outcome":"-1","keys":[2336],"total_keys":1,"block":2,"trial":227,"stimulus":10,"robot":3,"valence":"lose","action":"go","sham":0,"trial_type":"pit-trial","trial_index":258,"time_elapsed":1067026,"internal_node_id":"0.0-233.0","task_version":"battery-v0.2-trt","session":3},{"rune":"X","rune_set":"elianto","hex":"#3366ff99","correct":32,"choice":32,"rt":1088,"accuracy":1,"outcome":"+10","keys":[2590],"total_keys":1,"block":2,"trial":228,"stimulus":8,"robot":1,"valence":"win","action":"go","sham":0,"trial_type":"pit-trial","trial_index":259,"time_elapsed":1070830,"internal_node_id":"0.0-234.0","task_version":"battery-v0.2-trt","session":3},{"rune":"X","rune_set":"elianto","hex":"#3366ff99","correct":32,"choice":32,"rt":583,"accuracy":1,"outcome":"+10","keys":[2089],"total_keys":1,"block":2,"trial":229,"stimulus":8,"robot":1,"valence":"win","action":"go","sham":0,"trial_type":"pit-trial","trial_index":260,"time_elapsed":1074136,"internal_node_id":"0.0-235.0","task_version":"battery-v0.2-trt","session":3},{"rune":"Q","rune_set":"elianto","hex":"#f73b6a7A","correct":-1,"choice":-1,"rt":-1,"accuracy":1,"outcome":"-1","keys":[],"total_keys":0,"block":2,"trial":230,"stimulus":11,"robot":4,"valence":"lose","action":"no-go","sham":0,"trial_type":"pit-trial","trial_index":261,"time_elapsed":1078140,"internal_node_id":"0.0-236.0","task_version":"battery-v0.2-trt","session":3},{"rune":"F","rune_set":"elianto","hex":"#3366ff99","correct":-1,"choice":32,"rt":600,"accuracy":0,"outcome":"+1","keys":[2105],"total_keys":1,"block":2,"trial":231,"stimulus":9,"robot":2,"valence":"win","action":"no-go","sham":0,"trial_type":"pit-trial","trial_index":262,"time_elapsed":1081454,"internal_node_id":"0.0-237.0","task_version":"battery-v0.2-trt","session":3},{"rune":"N","rune_set":"elianto","hex":"#f73b6a7A","correct":32,"choice":32,"rt":789,"accuracy":1,"outcome":"-10","keys":[2300],"total_keys":1,"block":2,"trial":232,"stimulus":10,"robot":3,"valence":"lose","action":"go","sham":1,"trial_type":"pit-trial","trial_index":263,"time_elapsed":1084966,"internal_node_id":"0.0-238.0","task_version":"battery-v0.2-trt","session":3},{"rune":"F","rune_set":"elianto","hex":"#3366ff99","correct":-1,"choice":32,"rt":854,"accuracy":0,"outcome":"+1","keys":[2365],"total_keys":1,"block":2,"trial":233,"stimulus":9,"robot":2,"valence":"win","action":"no-go","sham":0,"trial_type":"pit-trial","trial_index":264,"time_elapsed":1088545,"internal_node_id":"0.0-239.0","task_version":"battery-v0.2-trt","session":3},{"rune":"X","rune_set":"elianto","hex":"#3366ff99","correct":32,"choice":32,"rt":552,"accuracy":1,"outcome":"+10","keys":[2059],"total_keys":1,"block":2,"trial":234,"stimulus":8,"robot":1,"valence":"win","action":"go","sham":0,"trial_type":"pit-trial","trial_index":265,"time_elapsed":1091816,"internal_node_id":"0.0-240.0","task_version":"battery-v0.2-trt","session":3},{"rune":"N","rune_set":"elianto","hex":"#f73b6a7A","correct":32,"choice":32,"rt":795,"accuracy":1,"outcome":"-10","keys":[2303],"total_keys":1,"block":2,"trial":235,"stimulus":10,"robot":3,"valence":"lose","action":"go","sham":1,"trial_type":"pit-trial","trial_index":266,"time_elapsed":1095324,"internal_node_id":"0.0-241.0","task_version":"battery-v0.2-trt","session":3},{"rune":"Q","rune_set":"elianto","hex":"#f73b6a7A","correct":-1,"choice":-1,"rt":-1,"accuracy":1,"outcome":"-1","keys":[],"total_keys":0,"block":2,"trial":236,"stimulus":11,"robot":4,"valence":"lose","action":"no-go","sham":0,"trial_type":"pit-trial","trial_index":267,"time_elapsed":1099342,"internal_node_id":"0.0-242.0","task_version":"battery-v0.2-trt","session":3},{"rune":"N","rune_set":"elianto","hex":"#f73b6a7A","correct":32,"choice":32,"rt":676,"accuracy":1,"outcome":"-1","keys":[2181],"total_keys":1,"block":2,"trial":237,"stimulus":10,"robot":3,"valence":"lose","action":"go","sham":0,"trial_type":"pit-trial","trial_index":268,"time_elapsed":1102728,"internal_node_id":"0.0-243.0","task_version":"battery-v0.2-trt","session":3},{"rune":"Q","rune_set":"elianto","hex":"#f73b6a7A","correct":-1,"choice":-1,"rt":-1,"accuracy":1,"outcome":"-10","keys":[],"total_keys":0,"block":2,"trial":238,"stimulus":11,"robot":4,"valence":"lose","action":"no-go","sham":1,"trial_type":"pit-trial","trial_index":269,"time_elapsed":1106738,"internal_node_id":"0.0-244.0","task_version":"battery-v0.2-trt","session":3},{"rune":"X","rune_set":"elianto","hex":"#3366ff99","correct":32,"choice":32,"rt":1222,"accuracy":1,"outcome":"+10","keys":[2730],"total_keys":1,"block":2,"trial":239,"stimulus":8,"robot":1,"valence":"win","action":"go","sham":0,"trial_type":"pit-trial","trial_index":270,"time_elapsed":1110680,"internal_node_id":"0.0-245.0","task_version":"battery-v0.2-trt","session":3},{"rune":"F","rune_set":"elianto","hex":"#3366ff99","correct":-1,"choice":-1,"rt":-1,"accuracy":1,"outcome":"+10","keys":[],"total_keys":0,"block":2,"trial":240,"stimulus":9,"robot":2,"valence":"win","action":"no-go","sham":0,"trial_type":"pit-trial","trial_index":271,"time_elapsed":1114706,"internal_node_id":"0.0-246.0","task_version":"battery-v0.2-trt","session":3},{"view_history":"[{\"page_index\":0,\"viewing_time\":3235}]","rt":3236,"trial_type":"pit-instructions","trial_index":272,"time_elapsed":1117944,"internal_node_id":"0.0-247.0","task_version":"battery-v0.2-trt","session":3},{"rt":38013,"responses":{"difficulty":"2","fun":"5","clarity":"5","strategy":"No strategy, just used my memory","feedback":"thank you for the opportunity to participate again. This was a fun study!"},"survey":"debrief","trial_type":"survey-debrief","trial_index":273,"time_elapsed":1155962,"internal_node_id":"0.0-248.0","task_version":"battery-v0.2-trt","session":3,"interactions":"[{\"event\":\"focus\",\"trial\":0,\"time\":0},{\"event\":\"blur\",\"trial\":151,\"time\":634496},{\"event\":\"focus\",\"trial\":151,\"time\":668428}]"}]