[{"slider_type":"valence","raw_loc":661,"loc":0.822,"trial_type":"affective-slider","trial_index":0,"time_elapsed":4782,"internal_node_id":"0.0-0.0","task_version":"test-retest"},{"view_history":"[{\"page_index\":0,\"viewing_time\":3588.9449999667704},{\"page_index\":1,\"viewing_time\":5975.0800000038},{\"page_index\":2,\"viewing_time\":10362.005000002682},{\"page_index\":3,\"viewing_time\":6469.344999990426},{\"page_index\":4,\"viewing_time\":6175.775000010617}]","rt":32572.724999976344,"trial_type":"pit-instructions","trial_index":1,"time_elapsed":37358,"internal_node_id":"0.0-1.0-0.0","task_version":"test-retest"},{"Rune":"rune_00_ingz","Hex":"#FFFFF080","Correct":32,"Choice":32,"RT":734.4750000047497,"Accuracy":1,"Outcome":"+10","Keys":[2234.8500000080094],"TotalKeys":1,"Block":0,"Action":"Go","trial_type":"pit-trial","trial_index":2,"time_elapsed":40604,"internal_node_id":"0.0-1.0-1.0-0.0","task_version":"test-retest"},{"Rune":"rune_00_ingz","Hex":"#FFFFF080","Correct":32,"Choice":32,"RT":398.43000000109896,"Accuracy":1,"Outcome":"+10","Keys":[1899.329999985639],"TotalKeys":1,"Block":0,"Action":"Go","trial_type":"pit-trial","trial_index":3,"time_elapsed":43507,"internal_node_id":"0.0-1.0-1.0-0.1","task_version":"test-retest"},{"Rune":"rune_00_ingz","Hex":"#FFFFF080","Correct":32,"Choice":32,"RT":351.9800000358373,"Accuracy":1,"Outcome":"+10","Keys":[1852.1949999849312],"TotalKeys":1,"Block":0,"Action":"Go","trial_type":"pit-trial","trial_index":4,"time_elapsed":46362,"internal_node_id":"0.0-1.0-1.0-0.2","task_version":"test-retest"},{"Rune":"rune_00_ingz","Hex":"#FFFFF080","Correct":32,"Choice":32,"RT":459.7749999957159,"Accuracy":1,"Outcome":"+10","Keys":[1960.5999999912456],"TotalKeys":1,"Block":0,"Action":"Go","trial_type":"pit-trial","trial_index":5,"time_elapsed":49331,"internal_node_id":"0.0-1.0-1.0-0.3","task_version":"test-retest"},{"view_history":"[{\"page_index\":0,\"viewing_time\":4824.954999960028}]","rt":4825.424999988172,"trial_type":"pit-instructions","trial_index":6,"time_elapsed":54158,"internal_node_id":"0.0-1.0-2.0","task_version":"test-retest"},{"Rune":"rune_00_isaz","Hex":"#FFFFF080","Correct":-1,"Choice":-1,"RT":-1,"Accuracy":1,"Outcome":"+10","Keys":[],"TotalKeys":0,"Block":0,"Action":"No-Go","trial_type":"pit-trial","trial_index":7,"time_elapsed":58165,"internal_node_id":"0.0-1.0-3.0-0.0","task_version":"test-retest"},{"Rune":"rune_00_isaz","Hex":"#FFFFF080","Correct":-1,"Choice":-1,"RT":-1,"Accuracy":1,"Outcome":"+10","Keys":[],"TotalKeys":0,"Block":0,"Action":"No-Go","trial_type":"pit-trial","trial_index":8,"time_elapsed":62173,"internal_node_id":"0.0-1.0-3.0-0.1","task_version":"test-retest"},{"Rune":"rune_00_isaz","Hex":"#FFFFF080","Correct":-1,"Choice":-1,"RT":-1,"Accuracy":1,"Outcome":"+10","Keys":[],"TotalKeys":0,"Block":0,"Action":"No-Go","trial_type":"pit-trial","trial_index":9,"time_elapsed":66177,"internal_node_id":"0.0-1.0-3.0-0.2","task_version":"test-retest"},{"Rune":"rune_00_isaz","Hex":"#FFFFF080","Correct":-1,"Choice":-1,"RT":-1,"Accuracy":1,"Outcome":"+10","Keys":[],"TotalKeys":0,"Block":0,"Action":"No-Go","trial_type":"pit-trial","trial_index":10,"time_elapsed":70182,"internal_node_id":"0.0-1.0-3.0-0.3","task_version":"test-retest"},{"view_history":"[{\"page_index\":0,\"viewing_time\":5502.465000026859},{\"page_index\":1,\"viewing_time\":11553.75500000082},{\"page_index\":2,\"viewing_time\":14605.06999999052},{\"page_index\":3,\"viewing_time\":10143.969999975525},{\"page_index\":4,\"viewing_time\":7221.81499999715},{\"page_index\":5,\"viewing_time\":12523.240000009537},{\"page_index\":6,\"viewing_time\":5737.25500004366},{\"page_index\":7,\"viewing_time\":3456.389999948442}]","rt":70744.39500004519,"trial_type":"pit-instructions","trial_index":11,"time_elapsed":140931,"internal_node_id":"0.0-1.0-4.0","task_version":"test-retest"},{"responses":["Do nothing","+10","-1","True","Yes"],"num_errors":0,"rt":28089.380000019446,"trial_type":"pit-comprehension","trial_index":12,"time_elapsed":169025,"internal_node_id":"0.0-1.0-5.0","task_version":"test-retest"},{"view_history":"[{\"page_index\":0,\"viewing_time\":2449.415000039153},{\"page_index\":1,\"viewing_time\":7060.33499998739}]","rt":9510.315000021365,"trial_type":"pit-instructions","trial_index":13,"time_elapsed":178541,"internal_node_id":"0.0-2.0","task_version":"test-retest"},{"Rune":"rune_01_yr","Hex":"#ffcc3399","Correct":-1,"Choice":-1,"RT":-1,"Accuracy":1,"Outcome":"+1","Keys":[],"TotalKeys":0,"Block":1,"Trial":1,"Robot":2,"Valence":"Win","Action":"No-Go","Sham":1,"Color":"yellow","trial_type":"pit-trial","trial_index":14,"time_elapsed":182554,"internal_node_id":"0.0-3.0","task_version":"test-retest"},{"Rune":"rune_01_ger","Hex":"#3366ff99","Correct":32,"Choice":-1,"RT":-1,"Accuracy":0,"Outcome":"-10","Keys":[],"TotalKeys":0,"Block":1,"Trial":2,"Robot":3,"Valence":"Lose","Action":"Go","Sham":0,"Color":"blue","trial_type":"pit-trial","trial_index":15,"time_elapsed":186561,"internal_node_id":"0.0-4.0","task_version":"test-retest"},{"Rune":"rune_01_ingwaz","Hex":"#3366ff99","Correct":-1,"Choice":-1,"RT":-1,"Accuracy":1,"Outcome":"-1","Keys":[],"TotalKeys":0,"Block":1,"Trial":3,"Robot":4,"Valence":"Lose","Action":"No-Go","Sham":0,"Color":"blue","trial_type":"pit-trial","trial_index":16,"time_elapsed":190566,"internal_node_id":"0.0-5.0","task_version":"test-retest"},{"Rune":"rune_01_ear","Hex":"#ffcc3399","Correct":32,"Choice":-1,"RT":-1,"Accuracy":0,"Outcome":"+10","Keys":[],"TotalKeys":0,"Block":1,"Trial":4,"Robot":1,"Valence":"Win","Action":"Go","Sham":1,"Color":"yellow","trial_type":"pit-trial","trial_index":17,"time_elapsed":194571,"internal_node_id":"0.0-6.0","task_version":"test-retest"},{"Rune":"rune_01_ger","Hex":"#3366ff99","Correct":32,"Choice":-1,"RT":-1,"Accuracy":0,"Outcome":"-10","Keys":[],"TotalKeys":0,"Block":1,"Trial":5,"Robot":3,"Valence":"Lose","Action":"Go","Sham":0,"Color":"blue","trial_type":"pit-trial","trial_index":18,"time_elapsed":198579,"internal_node_id":"0.0-7.0","task_version":"test-retest"},{"Rune":"rune_01_yr","Hex":"#ffcc3399","Correct":-1,"Choice":-1,"RT":-1,"Accuracy":1,"Outcome":"+10","Keys":[],"TotalKeys":0,"Block":1,"Trial":6,"Robot":2,"Valence":"Win","Action":"No-Go","Sham":0,"Color":"yellow","trial_type":"pit-trial","trial_index":19,"time_elapsed":202588,"internal_node_id":"0.0-8.0","task_version":"test-retest"},{"Rune":"rune_01_ear","Hex":"#ffcc3399","Correct":32,"Choice":-1,"RT":-1,"Accuracy":0,"Outcome":"+1","Keys":[],"TotalKeys":0,"Block":1,"Trial":7,"Robot":1,"Valence":"Win","Action":"Go","Sham":0,"Color":"yellow","trial_type":"pit-trial","trial_index":20,"time_elapsed":206593,"internal_node_id":"0.0-9.0","task_version":"test-retest"},{"Rune":"rune_01_ingwaz","Hex":"#3366ff99","Correct":-1,"Choice":-1,"RT":-1,"Accuracy":1,"Outcome":"-1","Keys":[],"TotalKeys":0,"Block":1,"Trial":8,"Robot":4,"Valence":"Lose","Action":"No-Go","Sham":0,"Color":"blue","trial_type":"pit-trial","trial_index":21,"time_elapsed":210600,"internal_node_id":"0.0-10.0","task_version":"test-retest"},{"Rune":"rune_01_ear","Hex":"#ffcc3399","Correct":32,"Choice":-1,"RT":-1,"Accuracy":0,"Outcome":"+1","Keys":[],"TotalKeys":0,"Block":1,"Trial":9,"Robot":1,"Valence":"Win","Action":"Go","Sham":0,"Color":"yellow","trial_type":"pit-trial","trial_index":22,"time_elapsed":214607,"internal_node_id":"0.0-11.0","task_version":"test-retest"},{"Rune":"rune_01_ger","Hex":"#3366ff99","Correct":32,"Choice":32,"RT":506.02999998955056,"Accuracy":1,"Outcome":"-1","Keys":[2006.2950000283308],"TotalKeys":1,"Block":1,"Trial":10,"Robot":3,"Valence":"Lose","Action":"Go","Sham":0,"Color":"blue","trial_type":"pit-trial","trial_index":23,"time_elapsed":217617,"internal_node_id":"0.0-12.0","task_version":"test-retest"},{"Rune":"rune_01_ingwaz","Hex":"#3366ff99","Correct":-1,"Choice":32,"RT":605.5749999941327,"Accuracy":0,"Outcome":"-10","Keys":[2105.9999999706633],"TotalKeys":1,"Block":1,"Trial":11,"Robot":4,"Valence":"Lose","Action":"No-Go","Sham":0,"Color":"blue","trial_type":"pit-trial","trial_index":24,"time_elapsed":220727,"internal_node_id":"0.0-13.0","task_version":"test-retest"},{"Rune":"rune_01_yr","Hex":"#ffcc3399","Correct":-1,"Choice":-1,"RT":-1,"Accuracy":1,"Outcome":"+10","Keys":[],"TotalKeys":0,"Block":1,"Trial":12,"Robot":2,"Valence":"Win","Action":"No-Go","Sham":0,"Color":"yellow","trial_type":"pit-trial","trial_index":25,"time_elapsed":224734,"internal_node_id":"0.0-14.0","task_version":"test-retest"},{"Rune":"rune_01_ingwaz","Hex":"#3366ff99","Correct":-1,"Choice":32,"RT":412.79000003123656,"Accuracy":0,"Outcome":"-10","Keys":[1914.1100000124425],"TotalKeys":1,"Block":1,"Trial":13,"Robot":4,"Valence":"Lose","Action":"No-Go","Sham":0,"Color":"blue","trial_type":"pit-trial","trial_index":26,"time_elapsed":227653,"internal_node_id":"0.0-15.0","task_version":"test-retest"},{"Rune":"rune_01_ear","Hex":"#ffcc3399","Correct":32,"Choice":-1,"RT":-1,"Accuracy":0,"Outcome":"+1","Keys":[],"TotalKeys":0,"Block":1,"Trial":14,"Robot":1,"Valence":"Win","Action":"Go","Sham":0,"Color":"yellow","trial_type":"pit-trial","trial_index":27,"time_elapsed":231658,"internal_node_id":"0.0-16.0","task_version":"test-retest"},{"Rune":"rune_01_yr","Hex":"#ffcc3399","Correct":-1,"Choice":-1,"RT":-1,"Accuracy":1,"Outcome":"+10","Keys":[],"TotalKeys":0,"Block":1,"Trial":15,"Robot":2,"Valence":"Win","Action":"No-Go","Sham":0,"Color":"yellow","trial_type":"pit-trial","trial_index":28,"time_elapsed":235665,"internal_node_id":"0.0-17.0","task_version":"test-retest"},{"Rune":"rune_01_ger","Hex":"#3366ff99","Correct":32,"Choice":32,"RT":441.8500000028871,"Accuracy":1,"Outcome":"-1","Keys":[1955.324999988079],"TotalKeys":1,"Block":1,"Trial":16,"Robot":3,"Valence":"Lose","Action":"Go","Sham":0,"Color":"blue","trial_type":"pit-trial","trial_index":29,"time_elapsed":238625,"internal_node_id":"0.0-18.0","task_version":"test-retest"},{"Rune":"rune_01_ingwaz","Hex":"#3366ff99","Correct":-1,"Choice":32,"RT":544.9050000170246,"Accuracy":0,"Outcome":"-1","Keys":[2047.420000017155],"TotalKeys":1,"Block":1,"Trial":17,"Robot":4,"Valence":"Lose","Action":"No-Go","Sham":1,"Color":"blue","trial_type":"pit-trial","trial_index":30,"time_elapsed":241677,"internal_node_id":"0.0-19.0","task_version":"test-retest"},{"Rune":"rune_01_yr","Hex":"#ffcc3399","Correct":-1,"Choice":-1,"RT":-1,"Accuracy":1,"Outcome":"+10","Keys":[],"TotalKeys":0,"Block":1,"Trial":18,"Robot":2,"Valence":"Win","Action":"No-Go","Sham":0,"Color":"yellow","trial_type":"pit-trial","trial_index":31,"time_elapsed":245682,"internal_node_id":"0.0-20.0","task_version":"test-retest"},{"Rune":"rune_01_ger","Hex":"#3366ff99","Correct":32,"Choice":32,"RT":326.5450000180863,"Accuracy":1,"Outcome":"-10","Keys":[1826.935000019148],"TotalKeys":1,"Block":1,"Trial":19,"Robot":3,"Valence":"Lose","Action":"Go","Sham":1,"Color":"blue","trial_type":"pit-trial","trial_index":32,"time_elapsed":248512,"internal_node_id":"0.0-21.0","task_version":"test-retest"},{"Rune":"rune_01_ear","Hex":"#ffcc3399","Correct":32,"Choice":-1,"RT":-1,"Accuracy":0,"Outcome":"+1","Keys":[],"TotalKeys":0,"Block":1,"Trial":20,"Robot":1,"Valence":"Win","Action":"Go","Sham":0,"Color":"yellow","trial_type":"pit-trial","trial_index":33,"time_elapsed":252517,"internal_node_id":"0.0-22.0","task_version":"test-retest"},{"Rune":"rune_01_ear","Hex":"#ffcc3399","Correct":32,"Choice":-1,"RT":-1,"Accuracy":0,"Outcome":"+1","Keys":[],"TotalKeys":0,"Block":1,"Trial":21,"Robot":1,"Valence":"Win","Action":"Go","Sham":0,"Color":"yellow","trial_type":"pit-trial","trial_index":34,"time_elapsed":256522,"internal_node_id":"0.0-23.0","task_version":"test-retest"},{"Rune":"rune_01_ingwaz","Hex":"#3366ff99","Correct":-1,"Choice":32,"RT":475.79499997664243,"Accuracy":0,"Outcome":"-10","Keys":[1976.375000027474],"TotalKeys":1,"Block":1,"Trial":22,"Robot":4,"Valence":"Lose","Action":"No-Go","Sham":0,"Color":"blue","trial_type":"pit-trial","trial_index":35,"time_elapsed":259502,"internal_node_id":"0.0-24.0","task_version":"test-retest"},{"Rune":"rune_01_yr","Hex":"#ffcc3399","Correct":-1,"Choice":-1,"RT":-1,"Accuracy":1,"Outcome":"+10","Keys":[],"TotalKeys":0,"Block":1,"Trial":23,"Robot":2,"Valence":"Win","Action":"No-Go","Sham":0,"Color":"yellow","trial_type":"pit-trial","trial_index":36,"time_elapsed":263509,"internal_node_id":"0.0-25.0","task_version":"test-retest"},{"Rune":"rune_01_ger","Hex":"#3366ff99","Correct":32,"Choice":32,"RT":710.0600000121631,"Accuracy":1,"Outcome":"-10","Keys":[2210.6650000205263],"TotalKeys":1,"Block":1,"Trial":24,"Robot":3,"Valence":"Lose","Action":"Go","Sham":1,"Color":"blue","trial_type":"pit-trial","trial_index":37,"time_elapsed":266724,"internal_node_id":"0.0-26.0","task_version":"test-retest"},{"Rune":"rune_01_ingwaz","Hex":"#3366ff99","Correct":-1,"Choice":32,"RT":521.0250000236556,"Accuracy":0,"Outcome":"-1","Keys":[2021.5050000115298],"TotalKeys":1,"Block":1,"Trial":25,"Robot":4,"Valence":"Lose","Action":"No-Go","Sham":1,"Color":"blue","trial_type":"pit-trial","trial_index":38,"time_elapsed":269749,"internal_node_id":"0.0-27.0","task_version":"test-retest"},{"Rune":"rune_01_yr","Hex":"#ffcc3399","Correct":-1,"Choice":-1,"RT":-1,"Accuracy":1,"Outcome":"+1","Keys":[],"TotalKeys":0,"Block":1,"Trial":26,"Robot":2,"Valence":"Win","Action":"No-Go","Sham":1,"Color":"yellow","trial_type":"pit-trial","trial_index":39,"time_elapsed":273756,"internal_node_id":"0.0-28.0","task_version":"test-retest"},{"Rune":"rune_01_ger","Hex":"#3366ff99","Correct":32,"Choice":32,"RT":376.63999997312203,"Accuracy":1,"Outcome":"-1","Keys":[1878.3600000315346],"TotalKeys":1,"Block":1,"Trial":27,"Robot":3,"Valence":"Lose","Action":"Go","Sham":0,"Color":"blue","trial_type":"pit-trial","trial_index":40,"time_elapsed":276638,"internal_node_id":"0.0-29.0","task_version":"test-retest"},{"Rune":"rune_01_ear","Hex":"#ffcc3399","Correct":32,"Choice":-1,"RT":-1,"Accuracy":0,"Outcome":"+1","Keys":[],"TotalKeys":0,"Block":1,"Trial":28,"Robot":1,"Valence":"Win","Action":"Go","Sham":0,"Color":"yellow","trial_type":"pit-trial","trial_index":41,"time_elapsed":280643,"internal_node_id":"0.0-30.0","task_version":"test-retest"},{"Rune":"rune_01_ear","Hex":"#ffcc3399","Correct":32,"Choice":-1,"RT":-1,"Accuracy":0,"Outcome":"+1","Keys":[],"TotalKeys":0,"Block":1,"Trial":29,"Robot":1,"Valence":"Win","Action":"Go","Sham":0,"Color":"yellow","trial_type":"pit-trial","trial_index":42,"time_elapsed":284651,"internal_node_id":"0.0-31.0","task_version":"test-retest"},{"Rune":"rune_01_yr","Hex":"#ffcc3399","Correct":-1,"Choice":-1,"RT":-1,"Accuracy":1,"Outcome":"+10","Keys":[],"TotalKeys":0,"Block":1,"Trial":30,"Robot":2,"Valence":"Win","Action":"No-Go","Sham":0,"Color":"yellow","trial_type":"pit-trial","trial_index":43,"time_elapsed":288658,"internal_node_id":"0.0-32.0","task_version":"test-retest"},{"Rune":"rune_01_ingwaz","Hex":"#3366ff99","Correct":-1,"Choice":32,"RT":510.46999997925013,"Accuracy":0,"Outcome":"-10","Keys":[2011.0050000366755],"TotalKeys":1,"Block":1,"Trial":31,"Robot":4,"Valence":"Lose","Action":"No-Go","Sham":0,"Color":"blue","trial_type":"pit-trial","trial_index":44,"time_elapsed":291673,"internal_node_id":"0.0-33.0","task_version":"test-retest"},{"Rune":"rune_01_ger","Hex":"#3366ff99","Correct":32,"Choice":32,"RT":604.1799999657087,"Accuracy":1,"Outcome":"-1","Keys":[2104.7149999649264],"TotalKeys":1,"Block":1,"Trial":32,"Robot":3,"Valence":"Lose","Action":"Go","Sham":0,"Color":"blue","trial_type":"pit-trial","trial_index":45,"time_elapsed":294781,"internal_node_id":"0.0-34.0","task_version":"test-retest"},{"Rune":"rune_01_ear","Hex":"#ffcc3399","Correct":32,"Choice":-1,"RT":-1,"Accuracy":0,"Outcome":"+10","Keys":[],"TotalKeys":0,"Block":1,"Trial":33,"Robot":1,"Valence":"Win","Action":"Go","Sham":1,"Color":"yellow","trial_type":"pit-trial","trial_index":46,"time_elapsed":298786,"internal_node_id":"0.0-35.0","task_version":"test-retest"},{"Rune":"rune_01_ger","Hex":"#3366ff99","Correct":32,"Choice":32,"RT":227.5050000171177,"Accuracy":1,"Outcome":"-1","Keys":[1727.6199999614619],"TotalKeys":1,"Block":1,"Trial":34,"Robot":3,"Valence":"Lose","Action":"Go","Sham":0,"Color":"blue","trial_type":"pit-trial","trial_index":47,"time_elapsed":301518,"internal_node_id":"0.0-36.0","task_version":"test-retest"},{"Rune":"rune_01_yr","Hex":"#ffcc3399","Correct":-1,"Choice":-1,"RT":-1,"Accuracy":1,"Outcome":"+10","Keys":[],"TotalKeys":0,"Block":1,"Trial":35,"Robot":2,"Valence":"Win","Action":"No-Go","Sham":0,"Color":"yellow","trial_type":"pit-trial","trial_index":48,"time_elapsed":305526,"internal_node_id":"0.0-37.0","task_version":"test-retest"},{"Rune":"rune_01_ingwaz","Hex":"#3366ff99","Correct":-1,"Choice":32,"RT":354.5750000048429,"Accuracy":0,"Outcome":"-10","Keys":[1856.9300000090152],"TotalKeys":1,"Block":1,"Trial":36,"Robot":4,"Valence":"Lose","Action":"No-Go","Sham":0,"Color":"blue","trial_type":"pit-trial","trial_index":49,"time_elapsed":308388,"internal_node_id":"0.0-38.0","task_version":"test-retest"},{"Rune":"rune_01_ingwaz","Hex":"#3366ff99","Correct":-1,"Choice":32,"RT":412.66500001074746,"Accuracy":0,"Outcome":"-10","Keys":[1912.8250000067055],"TotalKeys":1,"Block":1,"Trial":37,"Robot":4,"Valence":"Lose","Action":"No-Go","Sham":0,"Color":"blue","trial_type":"pit-trial","trial_index":50,"time_elapsed":311306,"internal_node_id":"0.0-39.0","task_version":"test-retest"},{"Rune":"rune_01_ger","Hex":"#3366ff99","Correct":32,"Choice":32,"RT":292.68499999307096,"Accuracy":1,"Outcome":"-1","Keys":[1792.9950000252575],"TotalKeys":1,"Block":1,"Trial":38,"Robot":3,"Valence":"Lose","Action":"Go","Sham":0,"Color":"blue","trial_type":"pit-trial","trial_index":51,"time_elapsed":314103,"internal_node_id":"0.0-40.0","task_version":"test-retest"},{"Rune":"rune_01_ear","Hex":"#ffcc3399","Correct":32,"Choice":-1,"RT":-1,"Accuracy":0,"Outcome":"+1","Keys":[],"TotalKeys":0,"Block":1,"Trial":39,"Robot":1,"Valence":"Win","Action":"Go","Sham":0,"Color":"yellow","trial_type":"pit-trial","trial_index":52,"time_elapsed":318108,"internal_node_id":"0.0-41.0","task_version":"test-retest"},{"Rune":"rune_01_yr","Hex":"#ffcc3399","Correct":-1,"Choice":-1,"RT":-1,"Accuracy":1,"Outcome":"+10","Keys":[],"TotalKeys":0,"Block":1,"Trial":40,"Robot":2,"Valence":"Win","Action":"No-Go","Sham":0,"Color":"yellow","trial_type":"pit-trial","trial_index":53,"time_elapsed":322116,"internal_node_id":"0.0-42.0","task_version":"test-retest"},{"Rune":"rune_01_yr","Hex":"#ffcc3399","Correct":-1,"Choice":-1,"RT":-1,"Accuracy":1,"Outcome":"+1","Keys":[],"TotalKeys":0,"Block":1,"Trial":41,"Robot":2,"Valence":"Win","Action":"No-Go","Sham":1,"Color":"yellow","trial_type":"pit-trial","trial_index":54,"time_elapsed":326125,"internal_node_id":"0.0-43.0","task_version":"test-retest"},{"Rune":"rune_01_ingwaz","Hex":"#3366ff99","Correct":-1,"Choice":32,"RT":577.980000001844,"Accuracy":0,"Outcome":"-10","Keys":[2078.780000039842],"TotalKeys":1,"Block":1,"Trial":42,"Robot":4,"Valence":"Lose","Action":"No-Go","Sham":0,"Color":"blue","trial_type":"pit-trial","trial_index":55,"time_elapsed":329207,"internal_node_id":"0.0-44.0","task_version":"test-retest"},{"Rune":"rune_01_ger","Hex":"#3366ff99","Correct":32,"Choice":32,"RT":673.2199999969453,"Accuracy":1,"Outcome":"-1","Keys":[2175.83999998169],"TotalKeys":1,"Block":1,"Trial":43,"Robot":3,"Valence":"Lose","Action":"Go","Sham":0,"Color":"blue","trial_type":"pit-trial","trial_index":56,"time_elapsed":332387,"internal_node_id":"0.0-45.0","task_version":"test-retest"},{"Rune":"rune_01_ear","Hex":"#ffcc3399","Correct":32,"Choice":-1,"RT":-1,"Accuracy":0,"Outcome":"+1","Keys":[],"TotalKeys":0,"Block":1,"Trial":44,"Robot":1,"Valence":"Win","Action":"Go","Sham":0,"Color":"yellow","trial_type":"pit-trial","trial_index":57,"time_elapsed":336394,"internal_node_id":"0.0-46.0","task_version":"test-retest"},{"Rune":"rune_01_ear","Hex":"#ffcc3399","Correct":32,"Choice":-1,"RT":-1,"Accuracy":0,"Outcome":"+10","Keys":[],"TotalKeys":0,"Block":1,"Trial":45,"Robot":1,"Valence":"Win","Action":"Go","Sham":1,"Color":"yellow","trial_type":"pit-trial","trial_index":58,"time_elapsed":340400,"internal_node_id":"0.0-47.0","task_version":"test-retest"},{"Rune":"rune_01_ingwaz","Hex":"#3366ff99","Correct":-1,"Choice":32,"RT":309.7849999903701,"Accuracy":0,"Outcome":"-10","Keys":[1811.3299999968149],"TotalKeys":1,"Block":1,"Trial":46,"Robot":4,"Valence":"Lose","Action":"No-Go","Sham":0,"Color":"blue","trial_type":"pit-trial","trial_index":59,"time_elapsed":343217,"internal_node_id":"0.0-48.0","task_version":"test-retest"},{"Rune":"rune_01_ger","Hex":"#3366ff99","Correct":32,"Choice":32,"RT":326.22000004630536,"Accuracy":1,"Outcome":"-1","Keys":[1826.7549999873154],"TotalKeys":1,"Block":1,"Trial":47,"Robot":3,"Valence":"Lose","Action":"Go","Sham":0,"Color":"blue","trial_type":"pit-trial","trial_index":60,"time_elapsed":346047,"internal_node_id":"0.0-49.0","task_version":"test-retest"},{"Rune":"rune_01_yr","Hex":"#ffcc3399","Correct":-1,"Choice":-1,"RT":-1,"Accuracy":1,"Outcome":"+10","Keys":[],"TotalKeys":0,"Block":1,"Trial":48,"Robot":2,"Valence":"Win","Action":"No-Go","Sham":0,"Color":"yellow","trial_type":"pit-trial","trial_index":61,"time_elapsed":350051,"internal_node_id":"0.0-50.0","task_version":"test-retest"},{"Rune":"rune_01_ger","Hex":"#3366ff99","Correct":32,"Choice":32,"RT":313.99499997496605,"Accuracy":1,"Outcome":"-10","Keys":[1816.3899999926798],"TotalKeys":1,"Block":1,"Trial":49,"Robot":3,"Valence":"Lose","Action":"Go","Sham":1,"Color":"blue","trial_type":"pit-trial","trial_index":62,"time_elapsed":352876,"internal_node_id":"0.0-51.0","task_version":"test-retest"},{"Rune":"rune_01_ear","Hex":"#ffcc3399","Correct":32,"Choice":-1,"RT":-1,"Accuracy":0,"Outcome":"+1","Keys":[],"TotalKeys":0,"Block":1,"Trial":50,"Robot":1,"Valence":"Win","Action":"Go","Sham":0,"Color":"yellow","trial_type":"pit-trial","trial_index":63,"time_elapsed":356882,"internal_node_id":"0.0-52.0","task_version":"test-retest"},{"Rune":"rune_01_ingwaz","Hex":"#3366ff99","Correct":-1,"Choice":32,"RT":336.2300000153482,"Accuracy":0,"Outcome":"-10","Keys":[1840.9400000236928],"TotalKeys":1,"Block":1,"Trial":51,"Robot":4,"Valence":"Lose","Action":"No-Go","Sham":0,"Color":"blue","trial_type":"pit-trial","trial_index":64,"time_elapsed":359726,"internal_node_id":"0.0-53.0","task_version":"test-retest"},{"Rune":"rune_01_yr","Hex":"#ffcc3399","Correct":-1,"Choice":-1,"RT":-1,"Accuracy":1,"Outcome":"+10","Keys":[],"TotalKeys":0,"Block":1,"Trial":52,"Robot":2,"Valence":"Win","Action":"No-Go","Sham":0,"Color":"yellow","trial_type":"pit-trial","trial_index":65,"time_elapsed":363734,"internal_node_id":"0.0-54.0","task_version":"test-retest"},{"Rune":"rune_01_ear","Hex":"#ffcc3399","Correct":32,"Choice":-1,"RT":-1,"Accuracy":0,"Outcome":"+1","Keys":[],"TotalKeys":0,"Block":1,"Trial":53,"Robot":1,"Valence":"Win","Action":"Go","Sham":0,"Color":"yellow","trial_type":"pit-trial","trial_index":66,"time_elapsed":367741,"internal_node_id":"0.0-55.0","task_version":"test-retest"},{"Rune":"rune_01_ingwaz","Hex":"#3366ff99","Correct":-1,"Choice":32,"RT":388.68999999249354,"Accuracy":0,"Outcome":"-10","Keys":[1889.3500000122003],"TotalKeys":1,"Block":1,"Trial":54,"Robot":4,"Valence":"Lose","Action":"No-Go","Sham":0,"Color":"blue","trial_type":"pit-trial","trial_index":67,"time_elapsed":370634,"internal_node_id":"0.0-56.0","task_version":"test-retest"},{"Rune":"rune_01_yr","Hex":"#ffcc3399","Correct":-1,"Choice":-1,"RT":-1,"Accuracy":1,"Outcome":"+10","Keys":[],"TotalKeys":0,"Block":1,"Trial":55,"Robot":2,"Valence":"Win","Action":"No-Go","Sham":0,"Color":"yellow","trial_type":"pit-trial","trial_index":68,"time_elapsed":374641,"internal_node_id":"0.0-57.0","task_version":"test-retest"},{"Rune":"rune_01_ger","Hex":"#3366ff99","Correct":32,"Choice":32,"RT":270.5800000112504,"Accuracy":1,"Outcome":"-1","Keys":[1772.5649999920279],"TotalKeys":1,"Block":1,"Trial":56,"Robot":3,"Valence":"Lose","Action":"Go","Sham":0,"Color":"blue","trial_type":"pit-trial","trial_index":69,"time_elapsed":377424,"internal_node_id":"0.0-58.0","task_version":"test-retest"},{"Rune":"rune_01_yr","Hex":"#ffcc3399","Correct":-1,"Choice":-1,"RT":-1,"Accuracy":1,"Outcome":"+10","Keys":[],"TotalKeys":0,"Block":1,"Trial":57,"Robot":2,"Valence":"Win","Action":"No-Go","Sham":0,"Color":"yellow","trial_type":"pit-trial","trial_index":70,"time_elapsed":381429,"internal_node_id":"0.0-59.0","task_version":"test-retest"},{"Rune":"rune_01_ear","Hex":"#ffcc3399","Correct":32,"Choice":-1,"RT":-1,"Accuracy":0,"Outcome":"+1","Keys":[],"TotalKeys":0,"Block":1,"Trial":58,"Robot":1,"Valence":"Win","Action":"Go","Sham":0,"Color":"yellow","trial_type":"pit-trial","trial_index":71,"time_elapsed":385434,"internal_node_id":"0.0-60.0","task_version":"test-retest"},{"Rune":"rune_01_ger","Hex":"#3366ff99","Correct":32,"Choice":32,"RT":317.8450000123121,"Accuracy":1,"Outcome":"-1","Keys":[1818.3000000426546],"TotalKeys":1,"Block":1,"Trial":59,"Robot":3,"Valence":"Lose","Action":"Go","Sham":0,"Color":"blue","trial_type":"pit-trial","trial_index":72,"time_elapsed":388258,"internal_node_id":"0.0-61.0","task_version":"test-retest"},{"Rune":"rune_01_ingwaz","Hex":"#3366ff99","Correct":-1,"Choice":32,"RT":582.494999980554,"Accuracy":0,"Outcome":"-1","Keys":[2085.7149999937974],"TotalKeys":1,"Block":1,"Trial":60,"Robot":4,"Valence":"Lose","Action":"No-Go","Sham":1,"Color":"blue","trial_type":"pit-trial","trial_index":73,"time_elapsed":391348,"internal_node_id":"0.0-62.0","task_version":"test-retest"},{"value":false,"trial_type":"call-function","trial_index":74,"time_elapsed":391351,"internal_node_id":"0.0-63.0","task_version":"test-retest"},{"view_history":"[{\"page_index\":0,\"viewing_time\":16478.049999976065},{\"page_index\":1,\"viewing_time\":7171.465000021271}]","rt":23650.02999996068,"trial_type":"pit-instructions","trial_index":75,"time_elapsed":415002,"internal_node_id":"0.0-64.0","task_version":"test-retest"},{"Rune":"rune_01_ger","Hex":"#3366ff99","Correct":32,"Choice":32,"RT":382.74999998975545,"Accuracy":1,"Outcome":"-1","Keys":[1885.275000007823],"TotalKeys":1,"Block":1,"Trial":61,"Robot":3,"Valence":"Lose","Action":"Go","Sham":0,"Color":"blue","trial_type":"pit-trial","trial_index":76,"time_elapsed":417895,"internal_node_id":"0.0-65.0","task_version":"test-retest"},{"Rune":"rune_01_ear","Hex":"#ffcc3399","Correct":32,"Choice":-1,"RT":-1,"Accuracy":0,"Outcome":"+10","Keys":[],"TotalKeys":0,"Block":1,"Trial":62,"Robot":1,"Valence":"Win","Action":"Go","Sham":1,"Color":"yellow","trial_type":"pit-trial","trial_index":77,"time_elapsed":421900,"internal_node_id":"0.0-66.0","task_version":"test-retest"},{"Rune":"rune_01_ingwaz","Hex":"#3366ff99","Correct":-1,"Choice":32,"RT":417.96499997144565,"Accuracy":0,"Outcome":"-10","Keys":[1918.1350000435486],"TotalKeys":1,"Block":1,"Trial":63,"Robot":4,"Valence":"Lose","Action":"No-Go","Sham":0,"Color":"blue","trial_type":"pit-trial","trial_index":78,"time_elapsed":424823,"internal_node_id":"0.0-67.0","task_version":"test-retest"},{"Rune":"rune_01_yr","Hex":"#ffcc3399","Correct":-1,"Choice":-1,"RT":-1,"Accuracy":1,"Outcome":"+10","Keys":[],"TotalKeys":0,"Block":1,"Trial":64,"Robot":2,"Valence":"Win","Action":"No-Go","Sham":0,"Color":"yellow","trial_type":"pit-trial","trial_index":79,"time_elapsed":428830,"internal_node_id":"0.0-68.0","task_version":"test-retest"},{"Rune":"rune_01_ear","Hex":"#ffcc3399","Correct":32,"Choice":-1,"RT":-1,"Accuracy":0,"Outcome":"+1","Keys":[],"TotalKeys":0,"Block":1,"Trial":65,"Robot":1,"Valence":"Win","Action":"Go","Sham":0,"Color":"yellow","trial_type":"pit-trial","trial_index":80,"time_elapsed":432838,"internal_node_id":"0.0-69.0","task_version":"test-retest"},{"Rune":"rune_01_yr","Hex":"#ffcc3399","Correct":-1,"Choice":-1,"RT":-1,"Accuracy":1,"Outcome":"+10","Keys":[],"TotalKeys":0,"Block":1,"Trial":66,"Robot":2,"Valence":"Win","Action":"No-Go","Sham":0,"Color":"yellow","trial_type":"pit-trial","trial_index":81,"time_elapsed":436845,"internal_node_id":"0.0-70.0","task_version":"test-retest"},{"Rune":"rune_01_ingwaz","Hex":"#3366ff99","Correct":-1,"Choice":32,"RT":352.7849999954924,"Accuracy":0,"Outcome":"-10","Keys":[1853.1400000210851],"TotalKeys":1,"Block":1,"Trial":67,"Robot":4,"Valence":"Lose","Action":"No-Go","Sham":0,"Color":"blue","trial_type":"pit-trial","trial_index":82,"time_elapsed":439702,"internal_node_id":"0.0-71.0","task_version":"test-retest"},{"Rune":"rune_01_ger","Hex":"#3366ff99","Correct":32,"Choice":32,"RT":530.7699999539182,"Accuracy":1,"Outcome":"-1","Keys":[2033.1899999873713],"TotalKeys":1,"Block":1,"Trial":68,"Robot":3,"Valence":"Lose","Action":"Go","Sham":0,"Color":"blue","trial_type":"pit-trial","trial_index":83,"time_elapsed":442748,"internal_node_id":"0.0-72.0","task_version":"test-retest"},{"Rune":"rune_01_ger","Hex":"#3366ff99","Correct":32,"Choice":32,"RT":337.84500003093854,"Accuracy":1,"Outcome":"-1","Keys":[1839.6950000314973],"TotalKeys":1,"Block":1,"Trial":69,"Robot":3,"Valence":"Lose","Action":"Go","Sham":0,"Color":"blue","trial_type":"pit-trial","trial_index":84,"time_elapsed":445592,"internal_node_id":"0.0-73.0","task_version":"test-retest"},{"Rune":"rune_01_ear","Hex":"#ffcc3399","Correct":32,"Choice":-1,"RT":-1,"Accuracy":0,"Outcome":"+1","Keys":[],"TotalKeys":0,"Block":1,"Trial":70,"Robot":1,"Valence":"Win","Action":"Go","Sham":0,"Color":"yellow","trial_type":"pit-trial","trial_index":85,"time_elapsed":449602,"internal_node_id":"0.0-74.0","task_version":"test-retest"},{"Rune":"rune_01_yr","Hex":"#ffcc3399","Correct":-1,"Choice":-1,"RT":-1,"Accuracy":1,"Outcome":"+1","Keys":[],"TotalKeys":0,"Block":1,"Trial":71,"Robot":2,"Valence":"Win","Action":"No-Go","Sham":1,"Color":"yellow","trial_type":"pit-trial","trial_index":86,"time_elapsed":453609,"internal_node_id":"0.0-75.0","task_version":"test-retest"},{"Rune":"rune_01_ingwaz","Hex":"#3366ff99","Correct":-1,"Choice":32,"RT":363.76999999629334,"Accuracy":0,"Outcome":"-10","Keys":[1864.194999972824],"TotalKeys":1,"Block":1,"Trial":72,"Robot":4,"Valence":"Lose","Action":"No-Go","Sham":0,"Color":"blue","trial_type":"pit-trial","trial_index":87,"time_elapsed":456476,"internal_node_id":"0.0-76.0","task_version":"test-retest"},{"Rune":"rune_01_ger","Hex":"#3366ff99","Correct":32,"Choice":32,"RT":743.0749999475665,"Accuracy":1,"Outcome":"-1","Keys":[2243.1649999925867],"TotalKeys":1,"Block":1,"Trial":73,"Robot":3,"Valence":"Lose","Action":"Go","Sham":0,"Color":"blue","trial_type":"pit-trial","trial_index":88,"time_elapsed":459724,"internal_node_id":"0.0-77.0","task_version":"test-retest"},{"Rune":"rune_01_yr","Hex":"#ffcc3399","Correct":-1,"Choice":-1,"RT":-1,"Accuracy":1,"Outcome":"+10","Keys":[],"TotalKeys":0,"Block":1,"Trial":74,"Robot":2,"Valence":"Win","Action":"No-Go","Sham":0,"Color":"yellow","trial_type":"pit-trial","trial_index":89,"time_elapsed":463729,"internal_node_id":"0.0-78.0","task_version":"test-retest"},{"Rune":"rune_01_ear","Hex":"#ffcc3399","Correct":32,"Choice":-1,"RT":-1,"Accuracy":0,"Outcome":"+1","Keys":[],"TotalKeys":0,"Block":1,"Trial":75,"Robot":1,"Valence":"Win","Action":"Go","Sham":0,"Color":"yellow","trial_type":"pit-trial","trial_index":90,"time_elapsed":467736,"internal_node_id":"0.0-79.0","task_version":"test-retest"},{"Rune":"rune_01_ingwaz","Hex":"#3366ff99","Correct":-1,"Choice":32,"RT":327.28500000666827,"Accuracy":0,"Outcome":"-1","Keys":[1827.385000011418],"TotalKeys":1,"Block":1,"Trial":76,"Robot":4,"Valence":"Lose","Action":"No-Go","Sham":1,"Color":"blue","trial_type":"pit-trial","trial_index":91,"time_elapsed":470569,"internal_node_id":"0.0-80.0","task_version":"test-retest"},{"Rune":"rune_01_yr","Hex":"#ffcc3399","Correct":-1,"Choice":-1,"RT":-1,"Accuracy":1,"Outcome":"+10","Keys":[],"TotalKeys":0,"Block":1,"Trial":77,"Robot":2,"Valence":"Win","Action":"No-Go","Sham":0,"Color":"yellow","trial_type":"pit-trial","trial_index":92,"time_elapsed":474576,"internal_node_id":"0.0-81.0","task_version":"test-retest"},{"Rune":"rune_01_ear","Hex":"#ffcc3399","Correct":32,"Choice":-1,"RT":-1,"Accuracy":0,"Outcome":"+1","Keys":[],"TotalKeys":0,"Block":1,"Trial":78,"Robot":1,"Valence":"Win","Action":"Go","Sham":0,"Color":"yellow","trial_type":"pit-trial","trial_index":93,"time_elapsed":478584,"internal_node_id":"0.0-82.0","task_version":"test-retest"},{"Rune":"rune_01_ingwaz","Hex":"#3366ff99","Correct":-1,"Choice":32,"RT":613.7699999962933,"Accuracy":0,"Outcome":"-10","Keys":[2115.764999995008],"TotalKeys":1,"Block":1,"Trial":79,"Robot":4,"Valence":"Lose","Action":"No-Go","Sham":0,"Color":"blue","trial_type":"pit-trial","trial_index":94,"time_elapsed":481703,"internal_node_id":"0.0-83.0","task_version":"test-retest"},{"Rune":"rune_01_ger","Hex":"#3366ff99","Correct":32,"Choice":32,"RT":549.7350000077859,"Accuracy":1,"Outcome":"-10","Keys":[2055.7350000017323],"TotalKeys":1,"Block":1,"Trial":80,"Robot":3,"Valence":"Lose","Action":"Go","Sham":1,"Color":"blue","trial_type":"pit-trial","trial_index":95,"time_elapsed":484764,"internal_node_id":"0.0-84.0","task_version":"test-retest"},{"Rune":"rune_01_yr","Hex":"#ffcc3399","Correct":-1,"Choice":-1,"RT":-1,"Accuracy":1,"Outcome":"+10","Keys":[],"TotalKeys":0,"Block":1,"Trial":81,"Robot":2,"Valence":"Win","Action":"No-Go","Sham":0,"Color":"yellow","trial_type":"pit-trial","trial_index":96,"time_elapsed":488771,"internal_node_id":"0.0-85.0","task_version":"test-retest"},{"Rune":"rune_01_ingwaz","Hex":"#3366ff99","Correct":-1,"Choice":32,"RT":287.86500002024695,"Accuracy":0,"Outcome":"-1","Keys":[1790.2849999954924],"TotalKeys":1,"Block":1,"Trial":82,"Robot":4,"Valence":"Lose","Action":"No-Go","Sham":1,"Color":"blue","trial_type":"pit-trial","trial_index":97,"time_elapsed":491566,"internal_node_id":"0.0-86.0","task_version":"test-retest"},{"Rune":"rune_01_ger","Hex":"#3366ff99","Correct":32,"Choice":32,"RT":423.28500002622604,"Accuracy":1,"Outcome":"-1","Keys":[1923.8899999763817],"TotalKeys":1,"Block":1,"Trial":83,"Robot":3,"Valence":"Lose","Action":"Go","Sham":0,"Color":"blue","trial_type":"pit-trial","trial_index":98,"time_elapsed":494493,"internal_node_id":"0.0-87.0","task_version":"test-retest"},{"Rune":"rune_01_ear","Hex":"#ffcc3399","Correct":32,"Choice":-1,"RT":-1,"Accuracy":0,"Outcome":"+1","Keys":[],"TotalKeys":0,"Block":1,"Trial":84,"Robot":1,"Valence":"Win","Action":"Go","Sham":0,"Color":"yellow","trial_type":"pit-trial","trial_index":99,"time_elapsed":498501,"internal_node_id":"0.0-88.0","task_version":"test-retest"},{"Rune":"rune_01_ingwaz","Hex":"#3366ff99","Correct":-1,"Choice":32,"RT":400.3900000243448,"Accuracy":0,"Outcome":"-10","Keys":[1901.7299999832176],"TotalKeys":1,"Block":1,"Trial":85,"Robot":4,"Valence":"Lose","Action":"No-Go","Sham":0,"Color":"blue","trial_type":"pit-trial","trial_index":100,"time_elapsed":501408,"internal_node_id":"0.0-89.0","task_version":"test-retest"},{"Rune":"rune_01_yr","Hex":"#ffcc3399","Correct":-1,"Choice":-1,"RT":-1,"Accuracy":1,"Outcome":"+10","Keys":[],"TotalKeys":0,"Block":1,"Trial":86,"Robot":2,"Valence":"Win","Action":"No-Go","Sham":0,"Color":"yellow","trial_type":"pit-trial","trial_index":101,"time_elapsed":505413,"internal_node_id":"0.0-90.0","task_version":"test-retest"},{"Rune":"rune_01_ger","Hex":"#3366ff99","Correct":32,"Choice":32,"RT":548.8199999672361,"Accuracy":1,"Outcome":"-1","Keys":[2051.164999953471],"TotalKeys":1,"Block":1,"Trial":87,"Robot":3,"Valence":"Lose","Action":"Go","Sham":0,"Color":"blue","trial_type":"pit-trial","trial_index":102,"time_elapsed":508468,"internal_node_id":"0.0-91.0","task_version":"test-retest"},{"Rune":"rune_01_ear","Hex":"#ffcc3399","Correct":32,"Choice":-1,"RT":-1,"Accuracy":0,"Outcome":"+10","Keys":[],"TotalKeys":0,"Block":1,"Trial":88,"Robot":1,"Valence":"Win","Action":"Go","Sham":1,"Color":"yellow","trial_type":"pit-trial","trial_index":103,"time_elapsed":512475,"internal_node_id":"0.0-92.0","task_version":"test-retest"},{"Rune":"rune_01_yr","Hex":"#ffcc3399","Correct":-1,"Choice":-1,"RT":-1,"Accuracy":1,"Outcome":"+10","Keys":[],"TotalKeys":0,"Block":1,"Trial":89,"Robot":2,"Valence":"Win","Action":"No-Go","Sham":0,"Color":"yellow","trial_type":"pit-trial","trial_index":104,"time_elapsed":516482,"internal_node_id":"0.0-93.0","task_version":"test-retest"},{"Rune":"rune_01_ingwaz","Hex":"#3366ff99","Correct":-1,"Choice":32,"RT":425.8900000131689,"Accuracy":0,"Outcome":"-10","Keys":[1926.0399999911897],"TotalKeys":1,"Block":1,"Trial":90,"Robot":4,"Valence":"Lose","Action":"No-Go","Sham":0,"Color":"blue","trial_type":"pit-trial","trial_index":105,"time_elapsed":519412,"internal_node_id":"0.0-94.0","task_version":"test-retest"},{"Rune":"rune_01_ger","Hex":"#3366ff99","Correct":32,"Choice":32,"RT":394.9850000208244,"Accuracy":1,"Outcome":"-1","Keys":[1895.7749999826774],"TotalKeys":1,"Block":1,"Trial":91,"Robot":3,"Valence":"Lose","Action":"Go","Sham":0,"Color":"blue","trial_type":"pit-trial","trial_index":106,"time_elapsed":522312,"internal_node_id":"0.0-95.0","task_version":"test-retest"},{"Rune":"rune_01_ear","Hex":"#ffcc3399","Correct":32,"Choice":-1,"RT":-1,"Accuracy":0,"Outcome":"+1","Keys":[],"TotalKeys":0,"Block":1,"Trial":92,"Robot":1,"Valence":"Win","Action":"Go","Sham":0,"Color":"yellow","trial_type":"pit-trial","trial_index":107,"time_elapsed":526317,"internal_node_id":"0.0-96.0","task_version":"test-retest"},{"Rune":"rune_01_ger","Hex":"#3366ff99","Correct":32,"Choice":32,"RT":351.95999999996275,"Accuracy":1,"Outcome":"-1","Keys":[1852.2300000186078],"TotalKeys":1,"Block":1,"Trial":93,"Robot":3,"Valence":"Lose","Action":"Go","Sham":0,"Color":"blue","trial_type":"pit-trial","trial_index":108,"time_elapsed":529172,"internal_node_id":"0.0-97.0","task_version":"test-retest"},{"Rune":"rune_01_ingwaz","Hex":"#3366ff99","Correct":-1,"Choice":32,"RT":336.0349999857135,"Accuracy":0,"Outcome":"-10","Keys":[1836.7299999808893],"TotalKeys":1,"Block":1,"Trial":94,"Robot":4,"Valence":"Lose","Action":"No-Go","Sham":0,"Color":"blue","trial_type":"pit-trial","trial_index":109,"time_elapsed":532012,"internal_node_id":"0.0-98.0","task_version":"test-retest"},{"Rune":"rune_01_yr","Hex":"#ffcc3399","Correct":-1,"Choice":-1,"RT":-1,"Accuracy":1,"Outcome":"+1","Keys":[],"TotalKeys":0,"Block":1,"Trial":95,"Robot":2,"Valence":"Win","Action":"No-Go","Sham":1,"Color":"yellow","trial_type":"pit-trial","trial_index":110,"time_elapsed":536020,"internal_node_id":"0.0-99.0","task_version":"test-retest"},{"Rune":"rune_01_ear","Hex":"#ffcc3399","Correct":32,"Choice":-1,"RT":-1,"Accuracy":0,"Outcome":"+1","Keys":[],"TotalKeys":0,"Block":1,"Trial":96,"Robot":1,"Valence":"Win","Action":"Go","Sham":0,"Color":"yellow","trial_type":"pit-trial","trial_index":111,"time_elapsed":540027,"internal_node_id":"0.0-100.0","task_version":"test-retest"},{"Rune":"rune_01_ear","Hex":"#ffcc3399","Correct":32,"Choice":-1,"RT":-1,"Accuracy":0,"Outcome":"+1","Keys":[],"TotalKeys":0,"Block":1,"Trial":97,"Robot":1,"Valence":"Win","Action":"Go","Sham":0,"Color":"yellow","trial_type":"pit-trial","trial_index":112,"time_elapsed":544035,"internal_node_id":"0.0-101.0","task_version":"test-retest"},{"Rune":"rune_01_yr","Hex":"#ffcc3399","Correct":-1,"Choice":-1,"RT":-1,"Accuracy":1,"Outcome":"+10","Keys":[],"TotalKeys":0,"Block":1,"Trial":98,"Robot":2,"Valence":"Win","Action":"No-Go","Sham":0,"Color":"yellow","trial_type":"pit-trial","trial_index":113,"time_elapsed":548042,"internal_node_id":"0.0-102.0","task_version":"test-retest"},{"Rune":"rune_01_ingwaz","Hex":"#3366ff99","Correct":-1,"Choice":32,"RT":430.5099999764934,"Accuracy":0,"Outcome":"-10","Keys":[1930.850000004284],"TotalKeys":1,"Block":1,"Trial":99,"Robot":4,"Valence":"Lose","Action":"No-Go","Sham":0,"Color":"blue","trial_type":"pit-trial","trial_index":114,"time_elapsed":550977,"internal_node_id":"0.0-103.0","task_version":"test-retest"},{"Rune":"rune_01_ger","Hex":"#3366ff99","Correct":32,"Choice":32,"RT":402.765000006184,"Accuracy":1,"Outcome":"-10","Keys":[1904.7049999935552],"TotalKeys":1,"Block":1,"Trial":100,"Robot":3,"Valence":"Lose","Action":"Go","Sham":1,"Color":"blue","trial_type":"pit-trial","trial_index":115,"time_elapsed":553887,"internal_node_id":"0.0-104.0","task_version":"test-retest"},{"Rune":"rune_01_ear","Hex":"#ffcc3399","Correct":32,"Choice":-1,"RT":-1,"Accuracy":0,"Outcome":"+1","Keys":[],"TotalKeys":0,"Block":1,"Trial":101,"Robot":1,"Valence":"Win","Action":"Go","Sham":0,"Color":"yellow","trial_type":"pit-trial","trial_index":116,"time_elapsed":557894,"internal_node_id":"0.0-105.0","task_version":"test-retest"},{"Rune":"rune_01_ger","Hex":"#3366ff99","Correct":32,"Choice":32,"RT":371.5700000175275,"Accuracy":1,"Outcome":"-1","Keys":[1871.6150000109337],"TotalKeys":1,"Block":1,"Trial":102,"Robot":3,"Valence":"Lose","Action":"Go","Sham":0,"Color":"blue","trial_type":"pit-trial","trial_index":117,"time_elapsed":560769,"internal_node_id":"0.0-106.0","task_version":"test-retest"},{"Rune":"rune_01_ingwaz","Hex":"#3366ff99","Correct":-1,"Choice":32,"RT":259.13500000024214,"Accuracy":0,"Outcome":"-10","Keys":[1783.7250000447966],"TotalKeys":1,"Block":1,"Trial":103,"Robot":4,"Valence":"Lose","Action":"No-Go","Sham":0,"Color":"blue","trial_type":"pit-trial","trial_index":118,"time_elapsed":563557,"internal_node_id":"0.0-107.0","task_version":"test-retest"},{"Rune":"rune_01_yr","Hex":"#ffcc3399","Correct":-1,"Choice":-1,"RT":-1,"Accuracy":1,"Outcome":"+10","Keys":[],"TotalKeys":0,"Block":1,"Trial":104,"Robot":2,"Valence":"Win","Action":"No-Go","Sham":0,"Color":"yellow","trial_type":"pit-trial","trial_index":119,"time_elapsed":567564,"internal_node_id":"0.0-108.0","task_version":"test-retest"},{"Rune":"rune_01_ingwaz","Hex":"#3366ff99","Correct":-1,"Choice":32,"RT":462.6200000056997,"Accuracy":0,"Outcome":"-10","Keys":[1962.9050000221469],"TotalKeys":1,"Block":1,"Trial":105,"Robot":4,"Valence":"Lose","Action":"No-Go","Sham":0,"Color":"blue","trial_type":"pit-trial","trial_index":120,"time_elapsed":570531,"internal_node_id":"0.0-109.0","task_version":"test-retest"},{"Rune":"rune_01_ger","Hex":"#3366ff99","Correct":32,"Choice":32,"RT":488.4500000043772,"Accuracy":1,"Outcome":"-1","Keys":[1988.8100000098348],"TotalKeys":1,"Block":1,"Trial":106,"Robot":3,"Valence":"Lose","Action":"Go","Sham":0,"Color":"blue","trial_type":"pit-trial","trial_index":121,"time_elapsed":573526,"internal_node_id":"0.0-110.0","task_version":"test-retest"},{"Rune":"rune_01_yr","Hex":"#ffcc3399","Correct":-1,"Choice":-1,"RT":-1,"Accuracy":1,"Outcome":"+10","Keys":[],"TotalKeys":0,"Block":1,"Trial":107,"Robot":2,"Valence":"Win","Action":"No-Go","Sham":0,"Color":"yellow","trial_type":"pit-trial","trial_index":122,"time_elapsed":577533,"internal_node_id":"0.0-111.0","task_version":"test-retest"},{"Rune":"rune_01_ear","Hex":"#ffcc3399","Correct":32,"Choice":-1,"RT":-1,"Accuracy":0,"Outcome":"+10","Keys":[],"TotalKeys":0,"Block":1,"Trial":108,"Robot":1,"Valence":"Win","Action":"Go","Sham":1,"Color":"yellow","trial_type":"pit-trial","trial_index":123,"time_elapsed":581538,"internal_node_id":"0.0-112.0","task_version":"test-retest"},{"Rune":"rune_01_yr","Hex":"#ffcc3399","Correct":-1,"Choice":-1,"RT":-1,"Accuracy":1,"Outcome":"+10","Keys":[],"TotalKeys":0,"Block":1,"Trial":109,"Robot":2,"Valence":"Win","Action":"No-Go","Sham":0,"Color":"yellow","trial_type":"pit-trial","trial_index":124,"time_elapsed":585544,"internal_node_id":"0.0-113.0","task_version":"test-retest"},{"Rune":"rune_01_ingwaz","Hex":"#3366ff99","Correct":-1,"Choice":32,"RT":365.33000000054017,"Accuracy":0,"Outcome":"-1","Keys":[1867.3299999791197],"TotalKeys":1,"Block":1,"Trial":110,"Robot":4,"Valence":"Lose","Action":"No-Go","Sham":1,"Color":"blue","trial_type":"pit-trial","trial_index":125,"time_elapsed":588416,"internal_node_id":"0.0-114.0","task_version":"test-retest"},{"Rune":"rune_01_ger","Hex":"#3366ff99","Correct":32,"Choice":32,"RT":385.6700000469573,"Accuracy":1,"Outcome":"-1","Keys":[1886.0299999942072],"TotalKeys":1,"Block":1,"Trial":111,"Robot":3,"Valence":"Lose","Action":"Go","Sham":0,"Color":"blue","trial_type":"pit-trial","trial_index":126,"time_elapsed":591306,"internal_node_id":"0.0-115.0","task_version":"test-retest"},{"Rune":"rune_01_ear","Hex":"#ffcc3399","Correct":32,"Choice":-1,"RT":-1,"Accuracy":0,"Outcome":"+1","Keys":[],"TotalKeys":0,"Block":1,"Trial":112,"Robot":1,"Valence":"Win","Action":"Go","Sham":0,"Color":"yellow","trial_type":"pit-trial","trial_index":127,"time_elapsed":595311,"internal_node_id":"0.0-116.0","task_version":"test-retest"},{"Rune":"rune_01_ger","Hex":"#3366ff99","Correct":32,"Choice":32,"RT":584.3999999924563,"Accuracy":1,"Outcome":"-10","Keys":[2084.789999993518],"TotalKeys":1,"Block":1,"Trial":113,"Robot":3,"Valence":"Lose","Action":"Go","Sham":1,"Color":"blue","trial_type":"pit-trial","trial_index":128,"time_elapsed":598398,"internal_node_id":"0.0-117.0","task_version":"test-retest"},{"Rune":"rune_01_ingwaz","Hex":"#3366ff99","Correct":-1,"Choice":32,"RT":657.2750000050291,"Accuracy":0,"Outcome":"-10","Keys":[2157.4499999987893],"TotalKeys":1,"Block":1,"Trial":114,"Robot":4,"Valence":"Lose","Action":"No-Go","Sham":0,"Color":"blue","trial_type":"pit-trial","trial_index":129,"time_elapsed":601558,"internal_node_id":"0.0-118.0","task_version":"test-retest"},{"Rune":"rune_01_yr","Hex":"#ffcc3399","Correct":-1,"Choice":-1,"RT":-1,"Accuracy":1,"Outcome":"+1","Keys":[],"TotalKeys":0,"Block":1,"Trial":115,"Robot":2,"Valence":"Win","Action":"No-Go","Sham":1,"Color":"yellow","trial_type":"pit-trial","trial_index":130,"time_elapsed":605563,"internal_node_id":"0.0-119.0","task_version":"test-retest"},{"Rune":"rune_01_ear","Hex":"#ffcc3399","Correct":32,"Choice":-1,"RT":-1,"Accuracy":0,"Outcome":"+1","Keys":[],"TotalKeys":0,"Block":1,"Trial":116,"Robot":1,"Valence":"Win","Action":"Go","Sham":0,"Color":"yellow","trial_type":"pit-trial","trial_index":131,"time_elapsed":609571,"internal_node_id":"0.0-120.0","task_version":"test-retest"},{"Rune":"rune_01_ear","Hex":"#ffcc3399","Correct":32,"Choice":-1,"RT":-1,"Accuracy":0,"Outcome":"+1","Keys":[],"TotalKeys":0,"Block":1,"Trial":117,"Robot":1,"Valence":"Win","Action":"Go","Sham":0,"Color":"yellow","trial_type":"pit-trial","trial_index":132,"time_elapsed":613578,"internal_node_id":"0.0-121.0","task_version":"test-retest"},{"Rune":"rune_01_ingwaz","Hex":"#3366ff99","Correct":-1,"Choice":32,"RT":454.1600000229664,"Accuracy":0,"Outcome":"-10","Keys":[1955.039999971632],"TotalKeys":1,"Block":1,"Trial":118,"Robot":4,"Valence":"Lose","Action":"No-Go","Sham":0,"Color":"blue","trial_type":"pit-trial","trial_index":133,"time_elapsed":616538,"internal_node_id":"0.0-122.0","task_version":"test-retest"},{"Rune":"rune_01_ger","Hex":"#3366ff99","Correct":32,"Choice":32,"RT":504.30999998934567,"Accuracy":1,"Outcome":"-1","Keys":[2006.3550000195391],"TotalKeys":1,"Block":1,"Trial":119,"Robot":3,"Valence":"Lose","Action":"Go","Sham":0,"Color":"blue","trial_type":"pit-trial","trial_index":134,"time_elapsed":619548,"internal_node_id":"0.0-123.0","task_version":"test-retest"},{"Rune":"rune_01_yr","Hex":"#ffcc3399","Correct":-1,"Choice":-1,"RT":-1,"Accuracy":1,"Outcome":"+10","Keys":[],"TotalKeys":0,"Block":1,"Trial":120,"Robot":2,"Valence":"Win","Action":"No-Go","Sham":0,"Color":"yellow","trial_type":"pit-trial","trial_index":135,"time_elapsed":623555,"internal_node_id":"0.0-124.0","task_version":"test-retest"},{"view_history":"[{\"page_index\":0,\"viewing_time\":11245.499999960884},{\"page_index\":1,\"viewing_time\":8271.94500004407},{\"page_index\":2,\"viewing_time\":10995.659999956843}]","rt":30513.69499997236,"trial_type":"pit-instructions","trial_index":136,"time_elapsed":654072,"internal_node_id":"0.0-125.0","task_version":"test-retest"},{"Rune":"rune_02_cen","Hex":"#ffcc3399","Correct":32,"Choice":-1,"RT":-1,"Accuracy":0,"Outcome":"+10","Keys":[],"TotalKeys":0,"Block":2,"Trial":121,"Robot":1,"Valence":"Win","Action":"Go","Sham":1,"Color":"yellow","trial_type":"pit-trial","trial_index":137,"time_elapsed":658081,"internal_node_id":"0.0-126.0","task_version":"test-retest"},{"Rune":"rune_02_os","Hex":"#ffcc3399","Correct":-1,"Choice":-1,"RT":-1,"Accuracy":1,"Outcome":"+1","Keys":[],"TotalKeys":0,"Block":2,"Trial":122,"Robot":2,"Valence":"Win","Action":"No-Go","Sham":1,"Color":"yellow","trial_type":"pit-trial","trial_index":138,"time_elapsed":662086,"internal_node_id":"0.0-127.0","task_version":"test-retest"},{"Rune":"rune_02_haglaz","Hex":"#3366ff99","Correct":32,"Choice":-1,"RT":-1,"Accuracy":0,"Outcome":"-10","Keys":[],"TotalKeys":0,"Block":2,"Trial":123,"Robot":3,"Valence":"Lose","Action":"Go","Sham":0,"Color":"blue","trial_type":"pit-trial","trial_index":139,"time_elapsed":666091,"internal_node_id":"0.0-128.0","task_version":"test-retest"},{"Rune":"rune_02_raido","Hex":"#3366ff99","Correct":-1,"Choice":-1,"RT":-1,"Accuracy":1,"Outcome":"-1","Keys":[],"TotalKeys":0,"Block":2,"Trial":124,"Robot":4,"Valence":"Lose","Action":"No-Go","Sham":0,"Color":"blue","trial_type":"pit-trial","trial_index":140,"time_elapsed":670098,"internal_node_id":"0.0-129.0","task_version":"test-retest"},{"Rune":"rune_02_os","Hex":"#ffcc3399","Correct":-1,"Choice":-1,"RT":-1,"Accuracy":1,"Outcome":"+10","Keys":[],"TotalKeys":0,"Block":2,"Trial":125,"Robot":2,"Valence":"Win","Action":"No-Go","Sham":0,"Color":"yellow","trial_type":"pit-trial","trial_index":141,"time_elapsed":674103,"internal_node_id":"0.0-130.0","task_version":"test-retest"},{"Rune":"rune_02_raido","Hex":"#3366ff99","Correct":-1,"Choice":-1,"RT":-1,"Accuracy":1,"Outcome":"-1","Keys":[],"TotalKeys":0,"Block":2,"Trial":126,"Robot":4,"Valence":"Lose","Action":"No-Go","Sham":0,"Color":"blue","trial_type":"pit-trial","trial_index":142,"time_elapsed":678108,"internal_node_id":"0.0-131.0","task_version":"test-retest"},{"Rune":"rune_02_cen","Hex":"#ffcc3399","Correct":32,"Choice":-1,"RT":-1,"Accuracy":0,"Outcome":"+1","Keys":[],"TotalKeys":0,"Block":2,"Trial":127,"Robot":1,"Valence":"Win","Action":"Go","Sham":0,"Color":"yellow","trial_type":"pit-trial","trial_index":143,"time_elapsed":682113,"internal_node_id":"0.0-132.0","task_version":"test-retest"},{"Rune":"rune_02_haglaz","Hex":"#3366ff99","Correct":32,"Choice":-1,"RT":-1,"Accuracy":0,"Outcome":"-10","Keys":[],"TotalKeys":0,"Block":2,"Trial":128,"Robot":3,"Valence":"Lose","Action":"Go","Sham":0,"Color":"blue","trial_type":"pit-trial","trial_index":144,"time_elapsed":686118,"internal_node_id":"0.0-133.0","task_version":"test-retest"},{"Rune":"rune_02_cen","Hex":"#ffcc3399","Correct":32,"Choice":-1,"RT":-1,"Accuracy":0,"Outcome":"+1","Keys":[],"TotalKeys":0,"Block":2,"Trial":129,"Robot":1,"Valence":"Win","Action":"Go","Sham":0,"Color":"yellow","trial_type":"pit-trial","trial_index":145,"time_elapsed":690125,"internal_node_id":"0.0-134.0","task_version":"test-retest"},{"Rune":"rune_02_haglaz","Hex":"#3366ff99","Correct":32,"Choice":-1,"RT":-1,"Accuracy":0,"Outcome":"-10","Keys":[],"TotalKeys":0,"Block":2,"Trial":130,"Robot":3,"Valence":"Lose","Action":"Go","Sham":0,"Color":"blue","trial_type":"pit-trial","trial_index":146,"time_elapsed":694133,"internal_node_id":"0.0-135.0","task_version":"test-retest"},{"Rune":"rune_02_raido","Hex":"#3366ff99","Correct":-1,"Choice":-1,"RT":-1,"Accuracy":1,"Outcome":"-1","Keys":[],"TotalKeys":0,"Block":2,"Trial":131,"Robot":4,"Valence":"Lose","Action":"No-Go","Sham":0,"Color":"blue","trial_type":"pit-trial","trial_index":147,"time_elapsed":698139,"internal_node_id":"0.0-136.0","task_version":"test-retest"},{"Rune":"rune_02_os","Hex":"#ffcc3399","Correct":-1,"Choice":-1,"RT":-1,"Accuracy":1,"Outcome":"+10","Keys":[],"TotalKeys":0,"Block":2,"Trial":132,"Robot":2,"Valence":"Win","Action":"No-Go","Sham":0,"Color":"yellow","trial_type":"pit-trial","trial_index":148,"time_elapsed":702143,"internal_node_id":"0.0-137.0","task_version":"test-retest"},{"Rune":"rune_02_os","Hex":"#ffcc3399","Correct":-1,"Choice":-1,"RT":-1,"Accuracy":1,"Outcome":"+10","Keys":[],"TotalKeys":0,"Block":2,"Trial":133,"Robot":2,"Valence":"Win","Action":"No-Go","Sham":0,"Color":"yellow","trial_type":"pit-trial","trial_index":149,"time_elapsed":706150,"internal_node_id":"0.0-138.0","task_version":"test-retest"},{"Rune":"rune_02_cen","Hex":"#ffcc3399","Correct":32,"Choice":-1,"RT":-1,"Accuracy":0,"Outcome":"+1","Keys":[],"TotalKeys":0,"Block":2,"Trial":134,"Robot":1,"Valence":"Win","Action":"Go","Sham":0,"Color":"yellow","trial_type":"pit-trial","trial_index":150,"time_elapsed":710157,"internal_node_id":"0.0-139.0","task_version":"test-retest"},{"Rune":"rune_02_raido","Hex":"#3366ff99","Correct":-1,"Choice":-1,"RT":-1,"Accuracy":1,"Outcome":"-1","Keys":[],"TotalKeys":0,"Block":2,"Trial":135,"Robot":4,"Valence":"Lose","Action":"No-Go","Sham":0,"Color":"blue","trial_type":"pit-trial","trial_index":151,"time_elapsed":714167,"internal_node_id":"0.0-140.0","task_version":"test-retest"},{"Rune":"rune_02_haglaz","Hex":"#3366ff99","Correct":32,"Choice":-1,"RT":-1,"Accuracy":0,"Outcome":"-10","Keys":[],"TotalKeys":0,"Block":2,"Trial":136,"Robot":3,"Valence":"Lose","Action":"Go","Sham":0,"Color":"blue","trial_type":"pit-trial","trial_index":152,"time_elapsed":718172,"internal_node_id":"0.0-141.0","task_version":"test-retest"},{"Rune":"rune_02_haglaz","Hex":"#3366ff99","Correct":32,"Choice":-1,"RT":-1,"Accuracy":0,"Outcome":"-1","Keys":[],"TotalKeys":0,"Block":2,"Trial":137,"Robot":3,"Valence":"Lose","Action":"Go","Sham":1,"Color":"blue","trial_type":"pit-trial","trial_index":153,"time_elapsed":722177,"internal_node_id":"0.0-142.0","task_version":"test-retest"},{"Rune":"rune_02_cen","Hex":"#ffcc3399","Correct":32,"Choice":-1,"RT":-1,"Accuracy":0,"Outcome":"+1","Keys":[],"TotalKeys":0,"Block":2,"Trial":138,"Robot":1,"Valence":"Win","Action":"Go","Sham":0,"Color":"yellow","trial_type":"pit-trial","trial_index":154,"time_elapsed":726182,"internal_node_id":"0.0-143.0","task_version":"test-retest"},{"Rune":"rune_02_raido","Hex":"#3366ff99","Correct":-1,"Choice":-1,"RT":-1,"Accuracy":1,"Outcome":"-10","Keys":[],"TotalKeys":0,"Block":2,"Trial":139,"Robot":4,"Valence":"Lose","Action":"No-Go","Sham":1,"Color":"blue","trial_type":"pit-trial","trial_index":155,"time_elapsed":730189,"internal_node_id":"0.0-144.0","task_version":"test-retest"},{"Rune":"rune_02_os","Hex":"#ffcc3399","Correct":-1,"Choice":-1,"RT":-1,"Accuracy":1,"Outcome":"+10","Keys":[],"TotalKeys":0,"Block":2,"Trial":140,"Robot":2,"Valence":"Win","Action":"No-Go","Sham":0,"Color":"yellow","trial_type":"pit-trial","trial_index":156,"time_elapsed":734194,"internal_node_id":"0.0-145.0","task_version":"test-retest"},{"Rune":"rune_02_raido","Hex":"#3366ff99","Correct":-1,"Choice":-1,"RT":-1,"Accuracy":1,"Outcome":"-1","Keys":[],"TotalKeys":0,"Block":2,"Trial":141,"Robot":4,"Valence":"Lose","Action":"No-Go","Sham":0,"Color":"blue","trial_type":"pit-trial","trial_index":157,"time_elapsed":738199,"internal_node_id":"0.0-146.0","task_version":"test-retest"},{"Rune":"rune_02_haglaz","Hex":"#3366ff99","Correct":32,"Choice":-1,"RT":-1,"Accuracy":0,"Outcome":"-1","Keys":[],"TotalKeys":0,"Block":2,"Trial":142,"Robot":3,"Valence":"Lose","Action":"Go","Sham":1,"Color":"blue","trial_type":"pit-trial","trial_index":158,"time_elapsed":742206,"internal_node_id":"0.0-147.0","task_version":"test-retest"},{"Rune":"rune_02_cen","Hex":"#ffcc3399","Correct":32,"Choice":-1,"RT":-1,"Accuracy":0,"Outcome":"+1","Keys":[],"TotalKeys":0,"Block":2,"Trial":143,"Robot":1,"Valence":"Win","Action":"Go","Sham":0,"Color":"yellow","trial_type":"pit-trial","trial_index":159,"time_elapsed":746211,"internal_node_id":"0.0-148.0","task_version":"test-retest"},{"Rune":"rune_02_os","Hex":"#ffcc3399","Correct":-1,"Choice":-1,"RT":-1,"Accuracy":1,"Outcome":"+10","Keys":[],"TotalKeys":0,"Block":2,"Trial":144,"Robot":2,"Valence":"Win","Action":"No-Go","Sham":0,"Color":"yellow","trial_type":"pit-trial","trial_index":160,"time_elapsed":750217,"internal_node_id":"0.0-149.0","task_version":"test-retest"},{"Rune":"rune_02_haglaz","Hex":"#3366ff99","Correct":32,"Choice":-1,"RT":-1,"Accuracy":0,"Outcome":"-10","Keys":[],"TotalKeys":0,"Block":2,"Trial":145,"Robot":3,"Valence":"Lose","Action":"Go","Sham":0,"Color":"blue","trial_type":"pit-trial","trial_index":161,"time_elapsed":754224,"internal_node_id":"0.0-150.0","task_version":"test-retest"},{"Rune":"rune_02_cen","Hex":"#ffcc3399","Correct":32,"Choice":-1,"RT":-1,"Accuracy":0,"Outcome":"+1","Keys":[],"TotalKeys":0,"Block":2,"Trial":146,"Robot":1,"Valence":"Win","Action":"Go","Sham":0,"Color":"yellow","trial_type":"pit-trial","trial_index":162,"time_elapsed":758229,"internal_node_id":"0.0-151.0","task_version":"test-retest"},{"Rune":"rune_02_os","Hex":"#ffcc3399","Correct":-1,"Choice":-1,"RT":-1,"Accuracy":1,"Outcome":"+1","Keys":[],"TotalKeys":0,"Block":2,"Trial":147,"Robot":2,"Valence":"Win","Action":"No-Go","Sham":1,"Color":"yellow","trial_type":"pit-trial","trial_index":163,"time_elapsed":762234,"internal_node_id":"0.0-152.0","task_version":"test-retest"},{"Rune":"rune_02_raido","Hex":"#3366ff99","Correct":-1,"Choice":-1,"RT":-1,"Accuracy":1,"Outcome":"-10","Keys":[],"TotalKeys":0,"Block":2,"Trial":148,"Robot":4,"Valence":"Lose","Action":"No-Go","Sham":1,"Color":"blue","trial_type":"pit-trial","trial_index":164,"time_elapsed":766241,"internal_node_id":"0.0-153.0","task_version":"test-retest"},{"Rune":"rune_02_cen","Hex":"#ffcc3399","Correct":32,"Choice":-1,"RT":-1,"Accuracy":0,"Outcome":"+1","Keys":[],"TotalKeys":0,"Block":2,"Trial":149,"Robot":1,"Valence":"Win","Action":"Go","Sham":0,"Color":"yellow","trial_type":"pit-trial","trial_index":165,"time_elapsed":770249,"internal_node_id":"0.0-154.0","task_version":"test-retest"},{"Rune":"rune_02_haglaz","Hex":"#3366ff99","Correct":32,"Choice":-1,"RT":-1,"Accuracy":0,"Outcome":"-10","Keys":[],"TotalKeys":0,"Block":2,"Trial":150,"Robot":3,"Valence":"Lose","Action":"Go","Sham":0,"Color":"blue","trial_type":"pit-trial","trial_index":166,"time_elapsed":774258,"internal_node_id":"0.0-155.0","task_version":"test-retest"},{"Rune":"rune_02_raido","Hex":"#3366ff99","Correct":-1,"Choice":-1,"RT":-1,"Accuracy":1,"Outcome":"-1","Keys":[],"TotalKeys":0,"Block":2,"Trial":151,"Robot":4,"Valence":"Lose","Action":"No-Go","Sham":0,"Color":"blue","trial_type":"pit-trial","trial_index":167,"time_elapsed":778265,"internal_node_id":"0.0-156.0","task_version":"test-retest"},{"Rune":"rune_02_os","Hex":"#ffcc3399","Correct":-1,"Choice":-1,"RT":-1,"Accuracy":1,"Outcome":"+10","Keys":[],"TotalKeys":0,"Block":2,"Trial":152,"Robot":2,"Valence":"Win","Action":"No-Go","Sham":0,"Color":"yellow","trial_type":"pit-trial","trial_index":168,"time_elapsed":782270,"internal_node_id":"0.0-157.0","task_version":"test-retest"},{"Rune":"rune_02_raido","Hex":"#3366ff99","Correct":-1,"Choice":-1,"RT":-1,"Accuracy":1,"Outcome":"-1","Keys":[],"TotalKeys":0,"Block":2,"Trial":153,"Robot":4,"Valence":"Lose","Action":"No-Go","Sham":0,"Color":"blue","trial_type":"pit-trial","trial_index":169,"time_elapsed":786278,"internal_node_id":"0.0-158.0","task_version":"test-retest"},{"Rune":"rune_02_cen","Hex":"#ffcc3399","Correct":32,"Choice":-1,"RT":-1,"Accuracy":0,"Outcome":"+10","Keys":[],"TotalKeys":0,"Block":2,"Trial":154,"Robot":1,"Valence":"Win","Action":"Go","Sham":1,"Color":"yellow","trial_type":"pit-trial","trial_index":170,"time_elapsed":790285,"internal_node_id":"0.0-159.0","task_version":"test-retest"},{"Rune":"rune_02_haglaz","Hex":"#3366ff99","Correct":32,"Choice":-1,"RT":-1,"Accuracy":0,"Outcome":"-10","Keys":[],"TotalKeys":0,"Block":2,"Trial":155,"Robot":3,"Valence":"Lose","Action":"Go","Sham":0,"Color":"blue","trial_type":"pit-trial","trial_index":171,"time_elapsed":794290,"internal_node_id":"0.0-160.0","task_version":"test-retest"},{"Rune":"rune_02_os","Hex":"#ffcc3399","Correct":-1,"Choice":-1,"RT":-1,"Accuracy":1,"Outcome":"+10","Keys":[],"TotalKeys":0,"Block":2,"Trial":156,"Robot":2,"Valence":"Win","Action":"No-Go","Sham":0,"Color":"yellow","trial_type":"pit-trial","trial_index":172,"time_elapsed":798297,"internal_node_id":"0.0-161.0","task_version":"test-retest"},{"Rune":"rune_02_cen","Hex":"#ffcc3399","Correct":32,"Choice":-1,"RT":-1,"Accuracy":0,"Outcome":"+1","Keys":[],"TotalKeys":0,"Block":2,"Trial":157,"Robot":1,"Valence":"Win","Action":"Go","Sham":0,"Color":"yellow","trial_type":"pit-trial","trial_index":173,"time_elapsed":802303,"internal_node_id":"0.0-162.0","task_version":"test-retest"},{"Rune":"rune_02_haglaz","Hex":"#3366ff99","Correct":32,"Choice":-1,"RT":-1,"Accuracy":0,"Outcome":"-10","Keys":[],"TotalKeys":0,"Block":2,"Trial":158,"Robot":3,"Valence":"Lose","Action":"Go","Sham":0,"Color":"blue","trial_type":"pit-trial","trial_index":174,"time_elapsed":806310,"internal_node_id":"0.0-163.0","task_version":"test-retest"},{"Rune":"rune_02_os","Hex":"#ffcc3399","Correct":-1,"Choice":-1,"RT":-1,"Accuracy":1,"Outcome":"+10","Keys":[],"TotalKeys":0,"Block":2,"Trial":159,"Robot":2,"Valence":"Win","Action":"No-Go","Sham":0,"Color":"yellow","trial_type":"pit-trial","trial_index":175,"time_elapsed":810318,"internal_node_id":"0.0-164.0","task_version":"test-retest"},{"Rune":"rune_02_raido","Hex":"#3366ff99","Correct":-1,"Choice":-1,"RT":-1,"Accuracy":1,"Outcome":"-1","Keys":[],"TotalKeys":0,"Block":2,"Trial":160,"Robot":4,"Valence":"Lose","Action":"No-Go","Sham":0,"Color":"blue","trial_type":"pit-trial","trial_index":176,"time_elapsed":814325,"internal_node_id":"0.0-165.0","task_version":"test-retest"},{"Rune":"rune_02_os","Hex":"#ffcc3399","Correct":-1,"Choice":-1,"RT":-1,"Accuracy":1,"Outcome":"+1","Keys":[],"TotalKeys":0,"Block":2,"Trial":161,"Robot":2,"Valence":"Win","Action":"No-Go","Sham":1,"Color":"yellow","trial_type":"pit-trial","trial_index":177,"time_elapsed":818330,"internal_node_id":"0.0-166.0","task_version":"test-retest"},{"Rune":"rune_02_cen","Hex":"#ffcc3399","Correct":32,"Choice":-1,"RT":-1,"Accuracy":0,"Outcome":"+1","Keys":[],"TotalKeys":0,"Block":2,"Trial":162,"Robot":1,"Valence":"Win","Action":"Go","Sham":0,"Color":"yellow","trial_type":"pit-trial","trial_index":178,"time_elapsed":822335,"internal_node_id":"0.0-167.0","task_version":"test-retest"},{"Rune":"rune_02_haglaz","Hex":"#3366ff99","Correct":32,"Choice":-1,"RT":-1,"Accuracy":0,"Outcome":"-10","Keys":[],"TotalKeys":0,"Block":2,"Trial":163,"Robot":3,"Valence":"Lose","Action":"Go","Sham":0,"Color":"blue","trial_type":"pit-trial","trial_index":179,"time_elapsed":826342,"internal_node_id":"0.0-168.0","task_version":"test-retest"},{"Rune":"rune_02_raido","Hex":"#3366ff99","Correct":-1,"Choice":-1,"RT":-1,"Accuracy":1,"Outcome":"-1","Keys":[],"TotalKeys":0,"Block":2,"Trial":164,"Robot":4,"Valence":"Lose","Action":"No-Go","Sham":0,"Color":"blue","trial_type":"pit-trial","trial_index":180,"time_elapsed":830349,"internal_node_id":"0.0-169.0","task_version":"test-retest"},{"Rune":"rune_02_os","Hex":"#ffcc3399","Correct":-1,"Choice":-1,"RT":-1,"Accuracy":1,"Outcome":"+10","Keys":[],"TotalKeys":0,"Block":2,"Trial":165,"Robot":2,"Valence":"Win","Action":"No-Go","Sham":0,"Color":"yellow","trial_type":"pit-trial","trial_index":181,"time_elapsed":834356,"internal_node_id":"0.0-170.0","task_version":"test-retest"},{"Rune":"rune_02_cen","Hex":"#ffcc3399","Correct":32,"Choice":-1,"RT":-1,"Accuracy":0,"Outcome":"+10","Keys":[],"TotalKeys":0,"Block":2,"Trial":166,"Robot":1,"Valence":"Win","Action":"Go","Sham":1,"Color":"yellow","trial_type":"pit-trial","trial_index":182,"time_elapsed":838361,"internal_node_id":"0.0-171.0","task_version":"test-retest"},{"Rune":"rune_02_haglaz","Hex":"#3366ff99","Correct":32,"Choice":-1,"RT":-1,"Accuracy":0,"Outcome":"-10","Keys":[],"TotalKeys":0,"Block":2,"Trial":167,"Robot":3,"Valence":"Lose","Action":"Go","Sham":0,"Color":"blue","trial_type":"pit-trial","trial_index":183,"time_elapsed":842366,"internal_node_id":"0.0-172.0","task_version":"test-retest"},{"Rune":"rune_02_raido","Hex":"#3366ff99","Correct":-1,"Choice":-1,"RT":-1,"Accuracy":1,"Outcome":"-1","Keys":[],"TotalKeys":0,"Block":2,"Trial":168,"Robot":4,"Valence":"Lose","Action":"No-Go","Sham":0,"Color":"blue","trial_type":"pit-trial","trial_index":184,"time_elapsed":846374,"internal_node_id":"0.0-173.0","task_version":"test-retest"},{"Rune":"rune_02_raido","Hex":"#3366ff99","Correct":-1,"Choice":-1,"RT":-1,"Accuracy":1,"Outcome":"-1","Keys":[],"TotalKeys":0,"Block":2,"Trial":169,"Robot":4,"Valence":"Lose","Action":"No-Go","Sham":0,"Color":"blue","trial_type":"pit-trial","trial_index":185,"time_elapsed":850379,"internal_node_id":"0.0-174.0","task_version":"test-retest"},{"Rune":"rune_02_cen","Hex":"#ffcc3399","Correct":32,"Choice":-1,"RT":-1,"Accuracy":0,"Outcome":"+1","Keys":[],"TotalKeys":0,"Block":2,"Trial":170,"Robot":1,"Valence":"Win","Action":"Go","Sham":0,"Color":"yellow","trial_type":"pit-trial","trial_index":186,"time_elapsed":854384,"internal_node_id":"0.0-175.0","task_version":"test-retest"},{"Rune":"rune_02_os","Hex":"#ffcc3399","Correct":-1,"Choice":-1,"RT":-1,"Accuracy":1,"Outcome":"+10","Keys":[],"TotalKeys":0,"Block":2,"Trial":171,"Robot":2,"Valence":"Win","Action":"No-Go","Sham":0,"Color":"yellow","trial_type":"pit-trial","trial_index":187,"time_elapsed":858391,"internal_node_id":"0.0-176.0","task_version":"test-retest"},{"Rune":"rune_02_haglaz","Hex":"#3366ff99","Correct":32,"Choice":-1,"RT":-1,"Accuracy":0,"Outcome":"-1","Keys":[],"TotalKeys":0,"Block":2,"Trial":172,"Robot":3,"Valence":"Lose","Action":"Go","Sham":1,"Color":"blue","trial_type":"pit-trial","trial_index":188,"time_elapsed":862398,"internal_node_id":"0.0-177.0","task_version":"test-retest"},{"Rune":"rune_02_os","Hex":"#ffcc3399","Correct":-1,"Choice":-1,"RT":-1,"Accuracy":1,"Outcome":"+10","Keys":[],"TotalKeys":0,"Block":2,"Trial":173,"Robot":2,"Valence":"Win","Action":"No-Go","Sham":0,"Color":"yellow","trial_type":"pit-trial","trial_index":189,"time_elapsed":866406,"internal_node_id":"0.0-178.0","task_version":"test-retest"},{"Rune":"rune_02_raido","Hex":"#3366ff99","Correct":-1,"Choice":-1,"RT":-1,"Accuracy":1,"Outcome":"-1","Keys":[],"TotalKeys":0,"Block":2,"Trial":174,"Robot":4,"Valence":"Lose","Action":"No-Go","Sham":0,"Color":"blue","trial_type":"pit-trial","trial_index":190,"time_elapsed":870413,"internal_node_id":"0.0-179.0","task_version":"test-retest"},{"Rune":"rune_02_cen","Hex":"#ffcc3399","Correct":32,"Choice":-1,"RT":-1,"Accuracy":0,"Outcome":"+1","Keys":[],"TotalKeys":0,"Block":2,"Trial":175,"Robot":1,"Valence":"Win","Action":"Go","Sham":0,"Color":"yellow","trial_type":"pit-trial","trial_index":191,"time_elapsed":874421,"internal_node_id":"0.0-180.0","task_version":"test-retest"},{"Rune":"rune_02_haglaz","Hex":"#3366ff99","Correct":32,"Choice":-1,"RT":-1,"Accuracy":0,"Outcome":"-10","Keys":[],"TotalKeys":0,"Block":2,"Trial":176,"Robot":3,"Valence":"Lose","Action":"Go","Sham":0,"Color":"blue","trial_type":"pit-trial","trial_index":192,"time_elapsed":878426,"internal_node_id":"0.0-181.0","task_version":"test-retest"},{"Rune":"rune_02_haglaz","Hex":"#3366ff99","Correct":32,"Choice":-1,"RT":-1,"Accuracy":0,"Outcome":"-10","Keys":[],"TotalKeys":0,"Block":2,"Trial":177,"Robot":3,"Valence":"Lose","Action":"Go","Sham":0,"Color":"blue","trial_type":"pit-trial","trial_index":193,"time_elapsed":882433,"internal_node_id":"0.0-182.0","task_version":"test-retest"},{"Rune":"rune_02_raido","Hex":"#3366ff99","Correct":-1,"Choice":-1,"RT":-1,"Accuracy":1,"Outcome":"-10","Keys":[],"TotalKeys":0,"Block":2,"Trial":178,"Robot":4,"Valence":"Lose","Action":"No-Go","Sham":1,"Color":"blue","trial_type":"pit-trial","trial_index":194,"time_elapsed":886441,"internal_node_id":"0.0-183.0","task_version":"test-retest"},{"Rune":"rune_02_cen","Hex":"#ffcc3399","Correct":32,"Choice":-1,"RT":-1,"Accuracy":0,"Outcome":"+1","Keys":[],"TotalKeys":0,"Block":2,"Trial":179,"Robot":1,"Valence":"Win","Action":"Go","Sham":0,"Color":"yellow","trial_type":"pit-trial","trial_index":195,"time_elapsed":890448,"internal_node_id":"0.0-184.0","task_version":"test-retest"},{"Rune":"rune_02_os","Hex":"#ffcc3399","Correct":-1,"Choice":-1,"RT":-1,"Accuracy":1,"Outcome":"+10","Keys":[],"TotalKeys":0,"Block":2,"Trial":180,"Robot":2,"Valence":"Win","Action":"No-Go","Sham":0,"Color":"yellow","trial_type":"pit-trial","trial_index":196,"time_elapsed":894455,"internal_node_id":"0.0-185.0","task_version":"test-retest"},{"view_history":"[{\"page_index\":0,\"viewing_time\":6111.205000022892},{\"page_index\":1,\"viewing_time\":4992.570000002161}]","rt":11104.290000046603,"trial_type":"pit-instructions","trial_index":197,"time_elapsed":905561,"internal_node_id":"0.0-186.0","task_version":"test-retest"},{"Rune":"rune_02_raido","Hex":"#3366ff99","Correct":-1,"Choice":-1,"RT":-1,"Accuracy":1,"Outcome":"-1","Keys":[],"TotalKeys":0,"Block":2,"Trial":181,"Robot":4,"Valence":"Lose","Action":"No-Go","Sham":0,"Color":"blue","trial_type":"pit-trial","trial_index":198,"time_elapsed":909572,"internal_node_id":"0.0-187.0","task_version":"test-retest"},{"Rune":"rune_02_haglaz","Hex":"#3366ff99","Correct":32,"Choice":32,"RT":740.15500000678,"Accuracy":1,"Outcome":"-1","Keys":[2241.7350000469014],"TotalKeys":1,"Block":2,"Trial":182,"Robot":3,"Valence":"Lose","Action":"Go","Sham":0,"Color":"blue","trial_type":"pit-trial","trial_index":199,"time_elapsed":912817,"internal_node_id":"0.0-188.0","task_version":"test-retest"},{"Rune":"rune_02_os","Hex":"#ffcc3399","Correct":-1,"Choice":-1,"RT":-1,"Accuracy":1,"Outcome":"+10","Keys":[],"TotalKeys":0,"Block":2,"Trial":183,"Robot":2,"Valence":"Win","Action":"No-Go","Sham":0,"Color":"yellow","trial_type":"pit-trial","trial_index":200,"time_elapsed":916823,"internal_node_id":"0.0-189.0","task_version":"test-retest"},{"Rune":"rune_02_cen","Hex":"#ffcc3399","Correct":32,"Choice":-1,"RT":-1,"Accuracy":0,"Outcome":"+10","Keys":[],"TotalKeys":0,"Block":2,"Trial":184,"Robot":1,"Valence":"Win","Action":"Go","Sham":1,"Color":"yellow","trial_type":"pit-trial","trial_index":201,"time_elapsed":920830,"internal_node_id":"0.0-190.0","task_version":"test-retest"},{"Rune":"rune_02_os","Hex":"#ffcc3399","Correct":-1,"Choice":-1,"RT":-1,"Accuracy":1,"Outcome":"+10","Keys":[],"TotalKeys":0,"Block":2,"Trial":185,"Robot":2,"Valence":"Win","Action":"No-Go","Sham":0,"Color":"yellow","trial_type":"pit-trial","trial_index":202,"time_elapsed":924837,"internal_node_id":"0.0-191.0","task_version":"test-retest"},{"Rune":"rune_02_raido","Hex":"#3366ff99","Correct":-1,"Choice":32,"RT":296.7549999593757,"Accuracy":0,"Outcome":"-10","Keys":[1799.9600000330247],"TotalKeys":1,"Block":2,"Trial":186,"Robot":4,"Valence":"Lose","Action":"No-Go","Sham":0,"Color":"blue","trial_type":"pit-trial","trial_index":203,"time_elapsed":927642,"internal_node_id":"0.0-192.0","task_version":"test-retest"},{"Rune":"rune_02_cen","Hex":"#ffcc3399","Correct":32,"Choice":-1,"RT":-1,"Accuracy":0,"Outcome":"+1","Keys":[],"TotalKeys":0,"Block":2,"Trial":187,"Robot":1,"Valence":"Win","Action":"Go","Sham":0,"Color":"yellow","trial_type":"pit-trial","trial_index":204,"time_elapsed":931650,"internal_node_id":"0.0-193.0","task_version":"test-retest"},{"Rune":"rune_02_haglaz","Hex":"#3366ff99","Correct":32,"Choice":32,"RT":1141.8350000167266,"Accuracy":1,"Outcome":"-1","Keys":[2641.880000010133],"TotalKeys":1,"Block":2,"Trial":188,"Robot":3,"Valence":"Lose","Action":"Go","Sham":0,"Color":"blue","trial_type":"pit-trial","trial_index":205,"time_elapsed":935297,"internal_node_id":"0.0-194.0","task_version":"test-retest"},{"Rune":"rune_02_os","Hex":"#ffcc3399","Correct":-1,"Choice":-1,"RT":-1,"Accuracy":1,"Outcome":"+1","Keys":[],"TotalKeys":0,"Block":2,"Trial":189,"Robot":2,"Valence":"Win","Action":"No-Go","Sham":1,"Color":"yellow","trial_type":"pit-trial","trial_index":206,"time_elapsed":939304,"internal_node_id":"0.0-195.0","task_version":"test-retest"},{"Rune":"rune_02_cen","Hex":"#ffcc3399","Correct":32,"Choice":-1,"RT":-1,"Accuracy":0,"Outcome":"+1","Keys":[],"TotalKeys":0,"Block":2,"Trial":190,"Robot":1,"Valence":"Win","Action":"Go","Sham":0,"Color":"yellow","trial_type":"pit-trial","trial_index":207,"time_elapsed":943311,"internal_node_id":"0.0-196.0","task_version":"test-retest"},{"Rune":"rune_02_haglaz","Hex":"#3366ff99","Correct":32,"Choice":32,"RT":638.2549999980256,"Accuracy":1,"Outcome":"-1","Keys":[2138.9100000378676],"TotalKeys":1,"Block":2,"Trial":191,"Robot":3,"Valence":"Lose","Action":"Go","Sham":0,"Color":"blue","trial_type":"pit-trial","trial_index":208,"time_elapsed":946454,"internal_node_id":"0.0-197.0","task_version":"test-retest"},{"Rune":"rune_02_raido","Hex":"#3366ff99","Correct":-1,"Choice":-1,"RT":-1,"Accuracy":1,"Outcome":"-1","Keys":[],"TotalKeys":0,"Block":2,"Trial":192,"Robot":4,"Valence":"Lose","Action":"No-Go","Sham":0,"Color":"blue","trial_type":"pit-trial","trial_index":209,"time_elapsed":950462,"internal_node_id":"0.0-198.0","task_version":"test-retest"},{"Rune":"rune_02_os","Hex":"#ffcc3399","Correct":-1,"Choice":-1,"RT":-1,"Accuracy":1,"Outcome":"+10","Keys":[],"TotalKeys":0,"Block":2,"Trial":193,"Robot":2,"Valence":"Win","Action":"No-Go","Sham":0,"Color":"yellow","trial_type":"pit-trial","trial_index":210,"time_elapsed":954468,"internal_node_id":"0.0-199.0","task_version":"test-retest"},{"Rune":"rune_02_raido","Hex":"#3366ff99","Correct":-1,"Choice":-1,"RT":-1,"Accuracy":1,"Outcome":"-10","Keys":[],"TotalKeys":0,"Block":2,"Trial":194,"Robot":4,"Valence":"Lose","Action":"No-Go","Sham":1,"Color":"blue","trial_type":"pit-trial","trial_index":211,"time_elapsed":958473,"internal_node_id":"0.0-200.0","task_version":"test-retest"},{"Rune":"rune_02_cen","Hex":"#ffcc3399","Correct":32,"Choice":-1,"RT":-1,"Accuracy":0,"Outcome":"+1","Keys":[],"TotalKeys":0,"Block":2,"Trial":195,"Robot":1,"Valence":"Win","Action":"Go","Sham":0,"Color":"yellow","trial_type":"pit-trial","trial_index":212,"time_elapsed":962478,"internal_node_id":"0.0-201.0","task_version":"test-retest"},{"Rune":"rune_02_haglaz","Hex":"#3366ff99","Correct":32,"Choice":32,"RT":413.21500000776723,"Accuracy":1,"Outcome":"-1","Keys":[1913.7050000135787],"TotalKeys":1,"Block":2,"Trial":196,"Robot":3,"Valence":"Lose","Action":"Go","Sham":0,"Color":"blue","trial_type":"pit-trial","trial_index":213,"time_elapsed":965395,"internal_node_id":"0.0-202.0","task_version":"test-retest"},{"Rune":"rune_02_os","Hex":"#ffcc3399","Correct":-1,"Choice":-1,"RT":-1,"Accuracy":1,"Outcome":"+10","Keys":[],"TotalKeys":0,"Block":2,"Trial":197,"Robot":2,"Valence":"Win","Action":"No-Go","Sham":0,"Color":"yellow","trial_type":"pit-trial","trial_index":214,"time_elapsed":969401,"internal_node_id":"0.0-203.0","task_version":"test-retest"},{"Rune":"rune_02_cen","Hex":"#ffcc3399","Correct":32,"Choice":-1,"RT":-1,"Accuracy":0,"Outcome":"+1","Keys":[],"TotalKeys":0,"Block":2,"Trial":198,"Robot":1,"Valence":"Win","Action":"Go","Sham":0,"Color":"yellow","trial_type":"pit-trial","trial_index":215,"time_elapsed":973408,"internal_node_id":"0.0-204.0","task_version":"test-retest"},{"Rune":"rune_02_haglaz","Hex":"#3366ff99","Correct":32,"Choice":32,"RT":435.17999997129664,"Accuracy":1,"Outcome":"-10","Keys":[1938.7449999921955],"TotalKeys":1,"Block":2,"Trial":199,"Robot":3,"Valence":"Lose","Action":"Go","Sham":1,"Color":"blue","trial_type":"pit-trial","trial_index":216,"time_elapsed":976350,"internal_node_id":"0.0-205.0","task_version":"test-retest"},{"Rune":"rune_02_raido","Hex":"#3366ff99","Correct":-1,"Choice":-1,"RT":-1,"Accuracy":1,"Outcome":"-1","Keys":[],"TotalKeys":0,"Block":2,"Trial":200,"Robot":4,"Valence":"Lose","Action":"No-Go","Sham":0,"Color":"blue","trial_type":"pit-trial","trial_index":217,"time_elapsed":980355,"internal_node_id":"0.0-206.0","task_version":"test-retest"},{"Rune":"rune_02_os","Hex":"#ffcc3399","Correct":-1,"Choice":-1,"RT":-1,"Accuracy":1,"Outcome":"+10","Keys":[],"TotalKeys":0,"Block":2,"Trial":201,"Robot":2,"Valence":"Win","Action":"No-Go","Sham":0,"Color":"yellow","trial_type":"pit-trial","trial_index":218,"time_elapsed":984360,"internal_node_id":"0.0-207.0","task_version":"test-retest"},{"Rune":"rune_02_cen","Hex":"#ffcc3399","Correct":32,"Choice":-1,"RT":-1,"Accuracy":0,"Outcome":"+1","Keys":[],"TotalKeys":0,"Block":2,"Trial":202,"Robot":1,"Valence":"Win","Action":"Go","Sham":0,"Color":"yellow","trial_type":"pit-trial","trial_index":219,"time_elapsed":988366,"internal_node_id":"0.0-208.0","task_version":"test-retest"},{"Rune":"rune_02_raido","Hex":"#3366ff99","Correct":-1,"Choice":-1,"RT":-1,"Accuracy":1,"Outcome":"-10","Keys":[],"TotalKeys":0,"Block":2,"Trial":203,"Robot":4,"Valence":"Lose","Action":"No-Go","Sham":1,"Color":"blue","trial_type":"pit-trial","trial_index":220,"time_elapsed":992373,"internal_node_id":"0.0-209.0","task_version":"test-retest"},{"Rune":"rune_02_haglaz","Hex":"#3366ff99","Correct":32,"Choice":32,"RT":476.52000002563,"Accuracy":1,"Outcome":"-1","Keys":[1979.1499999701045],"TotalKeys":1,"Block":2,"Trial":204,"Robot":3,"Valence":"Lose","Action":"Go","Sham":0,"Color":"blue","trial_type":"pit-trial","trial_index":221,"time_elapsed":995355,"internal_node_id":"0.0-210.0","task_version":"test-retest"},{"Rune":"rune_02_haglaz","Hex":"#3366ff99","Correct":32,"Choice":32,"RT":425.0250000040978,"Accuracy":1,"Outcome":"-1","Keys":[1925.4649999784306],"TotalKeys":1,"Block":2,"Trial":205,"Robot":3,"Valence":"Lose","Action":"Go","Sham":0,"Color":"blue","trial_type":"pit-trial","trial_index":222,"time_elapsed":998285,"internal_node_id":"0.0-211.0","task_version":"test-retest"},{"Rune":"rune_02_raido","Hex":"#3366ff99","Correct":-1,"Choice":-1,"RT":-1,"Accuracy":1,"Outcome":"-1","Keys":[],"TotalKeys":0,"Block":2,"Trial":206,"Robot":4,"Valence":"Lose","Action":"No-Go","Sham":0,"Color":"blue","trial_type":"pit-trial","trial_index":223,"time_elapsed":1002293,"internal_node_id":"0.0-212.0","task_version":"test-retest"},{"Rune":"rune_02_cen","Hex":"#ffcc3399","Correct":32,"Choice":-1,"RT":-1,"Accuracy":0,"Outcome":"+10","Keys":[],"TotalKeys":0,"Block":2,"Trial":207,"Robot":1,"Valence":"Win","Action":"Go","Sham":1,"Color":"yellow","trial_type":"pit-trial","trial_index":224,"time_elapsed":1006300,"internal_node_id":"0.0-213.0","task_version":"test-retest"},{"Rune":"rune_02_os","Hex":"#ffcc3399","Correct":-1,"Choice":-1,"RT":-1,"Accuracy":1,"Outcome":"+10","Keys":[],"TotalKeys":0,"Block":2,"Trial":208,"Robot":2,"Valence":"Win","Action":"No-Go","Sham":0,"Color":"yellow","trial_type":"pit-trial","trial_index":225,"time_elapsed":1010307,"internal_node_id":"0.0-214.0","task_version":"test-retest"},{"Rune":"rune_02_raido","Hex":"#3366ff99","Correct":-1,"Choice":-1,"RT":-1,"Accuracy":1,"Outcome":"-1","Keys":[],"TotalKeys":0,"Block":2,"Trial":209,"Robot":4,"Valence":"Lose","Action":"No-Go","Sham":0,"Color":"blue","trial_type":"pit-trial","trial_index":226,"time_elapsed":1014315,"internal_node_id":"0.0-215.0","task_version":"test-retest"},{"Rune":"rune_02_cen","Hex":"#ffcc3399","Correct":32,"Choice":-1,"RT":-1,"Accuracy":0,"Outcome":"+1","Keys":[],"TotalKeys":0,"Block":2,"Trial":210,"Robot":1,"Valence":"Win","Action":"Go","Sham":0,"Color":"yellow","trial_type":"pit-trial","trial_index":227,"time_elapsed":1018324,"internal_node_id":"0.0-216.0","task_version":"test-retest"},{"Rune":"rune_02_haglaz","Hex":"#3366ff99","Correct":32,"Choice":32,"RT":963.8050000066869,"Accuracy":1,"Outcome":"-1","Keys":[2464.23500002129],"TotalKeys":1,"Block":2,"Trial":211,"Robot":3,"Valence":"Lose","Action":"Go","Sham":0,"Color":"blue","trial_type":"pit-trial","trial_index":228,"time_elapsed":1021792,"internal_node_id":"0.0-217.0","task_version":"test-retest"},{"Rune":"rune_02_os","Hex":"#ffcc3399","Correct":-1,"Choice":-1,"RT":-1,"Accuracy":1,"Outcome":"+10","Keys":[],"TotalKeys":0,"Block":2,"Trial":212,"Robot":2,"Valence":"Win","Action":"No-Go","Sham":0,"Color":"yellow","trial_type":"pit-trial","trial_index":229,"time_elapsed":1025799,"internal_node_id":"0.0-218.0","task_version":"test-retest"},{"Rune":"rune_02_os","Hex":"#ffcc3399","Correct":-1,"Choice":-1,"RT":-1,"Accuracy":1,"Outcome":"+1","Keys":[],"TotalKeys":0,"Block":2,"Trial":213,"Robot":2,"Valence":"Win","Action":"No-Go","Sham":1,"Color":"yellow","trial_type":"pit-trial","trial_index":230,"time_elapsed":1029804,"internal_node_id":"0.0-219.0","task_version":"test-retest"},{"Rune":"rune_02_haglaz","Hex":"#3366ff99","Correct":32,"Choice":32,"RT":379.63999999919906,"Accuracy":1,"Outcome":"-1","Keys":[1879.7749999794178],"TotalKeys":1,"Block":2,"Trial":214,"Robot":3,"Valence":"Lose","Action":"Go","Sham":0,"Color":"blue","trial_type":"pit-trial","trial_index":231,"time_elapsed":1032689,"internal_node_id":"0.0-220.0","task_version":"test-retest"},{"Rune":"rune_02_cen","Hex":"#ffcc3399","Correct":32,"Choice":-1,"RT":-1,"Accuracy":0,"Outcome":"+1","Keys":[],"TotalKeys":0,"Block":2,"Trial":215,"Robot":1,"Valence":"Win","Action":"Go","Sham":0,"Color":"yellow","trial_type":"pit-trial","trial_index":232,"time_elapsed":1036697,"internal_node_id":"0.0-221.0","task_version":"test-retest"},{"Rune":"rune_02_raido","Hex":"#3366ff99","Correct":-1,"Choice":-1,"RT":-1,"Accuracy":1,"Outcome":"-1","Keys":[],"TotalKeys":0,"Block":2,"Trial":216,"Robot":4,"Valence":"Lose","Action":"No-Go","Sham":0,"Color":"blue","trial_type":"pit-trial","trial_index":233,"time_elapsed":1040702,"internal_node_id":"0.0-222.0","task_version":"test-retest"},{"Rune":"rune_02_os","Hex":"#ffcc3399","Correct":-1,"Choice":-1,"RT":-1,"Accuracy":1,"Outcome":"+10","Keys":[],"TotalKeys":0,"Block":2,"Trial":217,"Robot":2,"Valence":"Win","Action":"No-Go","Sham":0,"Color":"yellow","trial_type":"pit-trial","trial_index":234,"time_elapsed":1044709,"internal_node_id":"0.0-223.0","task_version":"test-retest"},{"Rune":"rune_02_raido","Hex":"#3366ff99","Correct":-1,"Choice":-1,"RT":-1,"Accuracy":1,"Outcome":"-1","Keys":[],"TotalKeys":0,"Block":2,"Trial":218,"Robot":4,"Valence":"Lose","Action":"No-Go","Sham":0,"Color":"blue","trial_type":"pit-trial","trial_index":235,"time_elapsed":1048717,"internal_node_id":"0.0-224.0","task_version":"test-retest"},{"Rune":"rune_02_haglaz","Hex":"#3366ff99","Correct":32,"Choice":32,"RT":294.6599999559112,"Accuracy":1,"Outcome":"-10","Keys":[1794.8749999632128],"TotalKeys":1,"Block":2,"Trial":219,"Robot":3,"Valence":"Lose","Action":"Go","Sham":1,"Color":"blue","trial_type":"pit-trial","trial_index":236,"time_elapsed":1051514,"internal_node_id":"0.0-225.0","task_version":"test-retest"},{"Rune":"rune_02_cen","Hex":"#ffcc3399","Correct":32,"Choice":-1,"RT":-1,"Accuracy":0,"Outcome":"+1","Keys":[],"TotalKeys":0,"Block":2,"Trial":220,"Robot":1,"Valence":"Win","Action":"Go","Sham":0,"Color":"yellow","trial_type":"pit-trial","trial_index":237,"time_elapsed":1055519,"internal_node_id":"0.0-226.0","task_version":"test-retest"},{"Rune":"rune_02_cen","Hex":"#ffcc3399","Correct":32,"Choice":-1,"RT":-1,"Accuracy":0,"Outcome":"+1","Keys":[],"TotalKeys":0,"Block":2,"Trial":221,"Robot":1,"Valence":"Win","Action":"Go","Sham":0,"Color":"yellow","trial_type":"pit-trial","trial_index":238,"time_elapsed":1059524,"internal_node_id":"0.0-227.0","task_version":"test-retest"},{"Rune":"rune_02_haglaz","Hex":"#3366ff99","Correct":32,"Choice":32,"RT":834.8250000271946,"Accuracy":1,"Outcome":"-1","Keys":[2336.4799999981187],"TotalKeys":1,"Block":2,"Trial":222,"Robot":3,"Valence":"Lose","Action":"Go","Sham":0,"Color":"blue","trial_type":"pit-trial","trial_index":239,"time_elapsed":1062864,"internal_node_id":"0.0-228.0","task_version":"test-retest"},{"Rune":"rune_02_raido","Hex":"#3366ff99","Correct":-1,"Choice":-1,"RT":-1,"Accuracy":1,"Outcome":"-1","Keys":[],"TotalKeys":0,"Block":2,"Trial":223,"Robot":4,"Valence":"Lose","Action":"No-Go","Sham":0,"Color":"blue","trial_type":"pit-trial","trial_index":240,"time_elapsed":1066869,"internal_node_id":"0.0-229.0","task_version":"test-retest"},{"Rune":"rune_02_os","Hex":"#ffcc3399","Correct":-1,"Choice":-1,"RT":-1,"Accuracy":1,"Outcome":"+10","Keys":[],"TotalKeys":0,"Block":2,"Trial":224,"Robot":2,"Valence":"Win","Action":"No-Go","Sham":0,"Color":"yellow","trial_type":"pit-trial","trial_index":241,"time_elapsed":1070876,"internal_node_id":"0.0-230.0","task_version":"test-retest"},{"Rune":"rune_02_os","Hex":"#ffcc3399","Correct":-1,"Choice":-1,"RT":-1,"Accuracy":1,"Outcome":"+10","Keys":[],"TotalKeys":0,"Block":2,"Trial":225,"Robot":2,"Valence":"Win","Action":"No-Go","Sham":0,"Color":"yellow","trial_type":"pit-trial","trial_index":242,"time_elapsed":1074882,"internal_node_id":"0.0-231.0","task_version":"test-retest"},{"Rune":"rune_02_cen","Hex":"#ffcc3399","Correct":32,"Choice":-1,"RT":-1,"Accuracy":0,"Outcome":"+10","Keys":[],"TotalKeys":0,"Block":2,"Trial":226,"Robot":1,"Valence":"Win","Action":"Go","Sham":1,"Color":"yellow","trial_type":"pit-trial","trial_index":243,"time_elapsed":1078890,"internal_node_id":"0.0-232.0","task_version":"test-retest"},{"Rune":"rune_02_raido","Hex":"#3366ff99","Correct":-1,"Choice":-1,"RT":-1,"Accuracy":1,"Outcome":"-1","Keys":[],"TotalKeys":0,"Block":2,"Trial":227,"Robot":4,"Valence":"Lose","Action":"No-Go","Sham":0,"Color":"blue","trial_type":"pit-trial","trial_index":244,"time_elapsed":1082895,"internal_node_id":"0.0-233.0","task_version":"test-retest"},{"Rune":"rune_02_haglaz","Hex":"#3366ff99","Correct":32,"Choice":32,"RT":478.1249999650754,"Accuracy":1,"Outcome":"-1","Keys":[1978.6249999888241],"TotalKeys":1,"Block":2,"Trial":228,"Robot":3,"Valence":"Lose","Action":"Go","Sham":0,"Color":"blue","trial_type":"pit-trial","trial_index":245,"time_elapsed":1085877,"internal_node_id":"0.0-234.0","task_version":"test-retest"},{"Rune":"rune_02_cen","Hex":"#ffcc3399","Correct":32,"Choice":-1,"RT":-1,"Accuracy":0,"Outcome":"+1","Keys":[],"TotalKeys":0,"Block":2,"Trial":229,"Robot":1,"Valence":"Win","Action":"Go","Sham":0,"Color":"yellow","trial_type":"pit-trial","trial_index":246,"time_elapsed":1089883,"internal_node_id":"0.0-235.0","task_version":"test-retest"},{"Rune":"rune_02_haglaz","Hex":"#3366ff99","Correct":32,"Choice":32,"RT":472.7299999794923,"Accuracy":1,"Outcome":"-1","Keys":[1974.690000002738],"TotalKeys":1,"Block":2,"Trial":230,"Robot":3,"Valence":"Lose","Action":"Go","Sham":0,"Color":"blue","trial_type":"pit-trial","trial_index":247,"time_elapsed":1092862,"internal_node_id":"0.0-236.0","task_version":"test-retest"},{"Rune":"rune_02_os","Hex":"#ffcc3399","Correct":-1,"Choice":-1,"RT":-1,"Accuracy":1,"Outcome":"+10","Keys":[],"TotalKeys":0,"Block":2,"Trial":231,"Robot":2,"Valence":"Win","Action":"No-Go","Sham":0,"Color":"yellow","trial_type":"pit-trial","trial_index":248,"time_elapsed":1096868,"internal_node_id":"0.0-237.0","task_version":"test-retest"},{"Rune":"rune_02_raido","Hex":"#3366ff99","Correct":-1,"Choice":-1,"RT":-1,"Accuracy":1,"Outcome":"-10","Keys":[],"TotalKeys":0,"Block":2,"Trial":232,"Robot":4,"Valence":"Lose","Action":"No-Go","Sham":1,"Color":"blue","trial_type":"pit-trial","trial_index":249,"time_elapsed":1100873,"internal_node_id":"0.0-238.0","task_version":"test-retest"},{"Rune":"rune_02_haglaz","Hex":"#3366ff99","Correct":32,"Choice":32,"RT":439.52999997418374,"Accuracy":1,"Outcome":"-10","Keys":[1941.3199999835342],"TotalKeys":1,"Block":2,"Trial":233,"Robot":3,"Valence":"Lose","Action":"Go","Sham":1,"Color":"blue","trial_type":"pit-trial","trial_index":250,"time_elapsed":1103820,"internal_node_id":"0.0-239.0","task_version":"test-retest"},{"Rune":"rune_02_cen","Hex":"#ffcc3399","Correct":32,"Choice":-1,"RT":-1,"Accuracy":0,"Outcome":"+1","Keys":[],"TotalKeys":0,"Block":2,"Trial":234,"Robot":1,"Valence":"Win","Action":"Go","Sham":0,"Color":"yellow","trial_type":"pit-trial","trial_index":251,"time_elapsed":1107828,"internal_node_id":"0.0-240.0","task_version":"test-retest"},{"Rune":"rune_02_os","Hex":"#ffcc3399","Correct":-1,"Choice":-1,"RT":-1,"Accuracy":1,"Outcome":"+1","Keys":[],"TotalKeys":0,"Block":2,"Trial":235,"Robot":2,"Valence":"Win","Action":"No-Go","Sham":1,"Color":"yellow","trial_type":"pit-trial","trial_index":252,"time_elapsed":1111835,"internal_node_id":"0.0-241.0","task_version":"test-retest"},{"Rune":"rune_02_raido","Hex":"#3366ff99","Correct":-1,"Choice":-1,"RT":-1,"Accuracy":1,"Outcome":"-1","Keys":[],"TotalKeys":0,"Block":2,"Trial":236,"Robot":4,"Valence":"Lose","Action":"No-Go","Sham":0,"Color":"blue","trial_type":"pit-trial","trial_index":253,"time_elapsed":1115842,"internal_node_id":"0.0-242.0","task_version":"test-retest"},{"Rune":"rune_02_haglaz","Hex":"#3366ff99","Correct":32,"Choice":32,"RT":386.50500000221655,"Accuracy":1,"Outcome":"-1","Keys":[1886.9900000281632],"TotalKeys":1,"Block":2,"Trial":237,"Robot":3,"Valence":"Lose","Action":"Go","Sham":0,"Color":"blue","trial_type":"pit-trial","trial_index":254,"time_elapsed":1118732,"internal_node_id":"0.0-243.0","task_version":"test-retest"},{"Rune":"rune_02_raido","Hex":"#3366ff99","Correct":-1,"Choice":-1,"RT":-1,"Accuracy":1,"Outcome":"-1","Keys":[],"TotalKeys":0,"Block":2,"Trial":238,"Robot":4,"Valence":"Lose","Action":"No-Go","Sham":0,"Color":"blue","trial_type":"pit-trial","trial_index":255,"time_elapsed":1122737,"internal_node_id":"0.0-244.0","task_version":"test-retest"},{"Rune":"rune_02_cen","Hex":"#ffcc3399","Correct":32,"Choice":-1,"RT":-1,"Accuracy":0,"Outcome":"+1","Keys":[],"TotalKeys":0,"Block":2,"Trial":239,"Robot":1,"Valence":"Win","Action":"Go","Sham":0,"Color":"yellow","trial_type":"pit-trial","trial_index":256,"time_elapsed":1126744,"internal_node_id":"0.0-245.0","task_version":"test-retest"},{"Rune":"rune_02_os","Hex":"#ffcc3399","Correct":-1,"Choice":-1,"RT":-1,"Accuracy":1,"Outcome":"+10","Keys":[],"TotalKeys":0,"Block":2,"Trial":240,"Robot":2,"Valence":"Win","Action":"No-Go","Sham":0,"Color":"yellow","trial_type":"pit-trial","trial_index":257,"time_elapsed":1130749,"internal_node_id":"0.0-246.0","task_version":"test-retest"},{"view_history":"[{\"page_index\":0,\"viewing_time\":13667.774999979883}]","rt":13668.370000028517,"trial_type":"pit-instructions","trial_index":258,"time_elapsed":1144421,"internal_node_id":"0.0-247.0","task_version":"test-retest"},{"responses":{"Q10":"0","Q13":"1","Q02":"0","Q04":"0","Q14":"0","Q06":"0","Q05":"0","Q11":"0","Q09":"0","Q15":"0","Q12":"0","Q07":"0","Q08":"0","Q01":"0","Q03":"0"},"rt":124957.77499995893,"survey":"7up7down","trial_type":"survey-template","trial_index":259,"time_elapsed":1269393,"internal_node_id":"0.0-248.0","task_version":"test-retest"},{"responses":{"Q03":"2","Q10":"2","Q09":"2","Q12":"2","Q04":"2","Q13":"0","Q07":"3","Q06":"2","Q11":"2","Q08":"2","Q01":"2","Q02":"2","Q05":"3"},"rt":44952.095000015106,"survey":"bisbas","trial_type":"survey-template","trial_index":260,"time_elapsed":1314350,"internal_node_id":"0.0-249.0","task_version":"test-retest"},{"responses":{"Q04":"0","Q02":"0","Q07":"0","Q06":"0","Q08":"0","Q05":"0","Q01":"0","Q03":"0"},"rt":8613.659999973606,"survey":"gad7","trial_type":"survey-template","trial_index":261,"time_elapsed":1322968,"internal_node_id":"0.0-250.0","task_version":"test-retest"},{"rt":9283.269999956246,"responses":{"age":"45","gender-categorical":"Male","gender-free-response":"","ethnicity":"Not Hispanic or Latino","race":"White","language":"Yes","fluency":"Very well"},"survey":"demographics","trial_type":"survey-demo","trial_index":262,"time_elapsed":1332256,"internal_node_id":"0.0-251.0","task_version":"test-retest"},{"rt":10917.859999986831,"responses":{"difficulty":"5","fun":"4","clarity":"5","strategy":"no","feedback":"no"},"survey":"debrief","trial_type":"survey-debrief","trial_index":263,"time_elapsed":1343178,"internal_node_id":"0.0-252.0","task_version":"test-retest"},{"rt":4179.9799999571405,"stimulus":"You earned a bonus of $0.84 out of $1.5.<br><br>Press any key to complete the experiment.","key_press":32,"trial_type":"html-keyboard-response","trial_index":264,"time_elapsed":1347362,"internal_node_id":"0.0-253.0","task_version":"test-retest","accuracy":0.5583333333333333,"bonus":0.84,"interactions":"[]"}]