[{"slider_type":"valence","raw_loc":693,"loc":0.886,"trial_type":"affective-slider","trial_index":0,"time_elapsed":9760,"internal_node_id":"0.0-0.0","task_version":"test-retest"},{"view_history":"[{\"page_index\":0,\"viewing_time\":6432.245000032708},{\"page_index\":1,\"viewing_time\":6622.489999979734},{\"page_index\":2,\"viewing_time\":9590.71000001859},{\"page_index\":3,\"viewing_time\":11542.8949999623},{\"page_index\":4,\"viewing_time\":13638.43499997165}]","rt":47829.20999999624,"trial_type":"pit-instructions","trial_index":1,"time_elapsed":57595,"internal_node_id":"0.0-1.0-0.0","task_version":"test-retest"},{"Rune":"rune_00_ingz","Hex":"#FFFFF080","Correct":32,"Choice":32,"RT":991.3850000593811,"Accuracy":1,"Outcome":"+10","Keys":[2492.904999991879],"TotalKeys":1,"Block":0,"Action":"Go","trial_type":"pit-trial","trial_index":2,"time_elapsed":61101,"internal_node_id":"0.0-1.0-1.0-0.0","task_version":"test-retest"},{"Rune":"rune_00_ingz","Hex":"#FFFFF080","Correct":32,"Choice":32,"RT":828.7349999882281,"Accuracy":1,"Outcome":"+10","Keys":[2328.48499994725],"TotalKeys":1,"Block":0,"Action":"Go","trial_type":"pit-trial","trial_index":3,"time_elapsed":64439,"internal_node_id":"0.0-1.0-1.0-0.1","task_version":"test-retest"},{"Rune":"rune_00_ingz","Hex":"#FFFFF080","Correct":32,"Choice":32,"RT":845.7899999339134,"Accuracy":1,"Outcome":"+10","Keys":[2345.8899999968708],"TotalKeys":1,"Block":0,"Action":"Go","trial_type":"pit-trial","trial_index":4,"time_elapsed":67792,"internal_node_id":"0.0-1.0-1.0-0.2","task_version":"test-retest"},{"Rune":"rune_00_ingz","Hex":"#FFFFF080","Correct":32,"Choice":32,"RT":906.429999973625,"Accuracy":1,"Outcome":"+10","Keys":[2406.940000015311],"TotalKeys":1,"Block":0,"Action":"Go","trial_type":"pit-trial","trial_index":5,"time_elapsed":71215,"internal_node_id":"0.0-1.0-1.0-0.3","task_version":"test-retest"},{"view_history":"[{\"page_index\":0,\"viewing_time\":6195.560000021942}]","rt":6196.564999991097,"trial_type":"pit-instructions","trial_index":6,"time_elapsed":77414,"internal_node_id":"0.0-1.0-2.0","task_version":"test-retest"},{"Rune":"rune_00_isaz","Hex":"#FFFFF080","Correct":-1,"Choice":-1,"RT":-1,"Accuracy":1,"Outcome":"+10","Keys":[],"TotalKeys":0,"Block":0,"Action":"No-Go","trial_type":"pit-trial","trial_index":7,"time_elapsed":81420,"internal_node_id":"0.0-1.0-3.0-0.0","task_version":"test-retest"},{"Rune":"rune_00_isaz","Hex":"#FFFFF080","Correct":-1,"Choice":-1,"RT":-1,"Accuracy":1,"Outcome":"+10","Keys":[],"TotalKeys":0,"Block":0,"Action":"No-Go","trial_type":"pit-trial","trial_index":8,"time_elapsed":85426,"internal_node_id":"0.0-1.0-3.0-0.1","task_version":"test-retest"},{"Rune":"rune_00_isaz","Hex":"#FFFFF080","Correct":-1,"Choice":-1,"RT":-1,"Accuracy":1,"Outcome":"+10","Keys":[],"TotalKeys":0,"Block":0,"Action":"No-Go","trial_type":"pit-trial","trial_index":9,"time_elapsed":89433,"internal_node_id":"0.0-1.0-3.0-0.2","task_version":"test-retest"},{"Rune":"rune_00_isaz","Hex":"#FFFFF080","Correct":-1,"Choice":-1,"RT":-1,"Accuracy":1,"Outcome":"+10","Keys":[],"TotalKeys":0,"Block":0,"Action":"No-Go","trial_type":"pit-trial","trial_index":10,"time_elapsed":93439,"internal_node_id":"0.0-1.0-3.0-0.3","task_version":"test-retest"},{"view_history":"[{\"page_index\":0,\"viewing_time\":7679.830000037327},{\"page_index\":1,\"viewing_time\":14741.730000008829},{\"page_index\":2,\"viewing_time\":11143.089999910444},{\"page_index\":3,\"viewing_time\":7494.790000026114},{\"page_index\":4,\"viewing_time\":5351.630000048317},{\"page_index\":5,\"viewing_time\":10558.224999927916},{\"page_index\":6,\"viewing_time\":21116.890000062995},{\"page_index\":7,\"viewing_time\":6999.124999972992}]","rt":85086.37000003364,"trial_type":"pit-instructions","trial_index":11,"time_elapsed":178530,"internal_node_id":"0.0-1.0-4.0","task_version":"test-retest"},{"responses":["Do nothing","+10","-10","True","Yes"],"num_errors":1,"rt":21199.12000000477,"trial_type":"pit-comprehension","trial_index":12,"time_elapsed":199740,"internal_node_id":"0.0-1.0-5.0","task_version":"test-retest"},{"view_history":"[{\"page_index\":0,\"viewing_time\":3662.045000004582},{\"page_index\":1,\"viewing_time\":6926.879999926314}]","rt":10589.949999935925,"trial_type":"pit-instructions","trial_index":13,"time_elapsed":210341,"internal_node_id":"0.0-2.0","task_version":"test-retest"},{"Rune":"rune_02_raido","Hex":"#3366ff99","Correct":32,"Choice":32,"RT":798.5300000291318,"Accuracy":1,"Outcome":"-10","Keys":[2299.6049999492243],"TotalKeys":1,"Block":1,"Trial":1,"Robot":3,"Valence":"Lose","Action":"Go","Sham":1,"Color":"blue","trial_type":"pit-trial","trial_index":14,"time_elapsed":213655,"internal_node_id":"0.0-3.0","task_version":"test-retest"},{"Rune":"rune_02_haglaz","Hex":"#3366ff99","Correct":-1,"Choice":32,"RT":837.4450000701472,"Accuracy":0,"Outcome":"-10","Keys":[2338.4899999946356],"TotalKeys":1,"Block":1,"Trial":2,"Robot":4,"Valence":"Lose","Action":"No-Go","Sham":0,"Color":"blue","trial_type":"pit-trial","trial_index":15,"time_elapsed":216999,"internal_node_id":"0.0-4.0","task_version":"test-retest"},{"Rune":"rune_02_os","Hex":"#ffcc3399","Correct":-1,"Choice":32,"RT":740.1499999687076,"Accuracy":0,"Outcome":"+1","Keys":[2242.4850000534207],"TotalKeys":1,"Block":1,"Trial":3,"Robot":2,"Valence":"Win","Action":"No-Go","Sham":0,"Color":"yellow","trial_type":"pit-trial","trial_index":16,"time_elapsed":220248,"internal_node_id":"0.0-5.0","task_version":"test-retest"},{"Rune":"rune_02_cen","Hex":"#ffcc3399","Correct":32,"Choice":32,"RT":435.3750000009313,"Accuracy":1,"Outcome":"+10","Keys":[1936.9449999649078],"TotalKeys":1,"Block":1,"Trial":4,"Robot":1,"Valence":"Win","Action":"Go","Sham":0,"Color":"yellow","trial_type":"pit-trial","trial_index":17,"time_elapsed":223191,"internal_node_id":"0.0-6.0","task_version":"test-retest"},{"Rune":"rune_02_cen","Hex":"#ffcc3399","Correct":32,"Choice":32,"RT":364.2150000669062,"Accuracy":1,"Outcome":"+10","Keys":[1865.2599999913946],"TotalKeys":1,"Block":1,"Trial":5,"Robot":1,"Valence":"Win","Action":"Go","Sham":0,"Color":"yellow","trial_type":"pit-trial","trial_index":18,"time_elapsed":226063,"internal_node_id":"0.0-7.0","task_version":"test-retest"},{"Rune":"rune_02_os","Hex":"#ffcc3399","Correct":-1,"Choice":32,"RT":373.96500003524125,"Accuracy":0,"Outcome":"+1","Keys":[1874.045000062324],"TotalKeys":1,"Block":1,"Trial":6,"Robot":2,"Valence":"Win","Action":"No-Go","Sham":0,"Color":"yellow","trial_type":"pit-trial","trial_index":19,"time_elapsed":228944,"internal_node_id":"0.0-8.0","task_version":"test-retest"},{"Rune":"rune_02_raido","Hex":"#3366ff99","Correct":32,"Choice":32,"RT":564.5399999339134,"Accuracy":1,"Outcome":"-1","Keys":[2064.619999960996],"TotalKeys":1,"Block":1,"Trial":7,"Robot":3,"Valence":"Lose","Action":"Go","Sham":0,"Color":"blue","trial_type":"pit-trial","trial_index":20,"time_elapsed":232015,"internal_node_id":"0.0-9.0","task_version":"test-retest"},{"Rune":"rune_02_haglaz","Hex":"#3366ff99","Correct":-1,"Choice":-1,"RT":-1,"Accuracy":1,"Outcome":"-1","Keys":[],"TotalKeys":0,"Block":1,"Trial":8,"Robot":4,"Valence":"Lose","Action":"No-Go","Sham":0,"Color":"blue","trial_type":"pit-trial","trial_index":21,"time_elapsed":236023,"internal_node_id":"0.0-10.0","task_version":"test-retest"},{"Rune":"rune_02_os","Hex":"#ffcc3399","Correct":-1,"Choice":32,"RT":556.3250000122935,"Accuracy":0,"Outcome":"+1","Keys":[2057.329999981448],"TotalKeys":1,"Block":1,"Trial":9,"Robot":2,"Valence":"Win","Action":"No-Go","Sham":0,"Color":"yellow","trial_type":"pit-trial","trial_index":22,"time_elapsed":239087,"internal_node_id":"0.0-11.0","task_version":"test-retest"},{"Rune":"rune_02_cen","Hex":"#ffcc3399","Correct":32,"Choice":32,"RT":500.2450000029057,"Accuracy":1,"Outcome":"+10","Keys":[2001.4300000621006],"TotalKeys":1,"Block":1,"Trial":10,"Robot":1,"Valence":"Win","Action":"Go","Sham":0,"Color":"yellow","trial_type":"pit-trial","trial_index":23,"time_elapsed":242095,"internal_node_id":"0.0-12.0","task_version":"test-retest"},{"Rune":"rune_02_haglaz","Hex":"#3366ff99","Correct":-1,"Choice":-1,"RT":-1,"Accuracy":1,"Outcome":"-10","Keys":[],"TotalKeys":0,"Block":1,"Trial":11,"Robot":4,"Valence":"Lose","Action":"No-Go","Sham":1,"Color":"blue","trial_type":"pit-trial","trial_index":24,"time_elapsed":246105,"internal_node_id":"0.0-13.0","task_version":"test-retest"},{"Rune":"rune_02_raido","Hex":"#3366ff99","Correct":32,"Choice":-1,"RT":-1,"Accuracy":0,"Outcome":"-10","Keys":[],"TotalKeys":0,"Block":1,"Trial":12,"Robot":3,"Valence":"Lose","Action":"Go","Sham":0,"Color":"blue","trial_type":"pit-trial","trial_index":25,"time_elapsed":250113,"internal_node_id":"0.0-14.0","task_version":"test-retest"},{"Rune":"rune_02_haglaz","Hex":"#3366ff99","Correct":-1,"Choice":-1,"RT":-1,"Accuracy":1,"Outcome":"-1","Keys":[],"TotalKeys":0,"Block":1,"Trial":13,"Robot":4,"Valence":"Lose","Action":"No-Go","Sham":0,"Color":"blue","trial_type":"pit-trial","trial_index":26,"time_elapsed":254120,"internal_node_id":"0.0-15.0","task_version":"test-retest"},{"Rune":"rune_02_cen","Hex":"#ffcc3399","Correct":32,"Choice":32,"RT":578.2050000270829,"Accuracy":1,"Outcome":"+1","Keys":[2080.160000012256],"TotalKeys":1,"Block":1,"Trial":14,"Robot":1,"Valence":"Win","Action":"Go","Sham":1,"Color":"yellow","trial_type":"pit-trial","trial_index":27,"time_elapsed":257207,"internal_node_id":"0.0-16.0","task_version":"test-retest"},{"Rune":"rune_02_raido","Hex":"#3366ff99","Correct":32,"Choice":-1,"RT":-1,"Accuracy":0,"Outcome":"-10","Keys":[],"TotalKeys":0,"Block":1,"Trial":15,"Robot":3,"Valence":"Lose","Action":"Go","Sham":0,"Color":"blue","trial_type":"pit-trial","trial_index":28,"time_elapsed":261217,"internal_node_id":"0.0-17.0","task_version":"test-retest"},{"Rune":"rune_02_os","Hex":"#ffcc3399","Correct":-1,"Choice":32,"RT":609.6100000431761,"Accuracy":0,"Outcome":"+10","Keys":[2110.035000019707],"TotalKeys":1,"Block":1,"Trial":16,"Robot":2,"Valence":"Win","Action":"No-Go","Sham":1,"Color":"yellow","trial_type":"pit-trial","trial_index":29,"time_elapsed":264337,"internal_node_id":"0.0-18.0","task_version":"test-retest"},{"Rune":"rune_02_haglaz","Hex":"#3366ff99","Correct":-1,"Choice":-1,"RT":-1,"Accuracy":1,"Outcome":"-1","Keys":[],"TotalKeys":0,"Block":1,"Trial":17,"Robot":4,"Valence":"Lose","Action":"No-Go","Sham":0,"Color":"blue","trial_type":"pit-trial","trial_index":30,"time_elapsed":268346,"internal_node_id":"0.0-19.0","task_version":"test-retest"},{"Rune":"rune_02_cen","Hex":"#ffcc3399","Correct":32,"Choice":32,"RT":436.530000064522,"Accuracy":1,"Outcome":"+10","Keys":[1937.114999978803],"TotalKeys":1,"Block":1,"Trial":18,"Robot":1,"Valence":"Win","Action":"Go","Sham":0,"Color":"yellow","trial_type":"pit-trial","trial_index":31,"time_elapsed":271296,"internal_node_id":"0.0-20.0","task_version":"test-retest"},{"Rune":"rune_02_os","Hex":"#ffcc3399","Correct":-1,"Choice":32,"RT":400.9949999162927,"Accuracy":0,"Outcome":"+1","Keys":[1901.8700000597164],"TotalKeys":1,"Block":1,"Trial":19,"Robot":2,"Valence":"Win","Action":"No-Go","Sham":0,"Color":"yellow","trial_type":"pit-trial","trial_index":32,"time_elapsed":274206,"internal_node_id":"0.0-21.0","task_version":"test-retest"},{"Rune":"rune_02_raido","Hex":"#3366ff99","Correct":32,"Choice":-1,"RT":-1,"Accuracy":0,"Outcome":"-10","Keys":[],"TotalKeys":0,"Block":1,"Trial":20,"Robot":3,"Valence":"Lose","Action":"Go","Sham":0,"Color":"blue","trial_type":"pit-trial","trial_index":33,"time_elapsed":278213,"internal_node_id":"0.0-22.0","task_version":"test-retest"},{"Rune":"rune_02_os","Hex":"#ffcc3399","Correct":-1,"Choice":32,"RT":813.2249999325722,"Accuracy":0,"Outcome":"+1","Keys":[2313.75999993179],"TotalKeys":1,"Block":1,"Trial":21,"Robot":2,"Valence":"Win","Action":"No-Go","Sham":0,"Color":"yellow","trial_type":"pit-trial","trial_index":34,"time_elapsed":281536,"internal_node_id":"0.0-23.0","task_version":"test-retest"},{"Rune":"rune_02_haglaz","Hex":"#3366ff99","Correct":-1,"Choice":-1,"RT":-1,"Accuracy":1,"Outcome":"-10","Keys":[],"TotalKeys":0,"Block":1,"Trial":22,"Robot":4,"Valence":"Lose","Action":"No-Go","Sham":1,"Color":"blue","trial_type":"pit-trial","trial_index":35,"time_elapsed":285546,"internal_node_id":"0.0-24.0","task_version":"test-retest"},{"Rune":"rune_02_raido","Hex":"#3366ff99","Correct":32,"Choice":-1,"RT":-1,"Accuracy":0,"Outcome":"-10","Keys":[],"TotalKeys":0,"Block":1,"Trial":23,"Robot":3,"Valence":"Lose","Action":"Go","Sham":0,"Color":"blue","trial_type":"pit-trial","trial_index":36,"time_elapsed":289556,"internal_node_id":"0.0-25.0","task_version":"test-retest"},{"Rune":"rune_02_cen","Hex":"#ffcc3399","Correct":32,"Choice":32,"RT":407.9400000628084,"Accuracy":1,"Outcome":"+10","Keys":[1908.2450000569224],"TotalKeys":1,"Block":1,"Trial":24,"Robot":1,"Valence":"Win","Action":"Go","Sham":0,"Color":"yellow","trial_type":"pit-trial","trial_index":37,"time_elapsed":292470,"internal_node_id":"0.0-26.0","task_version":"test-retest"},{"Rune":"rune_02_os","Hex":"#ffcc3399","Correct":-1,"Choice":32,"RT":605.0850000465289,"Accuracy":0,"Outcome":"+1","Keys":[2106.3299999805167],"TotalKeys":1,"Block":1,"Trial":25,"Robot":2,"Valence":"Win","Action":"No-Go","Sham":0,"Color":"yellow","trial_type":"pit-trial","trial_index":38,"time_elapsed":295583,"internal_node_id":"0.0-27.0","task_version":"test-retest"},{"Rune":"rune_02_haglaz","Hex":"#3366ff99","Correct":-1,"Choice":-1,"RT":-1,"Accuracy":1,"Outcome":"-1","Keys":[],"TotalKeys":0,"Block":1,"Trial":26,"Robot":4,"Valence":"Lose","Action":"No-Go","Sham":0,"Color":"blue","trial_type":"pit-trial","trial_index":39,"time_elapsed":299591,"internal_node_id":"0.0-28.0","task_version":"test-retest"},{"Rune":"rune_02_raido","Hex":"#3366ff99","Correct":32,"Choice":-1,"RT":-1,"Accuracy":0,"Outcome":"-1","Keys":[],"TotalKeys":0,"Block":1,"Trial":27,"Robot":3,"Valence":"Lose","Action":"Go","Sham":1,"Color":"blue","trial_type":"pit-trial","trial_index":40,"time_elapsed":303600,"internal_node_id":"0.0-29.0","task_version":"test-retest"},{"Rune":"rune_02_cen","Hex":"#ffcc3399","Correct":32,"Choice":32,"RT":500.43000001460314,"Accuracy":1,"Outcome":"+10","Keys":[2000.6850000936538],"TotalKeys":1,"Block":1,"Trial":28,"Robot":1,"Valence":"Win","Action":"Go","Sham":0,"Color":"yellow","trial_type":"pit-trial","trial_index":41,"time_elapsed":306607,"internal_node_id":"0.0-30.0","task_version":"test-retest"},{"Rune":"rune_02_os","Hex":"#ffcc3399","Correct":-1,"Choice":32,"RT":691.1499999696389,"Accuracy":0,"Outcome":"+10","Keys":[2191.685000085272],"TotalKeys":1,"Block":1,"Trial":29,"Robot":2,"Valence":"Win","Action":"No-Go","Sham":1,"Color":"yellow","trial_type":"pit-trial","trial_index":42,"time_elapsed":309808,"internal_node_id":"0.0-31.0","task_version":"test-retest"},{"Rune":"rune_02_raido","Hex":"#3366ff99","Correct":32,"Choice":-1,"RT":-1,"Accuracy":0,"Outcome":"-10","Keys":[],"TotalKeys":0,"Block":1,"Trial":30,"Robot":3,"Valence":"Lose","Action":"Go","Sham":0,"Color":"blue","trial_type":"pit-trial","trial_index":43,"time_elapsed":313814,"internal_node_id":"0.0-32.0","task_version":"test-retest"},{"Rune":"rune_02_haglaz","Hex":"#3366ff99","Correct":-1,"Choice":-1,"RT":-1,"Accuracy":1,"Outcome":"-1","Keys":[],"TotalKeys":0,"Block":1,"Trial":31,"Robot":4,"Valence":"Lose","Action":"No-Go","Sham":0,"Color":"blue","trial_type":"pit-trial","trial_index":44,"time_elapsed":317820,"internal_node_id":"0.0-33.0","task_version":"test-retest"},{"Rune":"rune_02_cen","Hex":"#ffcc3399","Correct":32,"Choice":32,"RT":352.19499992672354,"Accuracy":1,"Outcome":"+10","Keys":[1852.9499999713153],"TotalKeys":1,"Block":1,"Trial":32,"Robot":1,"Valence":"Win","Action":"Go","Sham":0,"Color":"yellow","trial_type":"pit-trial","trial_index":45,"time_elapsed":320678,"internal_node_id":"0.0-34.0","task_version":"test-retest"},{"Rune":"rune_02_haglaz","Hex":"#3366ff99","Correct":-1,"Choice":-1,"RT":-1,"Accuracy":1,"Outcome":"-1","Keys":[],"TotalKeys":0,"Block":1,"Trial":33,"Robot":4,"Valence":"Lose","Action":"No-Go","Sham":0,"Color":"blue","trial_type":"pit-trial","trial_index":46,"time_elapsed":324685,"internal_node_id":"0.0-35.0","task_version":"test-retest"},{"Rune":"rune_02_raido","Hex":"#3366ff99","Correct":32,"Choice":-1,"RT":-1,"Accuracy":0,"Outcome":"-10","Keys":[],"TotalKeys":0,"Block":1,"Trial":34,"Robot":3,"Valence":"Lose","Action":"Go","Sham":0,"Color":"blue","trial_type":"pit-trial","trial_index":47,"time_elapsed":328691,"internal_node_id":"0.0-36.0","task_version":"test-retest"},{"Rune":"rune_02_os","Hex":"#ffcc3399","Correct":-1,"Choice":32,"RT":443.13999998848885,"Accuracy":0,"Outcome":"+1","Keys":[1943.5400000074878],"TotalKeys":1,"Block":1,"Trial":35,"Robot":2,"Valence":"Win","Action":"No-Go","Sham":0,"Color":"yellow","trial_type":"pit-trial","trial_index":48,"time_elapsed":331649,"internal_node_id":"0.0-37.0","task_version":"test-retest"},{"Rune":"rune_02_cen","Hex":"#ffcc3399","Correct":32,"Choice":32,"RT":378.82999994326383,"Accuracy":1,"Outcome":"+10","Keys":[1879.3400001013651],"TotalKeys":1,"Block":1,"Trial":36,"Robot":1,"Valence":"Win","Action":"Go","Sham":0,"Color":"yellow","trial_type":"pit-trial","trial_index":49,"time_elapsed":334533,"internal_node_id":"0.0-38.0","task_version":"test-retest"},{"Rune":"rune_02_os","Hex":"#ffcc3399","Correct":-1,"Choice":32,"RT":334.4200000865385,"Accuracy":0,"Outcome":"+1","Keys":[1834.9749998888],"TotalKeys":1,"Block":1,"Trial":37,"Robot":2,"Valence":"Win","Action":"No-Go","Sham":0,"Color":"yellow","trial_type":"pit-trial","trial_index":50,"time_elapsed":337375,"internal_node_id":"0.0-39.0","task_version":"test-retest"},{"Rune":"rune_02_haglaz","Hex":"#3366ff99","Correct":-1,"Choice":-1,"RT":-1,"Accuracy":1,"Outcome":"-1","Keys":[],"TotalKeys":0,"Block":1,"Trial":38,"Robot":4,"Valence":"Lose","Action":"No-Go","Sham":0,"Color":"blue","trial_type":"pit-trial","trial_index":51,"time_elapsed":341387,"internal_node_id":"0.0-40.0","task_version":"test-retest"},{"Rune":"rune_02_cen","Hex":"#ffcc3399","Correct":32,"Choice":32,"RT":334.705000044778,"Accuracy":1,"Outcome":"+1","Keys":[1835.1350000593811],"TotalKeys":1,"Block":1,"Trial":39,"Robot":1,"Valence":"Win","Action":"Go","Sham":1,"Color":"yellow","trial_type":"pit-trial","trial_index":52,"time_elapsed":344231,"internal_node_id":"0.0-41.0","task_version":"test-retest"},{"Rune":"rune_02_raido","Hex":"#3366ff99","Correct":32,"Choice":-1,"RT":-1,"Accuracy":0,"Outcome":"-10","Keys":[],"TotalKeys":0,"Block":1,"Trial":40,"Robot":3,"Valence":"Lose","Action":"Go","Sham":0,"Color":"blue","trial_type":"pit-trial","trial_index":53,"time_elapsed":348240,"internal_node_id":"0.0-42.0","task_version":"test-retest"},{"Rune":"rune_02_raido","Hex":"#3366ff99","Correct":32,"Choice":-1,"RT":-1,"Accuracy":0,"Outcome":"-10","Keys":[],"TotalKeys":0,"Block":1,"Trial":41,"Robot":3,"Valence":"Lose","Action":"Go","Sham":0,"Color":"blue","trial_type":"pit-trial","trial_index":54,"time_elapsed":352247,"internal_node_id":"0.0-43.0","task_version":"test-retest"},{"Rune":"rune_02_os","Hex":"#ffcc3399","Correct":-1,"Choice":32,"RT":350.099999923259,"Accuracy":0,"Outcome":"+1","Keys":[1851.1449999641627],"TotalKeys":1,"Block":1,"Trial":42,"Robot":2,"Valence":"Win","Action":"No-Go","Sham":0,"Color":"yellow","trial_type":"pit-trial","trial_index":55,"time_elapsed":355104,"internal_node_id":"0.0-44.0","task_version":"test-retest"},{"Rune":"rune_02_haglaz","Hex":"#3366ff99","Correct":-1,"Choice":-1,"RT":-1,"Accuracy":1,"Outcome":"-1","Keys":[],"TotalKeys":0,"Block":1,"Trial":43,"Robot":4,"Valence":"Lose","Action":"No-Go","Sham":0,"Color":"blue","trial_type":"pit-trial","trial_index":56,"time_elapsed":359112,"internal_node_id":"0.0-45.0","task_version":"test-retest"},{"Rune":"rune_02_cen","Hex":"#ffcc3399","Correct":32,"Choice":32,"RT":491.2149999290705,"Accuracy":1,"Outcome":"+10","Keys":[1991.5499999187887],"TotalKeys":1,"Block":1,"Trial":44,"Robot":1,"Valence":"Win","Action":"Go","Sham":0,"Color":"yellow","trial_type":"pit-trial","trial_index":57,"time_elapsed":362111,"internal_node_id":"0.0-46.0","task_version":"test-retest"},{"Rune":"rune_02_raido","Hex":"#3366ff99","Correct":32,"Choice":-1,"RT":-1,"Accuracy":0,"Outcome":"-1","Keys":[],"TotalKeys":0,"Block":1,"Trial":45,"Robot":3,"Valence":"Lose","Action":"Go","Sham":1,"Color":"blue","trial_type":"pit-trial","trial_index":58,"time_elapsed":366118,"internal_node_id":"0.0-47.0","task_version":"test-retest"},{"Rune":"rune_02_os","Hex":"#ffcc3399","Correct":-1,"Choice":32,"RT":318.59000003896654,"Accuracy":0,"Outcome":"+1","Keys":[1819.205000065267],"TotalKeys":1,"Block":1,"Trial":46,"Robot":2,"Valence":"Win","Action":"No-Go","Sham":0,"Color":"yellow","trial_type":"pit-trial","trial_index":59,"time_elapsed":368944,"internal_node_id":"0.0-48.0","task_version":"test-retest"},{"Rune":"rune_02_haglaz","Hex":"#3366ff99","Correct":-1,"Choice":-1,"RT":-1,"Accuracy":1,"Outcome":"-1","Keys":[],"TotalKeys":0,"Block":1,"Trial":47,"Robot":4,"Valence":"Lose","Action":"No-Go","Sham":0,"Color":"blue","trial_type":"pit-trial","trial_index":60,"time_elapsed":372951,"internal_node_id":"0.0-49.0","task_version":"test-retest"},{"Rune":"rune_02_cen","Hex":"#ffcc3399","Correct":32,"Choice":32,"RT":251.5249999705702,"Accuracy":1,"Outcome":"+10","Keys":[1752.2899999748915],"TotalKeys":1,"Block":1,"Trial":48,"Robot":1,"Valence":"Win","Action":"Go","Sham":0,"Color":"yellow","trial_type":"pit-trial","trial_index":61,"time_elapsed":375713,"internal_node_id":"0.0-50.0","task_version":"test-retest"},{"Rune":"rune_02_haglaz","Hex":"#3366ff99","Correct":-1,"Choice":-1,"RT":-1,"Accuracy":1,"Outcome":"-1","Keys":[],"TotalKeys":0,"Block":1,"Trial":49,"Robot":4,"Valence":"Lose","Action":"No-Go","Sham":0,"Color":"blue","trial_type":"pit-trial","trial_index":62,"time_elapsed":379725,"internal_node_id":"0.0-51.0","task_version":"test-retest"},{"Rune":"rune_02_raido","Hex":"#3366ff99","Correct":32,"Choice":-1,"RT":-1,"Accuracy":0,"Outcome":"-10","Keys":[],"TotalKeys":0,"Block":1,"Trial":50,"Robot":3,"Valence":"Lose","Action":"Go","Sham":0,"Color":"blue","trial_type":"pit-trial","trial_index":63,"time_elapsed":383734,"internal_node_id":"0.0-52.0","task_version":"test-retest"},{"Rune":"rune_02_cen","Hex":"#ffcc3399","Correct":32,"Choice":32,"RT":475.7649999810383,"Accuracy":1,"Outcome":"+10","Keys":[1976.289999904111],"TotalKeys":1,"Block":1,"Trial":51,"Robot":1,"Valence":"Win","Action":"Go","Sham":0,"Color":"yellow","trial_type":"pit-trial","trial_index":64,"time_elapsed":386722,"internal_node_id":"0.0-53.0","task_version":"test-retest"},{"Rune":"rune_02_os","Hex":"#ffcc3399","Correct":-1,"Choice":32,"RT":526.4350000070408,"Accuracy":0,"Outcome":"+10","Keys":[2027.2049999330193],"TotalKeys":1,"Block":1,"Trial":52,"Robot":2,"Valence":"Win","Action":"No-Go","Sham":1,"Color":"yellow","trial_type":"pit-trial","trial_index":65,"time_elapsed":389759,"internal_node_id":"0.0-54.0","task_version":"test-retest"},{"Rune":"rune_02_cen","Hex":"#ffcc3399","Correct":32,"Choice":32,"RT":612.7250000135973,"Accuracy":1,"Outcome":"+1","Keys":[2113.649999955669],"TotalKeys":1,"Block":1,"Trial":53,"Robot":1,"Valence":"Win","Action":"Go","Sham":1,"Color":"yellow","trial_type":"pit-trial","trial_index":66,"time_elapsed":392879,"internal_node_id":"0.0-55.0","task_version":"test-retest"},{"Rune":"rune_02_os","Hex":"#ffcc3399","Correct":-1,"Choice":32,"RT":444.5250000571832,"Accuracy":0,"Outcome":"+1","Keys":[1945.5849999794737],"TotalKeys":1,"Block":1,"Trial":54,"Robot":2,"Valence":"Win","Action":"No-Go","Sham":0,"Color":"yellow","trial_type":"pit-trial","trial_index":67,"time_elapsed":395831,"internal_node_id":"0.0-56.0","task_version":"test-retest"},{"Rune":"rune_02_raido","Hex":"#3366ff99","Correct":32,"Choice":-1,"RT":-1,"Accuracy":0,"Outcome":"-10","Keys":[],"TotalKeys":0,"Block":1,"Trial":55,"Robot":3,"Valence":"Lose","Action":"Go","Sham":0,"Color":"blue","trial_type":"pit-trial","trial_index":68,"time_elapsed":399837,"internal_node_id":"0.0-57.0","task_version":"test-retest"},{"Rune":"rune_02_haglaz","Hex":"#3366ff99","Correct":-1,"Choice":-1,"RT":-1,"Accuracy":1,"Outcome":"-10","Keys":[],"TotalKeys":0,"Block":1,"Trial":56,"Robot":4,"Valence":"Lose","Action":"No-Go","Sham":1,"Color":"blue","trial_type":"pit-trial","trial_index":69,"time_elapsed":403848,"internal_node_id":"0.0-58.0","task_version":"test-retest"},{"Rune":"rune_02_os","Hex":"#ffcc3399","Correct":-1,"Choice":32,"RT":363.00499993376434,"Accuracy":0,"Outcome":"+1","Keys":[1863.7699999380857],"TotalKeys":1,"Block":1,"Trial":57,"Robot":2,"Valence":"Win","Action":"No-Go","Sham":0,"Color":"yellow","trial_type":"pit-trial","trial_index":70,"time_elapsed":406720,"internal_node_id":"0.0-59.0","task_version":"test-retest"},{"Rune":"rune_02_raido","Hex":"#3366ff99","Correct":32,"Choice":-1,"RT":-1,"Accuracy":0,"Outcome":"-10","Keys":[],"TotalKeys":0,"Block":1,"Trial":58,"Robot":3,"Valence":"Lose","Action":"Go","Sham":0,"Color":"blue","trial_type":"pit-trial","trial_index":71,"time_elapsed":410728,"internal_node_id":"0.0-60.0","task_version":"test-retest"},{"Rune":"rune_02_cen","Hex":"#ffcc3399","Correct":32,"Choice":32,"RT":341.6900000302121,"Accuracy":1,"Outcome":"+10","Keys":[1841.9250000733882],"TotalKeys":1,"Block":1,"Trial":59,"Robot":1,"Valence":"Win","Action":"Go","Sham":0,"Color":"yellow","trial_type":"pit-trial","trial_index":72,"time_elapsed":413577,"internal_node_id":"0.0-61.0","task_version":"test-retest"},{"Rune":"rune_02_haglaz","Hex":"#3366ff99","Correct":-1,"Choice":-1,"RT":-1,"Accuracy":1,"Outcome":"-1","Keys":[],"TotalKeys":0,"Block":1,"Trial":60,"Robot":4,"Valence":"Lose","Action":"No-Go","Sham":0,"Color":"blue","trial_type":"pit-trial","trial_index":73,"time_elapsed":417588,"internal_node_id":"0.0-62.0","task_version":"test-retest"},{"value":false,"trial_type":"call-function","trial_index":74,"time_elapsed":417596,"internal_node_id":"0.0-63.0","task_version":"test-retest"},{"view_history":"[{\"page_index\":0,\"viewing_time\":12486.02499999106},{\"page_index\":1,\"viewing_time\":2439.4199999514967}]","rt":14926.48999998346,"trial_type":"pit-instructions","trial_index":75,"time_elapsed":432527,"internal_node_id":"0.0-64.0","task_version":"test-retest"},{"Rune":"rune_02_raido","Hex":"#3366ff99","Correct":32,"Choice":-1,"RT":-1,"Accuracy":0,"Outcome":"-10","Keys":[],"TotalKeys":0,"Block":1,"Trial":61,"Robot":3,"Valence":"Lose","Action":"Go","Sham":0,"Color":"blue","trial_type":"pit-trial","trial_index":76,"time_elapsed":436540,"internal_node_id":"0.0-65.0","task_version":"test-retest"},{"Rune":"rune_02_haglaz","Hex":"#3366ff99","Correct":-1,"Choice":-1,"RT":-1,"Accuracy":1,"Outcome":"-1","Keys":[],"TotalKeys":0,"Block":1,"Trial":62,"Robot":4,"Valence":"Lose","Action":"No-Go","Sham":0,"Color":"blue","trial_type":"pit-trial","trial_index":77,"time_elapsed":440546,"internal_node_id":"0.0-66.0","task_version":"test-retest"},{"Rune":"rune_02_os","Hex":"#ffcc3399","Correct":-1,"Choice":32,"RT":409.49499991256744,"Accuracy":0,"Outcome":"+1","Keys":[1910.8450000640005],"TotalKeys":1,"Block":1,"Trial":63,"Robot":2,"Valence":"Win","Action":"No-Go","Sham":0,"Color":"yellow","trial_type":"pit-trial","trial_index":78,"time_elapsed":443462,"internal_node_id":"0.0-67.0","task_version":"test-retest"},{"Rune":"rune_02_cen","Hex":"#ffcc3399","Correct":32,"Choice":32,"RT":605.8699999703094,"Accuracy":1,"Outcome":"+10","Keys":[2106.9249999709427],"TotalKeys":1,"Block":1,"Trial":64,"Robot":1,"Valence":"Win","Action":"Go","Sham":0,"Color":"yellow","trial_type":"pit-trial","trial_index":79,"time_elapsed":446574,"internal_node_id":"0.0-68.0","task_version":"test-retest"},{"Rune":"rune_02_haglaz","Hex":"#3366ff99","Correct":-1,"Choice":-1,"RT":-1,"Accuracy":1,"Outcome":"-1","Keys":[],"TotalKeys":0,"Block":1,"Trial":65,"Robot":4,"Valence":"Lose","Action":"No-Go","Sham":0,"Color":"blue","trial_type":"pit-trial","trial_index":80,"time_elapsed":450579,"internal_node_id":"0.0-69.0","task_version":"test-retest"},{"Rune":"rune_02_raido","Hex":"#3366ff99","Correct":32,"Choice":-1,"RT":-1,"Accuracy":0,"Outcome":"-10","Keys":[],"TotalKeys":0,"Block":1,"Trial":66,"Robot":3,"Valence":"Lose","Action":"Go","Sham":0,"Color":"blue","trial_type":"pit-trial","trial_index":81,"time_elapsed":454586,"internal_node_id":"0.0-70.0","task_version":"test-retest"},{"Rune":"rune_02_os","Hex":"#ffcc3399","Correct":-1,"Choice":32,"RT":294.76999992039055,"Accuracy":0,"Outcome":"+1","Keys":[1799.1150000598282],"TotalKeys":1,"Block":1,"Trial":67,"Robot":2,"Valence":"Win","Action":"No-Go","Sham":0,"Color":"yellow","trial_type":"pit-trial","trial_index":82,"time_elapsed":457392,"internal_node_id":"0.0-71.0","task_version":"test-retest"},{"Rune":"rune_02_cen","Hex":"#ffcc3399","Correct":32,"Choice":32,"RT":340.28000000398606,"Accuracy":1,"Outcome":"+1","Keys":[1840.9199999878183],"TotalKeys":1,"Block":1,"Trial":68,"Robot":1,"Valence":"Win","Action":"Go","Sham":1,"Color":"yellow","trial_type":"pit-trial","trial_index":83,"time_elapsed":460240,"internal_node_id":"0.0-72.0","task_version":"test-retest"},{"Rune":"rune_02_os","Hex":"#ffcc3399","Correct":-1,"Choice":32,"RT":345.5749999266118,"Accuracy":0,"Outcome":"+10","Keys":[1846.0750000085682],"TotalKeys":1,"Block":1,"Trial":69,"Robot":2,"Valence":"Win","Action":"No-Go","Sham":1,"Color":"yellow","trial_type":"pit-trial","trial_index":84,"time_elapsed":463095,"internal_node_id":"0.0-73.0","task_version":"test-retest"},{"Rune":"rune_02_raido","Hex":"#3366ff99","Correct":32,"Choice":-1,"RT":-1,"Accuracy":0,"Outcome":"-10","Keys":[],"TotalKeys":0,"Block":1,"Trial":70,"Robot":3,"Valence":"Lose","Action":"Go","Sham":0,"Color":"blue","trial_type":"pit-trial","trial_index":85,"time_elapsed":467102,"internal_node_id":"0.0-74.0","task_version":"test-retest"},{"Rune":"rune_02_haglaz","Hex":"#3366ff99","Correct":-1,"Choice":-1,"RT":-1,"Accuracy":1,"Outcome":"-10","Keys":[],"TotalKeys":0,"Block":1,"Trial":71,"Robot":4,"Valence":"Lose","Action":"No-Go","Sham":1,"Color":"blue","trial_type":"pit-trial","trial_index":86,"time_elapsed":471108,"internal_node_id":"0.0-75.0","task_version":"test-retest"},{"Rune":"rune_02_cen","Hex":"#ffcc3399","Correct":32,"Choice":32,"RT":296.875,"Accuracy":1,"Outcome":"+10","Keys":[1797.2650000592694],"TotalKeys":1,"Block":1,"Trial":72,"Robot":1,"Valence":"Win","Action":"Go","Sham":0,"Color":"yellow","trial_type":"pit-trial","trial_index":87,"time_elapsed":473913,"internal_node_id":"0.0-76.0","task_version":"test-retest"},{"Rune":"rune_02_haglaz","Hex":"#3366ff99","Correct":-1,"Choice":-1,"RT":-1,"Accuracy":1,"Outcome":"-1","Keys":[],"TotalKeys":0,"Block":1,"Trial":73,"Robot":4,"Valence":"Lose","Action":"No-Go","Sham":0,"Color":"blue","trial_type":"pit-trial","trial_index":88,"time_elapsed":477921,"internal_node_id":"0.0-77.0","task_version":"test-retest"},{"Rune":"rune_02_cen","Hex":"#ffcc3399","Correct":32,"Choice":32,"RT":267.1750000445172,"Accuracy":1,"Outcome":"+10","Keys":[1767.3050001030788],"TotalKeys":1,"Block":1,"Trial":74,"Robot":1,"Valence":"Win","Action":"Go","Sham":0,"Color":"yellow","trial_type":"pit-trial","trial_index":89,"time_elapsed":480695,"internal_node_id":"0.0-78.0","task_version":"test-retest"},{"Rune":"rune_02_raido","Hex":"#3366ff99","Correct":32,"Choice":-1,"RT":-1,"Accuracy":0,"Outcome":"-10","Keys":[],"TotalKeys":0,"Block":1,"Trial":75,"Robot":3,"Valence":"Lose","Action":"Go","Sham":0,"Color":"blue","trial_type":"pit-trial","trial_index":90,"time_elapsed":484702,"internal_node_id":"0.0-79.0","task_version":"test-retest"},{"Rune":"rune_02_os","Hex":"#ffcc3399","Correct":-1,"Choice":32,"RT":243.63000004086643,"Accuracy":0,"Outcome":"+1","Keys":[1743.7299999874085],"TotalKeys":1,"Block":1,"Trial":76,"Robot":2,"Valence":"Win","Action":"No-Go","Sham":0,"Color":"yellow","trial_type":"pit-trial","trial_index":91,"time_elapsed":487456,"internal_node_id":"0.0-80.0","task_version":"test-retest"},{"Rune":"rune_02_os","Hex":"#ffcc3399","Correct":-1,"Choice":32,"RT":372.0200000097975,"Accuracy":0,"Outcome":"+1","Keys":[1872.7649999782443],"TotalKeys":1,"Block":1,"Trial":77,"Robot":2,"Valence":"Win","Action":"No-Go","Sham":0,"Color":"yellow","trial_type":"pit-trial","trial_index":92,"time_elapsed":490336,"internal_node_id":"0.0-81.0","task_version":"test-retest"},{"Rune":"rune_02_haglaz","Hex":"#3366ff99","Correct":-1,"Choice":-1,"RT":-1,"Accuracy":1,"Outcome":"-1","Keys":[],"TotalKeys":0,"Block":1,"Trial":78,"Robot":4,"Valence":"Lose","Action":"No-Go","Sham":0,"Color":"blue","trial_type":"pit-trial","trial_index":93,"time_elapsed":494349,"internal_node_id":"0.0-82.0","task_version":"test-retest"},{"Rune":"rune_02_cen","Hex":"#ffcc3399","Correct":32,"Choice":32,"RT":320.0199999846518,"Accuracy":1,"Outcome":"+10","Keys":[1820.6549999304116],"TotalKeys":1,"Block":1,"Trial":79,"Robot":1,"Valence":"Win","Action":"Go","Sham":0,"Color":"yellow","trial_type":"pit-trial","trial_index":94,"time_elapsed":497176,"internal_node_id":"0.0-83.0","task_version":"test-retest"},{"Rune":"rune_02_raido","Hex":"#3366ff99","Correct":32,"Choice":-1,"RT":-1,"Accuracy":0,"Outcome":"-1","Keys":[],"TotalKeys":0,"Block":1,"Trial":80,"Robot":3,"Valence":"Lose","Action":"Go","Sham":1,"Color":"blue","trial_type":"pit-trial","trial_index":95,"time_elapsed":501182,"internal_node_id":"0.0-84.0","task_version":"test-retest"},{"Rune":"rune_02_raido","Hex":"#3366ff99","Correct":32,"Choice":-1,"RT":-1,"Accuracy":0,"Outcome":"-1","Keys":[],"TotalKeys":0,"Block":1,"Trial":81,"Robot":3,"Valence":"Lose","Action":"Go","Sham":1,"Color":"blue","trial_type":"pit-trial","trial_index":96,"time_elapsed":505191,"internal_node_id":"0.0-85.0","task_version":"test-retest"},{"Rune":"rune_02_os","Hex":"#ffcc3399","Correct":-1,"Choice":32,"RT":293.3849999681115,"Accuracy":0,"Outcome":"+10","Keys":[1793.8350000185892],"TotalKeys":1,"Block":1,"Trial":82,"Robot":2,"Valence":"Win","Action":"No-Go","Sham":1,"Color":"yellow","trial_type":"pit-trial","trial_index":97,"time_elapsed":507993,"internal_node_id":"0.0-86.0","task_version":"test-retest"},{"Rune":"rune_02_haglaz","Hex":"#3366ff99","Correct":-1,"Choice":-1,"RT":-1,"Accuracy":1,"Outcome":"-1","Keys":[],"TotalKeys":0,"Block":1,"Trial":83,"Robot":4,"Valence":"Lose","Action":"No-Go","Sham":0,"Color":"blue","trial_type":"pit-trial","trial_index":98,"time_elapsed":512008,"internal_node_id":"0.0-87.0","task_version":"test-retest"},{"Rune":"rune_02_cen","Hex":"#ffcc3399","Correct":32,"Choice":32,"RT":308.59499995131046,"Accuracy":1,"Outcome":"+10","Keys":[1809.0649999212474],"TotalKeys":1,"Block":1,"Trial":84,"Robot":1,"Valence":"Win","Action":"Go","Sham":0,"Color":"yellow","trial_type":"pit-trial","trial_index":99,"time_elapsed":514823,"internal_node_id":"0.0-88.0","task_version":"test-retest"},{"Rune":"rune_02_os","Hex":"#ffcc3399","Correct":-1,"Choice":32,"RT":354.47499994188547,"Accuracy":0,"Outcome":"+1","Keys":[1855.6549999630079],"TotalKeys":1,"Block":1,"Trial":85,"Robot":2,"Valence":"Win","Action":"No-Go","Sham":0,"Color":"yellow","trial_type":"pit-trial","trial_index":100,"time_elapsed":517688,"internal_node_id":"0.0-89.0","task_version":"test-retest"},{"Rune":"rune_02_raido","Hex":"#3366ff99","Correct":32,"Choice":-1,"RT":-1,"Accuracy":0,"Outcome":"-10","Keys":[],"TotalKeys":0,"Block":1,"Trial":86,"Robot":3,"Valence":"Lose","Action":"Go","Sham":0,"Color":"blue","trial_type":"pit-trial","trial_index":101,"time_elapsed":521699,"internal_node_id":"0.0-90.0","task_version":"test-retest"},{"Rune":"rune_02_haglaz","Hex":"#3366ff99","Correct":-1,"Choice":-1,"RT":-1,"Accuracy":1,"Outcome":"-1","Keys":[],"TotalKeys":0,"Block":1,"Trial":87,"Robot":4,"Valence":"Lose","Action":"No-Go","Sham":0,"Color":"blue","trial_type":"pit-trial","trial_index":102,"time_elapsed":525710,"internal_node_id":"0.0-91.0","task_version":"test-retest"},{"Rune":"rune_02_cen","Hex":"#ffcc3399","Correct":32,"Choice":32,"RT":293.37999993003905,"Accuracy":1,"Outcome":"+10","Keys":[1793.5750000178814],"TotalKeys":1,"Block":1,"Trial":88,"Robot":1,"Valence":"Win","Action":"Go","Sham":0,"Color":"yellow","trial_type":"pit-trial","trial_index":103,"time_elapsed":528512,"internal_node_id":"0.0-92.0","task_version":"test-retest"},{"Rune":"rune_02_os","Hex":"#ffcc3399","Correct":-1,"Choice":32,"RT":573.2749999733642,"Accuracy":0,"Outcome":"+1","Keys":[2073.78500001505],"TotalKeys":1,"Block":1,"Trial":89,"Robot":2,"Valence":"Win","Action":"No-Go","Sham":0,"Color":"yellow","trial_type":"pit-trial","trial_index":104,"time_elapsed":531591,"internal_node_id":"0.0-93.0","task_version":"test-retest"},{"Rune":"rune_02_raido","Hex":"#3366ff99","Correct":32,"Choice":-1,"RT":-1,"Accuracy":0,"Outcome":"-10","Keys":[],"TotalKeys":0,"Block":1,"Trial":90,"Robot":3,"Valence":"Lose","Action":"Go","Sham":0,"Color":"blue","trial_type":"pit-trial","trial_index":105,"time_elapsed":535597,"internal_node_id":"0.0-94.0","task_version":"test-retest"},{"Rune":"rune_02_haglaz","Hex":"#3366ff99","Correct":-1,"Choice":-1,"RT":-1,"Accuracy":1,"Outcome":"-1","Keys":[],"TotalKeys":0,"Block":1,"Trial":91,"Robot":4,"Valence":"Lose","Action":"No-Go","Sham":0,"Color":"blue","trial_type":"pit-trial","trial_index":106,"time_elapsed":539604,"internal_node_id":"0.0-95.0","task_version":"test-retest"},{"Rune":"rune_02_cen","Hex":"#ffcc3399","Correct":32,"Choice":32,"RT":352.9850000049919,"Accuracy":1,"Outcome":"+10","Keys":[1853.8499999558553],"TotalKeys":1,"Block":1,"Trial":92,"Robot":1,"Valence":"Win","Action":"Go","Sham":0,"Color":"yellow","trial_type":"pit-trial","trial_index":107,"time_elapsed":542463,"internal_node_id":"0.0-96.0","task_version":"test-retest"},{"Rune":"rune_02_haglaz","Hex":"#3366ff99","Correct":-1,"Choice":-1,"RT":-1,"Accuracy":1,"Outcome":"-1","Keys":[],"TotalKeys":0,"Block":1,"Trial":93,"Robot":4,"Valence":"Lose","Action":"No-Go","Sham":0,"Color":"blue","trial_type":"pit-trial","trial_index":108,"time_elapsed":546472,"internal_node_id":"0.0-97.0","task_version":"test-retest"},{"Rune":"rune_02_cen","Hex":"#ffcc3399","Correct":32,"Choice":32,"RT":299.1199999814853,"Accuracy":1,"Outcome":"+1","Keys":[1799.5600000722334],"TotalKeys":1,"Block":1,"Trial":94,"Robot":1,"Valence":"Win","Action":"Go","Sham":1,"Color":"yellow","trial_type":"pit-trial","trial_index":109,"time_elapsed":549281,"internal_node_id":"0.0-98.0","task_version":"test-retest"},{"Rune":"rune_02_os","Hex":"#ffcc3399","Correct":-1,"Choice":32,"RT":363.0000000121072,"Accuracy":0,"Outcome":"+1","Keys":[1863.8799999607727],"TotalKeys":1,"Block":1,"Trial":95,"Robot":2,"Valence":"Win","Action":"No-Go","Sham":0,"Color":"yellow","trial_type":"pit-trial","trial_index":110,"time_elapsed":552151,"internal_node_id":"0.0-99.0","task_version":"test-retest"},{"Rune":"rune_02_raido","Hex":"#3366ff99","Correct":32,"Choice":-1,"RT":-1,"Accuracy":0,"Outcome":"-10","Keys":[],"TotalKeys":0,"Block":1,"Trial":96,"Robot":3,"Valence":"Lose","Action":"Go","Sham":0,"Color":"blue","trial_type":"pit-trial","trial_index":111,"time_elapsed":556158,"internal_node_id":"0.0-100.0","task_version":"test-retest"},{"Rune":"rune_02_haglaz","Hex":"#3366ff99","Correct":-1,"Choice":-1,"RT":-1,"Accuracy":1,"Outcome":"-10","Keys":[],"TotalKeys":0,"Block":1,"Trial":97,"Robot":4,"Valence":"Lose","Action":"No-Go","Sham":1,"Color":"blue","trial_type":"pit-trial","trial_index":112,"time_elapsed":560164,"internal_node_id":"0.0-101.0","task_version":"test-retest"},{"Rune":"rune_02_os","Hex":"#ffcc3399","Correct":-1,"Choice":32,"RT":520.5750000895932,"Accuracy":0,"Outcome":"+1","Keys":[2021.3600000133738],"TotalKeys":1,"Block":1,"Trial":98,"Robot":2,"Valence":"Win","Action":"No-Go","Sham":0,"Color":"yellow","trial_type":"pit-trial","trial_index":113,"time_elapsed":563191,"internal_node_id":"0.0-102.0","task_version":"test-retest"},{"Rune":"rune_02_raido","Hex":"#3366ff99","Correct":32,"Choice":-1,"RT":-1,"Accuracy":0,"Outcome":"-10","Keys":[],"TotalKeys":0,"Block":1,"Trial":99,"Robot":3,"Valence":"Lose","Action":"Go","Sham":0,"Color":"blue","trial_type":"pit-trial","trial_index":114,"time_elapsed":567198,"internal_node_id":"0.0-103.0","task_version":"test-retest"},{"Rune":"rune_02_cen","Hex":"#ffcc3399","Correct":32,"Choice":32,"RT":334.2800000682473,"Accuracy":1,"Outcome":"+10","Keys":[1834.9800000432879],"TotalKeys":1,"Block":1,"Trial":100,"Robot":1,"Valence":"Win","Action":"Go","Sham":0,"Color":"yellow","trial_type":"pit-trial","trial_index":115,"time_elapsed":570039,"internal_node_id":"0.0-104.0","task_version":"test-retest"},{"Rune":"rune_02_os","Hex":"#ffcc3399","Correct":-1,"Choice":32,"RT":683.9100000215694,"Accuracy":0,"Outcome":"+1","Keys":[2185.249999980442],"TotalKeys":1,"Block":1,"Trial":101,"Robot":2,"Valence":"Win","Action":"No-Go","Sham":0,"Color":"yellow","trial_type":"pit-trial","trial_index":116,"time_elapsed":573231,"internal_node_id":"0.0-105.0","task_version":"test-retest"},{"Rune":"rune_02_raido","Hex":"#3366ff99","Correct":32,"Choice":-1,"RT":-1,"Accuracy":0,"Outcome":"-10","Keys":[],"TotalKeys":0,"Block":1,"Trial":102,"Robot":3,"Valence":"Lose","Action":"Go","Sham":0,"Color":"blue","trial_type":"pit-trial","trial_index":117,"time_elapsed":577239,"internal_node_id":"0.0-106.0","task_version":"test-retest"},{"Rune":"rune_02_cen","Hex":"#ffcc3399","Correct":32,"Choice":32,"RT":405.7999999495223,"Accuracy":1,"Outcome":"+10","Keys":[1906.3950000563636],"TotalKeys":1,"Block":1,"Trial":103,"Robot":1,"Valence":"Win","Action":"Go","Sham":0,"Color":"yellow","trial_type":"pit-trial","trial_index":118,"time_elapsed":580151,"internal_node_id":"0.0-107.0","task_version":"test-retest"},{"Rune":"rune_02_haglaz","Hex":"#3366ff99","Correct":-1,"Choice":-1,"RT":-1,"Accuracy":1,"Outcome":"-1","Keys":[],"TotalKeys":0,"Block":1,"Trial":104,"Robot":4,"Valence":"Lose","Action":"No-Go","Sham":0,"Color":"blue","trial_type":"pit-trial","trial_index":119,"time_elapsed":584161,"internal_node_id":"0.0-108.0","task_version":"test-retest"},{"Rune":"rune_02_haglaz","Hex":"#3366ff99","Correct":-1,"Choice":-1,"RT":-1,"Accuracy":1,"Outcome":"-1","Keys":[],"TotalKeys":0,"Block":1,"Trial":105,"Robot":4,"Valence":"Lose","Action":"No-Go","Sham":0,"Color":"blue","trial_type":"pit-trial","trial_index":120,"time_elapsed":588175,"internal_node_id":"0.0-109.0","task_version":"test-retest"},{"Rune":"rune_02_os","Hex":"#ffcc3399","Correct":-1,"Choice":32,"RT":313.6149999918416,"Accuracy":0,"Outcome":"+1","Keys":[1814.5349998958409],"TotalKeys":1,"Block":1,"Trial":106,"Robot":2,"Valence":"Win","Action":"No-Go","Sham":0,"Color":"yellow","trial_type":"pit-trial","trial_index":121,"time_elapsed":590999,"internal_node_id":"0.0-110.0","task_version":"test-retest"},{"Rune":"rune_02_cen","Hex":"#ffcc3399","Correct":32,"Choice":32,"RT":397.16999989468604,"Accuracy":1,"Outcome":"+10","Keys":[1897.9300000937656],"TotalKeys":1,"Block":1,"Trial":107,"Robot":1,"Valence":"Win","Action":"Go","Sham":0,"Color":"yellow","trial_type":"pit-trial","trial_index":122,"time_elapsed":593905,"internal_node_id":"0.0-111.0","task_version":"test-retest"},{"Rune":"rune_02_raido","Hex":"#3366ff99","Correct":32,"Choice":-1,"RT":-1,"Accuracy":0,"Outcome":"-10","Keys":[],"TotalKeys":0,"Block":1,"Trial":108,"Robot":3,"Valence":"Lose","Action":"Go","Sham":0,"Color":"blue","trial_type":"pit-trial","trial_index":123,"time_elapsed":597914,"internal_node_id":"0.0-112.0","task_version":"test-retest"},{"Rune":"rune_02_raido","Hex":"#3366ff99","Correct":32,"Choice":-1,"RT":-1,"Accuracy":0,"Outcome":"-10","Keys":[],"TotalKeys":0,"Block":1,"Trial":109,"Robot":3,"Valence":"Lose","Action":"Go","Sham":0,"Color":"blue","trial_type":"pit-trial","trial_index":124,"time_elapsed":601921,"internal_node_id":"0.0-113.0","task_version":"test-retest"},{"Rune":"rune_02_cen","Hex":"#ffcc3399","Correct":32,"Choice":32,"RT":419.7500000009313,"Accuracy":1,"Outcome":"+10","Keys":[1920.4349999781698],"TotalKeys":1,"Block":1,"Trial":110,"Robot":1,"Valence":"Win","Action":"Go","Sham":0,"Color":"yellow","trial_type":"pit-trial","trial_index":125,"time_elapsed":604848,"internal_node_id":"0.0-114.0","task_version":"test-retest"},{"Rune":"rune_02_os","Hex":"#ffcc3399","Correct":-1,"Choice":32,"RT":371.6749999439344,"Accuracy":0,"Outcome":"+10","Keys":[1872.3750000353903],"TotalKeys":1,"Block":1,"Trial":111,"Robot":2,"Valence":"Win","Action":"No-Go","Sham":1,"Color":"yellow","trial_type":"pit-trial","trial_index":126,"time_elapsed":607726,"internal_node_id":"0.0-115.0","task_version":"test-retest"},{"Rune":"rune_02_haglaz","Hex":"#3366ff99","Correct":-1,"Choice":-1,"RT":-1,"Accuracy":1,"Outcome":"-1","Keys":[],"TotalKeys":0,"Block":1,"Trial":112,"Robot":4,"Valence":"Lose","Action":"No-Go","Sham":0,"Color":"blue","trial_type":"pit-trial","trial_index":127,"time_elapsed":611733,"internal_node_id":"0.0-116.0","task_version":"test-retest"},{"Rune":"rune_02_os","Hex":"#ffcc3399","Correct":-1,"Choice":32,"RT":299.9749999726191,"Accuracy":0,"Outcome":"+1","Keys":[1800.969999982044],"TotalKeys":1,"Block":1,"Trial":113,"Robot":2,"Valence":"Win","Action":"No-Go","Sham":0,"Color":"yellow","trial_type":"pit-trial","trial_index":128,"time_elapsed":614542,"internal_node_id":"0.0-117.0","task_version":"test-retest"},{"Rune":"rune_02_cen","Hex":"#ffcc3399","Correct":32,"Choice":32,"RT":362.82000003848225,"Accuracy":1,"Outcome":"+1","Keys":[1867.450000019744],"TotalKeys":1,"Block":1,"Trial":114,"Robot":1,"Valence":"Win","Action":"Go","Sham":1,"Color":"yellow","trial_type":"pit-trial","trial_index":129,"time_elapsed":617415,"internal_node_id":"0.0-118.0","task_version":"test-retest"},{"Rune":"rune_02_haglaz","Hex":"#3366ff99","Correct":-1,"Choice":-1,"RT":-1,"Accuracy":1,"Outcome":"-1","Keys":[],"TotalKeys":0,"Block":1,"Trial":115,"Robot":4,"Valence":"Lose","Action":"No-Go","Sham":0,"Color":"blue","trial_type":"pit-trial","trial_index":130,"time_elapsed":621422,"internal_node_id":"0.0-119.0","task_version":"test-retest"},{"Rune":"rune_02_raido","Hex":"#3366ff99","Correct":32,"Choice":-1,"RT":-1,"Accuracy":0,"Outcome":"-1","Keys":[],"TotalKeys":0,"Block":1,"Trial":116,"Robot":3,"Valence":"Lose","Action":"Go","Sham":1,"Color":"blue","trial_type":"pit-trial","trial_index":131,"time_elapsed":625433,"internal_node_id":"0.0-120.0","task_version":"test-retest"},{"Rune":"rune_02_haglaz","Hex":"#3366ff99","Correct":-1,"Choice":-1,"RT":-1,"Accuracy":1,"Outcome":"-10","Keys":[],"TotalKeys":0,"Block":1,"Trial":117,"Robot":4,"Valence":"Lose","Action":"No-Go","Sham":1,"Color":"blue","trial_type":"pit-trial","trial_index":132,"time_elapsed":629442,"internal_node_id":"0.0-121.0","task_version":"test-retest"},{"Rune":"rune_02_os","Hex":"#ffcc3399","Correct":-1,"Choice":32,"RT":278.4850000170991,"Accuracy":0,"Outcome":"+1","Keys":[1779.6000000089407],"TotalKeys":1,"Block":1,"Trial":118,"Robot":2,"Valence":"Win","Action":"No-Go","Sham":0,"Color":"yellow","trial_type":"pit-trial","trial_index":133,"time_elapsed":632232,"internal_node_id":"0.0-122.0","task_version":"test-retest"},{"Rune":"rune_02_cen","Hex":"#ffcc3399","Correct":32,"Choice":32,"RT":313.8650000328198,"Accuracy":1,"Outcome":"+10","Keys":[1814.3749999580905],"TotalKeys":1,"Block":1,"Trial":119,"Robot":1,"Valence":"Win","Action":"Go","Sham":0,"Color":"yellow","trial_type":"pit-trial","trial_index":134,"time_elapsed":635054,"internal_node_id":"0.0-123.0","task_version":"test-retest"},{"Rune":"rune_02_raido","Hex":"#3366ff99","Correct":32,"Choice":-1,"RT":-1,"Accuracy":0,"Outcome":"-10","Keys":[],"TotalKeys":0,"Block":1,"Trial":120,"Robot":3,"Valence":"Lose","Action":"Go","Sham":0,"Color":"blue","trial_type":"pit-trial","trial_index":135,"time_elapsed":639062,"internal_node_id":"0.0-124.0","task_version":"test-retest"},{"view_history":"[{\"page_index\":0,\"viewing_time\":3598.0749999871477},{\"page_index\":1,\"viewing_time\":6086.865000077523},{\"page_index\":2,\"viewing_time\":1801.3250000076368}]","rt":11487.61499999091,"trial_type":"pit-instructions","trial_index":136,"time_elapsed":650556,"internal_node_id":"0.0-125.0","task_version":"test-retest"},{"Rune":"rune_01_ger","Hex":"#3366ff99","Correct":-1,"Choice":-1,"RT":-1,"Accuracy":1,"Outcome":"-1","Keys":[],"TotalKeys":0,"Block":2,"Trial":121,"Robot":4,"Valence":"Lose","Action":"No-Go","Sham":0,"Color":"blue","trial_type":"pit-trial","trial_index":137,"time_elapsed":654569,"internal_node_id":"0.0-126.0","task_version":"test-retest"},{"Rune":"rune_01_yr","Hex":"#ffcc3399","Correct":32,"Choice":32,"RT":496.93999998271465,"Accuracy":1,"Outcome":"+10","Keys":[1997.3599999211729],"TotalKeys":1,"Block":2,"Trial":122,"Robot":1,"Valence":"Win","Action":"Go","Sham":0,"Color":"yellow","trial_type":"pit-trial","trial_index":138,"time_elapsed":657576,"internal_node_id":"0.0-127.0","task_version":"test-retest"},{"Rune":"rune_01_ingwaz","Hex":"#ffcc3399","Correct":-1,"Choice":32,"RT":398.12499994877726,"Accuracy":0,"Outcome":"+1","Keys":[1898.9800000563264],"TotalKeys":1,"Block":2,"Trial":123,"Robot":2,"Valence":"Win","Action":"No-Go","Sham":0,"Color":"yellow","trial_type":"pit-trial","trial_index":139,"time_elapsed":660484,"internal_node_id":"0.0-128.0","task_version":"test-retest"},{"Rune":"rune_01_ear","Hex":"#3366ff99","Correct":32,"Choice":-1,"RT":-1,"Accuracy":0,"Outcome":"-1","Keys":[],"TotalKeys":0,"Block":2,"Trial":124,"Robot":3,"Valence":"Lose","Action":"Go","Sham":1,"Color":"blue","trial_type":"pit-trial","trial_index":140,"time_elapsed":664492,"internal_node_id":"0.0-129.0","task_version":"test-retest"},{"Rune":"rune_01_ger","Hex":"#3366ff99","Correct":-1,"Choice":-1,"RT":-1,"Accuracy":1,"Outcome":"-1","Keys":[],"TotalKeys":0,"Block":2,"Trial":125,"Robot":4,"Valence":"Lose","Action":"No-Go","Sham":0,"Color":"blue","trial_type":"pit-trial","trial_index":141,"time_elapsed":668500,"internal_node_id":"0.0-130.0","task_version":"test-retest"},{"Rune":"rune_01_ingwaz","Hex":"#ffcc3399","Correct":-1,"Choice":32,"RT":447.98999989870936,"Accuracy":0,"Outcome":"+1","Keys":[1949.5149999856949],"TotalKeys":1,"Block":2,"Trial":126,"Robot":2,"Valence":"Win","Action":"No-Go","Sham":0,"Color":"yellow","trial_type":"pit-trial","trial_index":142,"time_elapsed":671455,"internal_node_id":"0.0-131.0","task_version":"test-retest"},{"Rune":"rune_01_yr","Hex":"#ffcc3399","Correct":32,"Choice":32,"RT":429.3850000249222,"Accuracy":1,"Outcome":"+10","Keys":[1929.8750000307336],"TotalKeys":1,"Block":2,"Trial":127,"Robot":1,"Valence":"Win","Action":"Go","Sham":0,"Color":"yellow","trial_type":"pit-trial","trial_index":143,"time_elapsed":674390,"internal_node_id":"0.0-132.0","task_version":"test-retest"},{"Rune":"rune_01_ear","Hex":"#3366ff99","Correct":32,"Choice":-1,"RT":-1,"Accuracy":0,"Outcome":"-10","Keys":[],"TotalKeys":0,"Block":2,"Trial":128,"Robot":3,"Valence":"Lose","Action":"Go","Sham":0,"Color":"blue","trial_type":"pit-trial","trial_index":144,"time_elapsed":678398,"internal_node_id":"0.0-133.0","task_version":"test-retest"},{"Rune":"rune_01_yr","Hex":"#ffcc3399","Correct":32,"Choice":32,"RT":589.7300000069663,"Accuracy":1,"Outcome":"+10","Keys":[2090.7550000119954],"TotalKeys":1,"Block":2,"Trial":129,"Robot":1,"Valence":"Win","Action":"Go","Sham":0,"Color":"yellow","trial_type":"pit-trial","trial_index":145,"time_elapsed":681495,"internal_node_id":"0.0-134.0","task_version":"test-retest"},{"Rune":"rune_01_ear","Hex":"#3366ff99","Correct":32,"Choice":-1,"RT":-1,"Accuracy":0,"Outcome":"-10","Keys":[],"TotalKeys":0,"Block":2,"Trial":130,"Robot":3,"Valence":"Lose","Action":"Go","Sham":0,"Color":"blue","trial_type":"pit-trial","trial_index":146,"time_elapsed":685501,"internal_node_id":"0.0-135.0","task_version":"test-retest"},{"Rune":"rune_01_ingwaz","Hex":"#ffcc3399","Correct":-1,"Choice":32,"RT":295.685000019148,"Accuracy":0,"Outcome":"+1","Keys":[1796.2700000498444],"TotalKeys":1,"Block":2,"Trial":131,"Robot":2,"Valence":"Win","Action":"No-Go","Sham":0,"Color":"yellow","trial_type":"pit-trial","trial_index":147,"time_elapsed":688302,"internal_node_id":"0.0-136.0","task_version":"test-retest"},{"Rune":"rune_01_ger","Hex":"#3366ff99","Correct":-1,"Choice":-1,"RT":-1,"Accuracy":1,"Outcome":"-10","Keys":[],"TotalKeys":0,"Block":2,"Trial":132,"Robot":4,"Valence":"Lose","Action":"No-Go","Sham":1,"Color":"blue","trial_type":"pit-trial","trial_index":148,"time_elapsed":692308,"internal_node_id":"0.0-137.0","task_version":"test-retest"},{"Rune":"rune_01_ear","Hex":"#3366ff99","Correct":32,"Choice":-1,"RT":-1,"Accuracy":0,"Outcome":"-10","Keys":[],"TotalKeys":0,"Block":2,"Trial":133,"Robot":3,"Valence":"Lose","Action":"Go","Sham":0,"Color":"blue","trial_type":"pit-trial","trial_index":149,"time_elapsed":696314,"internal_node_id":"0.0-138.0","task_version":"test-retest"},{"Rune":"rune_01_ingwaz","Hex":"#ffcc3399","Correct":-1,"Choice":32,"RT":514.6249999525025,"Accuracy":0,"Outcome":"+10","Keys":[2015.5599999707192],"TotalKeys":1,"Block":2,"Trial":134,"Robot":2,"Valence":"Win","Action":"No-Go","Sham":1,"Color":"yellow","trial_type":"pit-trial","trial_index":150,"time_elapsed":699337,"internal_node_id":"0.0-139.0","task_version":"test-retest"},{"Rune":"rune_01_ger","Hex":"#3366ff99","Correct":-1,"Choice":-1,"RT":-1,"Accuracy":1,"Outcome":"-1","Keys":[],"TotalKeys":0,"Block":2,"Trial":135,"Robot":4,"Valence":"Lose","Action":"No-Go","Sham":0,"Color":"blue","trial_type":"pit-trial","trial_index":151,"time_elapsed":703353,"internal_node_id":"0.0-140.0","task_version":"test-retest"},{"Rune":"rune_01_yr","Hex":"#ffcc3399","Correct":32,"Choice":32,"RT":333.2399999490008,"Accuracy":1,"Outcome":"+1","Keys":[1833.9299999643117],"TotalKeys":1,"Block":2,"Trial":136,"Robot":1,"Valence":"Win","Action":"Go","Sham":1,"Color":"yellow","trial_type":"pit-trial","trial_index":152,"time_elapsed":706193,"internal_node_id":"0.0-141.0","task_version":"test-retest"},{"Rune":"rune_01_yr","Hex":"#ffcc3399","Correct":32,"Choice":32,"RT":312.56000010762364,"Accuracy":1,"Outcome":"+10","Keys":[1813.2600000826642],"TotalKeys":1,"Block":2,"Trial":137,"Robot":1,"Valence":"Win","Action":"Go","Sham":0,"Color":"yellow","trial_type":"pit-trial","trial_index":153,"time_elapsed":709015,"internal_node_id":"0.0-142.0","task_version":"test-retest"},{"Rune":"rune_01_ger","Hex":"#3366ff99","Correct":-1,"Choice":-1,"RT":-1,"Accuracy":1,"Outcome":"-1","Keys":[],"TotalKeys":0,"Block":2,"Trial":138,"Robot":4,"Valence":"Lose","Action":"No-Go","Sham":0,"Color":"blue","trial_type":"pit-trial","trial_index":154,"time_elapsed":713022,"internal_node_id":"0.0-143.0","task_version":"test-retest"},{"Rune":"rune_01_ingwaz","Hex":"#ffcc3399","Correct":-1,"Choice":32,"RT":333.8950000470504,"Accuracy":0,"Outcome":"+1","Keys":[1836.449999944307],"TotalKeys":1,"Block":2,"Trial":139,"Robot":2,"Valence":"Win","Action":"No-Go","Sham":0,"Color":"yellow","trial_type":"pit-trial","trial_index":155,"time_elapsed":715865,"internal_node_id":"0.0-144.0","task_version":"test-retest"},{"Rune":"rune_01_ear","Hex":"#3366ff99","Correct":32,"Choice":-1,"RT":-1,"Accuracy":0,"Outcome":"-10","Keys":[],"TotalKeys":0,"Block":2,"Trial":140,"Robot":3,"Valence":"Lose","Action":"Go","Sham":0,"Color":"blue","trial_type":"pit-trial","trial_index":156,"time_elapsed":719870,"internal_node_id":"0.0-145.0","task_version":"test-retest"},{"Rune":"rune_01_yr","Hex":"#ffcc3399","Correct":32,"Choice":32,"RT":340.08500003255904,"Accuracy":1,"Outcome":"+10","Keys":[1843.1049999780953],"TotalKeys":1,"Block":2,"Trial":141,"Robot":1,"Valence":"Win","Action":"Go","Sham":0,"Color":"yellow","trial_type":"pit-trial","trial_index":157,"time_elapsed":722720,"internal_node_id":"0.0-146.0","task_version":"test-retest"},{"Rune":"rune_01_ingwaz","Hex":"#ffcc3399","Correct":-1,"Choice":32,"RT":365.0549999438226,"Accuracy":0,"Outcome":"+1","Keys":[1865.654999972321],"TotalKeys":1,"Block":2,"Trial":142,"Robot":2,"Valence":"Win","Action":"No-Go","Sham":0,"Color":"yellow","trial_type":"pit-trial","trial_index":158,"time_elapsed":725591,"internal_node_id":"0.0-147.0","task_version":"test-retest"},{"Rune":"rune_01_ger","Hex":"#3366ff99","Correct":-1,"Choice":-1,"RT":-1,"Accuracy":1,"Outcome":"-10","Keys":[],"TotalKeys":0,"Block":2,"Trial":143,"Robot":4,"Valence":"Lose","Action":"No-Go","Sham":1,"Color":"blue","trial_type":"pit-trial","trial_index":159,"time_elapsed":729597,"internal_node_id":"0.0-148.0","task_version":"test-retest"},{"Rune":"rune_01_ear","Hex":"#3366ff99","Correct":32,"Choice":-1,"RT":-1,"Accuracy":0,"Outcome":"-10","Keys":[],"TotalKeys":0,"Block":2,"Trial":144,"Robot":3,"Valence":"Lose","Action":"Go","Sham":0,"Color":"blue","trial_type":"pit-trial","trial_index":160,"time_elapsed":733603,"internal_node_id":"0.0-149.0","task_version":"test-retest"},{"Rune":"rune_01_yr","Hex":"#ffcc3399","Correct":32,"Choice":32,"RT":370.0599999865517,"Accuracy":1,"Outcome":"+10","Keys":[1870.93500001356],"TotalKeys":1,"Block":2,"Trial":145,"Robot":1,"Valence":"Win","Action":"Go","Sham":0,"Color":"yellow","trial_type":"pit-trial","trial_index":161,"time_elapsed":736481,"internal_node_id":"0.0-150.0","task_version":"test-retest"},{"Rune":"rune_01_ger","Hex":"#3366ff99","Correct":-1,"Choice":-1,"RT":-1,"Accuracy":1,"Outcome":"-1","Keys":[],"TotalKeys":0,"Block":2,"Trial":146,"Robot":4,"Valence":"Lose","Action":"No-Go","Sham":0,"Color":"blue","trial_type":"pit-trial","trial_index":162,"time_elapsed":740490,"internal_node_id":"0.0-151.0","task_version":"test-retest"},{"Rune":"rune_01_ear","Hex":"#3366ff99","Correct":32,"Choice":-1,"RT":-1,"Accuracy":0,"Outcome":"-1","Keys":[],"TotalKeys":0,"Block":2,"Trial":147,"Robot":3,"Valence":"Lose","Action":"Go","Sham":1,"Color":"blue","trial_type":"pit-trial","trial_index":163,"time_elapsed":744500,"internal_node_id":"0.0-152.0","task_version":"test-retest"},{"Rune":"rune_01_ingwaz","Hex":"#ffcc3399","Correct":-1,"Choice":32,"RT":559.3949999893084,"Accuracy":0,"Outcome":"+1","Keys":[2060.0450000492856],"TotalKeys":1,"Block":2,"Trial":148,"Robot":2,"Valence":"Win","Action":"No-Go","Sham":0,"Color":"yellow","trial_type":"pit-trial","trial_index":164,"time_elapsed":747569,"internal_node_id":"0.0-153.0","task_version":"test-retest"},{"Rune":"rune_01_yr","Hex":"#ffcc3399","Correct":32,"Choice":32,"RT":445.3550000907853,"Accuracy":1,"Outcome":"+10","Keys":[1945.7849999889731],"TotalKeys":1,"Block":2,"Trial":149,"Robot":1,"Valence":"Win","Action":"Go","Sham":0,"Color":"yellow","trial_type":"pit-trial","trial_index":165,"time_elapsed":750521,"internal_node_id":"0.0-154.0","task_version":"test-retest"},{"Rune":"rune_01_ear","Hex":"#3366ff99","Correct":32,"Choice":-1,"RT":-1,"Accuracy":0,"Outcome":"-10","Keys":[],"TotalKeys":0,"Block":2,"Trial":150,"Robot":3,"Valence":"Lose","Action":"Go","Sham":0,"Color":"blue","trial_type":"pit-trial","trial_index":166,"time_elapsed":754531,"internal_node_id":"0.0-155.0","task_version":"test-retest"},{"Rune":"rune_01_ger","Hex":"#3366ff99","Correct":-1,"Choice":-1,"RT":-1,"Accuracy":1,"Outcome":"-1","Keys":[],"TotalKeys":0,"Block":2,"Trial":151,"Robot":4,"Valence":"Lose","Action":"No-Go","Sham":0,"Color":"blue","trial_type":"pit-trial","trial_index":167,"time_elapsed":758538,"internal_node_id":"0.0-156.0","task_version":"test-retest"},{"Rune":"rune_01_ingwaz","Hex":"#ffcc3399","Correct":-1,"Choice":32,"RT":448.72500002384186,"Accuracy":0,"Outcome":"+10","Keys":[1949.3550000479445],"TotalKeys":1,"Block":2,"Trial":152,"Robot":2,"Valence":"Win","Action":"No-Go","Sham":1,"Color":"yellow","trial_type":"pit-trial","trial_index":168,"time_elapsed":761495,"internal_node_id":"0.0-157.0","task_version":"test-retest"},{"Rune":"rune_01_ger","Hex":"#3366ff99","Correct":-1,"Choice":-1,"RT":-1,"Accuracy":1,"Outcome":"-1","Keys":[],"TotalKeys":0,"Block":2,"Trial":153,"Robot":4,"Valence":"Lose","Action":"No-Go","Sham":0,"Color":"blue","trial_type":"pit-trial","trial_index":169,"time_elapsed":765506,"internal_node_id":"0.0-158.0","task_version":"test-retest"},{"Rune":"rune_01_ear","Hex":"#3366ff99","Correct":32,"Choice":-1,"RT":-1,"Accuracy":0,"Outcome":"-10","Keys":[],"TotalKeys":0,"Block":2,"Trial":154,"Robot":3,"Valence":"Lose","Action":"Go","Sham":0,"Color":"blue","trial_type":"pit-trial","trial_index":170,"time_elapsed":769517,"internal_node_id":"0.0-159.0","task_version":"test-retest"},{"Rune":"rune_01_yr","Hex":"#ffcc3399","Correct":32,"Choice":32,"RT":339.33499990962446,"Accuracy":1,"Outcome":"+10","Keys":[1840.5100000090897],"TotalKeys":1,"Block":2,"Trial":155,"Robot":1,"Valence":"Win","Action":"Go","Sham":0,"Color":"yellow","trial_type":"pit-trial","trial_index":171,"time_elapsed":772367,"internal_node_id":"0.0-160.0","task_version":"test-retest"},{"Rune":"rune_01_ingwaz","Hex":"#ffcc3399","Correct":-1,"Choice":32,"RT":486.0999999800697,"Accuracy":0,"Outcome":"+1","Keys":[1986.5200000349432],"TotalKeys":1,"Block":2,"Trial":156,"Robot":2,"Valence":"Win","Action":"No-Go","Sham":0,"Color":"yellow","trial_type":"pit-trial","trial_index":172,"time_elapsed":775367,"internal_node_id":"0.0-161.0","task_version":"test-retest"},{"Rune":"rune_01_ger","Hex":"#3366ff99","Correct":-1,"Choice":-1,"RT":-1,"Accuracy":1,"Outcome":"-1","Keys":[],"TotalKeys":0,"Block":2,"Trial":157,"Robot":4,"Valence":"Lose","Action":"No-Go","Sham":0,"Color":"blue","trial_type":"pit-trial","trial_index":173,"time_elapsed":779376,"internal_node_id":"0.0-162.0","task_version":"test-retest"},{"Rune":"rune_01_yr","Hex":"#ffcc3399","Correct":32,"Choice":32,"RT":387.7250000368804,"Accuracy":1,"Outcome":"+1","Keys":[1888.3099999511614],"TotalKeys":1,"Block":2,"Trial":158,"Robot":1,"Valence":"Win","Action":"Go","Sham":1,"Color":"yellow","trial_type":"pit-trial","trial_index":174,"time_elapsed":782272,"internal_node_id":"0.0-163.0","task_version":"test-retest"},{"Rune":"rune_01_ingwaz","Hex":"#ffcc3399","Correct":-1,"Choice":32,"RT":332.11499999742955,"Accuracy":0,"Outcome":"+1","Keys":[1832.4850000208244],"TotalKeys":1,"Block":2,"Trial":159,"Robot":2,"Valence":"Win","Action":"No-Go","Sham":0,"Color":"yellow","trial_type":"pit-trial","trial_index":175,"time_elapsed":785113,"internal_node_id":"0.0-164.0","task_version":"test-retest"},{"Rune":"rune_01_ear","Hex":"#3366ff99","Correct":32,"Choice":-1,"RT":-1,"Accuracy":0,"Outcome":"-10","Keys":[],"TotalKeys":0,"Block":2,"Trial":160,"Robot":3,"Valence":"Lose","Action":"Go","Sham":0,"Color":"blue","trial_type":"pit-trial","trial_index":176,"time_elapsed":789121,"internal_node_id":"0.0-165.0","task_version":"test-retest"},{"Rune":"rune_01_ingwaz","Hex":"#ffcc3399","Correct":-1,"Choice":32,"RT":323.9400000311434,"Accuracy":0,"Outcome":"+1","Keys":[1824.434999958612],"TotalKeys":1,"Block":2,"Trial":161,"Robot":2,"Valence":"Win","Action":"No-Go","Sham":0,"Color":"yellow","trial_type":"pit-trial","trial_index":177,"time_elapsed":791952,"internal_node_id":"0.0-166.0","task_version":"test-retest"},{"Rune":"rune_01_ear","Hex":"#3366ff99","Correct":32,"Choice":-1,"RT":-1,"Accuracy":0,"Outcome":"-10","Keys":[],"TotalKeys":0,"Block":2,"Trial":162,"Robot":3,"Valence":"Lose","Action":"Go","Sham":0,"Color":"blue","trial_type":"pit-trial","trial_index":178,"time_elapsed":795961,"internal_node_id":"0.0-167.0","task_version":"test-retest"},{"Rune":"rune_01_yr","Hex":"#ffcc3399","Correct":32,"Choice":32,"RT":292.0249999733642,"Accuracy":1,"Outcome":"+10","Keys":[1792.8850000025705],"TotalKeys":1,"Block":2,"Trial":163,"Robot":1,"Valence":"Win","Action":"Go","Sham":0,"Color":"yellow","trial_type":"pit-trial","trial_index":179,"time_elapsed":798759,"internal_node_id":"0.0-168.0","task_version":"test-retest"},{"Rune":"rune_01_ger","Hex":"#3366ff99","Correct":-1,"Choice":-1,"RT":-1,"Accuracy":1,"Outcome":"-1","Keys":[],"TotalKeys":0,"Block":2,"Trial":164,"Robot":4,"Valence":"Lose","Action":"No-Go","Sham":0,"Color":"blue","trial_type":"pit-trial","trial_index":180,"time_elapsed":802765,"internal_node_id":"0.0-169.0","task_version":"test-retest"},{"Rune":"rune_01_ingwaz","Hex":"#ffcc3399","Correct":-1,"Choice":32,"RT":479.8049998935312,"Accuracy":0,"Outcome":"+1","Keys":[1980.0149999791756],"TotalKeys":1,"Block":2,"Trial":165,"Robot":2,"Valence":"Win","Action":"No-Go","Sham":0,"Color":"yellow","trial_type":"pit-trial","trial_index":181,"time_elapsed":805750,"internal_node_id":"0.0-170.0","task_version":"test-retest"},{"Rune":"rune_01_yr","Hex":"#ffcc3399","Correct":32,"Choice":32,"RT":292.90999996010214,"Accuracy":1,"Outcome":"+10","Keys":[1794.1150000551715],"TotalKeys":1,"Block":2,"Trial":166,"Robot":1,"Valence":"Win","Action":"Go","Sham":0,"Color":"yellow","trial_type":"pit-trial","trial_index":182,"time_elapsed":808551,"internal_node_id":"0.0-171.0","task_version":"test-retest"},{"Rune":"rune_01_ear","Hex":"#3366ff99","Correct":32,"Choice":-1,"RT":-1,"Accuracy":0,"Outcome":"-1","Keys":[],"TotalKeys":0,"Block":2,"Trial":167,"Robot":3,"Valence":"Lose","Action":"Go","Sham":1,"Color":"blue","trial_type":"pit-trial","trial_index":183,"time_elapsed":812557,"internal_node_id":"0.0-172.0","task_version":"test-retest"},{"Rune":"rune_01_ger","Hex":"#3366ff99","Correct":-1,"Choice":-1,"RT":-1,"Accuracy":1,"Outcome":"-1","Keys":[],"TotalKeys":0,"Block":2,"Trial":168,"Robot":4,"Valence":"Lose","Action":"No-Go","Sham":0,"Color":"blue","trial_type":"pit-trial","trial_index":184,"time_elapsed":816562,"internal_node_id":"0.0-173.0","task_version":"test-retest"},{"Rune":"rune_01_ingwaz","Hex":"#ffcc3399","Correct":-1,"Choice":32,"RT":337.7399999881163,"Accuracy":0,"Outcome":"+10","Keys":[1839.2450000392273],"TotalKeys":1,"Block":2,"Trial":169,"Robot":2,"Valence":"Win","Action":"No-Go","Sham":1,"Color":"yellow","trial_type":"pit-trial","trial_index":185,"time_elapsed":819407,"internal_node_id":"0.0-174.0","task_version":"test-retest"},{"Rune":"rune_01_ger","Hex":"#3366ff99","Correct":-1,"Choice":-1,"RT":-1,"Accuracy":1,"Outcome":"-1","Keys":[],"TotalKeys":0,"Block":2,"Trial":170,"Robot":4,"Valence":"Lose","Action":"No-Go","Sham":0,"Color":"blue","trial_type":"pit-trial","trial_index":186,"time_elapsed":823413,"internal_node_id":"0.0-175.0","task_version":"test-retest"},{"Rune":"rune_01_yr","Hex":"#ffcc3399","Correct":32,"Choice":32,"RT":351.3000000966713,"Accuracy":1,"Outcome":"+10","Keys":[1852.2850000299513],"TotalKeys":1,"Block":2,"Trial":171,"Robot":1,"Valence":"Win","Action":"Go","Sham":0,"Color":"yellow","trial_type":"pit-trial","trial_index":187,"time_elapsed":826272,"internal_node_id":"0.0-176.0","task_version":"test-retest"},{"Rune":"rune_01_ear","Hex":"#3366ff99","Correct":32,"Choice":-1,"RT":-1,"Accuracy":0,"Outcome":"-10","Keys":[],"TotalKeys":0,"Block":2,"Trial":172,"Robot":3,"Valence":"Lose","Action":"Go","Sham":0,"Color":"blue","trial_type":"pit-trial","trial_index":188,"time_elapsed":830281,"internal_node_id":"0.0-177.0","task_version":"test-retest"},{"Rune":"rune_01_yr","Hex":"#ffcc3399","Correct":32,"Choice":32,"RT":345.5850000027567,"Accuracy":1,"Outcome":"+1","Keys":[1846.6849999967963],"TotalKeys":1,"Block":2,"Trial":173,"Robot":1,"Valence":"Win","Action":"Go","Sham":1,"Color":"yellow","trial_type":"pit-trial","trial_index":189,"time_elapsed":833137,"internal_node_id":"0.0-178.0","task_version":"test-retest"},{"Rune":"rune_01_ingwaz","Hex":"#ffcc3399","Correct":-1,"Choice":32,"RT":313.74499993398786,"Accuracy":0,"Outcome":"+1","Keys":[1814.420000067912],"TotalKeys":1,"Block":2,"Trial":174,"Robot":2,"Valence":"Win","Action":"No-Go","Sham":0,"Color":"yellow","trial_type":"pit-trial","trial_index":190,"time_elapsed":835960,"internal_node_id":"0.0-179.0","task_version":"test-retest"},{"Rune":"rune_01_ger","Hex":"#3366ff99","Correct":-1,"Choice":-1,"RT":-1,"Accuracy":1,"Outcome":"-10","Keys":[],"TotalKeys":0,"Block":2,"Trial":175,"Robot":4,"Valence":"Lose","Action":"No-Go","Sham":1,"Color":"blue","trial_type":"pit-trial","trial_index":191,"time_elapsed":839972,"internal_node_id":"0.0-180.0","task_version":"test-retest"},{"Rune":"rune_01_ear","Hex":"#3366ff99","Correct":32,"Choice":-1,"RT":-1,"Accuracy":0,"Outcome":"-10","Keys":[],"TotalKeys":0,"Block":2,"Trial":176,"Robot":3,"Valence":"Lose","Action":"Go","Sham":0,"Color":"blue","trial_type":"pit-trial","trial_index":192,"time_elapsed":843985,"internal_node_id":"0.0-181.0","task_version":"test-retest"},{"Rune":"rune_01_ear","Hex":"#3366ff99","Correct":32,"Choice":-1,"RT":-1,"Accuracy":0,"Outcome":"-10","Keys":[],"TotalKeys":0,"Block":2,"Trial":177,"Robot":3,"Valence":"Lose","Action":"Go","Sham":0,"Color":"blue","trial_type":"pit-trial","trial_index":193,"time_elapsed":847996,"internal_node_id":"0.0-182.0","task_version":"test-retest"},{"Rune":"rune_01_ingwaz","Hex":"#ffcc3399","Correct":-1,"Choice":32,"RT":315.7500000670552,"Accuracy":0,"Outcome":"+1","Keys":[1820.4850000329316],"TotalKeys":1,"Block":2,"Trial":178,"Robot":2,"Valence":"Win","Action":"No-Go","Sham":0,"Color":"yellow","trial_type":"pit-trial","trial_index":194,"time_elapsed":850823,"internal_node_id":"0.0-183.0","task_version":"test-retest"},{"Rune":"rune_01_yr","Hex":"#ffcc3399","Correct":32,"Choice":32,"RT":380.02000004053116,"Accuracy":1,"Outcome":"+10","Keys":[1880.0300000002608],"TotalKeys":1,"Block":2,"Trial":179,"Robot":1,"Valence":"Win","Action":"Go","Sham":0,"Color":"yellow","trial_type":"pit-trial","trial_index":195,"time_elapsed":853712,"internal_node_id":"0.0-184.0","task_version":"test-retest"},{"Rune":"rune_01_ger","Hex":"#3366ff99","Correct":-1,"Choice":-1,"RT":-1,"Accuracy":1,"Outcome":"-1","Keys":[],"TotalKeys":0,"Block":2,"Trial":180,"Robot":4,"Valence":"Lose","Action":"No-Go","Sham":0,"Color":"blue","trial_type":"pit-trial","trial_index":196,"time_elapsed":857721,"internal_node_id":"0.0-185.0","task_version":"test-retest"},{"view_history":"[{\"page_index\":0,\"viewing_time\":22019.310000003316},{\"page_index\":1,\"viewing_time\":2207.53999997396}]","rt":24227.8449999867,"trial_type":"pit-instructions","trial_index":197,"time_elapsed":881954,"internal_node_id":"0.0-186.0","task_version":"test-retest"},{"Rune":"rune_01_ear","Hex":"#3366ff99","Correct":32,"Choice":-1,"RT":-1,"Accuracy":0,"Outcome":"-10","Keys":[],"TotalKeys":0,"Block":2,"Trial":181,"Robot":3,"Valence":"Lose","Action":"Go","Sham":0,"Color":"blue","trial_type":"pit-trial","trial_index":198,"time_elapsed":885965,"internal_node_id":"0.0-187.0","task_version":"test-retest"},{"Rune":"rune_01_ger","Hex":"#3366ff99","Correct":-1,"Choice":-1,"RT":-1,"Accuracy":1,"Outcome":"-1","Keys":[],"TotalKeys":0,"Block":2,"Trial":182,"Robot":4,"Valence":"Lose","Action":"No-Go","Sham":0,"Color":"blue","trial_type":"pit-trial","trial_index":199,"time_elapsed":889972,"internal_node_id":"0.0-188.0","task_version":"test-retest"},{"Rune":"rune_01_ingwaz","Hex":"#ffcc3399","Correct":-1,"Choice":32,"RT":385.42999990750104,"Accuracy":0,"Outcome":"+1","Keys":[1888.5849999496713],"TotalKeys":1,"Block":2,"Trial":183,"Robot":2,"Valence":"Win","Action":"No-Go","Sham":0,"Color":"yellow","trial_type":"pit-trial","trial_index":200,"time_elapsed":892871,"internal_node_id":"0.0-189.0","task_version":"test-retest"},{"Rune":"rune_01_yr","Hex":"#ffcc3399","Correct":32,"Choice":32,"RT":236.644999939017,"Accuracy":1,"Outcome":"+10","Keys":[1736.960000009276],"TotalKeys":1,"Block":2,"Trial":184,"Robot":1,"Valence":"Win","Action":"Go","Sham":0,"Color":"yellow","trial_type":"pit-trial","trial_index":201,"time_elapsed":895616,"internal_node_id":"0.0-190.0","task_version":"test-retest"},{"Rune":"rune_01_yr","Hex":"#ffcc3399","Correct":32,"Choice":32,"RT":353.9050000254065,"Accuracy":1,"Outcome":"+1","Keys":[1854.1500000283122],"TotalKeys":1,"Block":2,"Trial":185,"Robot":1,"Valence":"Win","Action":"Go","Sham":1,"Color":"yellow","trial_type":"pit-trial","trial_index":202,"time_elapsed":898479,"internal_node_id":"0.0-191.0","task_version":"test-retest"},{"Rune":"rune_01_ingwaz","Hex":"#ffcc3399","Correct":-1,"Choice":32,"RT":324.65500000398606,"Accuracy":0,"Outcome":"+1","Keys":[1826.9050000235438],"TotalKeys":1,"Block":2,"Trial":186,"Robot":2,"Valence":"Win","Action":"No-Go","Sham":0,"Color":"yellow","trial_type":"pit-trial","trial_index":203,"time_elapsed":901312,"internal_node_id":"0.0-192.0","task_version":"test-retest"},{"Rune":"rune_01_ear","Hex":"#3366ff99","Correct":32,"Choice":-1,"RT":-1,"Accuracy":0,"Outcome":"-10","Keys":[],"TotalKeys":0,"Block":2,"Trial":187,"Robot":3,"Valence":"Lose","Action":"Go","Sham":0,"Color":"blue","trial_type":"pit-trial","trial_index":204,"time_elapsed":905319,"internal_node_id":"0.0-193.0","task_version":"test-retest"},{"Rune":"rune_01_ger","Hex":"#3366ff99","Correct":-1,"Choice":-1,"RT":-1,"Accuracy":1,"Outcome":"-1","Keys":[],"TotalKeys":0,"Block":2,"Trial":188,"Robot":4,"Valence":"Lose","Action":"No-Go","Sham":0,"Color":"blue","trial_type":"pit-trial","trial_index":205,"time_elapsed":909329,"internal_node_id":"0.0-194.0","task_version":"test-retest"},{"Rune":"rune_01_ger","Hex":"#3366ff99","Correct":-1,"Choice":-1,"RT":-1,"Accuracy":1,"Outcome":"-10","Keys":[],"TotalKeys":0,"Block":2,"Trial":189,"Robot":4,"Valence":"Lose","Action":"No-Go","Sham":1,"Color":"blue","trial_type":"pit-trial","trial_index":206,"time_elapsed":913340,"internal_node_id":"0.0-195.0","task_version":"test-retest"},{"Rune":"rune_01_ear","Hex":"#3366ff99","Correct":32,"Choice":-1,"RT":-1,"Accuracy":0,"Outcome":"-10","Keys":[],"TotalKeys":0,"Block":2,"Trial":190,"Robot":3,"Valence":"Lose","Action":"Go","Sham":0,"Color":"blue","trial_type":"pit-trial","trial_index":207,"time_elapsed":917351,"internal_node_id":"0.0-196.0","task_version":"test-retest"},{"Rune":"rune_01_yr","Hex":"#ffcc3399","Correct":32,"Choice":32,"RT":270.07500000763685,"Accuracy":1,"Outcome":"+10","Keys":[1770.6600000383332],"TotalKeys":1,"Block":2,"Trial":191,"Robot":1,"Valence":"Win","Action":"Go","Sham":0,"Color":"yellow","trial_type":"pit-trial","trial_index":208,"time_elapsed":920127,"internal_node_id":"0.0-197.0","task_version":"test-retest"},{"Rune":"rune_01_ingwaz","Hex":"#ffcc3399","Correct":-1,"Choice":32,"RT":243.11499996110797,"Accuracy":0,"Outcome":"+10","Keys":[1746.0000000428408],"TotalKeys":1,"Block":2,"Trial":192,"Robot":2,"Valence":"Win","Action":"No-Go","Sham":1,"Color":"yellow","trial_type":"pit-trial","trial_index":209,"time_elapsed":922879,"internal_node_id":"0.0-198.0","task_version":"test-retest"},{"Rune":"rune_01_ingwaz","Hex":"#ffcc3399","Correct":-1,"Choice":32,"RT":309.77499997243285,"Accuracy":0,"Outcome":"+1","Keys":[1810.3450000053272],"TotalKeys":1,"Block":2,"Trial":193,"Robot":2,"Valence":"Win","Action":"No-Go","Sham":0,"Color":"yellow","trial_type":"pit-trial","trial_index":210,"time_elapsed":925695,"internal_node_id":"0.0-199.0","task_version":"test-retest"},{"Rune":"rune_01_ear","Hex":"#3366ff99","Correct":32,"Choice":-1,"RT":-1,"Accuracy":0,"Outcome":"-10","Keys":[],"TotalKeys":0,"Block":2,"Trial":194,"Robot":3,"Valence":"Lose","Action":"Go","Sham":0,"Color":"blue","trial_type":"pit-trial","trial_index":211,"time_elapsed":929702,"internal_node_id":"0.0-200.0","task_version":"test-retest"},{"Rune":"rune_01_ger","Hex":"#3366ff99","Correct":-1,"Choice":-1,"RT":-1,"Accuracy":1,"Outcome":"-1","Keys":[],"TotalKeys":0,"Block":2,"Trial":195,"Robot":4,"Valence":"Lose","Action":"No-Go","Sham":0,"Color":"blue","trial_type":"pit-trial","trial_index":212,"time_elapsed":933709,"internal_node_id":"0.0-201.0","task_version":"test-retest"},{"Rune":"rune_01_yr","Hex":"#ffcc3399","Correct":32,"Choice":32,"RT":368.6549999983981,"Accuracy":1,"Outcome":"+10","Keys":[1868.830000050366],"TotalKeys":1,"Block":2,"Trial":196,"Robot":1,"Valence":"Win","Action":"Go","Sham":0,"Color":"yellow","trial_type":"pit-trial","trial_index":213,"time_elapsed":936583,"internal_node_id":"0.0-202.0","task_version":"test-retest"},{"Rune":"rune_01_ingwaz","Hex":"#ffcc3399","Correct":-1,"Choice":32,"RT":332.2799999732524,"Accuracy":0,"Outcome":"+1","Keys":[1833.8199999416247],"TotalKeys":1,"Block":2,"Trial":197,"Robot":2,"Valence":"Win","Action":"No-Go","Sham":0,"Color":"yellow","trial_type":"pit-trial","trial_index":214,"time_elapsed":939423,"internal_node_id":"0.0-203.0","task_version":"test-retest"},{"Rune":"rune_01_yr","Hex":"#ffcc3399","Correct":32,"Choice":32,"RT":327.1449999883771,"Accuracy":1,"Outcome":"+10","Keys":[1827.4949999758974],"TotalKeys":1,"Block":2,"Trial":198,"Robot":1,"Valence":"Win","Action":"Go","Sham":0,"Color":"yellow","trial_type":"pit-trial","trial_index":215,"time_elapsed":942257,"internal_node_id":"0.0-204.0","task_version":"test-retest"},{"Rune":"rune_01_ger","Hex":"#3366ff99","Correct":-1,"Choice":-1,"RT":-1,"Accuracy":1,"Outcome":"-1","Keys":[],"TotalKeys":0,"Block":2,"Trial":199,"Robot":4,"Valence":"Lose","Action":"No-Go","Sham":0,"Color":"blue","trial_type":"pit-trial","trial_index":216,"time_elapsed":946263,"internal_node_id":"0.0-205.0","task_version":"test-retest"},{"Rune":"rune_01_ear","Hex":"#3366ff99","Correct":32,"Choice":-1,"RT":-1,"Accuracy":0,"Outcome":"-1","Keys":[],"TotalKeys":0,"Block":2,"Trial":200,"Robot":3,"Valence":"Lose","Action":"Go","Sham":1,"Color":"blue","trial_type":"pit-trial","trial_index":217,"time_elapsed":950270,"internal_node_id":"0.0-206.0","task_version":"test-retest"},{"Rune":"rune_01_ear","Hex":"#3366ff99","Correct":32,"Choice":-1,"RT":-1,"Accuracy":0,"Outcome":"-1","Keys":[],"TotalKeys":0,"Block":2,"Trial":201,"Robot":3,"Valence":"Lose","Action":"Go","Sham":1,"Color":"blue","trial_type":"pit-trial","trial_index":218,"time_elapsed":954278,"internal_node_id":"0.0-207.0","task_version":"test-retest"},{"Rune":"rune_01_yr","Hex":"#ffcc3399","Correct":32,"Choice":32,"RT":286.1150000244379,"Accuracy":1,"Outcome":"+10","Keys":[1786.255000042729],"TotalKeys":1,"Block":2,"Trial":202,"Robot":1,"Valence":"Win","Action":"Go","Sham":0,"Color":"yellow","trial_type":"pit-trial","trial_index":219,"time_elapsed":957073,"internal_node_id":"0.0-208.0","task_version":"test-retest"},{"Rune":"rune_01_ger","Hex":"#3366ff99","Correct":-1,"Choice":-1,"RT":-1,"Accuracy":1,"Outcome":"-1","Keys":[],"TotalKeys":0,"Block":2,"Trial":203,"Robot":4,"Valence":"Lose","Action":"No-Go","Sham":0,"Color":"blue","trial_type":"pit-trial","trial_index":220,"time_elapsed":961082,"internal_node_id":"0.0-209.0","task_version":"test-retest"},{"Rune":"rune_01_ingwaz","Hex":"#ffcc3399","Correct":-1,"Choice":32,"RT":264.1000000294298,"Accuracy":0,"Outcome":"+10","Keys":[1764.1699999803677],"TotalKeys":1,"Block":2,"Trial":204,"Robot":2,"Valence":"Win","Action":"No-Go","Sham":1,"Color":"yellow","trial_type":"pit-trial","trial_index":221,"time_elapsed":963857,"internal_node_id":"0.0-210.0","task_version":"test-retest"},{"Rune":"rune_01_yr","Hex":"#ffcc3399","Correct":32,"Choice":32,"RT":375.025000073947,"Accuracy":1,"Outcome":"+10","Keys":[1876.6699999105185],"TotalKeys":1,"Block":2,"Trial":205,"Robot":1,"Valence":"Win","Action":"Go","Sham":0,"Color":"yellow","trial_type":"pit-trial","trial_index":222,"time_elapsed":966744,"internal_node_id":"0.0-211.0","task_version":"test-retest"},{"Rune":"rune_01_ear","Hex":"#3366ff99","Correct":32,"Choice":-1,"RT":-1,"Accuracy":0,"Outcome":"-10","Keys":[],"TotalKeys":0,"Block":2,"Trial":206,"Robot":3,"Valence":"Lose","Action":"Go","Sham":0,"Color":"blue","trial_type":"pit-trial","trial_index":223,"time_elapsed":970756,"internal_node_id":"0.0-212.0","task_version":"test-retest"},{"Rune":"rune_01_ingwaz","Hex":"#ffcc3399","Correct":-1,"Choice":32,"RT":313.89500002842396,"Accuracy":0,"Outcome":"+1","Keys":[1814.4249999895692],"TotalKeys":1,"Block":2,"Trial":207,"Robot":2,"Valence":"Win","Action":"No-Go","Sham":0,"Color":"yellow","trial_type":"pit-trial","trial_index":224,"time_elapsed":973592,"internal_node_id":"0.0-213.0","task_version":"test-retest"},{"Rune":"rune_01_ger","Hex":"#3366ff99","Correct":-1,"Choice":-1,"RT":-1,"Accuracy":1,"Outcome":"-1","Keys":[],"TotalKeys":0,"Block":2,"Trial":208,"Robot":4,"Valence":"Lose","Action":"No-Go","Sham":0,"Color":"blue","trial_type":"pit-trial","trial_index":225,"time_elapsed":977603,"internal_node_id":"0.0-214.0","task_version":"test-retest"},{"Rune":"rune_01_ingwaz","Hex":"#ffcc3399","Correct":-1,"Choice":32,"RT":430.8750000782311,"Accuracy":0,"Outcome":"+1","Keys":[1931.0500000137836],"TotalKeys":1,"Block":2,"Trial":209,"Robot":2,"Valence":"Win","Action":"No-Go","Sham":0,"Color":"yellow","trial_type":"pit-trial","trial_index":226,"time_elapsed":980544,"internal_node_id":"0.0-215.0","task_version":"test-retest"},{"Rune":"rune_01_yr","Hex":"#ffcc3399","Correct":32,"Choice":32,"RT":373.90500004403293,"Accuracy":1,"Outcome":"+10","Keys":[1874.8549999436364],"TotalKeys":1,"Block":2,"Trial":210,"Robot":1,"Valence":"Win","Action":"Go","Sham":0,"Color":"yellow","trial_type":"pit-trial","trial_index":227,"time_elapsed":983431,"internal_node_id":"0.0-216.0","task_version":"test-retest"},{"Rune":"rune_01_ger","Hex":"#3366ff99","Correct":-1,"Choice":-1,"RT":-1,"Accuracy":1,"Outcome":"-1","Keys":[],"TotalKeys":0,"Block":2,"Trial":211,"Robot":4,"Valence":"Lose","Action":"No-Go","Sham":0,"Color":"blue","trial_type":"pit-trial","trial_index":228,"time_elapsed":987442,"internal_node_id":"0.0-217.0","task_version":"test-retest"},{"Rune":"rune_01_ear","Hex":"#3366ff99","Correct":32,"Choice":-1,"RT":-1,"Accuracy":0,"Outcome":"-10","Keys":[],"TotalKeys":0,"Block":2,"Trial":212,"Robot":3,"Valence":"Lose","Action":"Go","Sham":0,"Color":"blue","trial_type":"pit-trial","trial_index":229,"time_elapsed":991453,"internal_node_id":"0.0-218.0","task_version":"test-retest"},{"Rune":"rune_01_ear","Hex":"#3366ff99","Correct":32,"Choice":-1,"RT":-1,"Accuracy":0,"Outcome":"-10","Keys":[],"TotalKeys":0,"Block":2,"Trial":213,"Robot":3,"Valence":"Lose","Action":"Go","Sham":0,"Color":"blue","trial_type":"pit-trial","trial_index":230,"time_elapsed":995460,"internal_node_id":"0.0-219.0","task_version":"test-retest"},{"Rune":"rune_01_yr","Hex":"#ffcc3399","Correct":32,"Choice":32,"RT":239.1150000039488,"Accuracy":1,"Outcome":"+1","Keys":[1740.734999999404],"TotalKeys":1,"Block":2,"Trial":214,"Robot":1,"Valence":"Win","Action":"Go","Sham":1,"Color":"yellow","trial_type":"pit-trial","trial_index":231,"time_elapsed":998206,"internal_node_id":"0.0-220.0","task_version":"test-retest"},{"Rune":"rune_01_ger","Hex":"#3366ff99","Correct":-1,"Choice":-1,"RT":-1,"Accuracy":1,"Outcome":"-1","Keys":[],"TotalKeys":0,"Block":2,"Trial":215,"Robot":4,"Valence":"Lose","Action":"No-Go","Sham":0,"Color":"blue","trial_type":"pit-trial","trial_index":232,"time_elapsed":1002213,"internal_node_id":"0.0-221.0","task_version":"test-retest"},{"Rune":"rune_01_ingwaz","Hex":"#ffcc3399","Correct":-1,"Choice":32,"RT":412.29999996721745,"Accuracy":0,"Outcome":"+1","Keys":[1912.8100000089034],"TotalKeys":1,"Block":2,"Trial":216,"Robot":2,"Valence":"Win","Action":"No-Go","Sham":0,"Color":"yellow","trial_type":"pit-trial","trial_index":233,"time_elapsed":1005134,"internal_node_id":"0.0-222.0","task_version":"test-retest"},{"Rune":"rune_01_yr","Hex":"#ffcc3399","Correct":32,"Choice":32,"RT":395.51000006031245,"Accuracy":1,"Outcome":"+10","Keys":[1897.014999995008],"TotalKeys":1,"Block":2,"Trial":217,"Robot":1,"Valence":"Win","Action":"Go","Sham":0,"Color":"yellow","trial_type":"pit-trial","trial_index":234,"time_elapsed":1008038,"internal_node_id":"0.0-223.0","task_version":"test-retest"},{"Rune":"rune_01_ingwaz","Hex":"#ffcc3399","Correct":-1,"Choice":32,"RT":533.2249999046326,"Accuracy":0,"Outcome":"+1","Keys":[2035.5149999959394],"TotalKeys":1,"Block":2,"Trial":218,"Robot":2,"Valence":"Win","Action":"No-Go","Sham":0,"Color":"yellow","trial_type":"pit-trial","trial_index":235,"time_elapsed":1011080,"internal_node_id":"0.0-224.0","task_version":"test-retest"},{"Rune":"rune_01_ear","Hex":"#3366ff99","Correct":32,"Choice":-1,"RT":-1,"Accuracy":0,"Outcome":"-10","Keys":[],"TotalKeys":0,"Block":2,"Trial":219,"Robot":3,"Valence":"Lose","Action":"Go","Sham":0,"Color":"blue","trial_type":"pit-trial","trial_index":236,"time_elapsed":1015087,"internal_node_id":"0.0-225.0","task_version":"test-retest"},{"Rune":"rune_01_ger","Hex":"#3366ff99","Correct":-1,"Choice":-1,"RT":-1,"Accuracy":1,"Outcome":"-10","Keys":[],"TotalKeys":0,"Block":2,"Trial":220,"Robot":4,"Valence":"Lose","Action":"No-Go","Sham":1,"Color":"blue","trial_type":"pit-trial","trial_index":237,"time_elapsed":1019093,"internal_node_id":"0.0-226.0","task_version":"test-retest"},{"Rune":"rune_01_ger","Hex":"#3366ff99","Correct":-1,"Choice":-1,"RT":-1,"Accuracy":1,"Outcome":"-1","Keys":[],"TotalKeys":0,"Block":2,"Trial":221,"Robot":4,"Valence":"Lose","Action":"No-Go","Sham":0,"Color":"blue","trial_type":"pit-trial","trial_index":238,"time_elapsed":1023101,"internal_node_id":"0.0-227.0","task_version":"test-retest"},{"Rune":"rune_01_ear","Hex":"#3366ff99","Correct":32,"Choice":-1,"RT":-1,"Accuracy":0,"Outcome":"-10","Keys":[],"TotalKeys":0,"Block":2,"Trial":222,"Robot":3,"Valence":"Lose","Action":"Go","Sham":0,"Color":"blue","trial_type":"pit-trial","trial_index":239,"time_elapsed":1027108,"internal_node_id":"0.0-228.0","task_version":"test-retest"},{"Rune":"rune_01_ingwaz","Hex":"#ffcc3399","Correct":-1,"Choice":32,"RT":297.88500000722706,"Accuracy":0,"Outcome":"+1","Keys":[1798.2199999969453],"TotalKeys":1,"Block":2,"Trial":223,"Robot":2,"Valence":"Win","Action":"No-Go","Sham":0,"Color":"yellow","trial_type":"pit-trial","trial_index":240,"time_elapsed":1029911,"internal_node_id":"0.0-229.0","task_version":"test-retest"},{"Rune":"rune_01_yr","Hex":"#ffcc3399","Correct":32,"Choice":32,"RT":302.84999997820705,"Accuracy":1,"Outcome":"+10","Keys":[1803.719999967143],"TotalKeys":1,"Block":2,"Trial":224,"Robot":1,"Valence":"Win","Action":"Go","Sham":0,"Color":"yellow","trial_type":"pit-trial","trial_index":241,"time_elapsed":1032720,"internal_node_id":"0.0-230.0","task_version":"test-retest"},{"Rune":"rune_01_ingwaz","Hex":"#ffcc3399","Correct":-1,"Choice":32,"RT":281.38500009663403,"Accuracy":0,"Outcome":"+1","Keys":[1784.9899999564514],"TotalKeys":1,"Block":2,"Trial":225,"Robot":2,"Valence":"Win","Action":"No-Go","Sham":0,"Color":"yellow","trial_type":"pit-trial","trial_index":242,"time_elapsed":1035510,"internal_node_id":"0.0-231.0","task_version":"test-retest"},{"Rune":"rune_01_ger","Hex":"#3366ff99","Correct":-1,"Choice":-1,"RT":-1,"Accuracy":1,"Outcome":"-1","Keys":[],"TotalKeys":0,"Block":2,"Trial":226,"Robot":4,"Valence":"Lose","Action":"No-Go","Sham":0,"Color":"blue","trial_type":"pit-trial","trial_index":243,"time_elapsed":1039515,"internal_node_id":"0.0-232.0","task_version":"test-retest"},{"Rune":"rune_01_yr","Hex":"#ffcc3399","Correct":32,"Choice":32,"RT":249.71000000368804,"Accuracy":1,"Outcome":"+10","Keys":[1750.4799999296665],"TotalKeys":1,"Block":2,"Trial":227,"Robot":1,"Valence":"Win","Action":"Go","Sham":0,"Color":"yellow","trial_type":"pit-trial","trial_index":244,"time_elapsed":1042271,"internal_node_id":"0.0-233.0","task_version":"test-retest"},{"Rune":"rune_01_ear","Hex":"#3366ff99","Correct":32,"Choice":-1,"RT":-1,"Accuracy":0,"Outcome":"-10","Keys":[],"TotalKeys":0,"Block":2,"Trial":228,"Robot":3,"Valence":"Lose","Action":"Go","Sham":0,"Color":"blue","trial_type":"pit-trial","trial_index":245,"time_elapsed":1046277,"internal_node_id":"0.0-234.0","task_version":"test-retest"},{"Rune":"rune_01_ingwaz","Hex":"#ffcc3399","Correct":-1,"Choice":32,"RT":247.32500000391155,"Accuracy":0,"Outcome":"+10","Keys":[1748.0549999745563],"TotalKeys":1,"Block":2,"Trial":229,"Robot":2,"Valence":"Win","Action":"No-Go","Sham":1,"Color":"yellow","trial_type":"pit-trial","trial_index":246,"time_elapsed":1049031,"internal_node_id":"0.0-235.0","task_version":"test-retest"},{"Rune":"rune_01_ger","Hex":"#3366ff99","Correct":-1,"Choice":-1,"RT":-1,"Accuracy":1,"Outcome":"-1","Keys":[],"TotalKeys":0,"Block":2,"Trial":230,"Robot":4,"Valence":"Lose","Action":"No-Go","Sham":0,"Color":"blue","trial_type":"pit-trial","trial_index":247,"time_elapsed":1053037,"internal_node_id":"0.0-236.0","task_version":"test-retest"},{"Rune":"rune_01_ear","Hex":"#3366ff99","Correct":32,"Choice":-1,"RT":-1,"Accuracy":0,"Outcome":"-10","Keys":[],"TotalKeys":0,"Block":2,"Trial":231,"Robot":3,"Valence":"Lose","Action":"Go","Sham":0,"Color":"blue","trial_type":"pit-trial","trial_index":248,"time_elapsed":1057043,"internal_node_id":"0.0-237.0","task_version":"test-retest"},{"Rune":"rune_01_yr","Hex":"#ffcc3399","Correct":32,"Choice":32,"RT":249.39000001177192,"Accuracy":1,"Outcome":"+10","Keys":[1750.2500000409782],"TotalKeys":1,"Block":2,"Trial":232,"Robot":1,"Valence":"Win","Action":"Go","Sham":0,"Color":"yellow","trial_type":"pit-trial","trial_index":249,"time_elapsed":1059799,"internal_node_id":"0.0-238.0","task_version":"test-retest"},{"Rune":"rune_01_ear","Hex":"#3366ff99","Correct":32,"Choice":-1,"RT":-1,"Accuracy":0,"Outcome":"-1","Keys":[],"TotalKeys":0,"Block":2,"Trial":233,"Robot":3,"Valence":"Lose","Action":"Go","Sham":1,"Color":"blue","trial_type":"pit-trial","trial_index":250,"time_elapsed":1063807,"internal_node_id":"0.0-239.0","task_version":"test-retest"},{"Rune":"rune_01_ingwaz","Hex":"#ffcc3399","Correct":-1,"Choice":32,"RT":298.22500003501773,"Accuracy":0,"Outcome":"+1","Keys":[1800.0999999931082],"TotalKeys":1,"Block":2,"Trial":234,"Robot":2,"Valence":"Win","Action":"No-Go","Sham":0,"Color":"yellow","trial_type":"pit-trial","trial_index":251,"time_elapsed":1066615,"internal_node_id":"0.0-240.0","task_version":"test-retest"},{"Rune":"rune_01_ger","Hex":"#3366ff99","Correct":-1,"Choice":-1,"RT":-1,"Accuracy":1,"Outcome":"-1","Keys":[],"TotalKeys":0,"Block":2,"Trial":235,"Robot":4,"Valence":"Lose","Action":"No-Go","Sham":0,"Color":"blue","trial_type":"pit-trial","trial_index":252,"time_elapsed":1070623,"internal_node_id":"0.0-241.0","task_version":"test-retest"},{"Rune":"rune_01_yr","Hex":"#ffcc3399","Correct":32,"Choice":32,"RT":404.4949999079108,"Accuracy":1,"Outcome":"+1","Keys":[1905.8799999766052],"TotalKeys":1,"Block":2,"Trial":236,"Robot":1,"Valence":"Win","Action":"Go","Sham":1,"Color":"yellow","trial_type":"pit-trial","trial_index":253,"time_elapsed":1073535,"internal_node_id":"0.0-242.0","task_version":"test-retest"},{"Rune":"rune_01_ear","Hex":"#3366ff99","Correct":32,"Choice":-1,"RT":-1,"Accuracy":0,"Outcome":"-10","Keys":[],"TotalKeys":0,"Block":2,"Trial":237,"Robot":3,"Valence":"Lose","Action":"Go","Sham":0,"Color":"blue","trial_type":"pit-trial","trial_index":254,"time_elapsed":1077543,"internal_node_id":"0.0-243.0","task_version":"test-retest"},{"Rune":"rune_01_ger","Hex":"#3366ff99","Correct":-1,"Choice":-1,"RT":-1,"Accuracy":1,"Outcome":"-10","Keys":[],"TotalKeys":0,"Block":2,"Trial":238,"Robot":4,"Valence":"Lose","Action":"No-Go","Sham":1,"Color":"blue","trial_type":"pit-trial","trial_index":255,"time_elapsed":1081551,"internal_node_id":"0.0-244.0","task_version":"test-retest"},{"Rune":"rune_01_yr","Hex":"#ffcc3399","Correct":32,"Choice":32,"RT":285.050000064075,"Accuracy":1,"Outcome":"+10","Keys":[1785.2100000018254],"TotalKeys":1,"Block":2,"Trial":239,"Robot":1,"Valence":"Win","Action":"Go","Sham":0,"Color":"yellow","trial_type":"pit-trial","trial_index":256,"time_elapsed":1084345,"internal_node_id":"0.0-245.0","task_version":"test-retest"},{"Rune":"rune_01_ingwaz","Hex":"#ffcc3399","Correct":-1,"Choice":32,"RT":350.7449999451637,"Accuracy":0,"Outcome":"+1","Keys":[1850.8650000439957],"TotalKeys":1,"Block":2,"Trial":240,"Robot":2,"Valence":"Win","Action":"No-Go","Sham":0,"Color":"yellow","trial_type":"pit-trial","trial_index":257,"time_elapsed":1087224,"internal_node_id":"0.0-246.0","task_version":"test-retest"},{"view_history":"[{\"page_index\":0,\"viewing_time\":3707.2799999732524}]","rt":3708.3550000097603,"trial_type":"pit-instructions","trial_index":258,"time_elapsed":1090935,"internal_node_id":"0.0-247.0","task_version":"test-retest"},{"responses":{"Q11":"2","Q15":"1","Q14":"1","Q02":"1","Q05":"2","Q04":"2","Q10":"2","Q08":"1","Q07":"1","Q03":"1","Q13":"1","Q06":"2","Q09":"2","Q12":"2","Q01":"2"},"rt":20621.180000016466,"survey":"7up7down","trial_type":"survey-template","trial_index":259,"time_elapsed":1111575,"internal_node_id":"0.0-248.0","task_version":"test-retest"},{"responses":{"Q08":"0","Q02":"0","Q07":"0","Q05":"0","Q04":"1","Q01":"1","Q03":"1","Q06":"1"},"rt":17663.13000000082,"survey":"gad7","trial_type":"survey-template","trial_index":260,"time_elapsed":1129246,"internal_node_id":"0.0-249.0","task_version":"test-retest"},{"responses":{"Q09":"1","Q07":"1","Q04":"1","Q10":"1","Q03":"1","Q13":"1","Q11":"1","Q02":"1","Q01":"1","Q06":"1","Q08":"1","Q12":"1","Q05":"1"},"rt":17816.54500006698,"survey":"bisbas","trial_type":"survey-template","trial_index":261,"time_elapsed":1147073,"internal_node_id":"0.0-250.0","task_version":"test-retest"},{"rt":10000.099999946542,"responses":{"age":"64","gender-categorical":"Male","gender-free-response":"","ethnicity":"Not Hispanic or Latino","race":"White","language":"Yes","fluency":"Very well"},"survey":"demographics","trial_type":"survey-demo","trial_index":262,"time_elapsed":1157084,"internal_node_id":"0.0-251.0","task_version":"test-retest"},{"rt":12013.225000002421,"responses":{"difficulty":"5","fun":"5","clarity":"5","strategy":"No","feedback":""},"survey":"debrief","trial_type":"survey-debrief","trial_index":263,"time_elapsed":1169104,"internal_node_id":"0.0-252.0","task_version":"test-retest"},{"rt":4455.2450000774115,"stimulus":"You earned a bonus of $0.76 out of $1.5.<br><br>Press any key to complete the experiment.","key_press":32,"trial_type":"html-keyboard-response","trial_index":264,"time_elapsed":1173566,"internal_node_id":"0.0-253.0","task_version":"test-retest","accuracy":0.5041666666666667,"bonus":0.76,"interactions":"[{\"event\":\"blur\",\"trial\":0,\"time\":0},{\"event\":\"focus\",\"trial\":0,\"time\":3707},{\"event\":\"blur\",\"trial\":1,\"time\":15394},{\"event\":\"focus\",\"trial\":1,\"time\":15682},{\"event\":\"blur\",\"trial\":1,\"time\":37415},{\"event\":\"focus\",\"trial\":1,\"time\":37704},{\"event\":\"blur\",\"trial\":11,\"time\":155946},{\"event\":\"focus\",\"trial\":11,\"time\":169461},{\"event\":\"blur\",\"trial\":75,\"time\":422275},{\"event\":\"focus\",\"trial\":75,\"time\":425607},{\"event\":\"blur\",\"trial\":197,\"time\":860326},{\"event\":\"focus\",\"trial\":197,\"time\":878242},{\"event\":\"blur\",\"trial\":261,\"time\":1146216},{\"event\":\"focus\",\"trial\":261,\"time\":1146520}]"}]