[{"slider_type":"valence","raw_loc":495.5,"loc":0.491,"trial_type":"affective-slider","trial_index":0,"time_elapsed":5077,"internal_node_id":"0.0-0.0","task_version":"test-retest"},{"view_history":"[{\"page_index\":0,\"viewing_time\":341.13499999511987},{\"page_index\":1,\"viewing_time\":201.0149999987334},{\"page_index\":0,\"viewing_time\":2986.434999969788},{\"page_index\":1,\"viewing_time\":3658.575000008568},{\"page_index\":2,\"viewing_time\":4374.884999997448},{\"page_index\":3,\"viewing_time\":2841.0300000105053},{\"page_index\":4,\"viewing_time\":3252.0300000323914}]","rt":17655.679999967106,"trial_type":"pit-instructions","trial_index":1,"time_elapsed":22735,"internal_node_id":"0.0-1.0-0.0","task_version":"test-retest"},{"Rune":"rune_00_ingz","Hex":"#FFFFF080","Correct":32,"Choice":32,"RT":388.5250000166707,"Accuracy":1,"Outcome":"+10","Keys":[1892.565000045579],"TotalKeys":1,"Block":0,"Action":"Go","trial_type":"pit-trial","trial_index":2,"time_elapsed":25633,"internal_node_id":"0.0-1.0-1.0-0.0","task_version":"test-retest"},{"Rune":"rune_00_ingz","Hex":"#FFFFF080","Correct":32,"Choice":32,"RT":337.7699999837205,"Accuracy":1,"Outcome":"+10","Keys":[1849.309999961406],"TotalKeys":1,"Block":0,"Action":"Go","trial_type":"pit-trial","trial_index":3,"time_elapsed":28489,"internal_node_id":"0.0-1.0-1.0-0.1","task_version":"test-retest"},{"Rune":"rune_00_ingz","Hex":"#FFFFF080","Correct":32,"Choice":32,"RT":388.47000000532717,"Accuracy":1,"Outcome":"+10","Keys":[1889.2399999895133],"TotalKeys":1,"Block":0,"Action":"Go","trial_type":"pit-trial","trial_index":4,"time_elapsed":31384,"internal_node_id":"0.0-1.0-1.0-0.2","task_version":"test-retest"},{"Rune":"rune_00_ingz","Hex":"#FFFFF080","Correct":32,"Choice":32,"RT":364.5550000364892,"Accuracy":1,"Outcome":"+10","Keys":[1870.1949999667704],"TotalKeys":1,"Block":0,"Action":"Go","trial_type":"pit-trial","trial_index":5,"time_elapsed":34263,"internal_node_id":"0.0-1.0-1.0-0.3","task_version":"test-retest"},{"view_history":"[{\"page_index\":0,\"viewing_time\":3300.730000017211}]","rt":3301.4400000101887,"trial_type":"pit-instructions","trial_index":6,"time_elapsed":37566,"internal_node_id":"0.0-1.0-2.0","task_version":"test-retest"},{"Rune":"rune_00_isaz","Hex":"#FFFFF080","Correct":-1,"Choice":-1,"RT":-1,"Accuracy":1,"Outcome":"+10","Keys":[],"TotalKeys":0,"Block":0,"Action":"No-Go","trial_type":"pit-trial","trial_index":7,"time_elapsed":41579,"internal_node_id":"0.0-1.0-3.0-0.0","task_version":"test-retest"},{"Rune":"rune_00_isaz","Hex":"#FFFFF080","Correct":-1,"Choice":-1,"RT":-1,"Accuracy":1,"Outcome":"+10","Keys":[],"TotalKeys":0,"Block":0,"Action":"No-Go","trial_type":"pit-trial","trial_index":8,"time_elapsed":45588,"internal_node_id":"0.0-1.0-3.0-0.1","task_version":"test-retest"},{"Rune":"rune_00_isaz","Hex":"#FFFFF080","Correct":-1,"Choice":-1,"RT":-1,"Accuracy":1,"Outcome":"+10","Keys":[],"TotalKeys":0,"Block":0,"Action":"No-Go","trial_type":"pit-trial","trial_index":9,"time_elapsed":49596,"internal_node_id":"0.0-1.0-3.0-0.2","task_version":"test-retest"},{"Rune":"rune_00_isaz","Hex":"#FFFFF080","Correct":-1,"Choice":-1,"RT":-1,"Accuracy":1,"Outcome":"+10","Keys":[],"TotalKeys":0,"Block":0,"Action":"No-Go","trial_type":"pit-trial","trial_index":10,"time_elapsed":53607,"internal_node_id":"0.0-1.0-3.0-0.3","task_version":"test-retest"},{"view_history":"[{\"page_index\":0,\"viewing_time\":3093.4099999722093},{\"page_index\":1,\"viewing_time\":8744.524999987334},{\"page_index\":2,\"viewing_time\":6196.880000003148},{\"page_index\":3,\"viewing_time\":4538.690000015777},{\"page_index\":4,\"viewing_time\":2387.2899999842048},{\"page_index\":5,\"viewing_time\":3892.7350000012666},{\"page_index\":6,\"viewing_time\":125114.7850000416},{\"page_index\":7,\"viewing_time\":2852.9949999647215}]","rt":156822.0399999991,"trial_type":"pit-instructions","trial_index":11,"time_elapsed":210435,"internal_node_id":"0.0-1.0-4.0","task_version":"test-retest"},{"responses":["Do nothing","+10","-10","True","Yes"],"num_errors":1,"rt":15757.97000003513,"trial_type":"pit-comprehension","trial_index":12,"time_elapsed":226199,"internal_node_id":"0.0-1.0-5.0","task_version":"test-retest"},{"view_history":"[{\"page_index\":0,\"viewing_time\":3115.0899999774992},{\"page_index\":1,\"viewing_time\":9115.445000003092},{\"page_index\":0,\"viewing_time\":1256.9800000055693},{\"page_index\":1,\"viewing_time\":3847.6299999747425}]","rt":17335.649999964517,"trial_type":"pit-instructions","trial_index":13,"time_elapsed":243541,"internal_node_id":"0.0-2.0","task_version":"test-retest"},{"Rune":"rune_02_haglaz","Hex":"#3366ff99","Correct":32,"Choice":-1,"RT":-1,"Accuracy":0,"Outcome":"-1","Keys":[],"TotalKeys":0,"Block":1,"Trial":1,"Robot":3,"Valence":"Lose","Action":"Go","Sham":1,"Color":"blue","trial_type":"pit-trial","trial_index":14,"time_elapsed":247551,"internal_node_id":"0.0-3.0","task_version":"test-retest"},{"Rune":"rune_02_raido","Hex":"#ffcc3399","Correct":-1,"Choice":32,"RT":476.1150000267662,"Accuracy":0,"Outcome":"+1","Keys":[1976.8049999838695],"TotalKeys":1,"Block":1,"Trial":2,"Robot":2,"Valence":"Win","Action":"No-Go","Sham":0,"Color":"yellow","trial_type":"pit-trial","trial_index":15,"time_elapsed":250530,"internal_node_id":"0.0-4.0","task_version":"test-retest"},{"Rune":"rune_02_cen","Hex":"#3366ff99","Correct":-1,"Choice":-1,"RT":-1,"Accuracy":1,"Outcome":"-1","Keys":[],"TotalKeys":0,"Block":1,"Trial":3,"Robot":4,"Valence":"Lose","Action":"No-Go","Sham":0,"Color":"blue","trial_type":"pit-trial","trial_index":16,"time_elapsed":254539,"internal_node_id":"0.0-5.0","task_version":"test-retest"},{"Rune":"rune_02_os","Hex":"#ffcc3399","Correct":32,"Choice":-1,"RT":-1,"Accuracy":0,"Outcome":"+10","Keys":[3444.7349999682046],"TotalKeys":1,"Block":1,"Trial":4,"Robot":1,"Valence":"Win","Action":"Go","Sham":1,"Color":"yellow","trial_type":"pit-trial","trial_index":17,"time_elapsed":258550,"internal_node_id":"0.0-6.0","task_version":"test-retest"},{"Rune":"rune_02_cen","Hex":"#3366ff99","Correct":-1,"Choice":-1,"RT":-1,"Accuracy":1,"Outcome":"-10","Keys":[3644.525000010617],"TotalKeys":1,"Block":1,"Trial":5,"Robot":4,"Valence":"Lose","Action":"No-Go","Sham":1,"Color":"blue","trial_type":"pit-trial","trial_index":18,"time_elapsed":262557,"internal_node_id":"0.0-7.0","task_version":"test-retest"},{"Rune":"rune_02_haglaz","Hex":"#3366ff99","Correct":32,"Choice":-1,"RT":-1,"Accuracy":0,"Outcome":"-10","Keys":[3458.425000018906],"TotalKeys":1,"Block":1,"Trial":6,"Robot":3,"Valence":"Lose","Action":"Go","Sham":0,"Color":"blue","trial_type":"pit-trial","trial_index":19,"time_elapsed":266566,"internal_node_id":"0.0-8.0","task_version":"test-retest"},{"Rune":"rune_02_raido","Hex":"#ffcc3399","Correct":-1,"Choice":32,"RT":442.1199999633245,"Accuracy":0,"Outcome":"+1","Keys":[1944.2050000070594],"TotalKeys":1,"Block":1,"Trial":7,"Robot":2,"Valence":"Win","Action":"No-Go","Sham":0,"Color":"yellow","trial_type":"pit-trial","trial_index":20,"time_elapsed":269515,"internal_node_id":"0.0-9.0","task_version":"test-retest"},{"Rune":"rune_02_os","Hex":"#ffcc3399","Correct":32,"Choice":32,"RT":522.2699999576434,"Accuracy":1,"Outcome":"+10","Keys":[2025.5100000067614],"TotalKeys":1,"Block":1,"Trial":8,"Robot":1,"Valence":"Win","Action":"Go","Sham":0,"Color":"yellow","trial_type":"pit-trial","trial_index":21,"time_elapsed":272547,"internal_node_id":"0.0-10.0","task_version":"test-retest"},{"Rune":"rune_02_haglaz","Hex":"#3366ff99","Correct":32,"Choice":32,"RT":666.6750000440516,"Accuracy":1,"Outcome":"-1","Keys":[2168.579999997746],"TotalKeys":1,"Block":1,"Trial":9,"Robot":3,"Valence":"Lose","Action":"Go","Sham":0,"Color":"blue","trial_type":"pit-trial","trial_index":22,"time_elapsed":275722,"internal_node_id":"0.0-11.0","task_version":"test-retest"},{"Rune":"rune_02_cen","Hex":"#3366ff99","Correct":-1,"Choice":-1,"RT":-1,"Accuracy":1,"Outcome":"-1","Keys":[],"TotalKeys":0,"Block":1,"Trial":10,"Robot":4,"Valence":"Lose","Action":"No-Go","Sham":0,"Color":"blue","trial_type":"pit-trial","trial_index":23,"time_elapsed":279731,"internal_node_id":"0.0-12.0","task_version":"test-retest"},{"Rune":"rune_02_os","Hex":"#ffcc3399","Correct":32,"Choice":32,"RT":1270.7150000496767,"Accuracy":1,"Outcome":"+10","Keys":[2772.434999991674],"TotalKeys":1,"Block":1,"Trial":11,"Robot":1,"Valence":"Win","Action":"Go","Sham":0,"Color":"yellow","trial_type":"pit-trial","trial_index":24,"time_elapsed":283511,"internal_node_id":"0.0-13.0","task_version":"test-retest"},{"Rune":"rune_02_raido","Hex":"#ffcc3399","Correct":-1,"Choice":32,"RT":737.1949999942444,"Accuracy":0,"Outcome":"+1","Keys":[2241.374999983236],"TotalKeys":1,"Block":1,"Trial":12,"Robot":2,"Valence":"Win","Action":"No-Go","Sham":0,"Color":"yellow","trial_type":"pit-trial","trial_index":25,"time_elapsed":286756,"internal_node_id":"0.0-14.0","task_version":"test-retest"},{"Rune":"rune_02_raido","Hex":"#ffcc3399","Correct":-1,"Choice":-1,"RT":-1,"Accuracy":1,"Outcome":"+10","Keys":[],"TotalKeys":0,"Block":1,"Trial":13,"Robot":2,"Valence":"Win","Action":"No-Go","Sham":0,"Color":"yellow","trial_type":"pit-trial","trial_index":26,"time_elapsed":290763,"internal_node_id":"0.0-15.0","task_version":"test-retest"},{"Rune":"rune_02_haglaz","Hex":"#3366ff99","Correct":32,"Choice":32,"RT":1394.8749999981374,"Accuracy":1,"Outcome":"-1","Keys":[2895.1900000101887],"TotalKeys":1,"Block":1,"Trial":14,"Robot":3,"Valence":"Lose","Action":"Go","Sham":0,"Color":"blue","trial_type":"pit-trial","trial_index":27,"time_elapsed":294668,"internal_node_id":"0.0-16.0","task_version":"test-retest"},{"Rune":"rune_02_os","Hex":"#ffcc3399","Correct":32,"Choice":32,"RT":1320.8849999937229,"Accuracy":1,"Outcome":"+10","Keys":[2821.5499999932945],"TotalKeys":1,"Block":1,"Trial":15,"Robot":1,"Valence":"Win","Action":"Go","Sham":0,"Color":"yellow","trial_type":"pit-trial","trial_index":28,"time_elapsed":298496,"internal_node_id":"0.0-17.0","task_version":"test-retest"},{"Rune":"rune_02_cen","Hex":"#3366ff99","Correct":-1,"Choice":-1,"RT":-1,"Accuracy":1,"Outcome":"-1","Keys":[],"TotalKeys":0,"Block":1,"Trial":16,"Robot":4,"Valence":"Lose","Action":"No-Go","Sham":0,"Color":"blue","trial_type":"pit-trial","trial_index":29,"time_elapsed":302511,"internal_node_id":"0.0-18.0","task_version":"test-retest"},{"Rune":"rune_02_raido","Hex":"#ffcc3399","Correct":-1,"Choice":32,"RT":494.03000000165775,"Accuracy":0,"Outcome":"+10","Keys":[1994.684999983292],"TotalKeys":1,"Block":1,"Trial":17,"Robot":2,"Valence":"Win","Action":"No-Go","Sham":1,"Color":"yellow","trial_type":"pit-trial","trial_index":30,"time_elapsed":305513,"internal_node_id":"0.0-19.0","task_version":"test-retest"},{"Rune":"rune_02_os","Hex":"#ffcc3399","Correct":32,"Choice":32,"RT":500.42499997653067,"Accuracy":1,"Outcome":"+10","Keys":[2009.459999972023,2536.985000013374],"TotalKeys":2,"Block":1,"Trial":18,"Robot":1,"Valence":"Win","Action":"Go","Sham":0,"Color":"yellow","trial_type":"pit-trial","trial_index":31,"time_elapsed":308528,"internal_node_id":"0.0-20.0","task_version":"test-retest"},{"Rune":"rune_02_haglaz","Hex":"#3366ff99","Correct":32,"Choice":32,"RT":528.35999999661,"Accuracy":1,"Outcome":"-1","Keys":[2029.3999999994412],"TotalKeys":1,"Block":1,"Trial":19,"Robot":3,"Valence":"Lose","Action":"Go","Sham":0,"Color":"blue","trial_type":"pit-trial","trial_index":32,"time_elapsed":311564,"internal_node_id":"0.0-21.0","task_version":"test-retest"},{"Rune":"rune_02_cen","Hex":"#3366ff99","Correct":-1,"Choice":-1,"RT":-1,"Accuracy":1,"Outcome":"-1","Keys":[],"TotalKeys":0,"Block":1,"Trial":20,"Robot":4,"Valence":"Lose","Action":"No-Go","Sham":0,"Color":"blue","trial_type":"pit-trial","trial_index":33,"time_elapsed":315575,"internal_node_id":"0.0-22.0","task_version":"test-retest"},{"Rune":"rune_02_cen","Hex":"#3366ff99","Correct":-1,"Choice":-1,"RT":-1,"Accuracy":1,"Outcome":"-10","Keys":[3543.550000002142],"TotalKeys":1,"Block":1,"Trial":21,"Robot":4,"Valence":"Lose","Action":"No-Go","Sham":1,"Color":"blue","trial_type":"pit-trial","trial_index":34,"time_elapsed":319583,"internal_node_id":"0.0-23.0","task_version":"test-retest"},{"Rune":"rune_02_raido","Hex":"#ffcc3399","Correct":-1,"Choice":32,"RT":447.8899999521673,"Accuracy":0,"Outcome":"+1","Keys":[73.08499998180196,1949.2449999670498],"TotalKeys":2,"Block":1,"Trial":22,"Robot":2,"Valence":"Win","Action":"No-Go","Sham":0,"Color":"yellow","trial_type":"pit-trial","trial_index":35,"time_elapsed":322539,"internal_node_id":"0.0-24.0","task_version":"test-retest"},{"Rune":"rune_02_haglaz","Hex":"#3366ff99","Correct":32,"Choice":-1,"RT":-1,"Accuracy":0,"Outcome":"-10","Keys":[],"TotalKeys":0,"Block":1,"Trial":23,"Robot":3,"Valence":"Lose","Action":"Go","Sham":0,"Color":"blue","trial_type":"pit-trial","trial_index":36,"time_elapsed":326550,"internal_node_id":"0.0-25.0","task_version":"test-retest"},{"Rune":"rune_02_os","Hex":"#ffcc3399","Correct":32,"Choice":32,"RT":557.245000032708,"Accuracy":1,"Outcome":"+10","Keys":[2058.9150000014342],"TotalKeys":1,"Block":1,"Trial":24,"Robot":1,"Valence":"Win","Action":"Go","Sham":0,"Color":"yellow","trial_type":"pit-trial","trial_index":37,"time_elapsed":329615,"internal_node_id":"0.0-26.0","task_version":"test-retest"},{"Rune":"rune_02_os","Hex":"#ffcc3399","Correct":32,"Choice":32,"RT":413.12000004108995,"Accuracy":1,"Outcome":"+10","Keys":[1913.5399999795482],"TotalKeys":1,"Block":1,"Trial":25,"Robot":1,"Valence":"Win","Action":"Go","Sham":0,"Color":"yellow","trial_type":"pit-trial","trial_index":38,"time_elapsed":332532,"internal_node_id":"0.0-27.0","task_version":"test-retest"},{"Rune":"rune_02_cen","Hex":"#3366ff99","Correct":-1,"Choice":-1,"RT":-1,"Accuracy":1,"Outcome":"-1","Keys":[],"TotalKeys":0,"Block":1,"Trial":26,"Robot":4,"Valence":"Lose","Action":"No-Go","Sham":0,"Color":"blue","trial_type":"pit-trial","trial_index":39,"time_elapsed":336543,"internal_node_id":"0.0-28.0","task_version":"test-retest"},{"Rune":"rune_02_raido","Hex":"#ffcc3399","Correct":-1,"Choice":32,"RT":443.3600000338629,"Accuracy":0,"Outcome":"+1","Keys":[1945.3000000212342],"TotalKeys":1,"Block":1,"Trial":27,"Robot":2,"Valence":"Win","Action":"No-Go","Sham":0,"Color":"yellow","trial_type":"pit-trial","trial_index":40,"time_elapsed":339492,"internal_node_id":"0.0-29.0","task_version":"test-retest"},{"Rune":"rune_02_haglaz","Hex":"#3366ff99","Correct":32,"Choice":32,"RT":567.3599999863654,"Accuracy":1,"Outcome":"-10","Keys":[2069.7849999996834],"TotalKeys":1,"Block":1,"Trial":28,"Robot":3,"Valence":"Lose","Action":"Go","Sham":1,"Color":"blue","trial_type":"pit-trial","trial_index":41,"time_elapsed":342568,"internal_node_id":"0.0-30.0","task_version":"test-retest"},{"Rune":"rune_02_raido","Hex":"#ffcc3399","Correct":-1,"Choice":32,"RT":391.4199999999255,"Accuracy":0,"Outcome":"+1","Keys":[1893.96499999566],"TotalKeys":1,"Block":1,"Trial":29,"Robot":2,"Valence":"Win","Action":"No-Go","Sham":0,"Color":"yellow","trial_type":"pit-trial","trial_index":42,"time_elapsed":345468,"internal_node_id":"0.0-31.0","task_version":"test-retest"},{"Rune":"rune_02_haglaz","Hex":"#3366ff99","Correct":32,"Choice":32,"RT":546.4550000033341,"Accuracy":1,"Outcome":"-1","Keys":[2053.539999993518],"TotalKeys":1,"Block":1,"Trial":30,"Robot":3,"Valence":"Lose","Action":"Go","Sham":0,"Color":"blue","trial_type":"pit-trial","trial_index":43,"time_elapsed":348529,"internal_node_id":"0.0-32.0","task_version":"test-retest"},{"Rune":"rune_02_os","Hex":"#ffcc3399","Correct":32,"Choice":32,"RT":472.19500003848225,"Accuracy":1,"Outcome":"+10","Keys":[1974.3399999570101],"TotalKeys":1,"Block":1,"Trial":31,"Robot":1,"Valence":"Win","Action":"Go","Sham":0,"Color":"yellow","trial_type":"pit-trial","trial_index":44,"time_elapsed":351511,"internal_node_id":"0.0-33.0","task_version":"test-retest"},{"Rune":"rune_02_cen","Hex":"#3366ff99","Correct":-1,"Choice":32,"RT":482.6599999796599,"Accuracy":0,"Outcome":"-10","Keys":[1987.2299999697134],"TotalKeys":1,"Block":1,"Trial":32,"Robot":4,"Valence":"Lose","Action":"No-Go","Sham":0,"Color":"blue","trial_type":"pit-trial","trial_index":45,"time_elapsed":354505,"internal_node_id":"0.0-34.0","task_version":"test-retest"},{"Rune":"rune_02_cen","Hex":"#3366ff99","Correct":-1,"Choice":-1,"RT":-1,"Accuracy":1,"Outcome":"-1","Keys":[],"TotalKeys":0,"Block":1,"Trial":33,"Robot":4,"Valence":"Lose","Action":"No-Go","Sham":0,"Color":"blue","trial_type":"pit-trial","trial_index":46,"time_elapsed":358519,"internal_node_id":"0.0-35.0","task_version":"test-retest"},{"Rune":"rune_02_raido","Hex":"#ffcc3399","Correct":-1,"Choice":32,"RT":433.17999999271706,"Accuracy":0,"Outcome":"+10","Keys":[1935.3699999628589],"TotalKeys":1,"Block":1,"Trial":34,"Robot":2,"Valence":"Win","Action":"No-Go","Sham":1,"Color":"yellow","trial_type":"pit-trial","trial_index":47,"time_elapsed":361459,"internal_node_id":"0.0-36.0","task_version":"test-retest"},{"Rune":"rune_02_haglaz","Hex":"#3366ff99","Correct":32,"Choice":32,"RT":774.5749999885447,"Accuracy":1,"Outcome":"-1","Keys":[2279.3799999635667],"TotalKeys":1,"Block":1,"Trial":35,"Robot":3,"Valence":"Lose","Action":"Go","Sham":0,"Color":"blue","trial_type":"pit-trial","trial_index":48,"time_elapsed":364746,"internal_node_id":"0.0-37.0","task_version":"test-retest"},{"Rune":"rune_02_os","Hex":"#ffcc3399","Correct":32,"Choice":32,"RT":438.21499997284263,"Accuracy":1,"Outcome":"+1","Keys":[1939.3200000049546],"TotalKeys":1,"Block":1,"Trial":36,"Robot":1,"Valence":"Win","Action":"Go","Sham":1,"Color":"yellow","trial_type":"pit-trial","trial_index":49,"time_elapsed":367691,"internal_node_id":"0.0-38.0","task_version":"test-retest"},{"Rune":"rune_02_os","Hex":"#ffcc3399","Correct":32,"Choice":32,"RT":414.359999995213,"Accuracy":1,"Outcome":"+10","Keys":[1918.16999996081],"TotalKeys":1,"Block":1,"Trial":37,"Robot":1,"Valence":"Win","Action":"Go","Sham":0,"Color":"yellow","trial_type":"pit-trial","trial_index":50,"time_elapsed":370615,"internal_node_id":"0.0-39.0","task_version":"test-retest"},{"Rune":"rune_02_raido","Hex":"#ffcc3399","Correct":-1,"Choice":32,"RT":475.63000000081956,"Accuracy":0,"Outcome":"+1","Keys":[1976.8750000512227],"TotalKeys":1,"Block":1,"Trial":38,"Robot":2,"Valence":"Win","Action":"No-Go","Sham":0,"Color":"yellow","trial_type":"pit-trial","trial_index":51,"time_elapsed":373600,"internal_node_id":"0.0-40.0","task_version":"test-retest"},{"Rune":"rune_02_cen","Hex":"#3366ff99","Correct":-1,"Choice":-1,"RT":-1,"Accuracy":1,"Outcome":"-1","Keys":[],"TotalKeys":0,"Block":1,"Trial":39,"Robot":4,"Valence":"Lose","Action":"No-Go","Sham":0,"Color":"blue","trial_type":"pit-trial","trial_index":52,"time_elapsed":377609,"internal_node_id":"0.0-41.0","task_version":"test-retest"},{"Rune":"rune_02_haglaz","Hex":"#3366ff99","Correct":32,"Choice":32,"RT":520.9100000211038,"Accuracy":1,"Outcome":"-1","Keys":[2021.3450000155717],"TotalKeys":1,"Block":1,"Trial":40,"Robot":3,"Valence":"Lose","Action":"Go","Sham":0,"Color":"blue","trial_type":"pit-trial","trial_index":53,"time_elapsed":380641,"internal_node_id":"0.0-42.0","task_version":"test-retest"},{"Rune":"rune_02_cen","Hex":"#3366ff99","Correct":-1,"Choice":-1,"RT":-1,"Accuracy":1,"Outcome":"-10","Keys":[],"TotalKeys":0,"Block":1,"Trial":41,"Robot":4,"Valence":"Lose","Action":"No-Go","Sham":1,"Color":"blue","trial_type":"pit-trial","trial_index":54,"time_elapsed":384650,"internal_node_id":"0.0-43.0","task_version":"test-retest"},{"Rune":"rune_02_os","Hex":"#ffcc3399","Correct":32,"Choice":32,"RT":426.4149999944493,"Accuracy":1,"Outcome":"+10","Keys":[1927.5699999998324],"TotalKeys":1,"Block":1,"Trial":42,"Robot":1,"Valence":"Win","Action":"Go","Sham":0,"Color":"yellow","trial_type":"pit-trial","trial_index":55,"time_elapsed":387584,"internal_node_id":"0.0-44.0","task_version":"test-retest"},{"Rune":"rune_02_haglaz","Hex":"#3366ff99","Correct":32,"Choice":32,"RT":498.39500000234693,"Accuracy":1,"Outcome":"-1","Keys":[2001.9999999785796],"TotalKeys":1,"Block":1,"Trial":43,"Robot":3,"Valence":"Lose","Action":"Go","Sham":0,"Color":"blue","trial_type":"pit-trial","trial_index":56,"time_elapsed":390593,"internal_node_id":"0.0-45.0","task_version":"test-retest"},{"Rune":"rune_02_raido","Hex":"#ffcc3399","Correct":-1,"Choice":-1,"RT":-1,"Accuracy":1,"Outcome":"+10","Keys":[],"TotalKeys":0,"Block":1,"Trial":44,"Robot":2,"Valence":"Win","Action":"No-Go","Sham":0,"Color":"yellow","trial_type":"pit-trial","trial_index":57,"time_elapsed":394600,"internal_node_id":"0.0-46.0","task_version":"test-retest"},{"Rune":"rune_02_haglaz","Hex":"#3366ff99","Correct":32,"Choice":32,"RT":824.6199999703094,"Accuracy":1,"Outcome":"-1","Keys":[2328.719999990426],"TotalKeys":1,"Block":1,"Trial":45,"Robot":3,"Valence":"Lose","Action":"Go","Sham":0,"Color":"blue","trial_type":"pit-trial","trial_index":58,"time_elapsed":397934,"internal_node_id":"0.0-47.0","task_version":"test-retest"},{"Rune":"rune_02_raido","Hex":"#ffcc3399","Correct":-1,"Choice":-1,"RT":-1,"Accuracy":1,"Outcome":"+10","Keys":[],"TotalKeys":0,"Block":1,"Trial":46,"Robot":2,"Valence":"Win","Action":"No-Go","Sham":0,"Color":"yellow","trial_type":"pit-trial","trial_index":59,"time_elapsed":401942,"internal_node_id":"0.0-48.0","task_version":"test-retest"},{"Rune":"rune_02_os","Hex":"#ffcc3399","Correct":32,"Choice":32,"RT":902.2799999802373,"Accuracy":1,"Outcome":"+1","Keys":[2403.0449999845587],"TotalKeys":1,"Block":1,"Trial":47,"Robot":1,"Valence":"Win","Action":"Go","Sham":1,"Color":"yellow","trial_type":"pit-trial","trial_index":60,"time_elapsed":405352,"internal_node_id":"0.0-49.0","task_version":"test-retest"},{"Rune":"rune_02_cen","Hex":"#3366ff99","Correct":-1,"Choice":-1,"RT":-1,"Accuracy":1,"Outcome":"-1","Keys":[],"TotalKeys":0,"Block":1,"Trial":48,"Robot":4,"Valence":"Lose","Action":"No-Go","Sham":0,"Color":"blue","trial_type":"pit-trial","trial_index":61,"time_elapsed":409364,"internal_node_id":"0.0-50.0","task_version":"test-retest"},{"Rune":"rune_02_os","Hex":"#ffcc3399","Correct":32,"Choice":-1,"RT":-1,"Accuracy":0,"Outcome":"+1","Keys":[],"TotalKeys":0,"Block":1,"Trial":49,"Robot":1,"Valence":"Win","Action":"Go","Sham":0,"Color":"yellow","trial_type":"pit-trial","trial_index":62,"time_elapsed":413372,"internal_node_id":"0.0-51.0","task_version":"test-retest"},{"Rune":"rune_02_raido","Hex":"#ffcc3399","Correct":-1,"Choice":-1,"RT":-1,"Accuracy":1,"Outcome":"+10","Keys":[],"TotalKeys":0,"Block":1,"Trial":50,"Robot":2,"Valence":"Win","Action":"No-Go","Sham":0,"Color":"yellow","trial_type":"pit-trial","trial_index":63,"time_elapsed":417381,"internal_node_id":"0.0-52.0","task_version":"test-retest"},{"Rune":"rune_02_cen","Hex":"#3366ff99","Correct":-1,"Choice":32,"RT":1419.5750000071712,"Accuracy":0,"Outcome":"-10","Keys":[2921.3849999941885,3521.145000006072],"TotalKeys":2,"Block":1,"Trial":51,"Robot":4,"Valence":"Lose","Action":"No-Go","Sham":0,"Color":"blue","trial_type":"pit-trial","trial_index":64,"time_elapsed":421308,"internal_node_id":"0.0-53.0","task_version":"test-retest"},{"Rune":"rune_02_haglaz","Hex":"#3366ff99","Correct":32,"Choice":32,"RT":574.4650000124238,"Accuracy":1,"Outcome":"-10","Keys":[2074.964999977965],"TotalKeys":1,"Block":1,"Trial":52,"Robot":3,"Valence":"Lose","Action":"Go","Sham":1,"Color":"blue","trial_type":"pit-trial","trial_index":65,"time_elapsed":424385,"internal_node_id":"0.0-54.0","task_version":"test-retest"},{"Rune":"rune_02_os","Hex":"#ffcc3399","Correct":32,"Choice":32,"RT":838.6950000422075,"Accuracy":1,"Outcome":"+10","Keys":[2344.9100000434555],"TotalKeys":1,"Block":1,"Trial":53,"Robot":1,"Valence":"Win","Action":"Go","Sham":0,"Color":"yellow","trial_type":"pit-trial","trial_index":66,"time_elapsed":427736,"internal_node_id":"0.0-55.0","task_version":"test-retest"},{"Rune":"rune_02_cen","Hex":"#3366ff99","Correct":-1,"Choice":-1,"RT":-1,"Accuracy":1,"Outcome":"-1","Keys":[],"TotalKeys":0,"Block":1,"Trial":54,"Robot":4,"Valence":"Lose","Action":"No-Go","Sham":0,"Color":"blue","trial_type":"pit-trial","trial_index":67,"time_elapsed":431744,"internal_node_id":"0.0-56.0","task_version":"test-retest"},{"Rune":"rune_02_haglaz","Hex":"#3366ff99","Correct":32,"Choice":32,"RT":585.1300000213087,"Accuracy":1,"Outcome":"-1","Keys":[2085.7149999937974],"TotalKeys":1,"Block":1,"Trial":55,"Robot":3,"Valence":"Lose","Action":"Go","Sham":0,"Color":"blue","trial_type":"pit-trial","trial_index":68,"time_elapsed":434835,"internal_node_id":"0.0-57.0","task_version":"test-retest"},{"Rune":"rune_02_raido","Hex":"#ffcc3399","Correct":-1,"Choice":-1,"RT":-1,"Accuracy":1,"Outcome":"+10","Keys":[],"TotalKeys":0,"Block":1,"Trial":56,"Robot":2,"Valence":"Win","Action":"No-Go","Sham":0,"Color":"yellow","trial_type":"pit-trial","trial_index":69,"time_elapsed":438846,"internal_node_id":"0.0-58.0","task_version":"test-retest"},{"Rune":"rune_02_raido","Hex":"#ffcc3399","Correct":-1,"Choice":-1,"RT":-1,"Accuracy":1,"Outcome":"+1","Keys":[],"TotalKeys":0,"Block":1,"Trial":57,"Robot":2,"Valence":"Win","Action":"No-Go","Sham":1,"Color":"yellow","trial_type":"pit-trial","trial_index":70,"time_elapsed":442857,"internal_node_id":"0.0-59.0","task_version":"test-retest"},{"Rune":"rune_02_haglaz","Hex":"#3366ff99","Correct":32,"Choice":32,"RT":476.6149999923073,"Accuracy":1,"Outcome":"-1","Keys":[1977.6999999885447],"TotalKeys":1,"Block":1,"Trial":58,"Robot":3,"Valence":"Lose","Action":"Go","Sham":0,"Color":"blue","trial_type":"pit-trial","trial_index":71,"time_elapsed":445837,"internal_node_id":"0.0-60.0","task_version":"test-retest"},{"Rune":"rune_02_os","Hex":"#ffcc3399","Correct":32,"Choice":-1,"RT":-1,"Accuracy":0,"Outcome":"+1","Keys":[],"TotalKeys":0,"Block":1,"Trial":59,"Robot":1,"Valence":"Win","Action":"Go","Sham":0,"Color":"yellow","trial_type":"pit-trial","trial_index":72,"time_elapsed":449849,"internal_node_id":"0.0-61.0","task_version":"test-retest"},{"Rune":"rune_02_cen","Hex":"#3366ff99","Correct":-1,"Choice":32,"RT":674.7399999876507,"Accuracy":0,"Outcome":"-10","Keys":[2180.0749999820255],"TotalKeys":1,"Block":1,"Trial":60,"Robot":4,"Valence":"Lose","Action":"No-Go","Sham":0,"Color":"blue","trial_type":"pit-trial","trial_index":73,"time_elapsed":453036,"internal_node_id":"0.0-62.0","task_version":"test-retest"},{"value":false,"trial_type":"call-function","trial_index":74,"time_elapsed":453038,"internal_node_id":"0.0-63.0","task_version":"test-retest"},{"view_history":"[{\"page_index\":0,\"viewing_time\":2381.475000001956},{\"page_index\":1,\"viewing_time\":1807.61999997776}]","rt":4189.614999981131,"trial_type":"pit-instructions","trial_index":75,"time_elapsed":457229,"internal_node_id":"0.0-64.0","task_version":"test-retest"},{"Rune":"rune_02_os","Hex":"#ffcc3399","Correct":32,"Choice":32,"RT":547.870000009425,"Accuracy":1,"Outcome":"+10","Keys":[2050.234999973327],"TotalKeys":1,"Block":1,"Trial":61,"Robot":1,"Valence":"Win","Action":"Go","Sham":0,"Color":"yellow","trial_type":"pit-trial","trial_index":76,"time_elapsed":460286,"internal_node_id":"0.0-65.0","task_version":"test-retest"},{"Rune":"rune_02_raido","Hex":"#ffcc3399","Correct":-1,"Choice":-1,"RT":-1,"Accuracy":1,"Outcome":"+10","Keys":[],"TotalKeys":0,"Block":1,"Trial":62,"Robot":2,"Valence":"Win","Action":"No-Go","Sham":0,"Color":"yellow","trial_type":"pit-trial","trial_index":77,"time_elapsed":464293,"internal_node_id":"0.0-66.0","task_version":"test-retest"},{"Rune":"rune_02_cen","Hex":"#3366ff99","Correct":-1,"Choice":-1,"RT":-1,"Accuracy":1,"Outcome":"-1","Keys":[],"TotalKeys":0,"Block":1,"Trial":63,"Robot":4,"Valence":"Lose","Action":"No-Go","Sham":0,"Color":"blue","trial_type":"pit-trial","trial_index":78,"time_elapsed":468302,"internal_node_id":"0.0-67.0","task_version":"test-retest"},{"Rune":"rune_02_haglaz","Hex":"#3366ff99","Correct":32,"Choice":32,"RT":591.9550000107847,"Accuracy":1,"Outcome":"-1","Keys":[2092.914999986533],"TotalKeys":1,"Block":1,"Trial":64,"Robot":3,"Valence":"Lose","Action":"Go","Sham":0,"Color":"blue","trial_type":"pit-trial","trial_index":79,"time_elapsed":471397,"internal_node_id":"0.0-68.0","task_version":"test-retest"},{"Rune":"rune_02_os","Hex":"#ffcc3399","Correct":32,"Choice":32,"RT":547.4149999790825,"Accuracy":1,"Outcome":"+10","Keys":[2051.2549999984913],"TotalKeys":1,"Block":1,"Trial":65,"Robot":1,"Valence":"Win","Action":"Go","Sham":0,"Color":"yellow","trial_type":"pit-trial","trial_index":80,"time_elapsed":474456,"internal_node_id":"0.0-69.0","task_version":"test-retest"},{"Rune":"rune_02_cen","Hex":"#3366ff99","Correct":-1,"Choice":-1,"RT":-1,"Accuracy":1,"Outcome":"-1","Keys":[],"TotalKeys":0,"Block":1,"Trial":66,"Robot":4,"Valence":"Lose","Action":"No-Go","Sham":0,"Color":"blue","trial_type":"pit-trial","trial_index":81,"time_elapsed":478469,"internal_node_id":"0.0-70.0","task_version":"test-retest"},{"Rune":"rune_02_raido","Hex":"#ffcc3399","Correct":-1,"Choice":-1,"RT":-1,"Accuracy":1,"Outcome":"+1","Keys":[],"TotalKeys":0,"Block":1,"Trial":67,"Robot":2,"Valence":"Win","Action":"No-Go","Sham":1,"Color":"yellow","trial_type":"pit-trial","trial_index":82,"time_elapsed":482475,"internal_node_id":"0.0-71.0","task_version":"test-retest"},{"Rune":"rune_02_haglaz","Hex":"#3366ff99","Correct":32,"Choice":32,"RT":653.7449999595992,"Accuracy":1,"Outcome":"-1","Keys":[2154.7150000114925],"TotalKeys":1,"Block":1,"Trial":68,"Robot":3,"Valence":"Lose","Action":"Go","Sham":0,"Color":"blue","trial_type":"pit-trial","trial_index":83,"time_elapsed":485635,"internal_node_id":"0.0-72.0","task_version":"test-retest"},{"Rune":"rune_02_cen","Hex":"#3366ff99","Correct":-1,"Choice":-1,"RT":-1,"Accuracy":1,"Outcome":"-1","Keys":[],"TotalKeys":0,"Block":1,"Trial":69,"Robot":4,"Valence":"Lose","Action":"No-Go","Sham":0,"Color":"blue","trial_type":"pit-trial","trial_index":84,"time_elapsed":489646,"internal_node_id":"0.0-73.0","task_version":"test-retest"},{"Rune":"rune_02_os","Hex":"#ffcc3399","Correct":32,"Choice":32,"RT":837.7650000038557,"Accuracy":1,"Outcome":"+10","Keys":[2344.165000016801],"TotalKeys":1,"Block":1,"Trial":70,"Robot":1,"Valence":"Win","Action":"Go","Sham":0,"Color":"yellow","trial_type":"pit-trial","trial_index":85,"time_elapsed":492999,"internal_node_id":"0.0-74.0","task_version":"test-retest"},{"Rune":"rune_02_haglaz","Hex":"#3366ff99","Correct":32,"Choice":32,"RT":851.4299999806099,"Accuracy":1,"Outcome":"-1","Keys":[2352.2299999604],"TotalKeys":1,"Block":1,"Trial":71,"Robot":3,"Valence":"Lose","Action":"Go","Sham":0,"Color":"blue","trial_type":"pit-trial","trial_index":86,"time_elapsed":496358,"internal_node_id":"0.0-75.0","task_version":"test-retest"},{"Rune":"rune_02_raido","Hex":"#ffcc3399","Correct":-1,"Choice":-1,"RT":-1,"Accuracy":1,"Outcome":"+10","Keys":[],"TotalKeys":0,"Block":1,"Trial":72,"Robot":2,"Valence":"Win","Action":"No-Go","Sham":0,"Color":"yellow","trial_type":"pit-trial","trial_index":87,"time_elapsed":500367,"internal_node_id":"0.0-76.0","task_version":"test-retest"},{"Rune":"rune_02_raido","Hex":"#ffcc3399","Correct":-1,"Choice":-1,"RT":-1,"Accuracy":1,"Outcome":"+10","Keys":[],"TotalKeys":0,"Block":1,"Trial":73,"Robot":2,"Valence":"Win","Action":"No-Go","Sham":0,"Color":"yellow","trial_type":"pit-trial","trial_index":88,"time_elapsed":504376,"internal_node_id":"0.0-77.0","task_version":"test-retest"},{"Rune":"rune_02_cen","Hex":"#3366ff99","Correct":-1,"Choice":-1,"RT":-1,"Accuracy":1,"Outcome":"-1","Keys":[],"TotalKeys":0,"Block":1,"Trial":74,"Robot":4,"Valence":"Lose","Action":"No-Go","Sham":0,"Color":"blue","trial_type":"pit-trial","trial_index":89,"time_elapsed":508383,"internal_node_id":"0.0-78.0","task_version":"test-retest"},{"Rune":"rune_02_haglaz","Hex":"#3366ff99","Correct":32,"Choice":32,"RT":406.35999996447936,"Accuracy":1,"Outcome":"-10","Keys":[1910.1300000329502],"TotalKeys":1,"Block":1,"Trial":75,"Robot":3,"Valence":"Lose","Action":"Go","Sham":1,"Color":"blue","trial_type":"pit-trial","trial_index":90,"time_elapsed":511298,"internal_node_id":"0.0-79.0","task_version":"test-retest"},{"Rune":"rune_02_os","Hex":"#ffcc3399","Correct":32,"Choice":32,"RT":842.110000026878,"Accuracy":1,"Outcome":"+1","Keys":[2345.9750000038184],"TotalKeys":1,"Block":1,"Trial":76,"Robot":1,"Valence":"Win","Action":"Go","Sham":1,"Color":"yellow","trial_type":"pit-trial","trial_index":91,"time_elapsed":514649,"internal_node_id":"0.0-80.0","task_version":"test-retest"},{"Rune":"rune_02_haglaz","Hex":"#3366ff99","Correct":32,"Choice":32,"RT":753.8199999835342,"Accuracy":1,"Outcome":"-1","Keys":[2254.415000032168],"TotalKeys":1,"Block":1,"Trial":77,"Robot":3,"Valence":"Lose","Action":"Go","Sham":0,"Color":"blue","trial_type":"pit-trial","trial_index":92,"time_elapsed":517908,"internal_node_id":"0.0-81.0","task_version":"test-retest"},{"Rune":"rune_02_os","Hex":"#ffcc3399","Correct":32,"Choice":32,"RT":437.3100000084378,"Accuracy":1,"Outcome":"+10","Keys":[1939.6549999946728],"TotalKeys":1,"Block":1,"Trial":78,"Robot":1,"Valence":"Win","Action":"Go","Sham":0,"Color":"yellow","trial_type":"pit-trial","trial_index":93,"time_elapsed":520855,"internal_node_id":"0.0-82.0","task_version":"test-retest"},{"Rune":"rune_02_raido","Hex":"#ffcc3399","Correct":-1,"Choice":-1,"RT":-1,"Accuracy":1,"Outcome":"+10","Keys":[],"TotalKeys":0,"Block":1,"Trial":79,"Robot":2,"Valence":"Win","Action":"No-Go","Sham":0,"Color":"yellow","trial_type":"pit-trial","trial_index":94,"time_elapsed":524861,"internal_node_id":"0.0-83.0","task_version":"test-retest"},{"Rune":"rune_02_cen","Hex":"#3366ff99","Correct":-1,"Choice":-1,"RT":-1,"Accuracy":1,"Outcome":"-10","Keys":[],"TotalKeys":0,"Block":1,"Trial":80,"Robot":4,"Valence":"Lose","Action":"No-Go","Sham":1,"Color":"blue","trial_type":"pit-trial","trial_index":95,"time_elapsed":528872,"internal_node_id":"0.0-84.0","task_version":"test-retest"},{"Rune":"rune_02_haglaz","Hex":"#3366ff99","Correct":32,"Choice":32,"RT":429.5399999828078,"Accuracy":1,"Outcome":"-1","Keys":[1930.4149999516085],"TotalKeys":1,"Block":1,"Trial":81,"Robot":3,"Valence":"Lose","Action":"Go","Sham":0,"Color":"blue","trial_type":"pit-trial","trial_index":96,"time_elapsed":531812,"internal_node_id":"0.0-85.0","task_version":"test-retest"},{"Rune":"rune_02_cen","Hex":"#3366ff99","Correct":-1,"Choice":-1,"RT":-1,"Accuracy":1,"Outcome":"-1","Keys":[],"TotalKeys":0,"Block":1,"Trial":82,"Robot":4,"Valence":"Lose","Action":"No-Go","Sham":0,"Color":"blue","trial_type":"pit-trial","trial_index":97,"time_elapsed":535823,"internal_node_id":"0.0-86.0","task_version":"test-retest"},{"Rune":"rune_02_raido","Hex":"#ffcc3399","Correct":-1,"Choice":-1,"RT":-1,"Accuracy":1,"Outcome":"+10","Keys":[],"TotalKeys":0,"Block":1,"Trial":83,"Robot":2,"Valence":"Win","Action":"No-Go","Sham":0,"Color":"yellow","trial_type":"pit-trial","trial_index":98,"time_elapsed":539835,"internal_node_id":"0.0-87.0","task_version":"test-retest"},{"Rune":"rune_02_os","Hex":"#ffcc3399","Correct":32,"Choice":32,"RT":715.5349999666214,"Accuracy":1,"Outcome":"+10","Keys":[2262.894999992568],"TotalKeys":1,"Block":1,"Trial":84,"Robot":1,"Valence":"Win","Action":"Go","Sham":0,"Color":"yellow","trial_type":"pit-trial","trial_index":99,"time_elapsed":543100,"internal_node_id":"0.0-88.0","task_version":"test-retest"},{"Rune":"rune_02_raido","Hex":"#ffcc3399","Correct":-1,"Choice":-1,"RT":-1,"Accuracy":1,"Outcome":"+10","Keys":[],"TotalKeys":0,"Block":1,"Trial":85,"Robot":2,"Valence":"Win","Action":"No-Go","Sham":0,"Color":"yellow","trial_type":"pit-trial","trial_index":100,"time_elapsed":547107,"internal_node_id":"0.0-89.0","task_version":"test-retest"},{"Rune":"rune_02_os","Hex":"#ffcc3399","Correct":32,"Choice":32,"RT":604.6300000161864,"Accuracy":1,"Outcome":"+10","Keys":[2106.7000000039116],"TotalKeys":1,"Block":1,"Trial":86,"Robot":1,"Valence":"Win","Action":"Go","Sham":0,"Color":"yellow","trial_type":"pit-trial","trial_index":101,"time_elapsed":550219,"internal_node_id":"0.0-90.0","task_version":"test-retest"},{"Rune":"rune_02_haglaz","Hex":"#3366ff99","Correct":32,"Choice":32,"RT":530.0900000147521,"Accuracy":1,"Outcome":"-1","Keys":[2032.3150000185706],"TotalKeys":1,"Block":1,"Trial":87,"Robot":3,"Valence":"Lose","Action":"Go","Sham":0,"Color":"blue","trial_type":"pit-trial","trial_index":102,"time_elapsed":553259,"internal_node_id":"0.0-91.0","task_version":"test-retest"},{"Rune":"rune_02_cen","Hex":"#3366ff99","Correct":-1,"Choice":-1,"RT":-1,"Accuracy":1,"Outcome":"-1","Keys":[],"TotalKeys":0,"Block":1,"Trial":88,"Robot":4,"Valence":"Lose","Action":"No-Go","Sham":0,"Color":"blue","trial_type":"pit-trial","trial_index":103,"time_elapsed":557266,"internal_node_id":"0.0-92.0","task_version":"test-retest"},{"Rune":"rune_02_os","Hex":"#ffcc3399","Correct":32,"Choice":32,"RT":456.50500000920147,"Accuracy":1,"Outcome":"+10","Keys":[1957.8650000039488],"TotalKeys":1,"Block":1,"Trial":89,"Robot":1,"Valence":"Win","Action":"Go","Sham":0,"Color":"yellow","trial_type":"pit-trial","trial_index":104,"time_elapsed":560230,"internal_node_id":"0.0-93.0","task_version":"test-retest"},{"Rune":"rune_02_haglaz","Hex":"#3366ff99","Correct":32,"Choice":32,"RT":560.5649999924935,"Accuracy":1,"Outcome":"-10","Keys":[2061.0600000363775],"TotalKeys":1,"Block":1,"Trial":90,"Robot":3,"Valence":"Lose","Action":"Go","Sham":1,"Color":"blue","trial_type":"pit-trial","trial_index":105,"time_elapsed":563298,"internal_node_id":"0.0-94.0","task_version":"test-retest"},{"Rune":"rune_02_cen","Hex":"#3366ff99","Correct":-1,"Choice":-1,"RT":-1,"Accuracy":1,"Outcome":"-1","Keys":[],"TotalKeys":0,"Block":1,"Trial":91,"Robot":4,"Valence":"Lose","Action":"No-Go","Sham":0,"Color":"blue","trial_type":"pit-trial","trial_index":106,"time_elapsed":567307,"internal_node_id":"0.0-95.0","task_version":"test-retest"},{"Rune":"rune_02_raido","Hex":"#ffcc3399","Correct":-1,"Choice":-1,"RT":-1,"Accuracy":1,"Outcome":"+10","Keys":[],"TotalKeys":0,"Block":1,"Trial":92,"Robot":2,"Valence":"Win","Action":"No-Go","Sham":0,"Color":"yellow","trial_type":"pit-trial","trial_index":107,"time_elapsed":571319,"internal_node_id":"0.0-96.0","task_version":"test-retest"},{"Rune":"rune_02_os","Hex":"#ffcc3399","Correct":32,"Choice":32,"RT":559.3649999937043,"Accuracy":1,"Outcome":"+1","Keys":[2060.3850000188686],"TotalKeys":1,"Block":1,"Trial":93,"Robot":1,"Valence":"Win","Action":"Go","Sham":1,"Color":"yellow","trial_type":"pit-trial","trial_index":108,"time_elapsed":574382,"internal_node_id":"0.0-97.0","task_version":"test-retest"},{"Rune":"rune_02_haglaz","Hex":"#3366ff99","Correct":32,"Choice":32,"RT":500.6099999882281,"Accuracy":1,"Outcome":"-1","Keys":[2007.6349999872036],"TotalKeys":1,"Block":1,"Trial":94,"Robot":3,"Valence":"Lose","Action":"Go","Sham":0,"Color":"blue","trial_type":"pit-trial","trial_index":109,"time_elapsed":577394,"internal_node_id":"0.0-98.0","task_version":"test-retest"},{"Rune":"rune_02_cen","Hex":"#3366ff99","Correct":-1,"Choice":-1,"RT":-1,"Accuracy":1,"Outcome":"-1","Keys":[],"TotalKeys":0,"Block":1,"Trial":95,"Robot":4,"Valence":"Lose","Action":"No-Go","Sham":0,"Color":"blue","trial_type":"pit-trial","trial_index":110,"time_elapsed":581400,"internal_node_id":"0.0-99.0","task_version":"test-retest"},{"Rune":"rune_02_raido","Hex":"#ffcc3399","Correct":-1,"Choice":-1,"RT":-1,"Accuracy":1,"Outcome":"+10","Keys":[],"TotalKeys":0,"Block":1,"Trial":96,"Robot":2,"Valence":"Win","Action":"No-Go","Sham":0,"Color":"yellow","trial_type":"pit-trial","trial_index":111,"time_elapsed":585409,"internal_node_id":"0.0-100.0","task_version":"test-retest"},{"Rune":"rune_02_cen","Hex":"#3366ff99","Correct":-1,"Choice":-1,"RT":-1,"Accuracy":1,"Outcome":"-10","Keys":[],"TotalKeys":0,"Block":1,"Trial":97,"Robot":4,"Valence":"Lose","Action":"No-Go","Sham":1,"Color":"blue","trial_type":"pit-trial","trial_index":112,"time_elapsed":589416,"internal_node_id":"0.0-101.0","task_version":"test-retest"},{"Rune":"rune_02_os","Hex":"#ffcc3399","Correct":32,"Choice":32,"RT":569.965000031516,"Accuracy":1,"Outcome":"+10","Keys":[2071.654999977909],"TotalKeys":1,"Block":1,"Trial":98,"Robot":1,"Valence":"Win","Action":"Go","Sham":0,"Color":"yellow","trial_type":"pit-trial","trial_index":113,"time_elapsed":592493,"internal_node_id":"0.0-102.0","task_version":"test-retest"},{"Rune":"rune_02_haglaz","Hex":"#3366ff99","Correct":32,"Choice":32,"RT":695.3650000505149,"Accuracy":1,"Outcome":"-1","Keys":[2198.3149999869056],"TotalKeys":1,"Block":1,"Trial":99,"Robot":3,"Valence":"Lose","Action":"Go","Sham":0,"Color":"blue","trial_type":"pit-trial","trial_index":114,"time_elapsed":595695,"internal_node_id":"0.0-103.0","task_version":"test-retest"},{"Rune":"rune_02_raido","Hex":"#ffcc3399","Correct":-1,"Choice":-1,"RT":-1,"Accuracy":1,"Outcome":"+1","Keys":[],"TotalKeys":0,"Block":1,"Trial":100,"Robot":2,"Valence":"Win","Action":"No-Go","Sham":1,"Color":"yellow","trial_type":"pit-trial","trial_index":115,"time_elapsed":599706,"internal_node_id":"0.0-104.0","task_version":"test-retest"},{"Rune":"rune_02_os","Hex":"#ffcc3399","Correct":32,"Choice":32,"RT":548.0949999764562,"Accuracy":1,"Outcome":"+10","Keys":[2048.6450000316836],"TotalKeys":1,"Block":1,"Trial":101,"Robot":1,"Valence":"Win","Action":"Go","Sham":0,"Color":"yellow","trial_type":"pit-trial","trial_index":116,"time_elapsed":602760,"internal_node_id":"0.0-105.0","task_version":"test-retest"},{"Rune":"rune_02_haglaz","Hex":"#3366ff99","Correct":32,"Choice":32,"RT":743.6899999738671,"Accuracy":1,"Outcome":"-1","Keys":[2245.389999996405],"TotalKeys":1,"Block":1,"Trial":102,"Robot":3,"Valence":"Lose","Action":"Go","Sham":0,"Color":"blue","trial_type":"pit-trial","trial_index":117,"time_elapsed":606011,"internal_node_id":"0.0-106.0","task_version":"test-retest"},{"Rune":"rune_02_cen","Hex":"#3366ff99","Correct":-1,"Choice":-1,"RT":-1,"Accuracy":1,"Outcome":"-1","Keys":[],"TotalKeys":0,"Block":1,"Trial":103,"Robot":4,"Valence":"Lose","Action":"No-Go","Sham":0,"Color":"blue","trial_type":"pit-trial","trial_index":118,"time_elapsed":610016,"internal_node_id":"0.0-107.0","task_version":"test-retest"},{"Rune":"rune_02_raido","Hex":"#ffcc3399","Correct":-1,"Choice":-1,"RT":-1,"Accuracy":1,"Outcome":"+10","Keys":[],"TotalKeys":0,"Block":1,"Trial":104,"Robot":2,"Valence":"Win","Action":"No-Go","Sham":0,"Color":"yellow","trial_type":"pit-trial","trial_index":119,"time_elapsed":614025,"internal_node_id":"0.0-108.0","task_version":"test-retest"},{"Rune":"rune_02_cen","Hex":"#3366ff99","Correct":-1,"Choice":-1,"RT":-1,"Accuracy":1,"Outcome":"-1","Keys":[],"TotalKeys":0,"Block":1,"Trial":105,"Robot":4,"Valence":"Lose","Action":"No-Go","Sham":0,"Color":"blue","trial_type":"pit-trial","trial_index":120,"time_elapsed":618036,"internal_node_id":"0.0-109.0","task_version":"test-retest"},{"Rune":"rune_02_os","Hex":"#ffcc3399","Correct":32,"Choice":32,"RT":483.83499996270984,"Accuracy":1,"Outcome":"+10","Keys":[1986.884999962058],"TotalKeys":1,"Block":1,"Trial":106,"Robot":1,"Valence":"Win","Action":"Go","Sham":0,"Color":"yellow","trial_type":"pit-trial","trial_index":121,"time_elapsed":621029,"internal_node_id":"0.0-110.0","task_version":"test-retest"},{"Rune":"rune_02_raido","Hex":"#ffcc3399","Correct":-1,"Choice":-1,"RT":-1,"Accuracy":1,"Outcome":"+1","Keys":[],"TotalKeys":0,"Block":1,"Trial":107,"Robot":2,"Valence":"Win","Action":"No-Go","Sham":1,"Color":"yellow","trial_type":"pit-trial","trial_index":122,"time_elapsed":625038,"internal_node_id":"0.0-111.0","task_version":"test-retest"},{"Rune":"rune_02_haglaz","Hex":"#3366ff99","Correct":32,"Choice":32,"RT":497.9749999474734,"Accuracy":1,"Outcome":"-1","Keys":[1999.4799999985844],"TotalKeys":1,"Block":1,"Trial":108,"Robot":3,"Valence":"Lose","Action":"Go","Sham":0,"Color":"blue","trial_type":"pit-trial","trial_index":123,"time_elapsed":628041,"internal_node_id":"0.0-112.0","task_version":"test-retest"},{"Rune":"rune_02_raido","Hex":"#ffcc3399","Correct":-1,"Choice":-1,"RT":-1,"Accuracy":1,"Outcome":"+10","Keys":[],"TotalKeys":0,"Block":1,"Trial":109,"Robot":2,"Valence":"Win","Action":"No-Go","Sham":0,"Color":"yellow","trial_type":"pit-trial","trial_index":124,"time_elapsed":632045,"internal_node_id":"0.0-113.0","task_version":"test-retest"},{"Rune":"rune_02_cen","Hex":"#3366ff99","Correct":-1,"Choice":-1,"RT":-1,"Accuracy":1,"Outcome":"-1","Keys":[],"TotalKeys":0,"Block":1,"Trial":110,"Robot":4,"Valence":"Lose","Action":"No-Go","Sham":0,"Color":"blue","trial_type":"pit-trial","trial_index":125,"time_elapsed":636051,"internal_node_id":"0.0-114.0","task_version":"test-retest"},{"Rune":"rune_02_os","Hex":"#ffcc3399","Correct":32,"Choice":32,"RT":460.7550000073388,"Accuracy":1,"Outcome":"+10","Keys":[1961.490000016056],"TotalKeys":1,"Block":1,"Trial":111,"Robot":1,"Valence":"Win","Action":"Go","Sham":0,"Color":"yellow","trial_type":"pit-trial","trial_index":126,"time_elapsed":639019,"internal_node_id":"0.0-115.0","task_version":"test-retest"},{"Rune":"rune_02_haglaz","Hex":"#3366ff99","Correct":32,"Choice":32,"RT":550.6649999879301,"Accuracy":1,"Outcome":"-1","Keys":[2051.8649999867193],"TotalKeys":1,"Block":1,"Trial":112,"Robot":3,"Valence":"Lose","Action":"Go","Sham":0,"Color":"blue","trial_type":"pit-trial","trial_index":127,"time_elapsed":642075,"internal_node_id":"0.0-116.0","task_version":"test-retest"},{"Rune":"rune_02_haglaz","Hex":"#3366ff99","Correct":32,"Choice":32,"RT":573.0399999883957,"Accuracy":1,"Outcome":"-1","Keys":[2076.3199999928474],"TotalKeys":1,"Block":1,"Trial":113,"Robot":3,"Valence":"Lose","Action":"Go","Sham":0,"Color":"blue","trial_type":"pit-trial","trial_index":128,"time_elapsed":645155,"internal_node_id":"0.0-117.0","task_version":"test-retest"},{"Rune":"rune_02_os","Hex":"#ffcc3399","Correct":32,"Choice":32,"RT":456.63000002969056,"Accuracy":1,"Outcome":"+1","Keys":[1957.9750000266358],"TotalKeys":1,"Block":1,"Trial":114,"Robot":1,"Valence":"Win","Action":"Go","Sham":1,"Color":"yellow","trial_type":"pit-trial","trial_index":129,"time_elapsed":648118,"internal_node_id":"0.0-118.0","task_version":"test-retest"},{"Rune":"rune_02_raido","Hex":"#ffcc3399","Correct":-1,"Choice":-1,"RT":-1,"Accuracy":1,"Outcome":"+10","Keys":[],"TotalKeys":0,"Block":1,"Trial":115,"Robot":2,"Valence":"Win","Action":"No-Go","Sham":0,"Color":"yellow","trial_type":"pit-trial","trial_index":130,"time_elapsed":652127,"internal_node_id":"0.0-119.0","task_version":"test-retest"},{"Rune":"rune_02_cen","Hex":"#3366ff99","Correct":-1,"Choice":-1,"RT":-1,"Accuracy":1,"Outcome":"-10","Keys":[],"TotalKeys":0,"Block":1,"Trial":116,"Robot":4,"Valence":"Lose","Action":"No-Go","Sham":1,"Color":"blue","trial_type":"pit-trial","trial_index":131,"time_elapsed":656134,"internal_node_id":"0.0-120.0","task_version":"test-retest"},{"Rune":"rune_02_raido","Hex":"#ffcc3399","Correct":-1,"Choice":-1,"RT":-1,"Accuracy":1,"Outcome":"+10","Keys":[],"TotalKeys":0,"Block":1,"Trial":117,"Robot":2,"Valence":"Win","Action":"No-Go","Sham":0,"Color":"yellow","trial_type":"pit-trial","trial_index":132,"time_elapsed":660144,"internal_node_id":"0.0-121.0","task_version":"test-retest"},{"Rune":"rune_02_cen","Hex":"#3366ff99","Correct":-1,"Choice":-1,"RT":-1,"Accuracy":1,"Outcome":"-1","Keys":[],"TotalKeys":0,"Block":1,"Trial":118,"Robot":4,"Valence":"Lose","Action":"No-Go","Sham":0,"Color":"blue","trial_type":"pit-trial","trial_index":133,"time_elapsed":664155,"internal_node_id":"0.0-122.0","task_version":"test-retest"},{"Rune":"rune_02_os","Hex":"#ffcc3399","Correct":32,"Choice":32,"RT":449.91000002482906,"Accuracy":1,"Outcome":"+10","Keys":[1951.439999975264],"TotalKeys":1,"Block":1,"Trial":119,"Robot":1,"Valence":"Win","Action":"Go","Sham":0,"Color":"yellow","trial_type":"pit-trial","trial_index":134,"time_elapsed":667111,"internal_node_id":"0.0-123.0","task_version":"test-retest"},{"Rune":"rune_02_haglaz","Hex":"#3366ff99","Correct":32,"Choice":32,"RT":372.0049999537878,"Accuracy":1,"Outcome":"-10","Keys":[1874.55000000773],"TotalKeys":1,"Block":1,"Trial":120,"Robot":3,"Valence":"Lose","Action":"Go","Sham":1,"Color":"blue","trial_type":"pit-trial","trial_index":135,"time_elapsed":669988,"internal_node_id":"0.0-124.0","task_version":"test-retest"},{"view_history":"[{\"page_index\":0,\"viewing_time\":14780.365000013262},{\"page_index\":1,\"viewing_time\":2519.480000017211},{\"page_index\":2,\"viewing_time\":1983.1799999810755}]","rt":19283.534999995027,"trial_type":"pit-instructions","trial_index":136,"time_elapsed":689274,"internal_node_id":"0.0-125.0","task_version":"test-retest"},{"Rune":"rune_01_ear","Hex":"#ffcc3399","Correct":-1,"Choice":32,"RT":501.300000003539,"Accuracy":0,"Outcome":"+1","Keys":[2005.9550000005402],"TotalKeys":1,"Block":2,"Trial":121,"Robot":2,"Valence":"Win","Action":"No-Go","Sham":0,"Color":"yellow","trial_type":"pit-trial","trial_index":137,"time_elapsed":692287,"internal_node_id":"0.0-126.0","task_version":"test-retest"},{"Rune":"rune_01_ingwaz","Hex":"#3366ff99","Correct":-1,"Choice":32,"RT":739.4850000273436,"Accuracy":0,"Outcome":"-10","Keys":[2243.59500000719],"TotalKeys":1,"Block":2,"Trial":122,"Robot":4,"Valence":"Lose","Action":"No-Go","Sham":0,"Color":"blue","trial_type":"pit-trial","trial_index":138,"time_elapsed":695534,"internal_node_id":"0.0-127.0","task_version":"test-retest"},{"Rune":"rune_01_yr","Hex":"#3366ff99","Correct":32,"Choice":32,"RT":612.1350000030361,"Accuracy":1,"Outcome":"-10","Keys":[2114.380000042729],"TotalKeys":1,"Block":2,"Trial":123,"Robot":3,"Valence":"Lose","Action":"Go","Sham":1,"Color":"blue","trial_type":"pit-trial","trial_index":139,"time_elapsed":698652,"internal_node_id":"0.0-128.0","task_version":"test-retest"},{"Rune":"rune_01_ger","Hex":"#ffcc3399","Correct":32,"Choice":32,"RT":458.17999995779246,"Accuracy":1,"Outcome":"+1","Keys":[1959.0050000115298],"TotalKeys":1,"Block":2,"Trial":124,"Robot":1,"Valence":"Win","Action":"Go","Sham":1,"Color":"yellow","trial_type":"pit-trial","trial_index":140,"time_elapsed":701617,"internal_node_id":"0.0-129.0","task_version":"test-retest"},{"Rune":"rune_01_ear","Hex":"#ffcc3399","Correct":-1,"Choice":-1,"RT":-1,"Accuracy":1,"Outcome":"+10","Keys":[],"TotalKeys":0,"Block":2,"Trial":125,"Robot":2,"Valence":"Win","Action":"No-Go","Sham":0,"Color":"yellow","trial_type":"pit-trial","trial_index":141,"time_elapsed":705627,"internal_node_id":"0.0-130.0","task_version":"test-retest"},{"Rune":"rune_01_yr","Hex":"#3366ff99","Correct":32,"Choice":-1,"RT":-1,"Accuracy":0,"Outcome":"-10","Keys":[3558.415000035893],"TotalKeys":1,"Block":2,"Trial":126,"Robot":3,"Valence":"Lose","Action":"Go","Sham":0,"Color":"blue","trial_type":"pit-trial","trial_index":142,"time_elapsed":709633,"internal_node_id":"0.0-131.0","task_version":"test-retest"},{"Rune":"rune_01_ingwaz","Hex":"#3366ff99","Correct":-1,"Choice":-1,"RT":-1,"Accuracy":1,"Outcome":"-10","Keys":[],"TotalKeys":0,"Block":2,"Trial":127,"Robot":4,"Valence":"Lose","Action":"No-Go","Sham":1,"Color":"blue","trial_type":"pit-trial","trial_index":143,"time_elapsed":713641,"internal_node_id":"0.0-132.0","task_version":"test-retest"},{"Rune":"rune_01_ger","Hex":"#ffcc3399","Correct":32,"Choice":32,"RT":1037.75499999756,"Accuracy":1,"Outcome":"+10","Keys":[2539.0800000168383],"TotalKeys":1,"Block":2,"Trial":128,"Robot":1,"Valence":"Win","Action":"Go","Sham":0,"Color":"yellow","trial_type":"pit-trial","trial_index":144,"time_elapsed":717184,"internal_node_id":"0.0-133.0","task_version":"test-retest"},{"Rune":"rune_01_ear","Hex":"#ffcc3399","Correct":-1,"Choice":-1,"RT":-1,"Accuracy":1,"Outcome":"+10","Keys":[],"TotalKeys":0,"Block":2,"Trial":129,"Robot":2,"Valence":"Win","Action":"No-Go","Sham":0,"Color":"yellow","trial_type":"pit-trial","trial_index":145,"time_elapsed":721204,"internal_node_id":"0.0-134.0","task_version":"test-retest"},{"Rune":"rune_01_ingwaz","Hex":"#3366ff99","Correct":-1,"Choice":32,"RT":397.6399999810383,"Accuracy":0,"Outcome":"-10","Keys":[1897.9849999886937],"TotalKeys":1,"Block":2,"Trial":130,"Robot":4,"Valence":"Lose","Action":"No-Go","Sham":0,"Color":"blue","trial_type":"pit-trial","trial_index":146,"time_elapsed":724108,"internal_node_id":"0.0-135.0","task_version":"test-retest"},{"Rune":"rune_01_ger","Hex":"#ffcc3399","Correct":32,"Choice":32,"RT":662.5549999880604,"Accuracy":1,"Outcome":"+10","Keys":[2172.1549999783747],"TotalKeys":1,"Block":2,"Trial":131,"Robot":1,"Valence":"Win","Action":"Go","Sham":0,"Color":"yellow","trial_type":"pit-trial","trial_index":147,"time_elapsed":727284,"internal_node_id":"0.0-136.0","task_version":"test-retest"},{"Rune":"rune_01_yr","Hex":"#3366ff99","Correct":32,"Choice":32,"RT":653.3300000010058,"Accuracy":1,"Outcome":"-1","Keys":[2154.9599999561906],"TotalKeys":1,"Block":2,"Trial":132,"Robot":3,"Valence":"Lose","Action":"Go","Sham":0,"Color":"blue","trial_type":"pit-trial","trial_index":148,"time_elapsed":730446,"internal_node_id":"0.0-137.0","task_version":"test-retest"},{"Rune":"rune_01_ear","Hex":"#ffcc3399","Correct":-1,"Choice":32,"RT":922.0849999692291,"Accuracy":0,"Outcome":"+1","Keys":[2423.2300000148825],"TotalKeys":1,"Block":2,"Trial":133,"Robot":2,"Valence":"Win","Action":"No-Go","Sham":0,"Color":"yellow","trial_type":"pit-trial","trial_index":149,"time_elapsed":733875,"internal_node_id":"0.0-138.0","task_version":"test-retest"},{"Rune":"rune_01_ingwaz","Hex":"#3366ff99","Correct":-1,"Choice":-1,"RT":-1,"Accuracy":1,"Outcome":"-1","Keys":[],"TotalKeys":0,"Block":2,"Trial":134,"Robot":4,"Valence":"Lose","Action":"No-Go","Sham":0,"Color":"blue","trial_type":"pit-trial","trial_index":150,"time_elapsed":737881,"internal_node_id":"0.0-139.0","task_version":"test-retest"},{"Rune":"rune_01_ger","Hex":"#ffcc3399","Correct":32,"Choice":-1,"RT":-1,"Accuracy":0,"Outcome":"+1","Keys":[],"TotalKeys":0,"Block":2,"Trial":135,"Robot":1,"Valence":"Win","Action":"Go","Sham":0,"Color":"yellow","trial_type":"pit-trial","trial_index":151,"time_elapsed":741891,"internal_node_id":"0.0-140.0","task_version":"test-retest"},{"Rune":"rune_01_yr","Hex":"#3366ff99","Correct":32,"Choice":32,"RT":547.8949999669567,"Accuracy":1,"Outcome":"-1","Keys":[2052.1000000298955],"TotalKeys":1,"Block":2,"Trial":136,"Robot":3,"Valence":"Lose","Action":"Go","Sham":0,"Color":"blue","trial_type":"pit-trial","trial_index":152,"time_elapsed":744958,"internal_node_id":"0.0-141.0","task_version":"test-retest"},{"Rune":"rune_01_ger","Hex":"#ffcc3399","Correct":32,"Choice":32,"RT":664.0099999494851,"Accuracy":1,"Outcome":"+10","Keys":[2165.0399999925867],"TotalKeys":1,"Block":2,"Trial":137,"Robot":1,"Valence":"Win","Action":"Go","Sham":0,"Color":"yellow","trial_type":"pit-trial","trial_index":153,"time_elapsed":748129,"internal_node_id":"0.0-142.0","task_version":"test-retest"},{"Rune":"rune_01_ear","Hex":"#ffcc3399","Correct":-1,"Choice":-1,"RT":-1,"Accuracy":1,"Outcome":"+1","Keys":[3653.234999976121],"TotalKeys":1,"Block":2,"Trial":138,"Robot":2,"Valence":"Win","Action":"No-Go","Sham":1,"Color":"yellow","trial_type":"pit-trial","trial_index":154,"time_elapsed":752133,"internal_node_id":"0.0-143.0","task_version":"test-retest"},{"Rune":"rune_01_ingwaz","Hex":"#3366ff99","Correct":-1,"Choice":32,"RT":628.5099999513477,"Accuracy":0,"Outcome":"-10","Keys":[2129.049999988638],"TotalKeys":1,"Block":2,"Trial":139,"Robot":4,"Valence":"Lose","Action":"No-Go","Sham":0,"Color":"blue","trial_type":"pit-trial","trial_index":155,"time_elapsed":755268,"internal_node_id":"0.0-144.0","task_version":"test-retest"},{"Rune":"rune_01_yr","Hex":"#3366ff99","Correct":32,"Choice":32,"RT":616.8000000179745,"Accuracy":1,"Outcome":"-1","Keys":[2117.430000042077],"TotalKeys":1,"Block":2,"Trial":140,"Robot":3,"Valence":"Lose","Action":"Go","Sham":0,"Color":"blue","trial_type":"pit-trial","trial_index":156,"time_elapsed":758389,"internal_node_id":"0.0-145.0","task_version":"test-retest"},{"Rune":"rune_01_ingwaz","Hex":"#3366ff99","Correct":-1,"Choice":-1,"RT":-1,"Accuracy":1,"Outcome":"-10","Keys":[],"TotalKeys":0,"Block":2,"Trial":141,"Robot":4,"Valence":"Lose","Action":"No-Go","Sham":1,"Color":"blue","trial_type":"pit-trial","trial_index":157,"time_elapsed":762396,"internal_node_id":"0.0-146.0","task_version":"test-retest"},{"Rune":"rune_01_ger","Hex":"#ffcc3399","Correct":32,"Choice":32,"RT":584.5500000286847,"Accuracy":1,"Outcome":"+10","Keys":[2101.909999968484],"TotalKeys":1,"Block":2,"Trial":142,"Robot":1,"Valence":"Win","Action":"Go","Sham":0,"Color":"yellow","trial_type":"pit-trial","trial_index":158,"time_elapsed":765504,"internal_node_id":"0.0-147.0","task_version":"test-retest"},{"Rune":"rune_01_ear","Hex":"#ffcc3399","Correct":-1,"Choice":32,"RT":499.7399999992922,"Accuracy":0,"Outcome":"+1","Keys":[2004.3400000431575],"TotalKeys":1,"Block":2,"Trial":143,"Robot":2,"Valence":"Win","Action":"No-Go","Sham":0,"Color":"yellow","trial_type":"pit-trial","trial_index":159,"time_elapsed":768515,"internal_node_id":"0.0-148.0","task_version":"test-retest"},{"Rune":"rune_01_yr","Hex":"#3366ff99","Correct":32,"Choice":32,"RT":683.2399999839254,"Accuracy":1,"Outcome":"-1","Keys":[2183.6699999985285],"TotalKeys":1,"Block":2,"Trial":144,"Robot":3,"Valence":"Lose","Action":"Go","Sham":0,"Color":"blue","trial_type":"pit-trial","trial_index":160,"time_elapsed":771702,"internal_node_id":"0.0-149.0","task_version":"test-retest"},{"Rune":"rune_01_ear","Hex":"#ffcc3399","Correct":-1,"Choice":-1,"RT":-1,"Accuracy":1,"Outcome":"+10","Keys":[],"TotalKeys":0,"Block":2,"Trial":145,"Robot":2,"Valence":"Win","Action":"No-Go","Sham":0,"Color":"yellow","trial_type":"pit-trial","trial_index":161,"time_elapsed":775709,"internal_node_id":"0.0-150.0","task_version":"test-retest"},{"Rune":"rune_01_ger","Hex":"#ffcc3399","Correct":32,"Choice":32,"RT":446.909999998752,"Accuracy":1,"Outcome":"+10","Keys":[1950.2900000079535],"TotalKeys":1,"Block":2,"Trial":146,"Robot":1,"Valence":"Win","Action":"Go","Sham":0,"Color":"yellow","trial_type":"pit-trial","trial_index":162,"time_elapsed":778664,"internal_node_id":"0.0-151.0","task_version":"test-retest"},{"Rune":"rune_01_yr","Hex":"#3366ff99","Correct":32,"Choice":32,"RT":394.0650000004098,"Accuracy":1,"Outcome":"-10","Keys":[1898.3850000076927],"TotalKeys":1,"Block":2,"Trial":147,"Robot":3,"Valence":"Lose","Action":"Go","Sham":1,"Color":"blue","trial_type":"pit-trial","trial_index":163,"time_elapsed":781567,"internal_node_id":"0.0-152.0","task_version":"test-retest"},{"Rune":"rune_01_ingwaz","Hex":"#3366ff99","Correct":-1,"Choice":32,"RT":321.76000002073124,"Accuracy":0,"Outcome":"-10","Keys":[1823.9799999864772],"TotalKeys":1,"Block":2,"Trial":148,"Robot":4,"Valence":"Lose","Action":"No-Go","Sham":0,"Color":"blue","trial_type":"pit-trial","trial_index":164,"time_elapsed":784394,"internal_node_id":"0.0-153.0","task_version":"test-retest"},{"Rune":"rune_01_ear","Hex":"#ffcc3399","Correct":-1,"Choice":-1,"RT":-1,"Accuracy":1,"Outcome":"+10","Keys":[],"TotalKeys":0,"Block":2,"Trial":149,"Robot":2,"Valence":"Win","Action":"No-Go","Sham":0,"Color":"yellow","trial_type":"pit-trial","trial_index":165,"time_elapsed":788405,"internal_node_id":"0.0-154.0","task_version":"test-retest"},{"Rune":"rune_01_ingwaz","Hex":"#3366ff99","Correct":-1,"Choice":32,"RT":893.96499999566,"Accuracy":0,"Outcome":"-10","Keys":[2407.4750000145286],"TotalKeys":1,"Block":2,"Trial":150,"Robot":4,"Valence":"Lose","Action":"No-Go","Sham":0,"Color":"blue","trial_type":"pit-trial","trial_index":166,"time_elapsed":791819,"internal_node_id":"0.0-155.0","task_version":"test-retest"},{"Rune":"rune_01_ger","Hex":"#ffcc3399","Correct":32,"Choice":32,"RT":660.7999999541789,"Accuracy":1,"Outcome":"+10","Keys":[2164.6149999578483],"TotalKeys":1,"Block":2,"Trial":151,"Robot":1,"Valence":"Win","Action":"Go","Sham":0,"Color":"yellow","trial_type":"pit-trial","trial_index":167,"time_elapsed":794989,"internal_node_id":"0.0-156.0","task_version":"test-retest"},{"Rune":"rune_01_yr","Hex":"#3366ff99","Correct":32,"Choice":32,"RT":896.950000023935,"Accuracy":1,"Outcome":"-1","Keys":[2398.484999954235],"TotalKeys":1,"Block":2,"Trial":152,"Robot":3,"Valence":"Lose","Action":"Go","Sham":0,"Color":"blue","trial_type":"pit-trial","trial_index":168,"time_elapsed":798394,"internal_node_id":"0.0-157.0","task_version":"test-retest"},{"Rune":"rune_01_yr","Hex":"#3366ff99","Correct":32,"Choice":32,"RT":621.0699999937788,"Accuracy":1,"Outcome":"-1","Keys":[2121.594999975059],"TotalKeys":1,"Block":2,"Trial":153,"Robot":3,"Valence":"Lose","Action":"Go","Sham":0,"Color":"blue","trial_type":"pit-trial","trial_index":169,"time_elapsed":801518,"internal_node_id":"0.0-158.0","task_version":"test-retest"},{"Rune":"rune_01_ear","Hex":"#ffcc3399","Correct":-1,"Choice":-1,"RT":-1,"Accuracy":1,"Outcome":"+1","Keys":[],"TotalKeys":0,"Block":2,"Trial":154,"Robot":2,"Valence":"Win","Action":"No-Go","Sham":1,"Color":"yellow","trial_type":"pit-trial","trial_index":170,"time_elapsed":805528,"internal_node_id":"0.0-159.0","task_version":"test-retest"},{"Rune":"rune_01_ingwaz","Hex":"#3366ff99","Correct":-1,"Choice":32,"RT":595.2099999994971,"Accuracy":0,"Outcome":"-10","Keys":[2096.160000015516],"TotalKeys":1,"Block":2,"Trial":155,"Robot":4,"Valence":"Lose","Action":"No-Go","Sham":0,"Color":"blue","trial_type":"pit-trial","trial_index":171,"time_elapsed":808630,"internal_node_id":"0.0-160.0","task_version":"test-retest"},{"Rune":"rune_01_ger","Hex":"#ffcc3399","Correct":32,"Choice":32,"RT":451.3649999862537,"Accuracy":1,"Outcome":"+1","Keys":[1953.4350000321865],"TotalKeys":1,"Block":2,"Trial":156,"Robot":1,"Valence":"Win","Action":"Go","Sham":1,"Color":"yellow","trial_type":"pit-trial","trial_index":172,"time_elapsed":811591,"internal_node_id":"0.0-161.0","task_version":"test-retest"},{"Rune":"rune_01_ear","Hex":"#ffcc3399","Correct":-1,"Choice":-1,"RT":-1,"Accuracy":1,"Outcome":"+10","Keys":[],"TotalKeys":0,"Block":2,"Trial":157,"Robot":2,"Valence":"Win","Action":"No-Go","Sham":0,"Color":"yellow","trial_type":"pit-trial","trial_index":173,"time_elapsed":815597,"internal_node_id":"0.0-162.0","task_version":"test-retest"},{"Rune":"rune_01_yr","Hex":"#3366ff99","Correct":32,"Choice":32,"RT":637.4650000361726,"Accuracy":1,"Outcome":"-1","Keys":[2138.245000038296],"TotalKeys":1,"Block":2,"Trial":158,"Robot":3,"Valence":"Lose","Action":"Go","Sham":0,"Color":"blue","trial_type":"pit-trial","trial_index":174,"time_elapsed":818742,"internal_node_id":"0.0-163.0","task_version":"test-retest"},{"Rune":"rune_01_ger","Hex":"#ffcc3399","Correct":32,"Choice":32,"RT":695.8100000047125,"Accuracy":1,"Outcome":"+10","Keys":[2198.270000051707],"TotalKeys":1,"Block":2,"Trial":159,"Robot":1,"Valence":"Win","Action":"Go","Sham":0,"Color":"yellow","trial_type":"pit-trial","trial_index":175,"time_elapsed":821947,"internal_node_id":"0.0-164.0","task_version":"test-retest"},{"Rune":"rune_01_ingwaz","Hex":"#3366ff99","Correct":-1,"Choice":-1,"RT":-1,"Accuracy":1,"Outcome":"-1","Keys":[],"TotalKeys":0,"Block":2,"Trial":160,"Robot":4,"Valence":"Lose","Action":"No-Go","Sham":0,"Color":"blue","trial_type":"pit-trial","trial_index":176,"time_elapsed":825953,"internal_node_id":"0.0-165.0","task_version":"test-retest"},{"Rune":"rune_01_yr","Hex":"#3366ff99","Correct":32,"Choice":32,"RT":589.2649999586865,"Accuracy":1,"Outcome":"-1","Keys":[2091.3799999980256],"TotalKeys":1,"Block":2,"Trial":161,"Robot":3,"Valence":"Lose","Action":"Go","Sham":0,"Color":"blue","trial_type":"pit-trial","trial_index":177,"time_elapsed":829052,"internal_node_id":"0.0-166.0","task_version":"test-retest"},{"Rune":"rune_01_ear","Hex":"#ffcc3399","Correct":-1,"Choice":-1,"RT":-1,"Accuracy":1,"Outcome":"+10","Keys":[],"TotalKeys":0,"Block":2,"Trial":162,"Robot":2,"Valence":"Win","Action":"No-Go","Sham":0,"Color":"yellow","trial_type":"pit-trial","trial_index":178,"time_elapsed":833059,"internal_node_id":"0.0-167.0","task_version":"test-retest"},{"Rune":"rune_01_ingwaz","Hex":"#3366ff99","Correct":-1,"Choice":-1,"RT":-1,"Accuracy":1,"Outcome":"-10","Keys":[],"TotalKeys":0,"Block":2,"Trial":163,"Robot":4,"Valence":"Lose","Action":"No-Go","Sham":1,"Color":"blue","trial_type":"pit-trial","trial_index":179,"time_elapsed":837069,"internal_node_id":"0.0-168.0","task_version":"test-retest"},{"Rune":"rune_01_ger","Hex":"#ffcc3399","Correct":32,"Choice":32,"RT":572.2949999617413,"Accuracy":1,"Outcome":"+10","Keys":[2081.385000026785],"TotalKeys":1,"Block":2,"Trial":164,"Robot":1,"Valence":"Win","Action":"Go","Sham":0,"Color":"yellow","trial_type":"pit-trial","trial_index":180,"time_elapsed":840157,"internal_node_id":"0.0-169.0","task_version":"test-retest"},{"Rune":"rune_01_ear","Hex":"#ffcc3399","Correct":-1,"Choice":-1,"RT":-1,"Accuracy":1,"Outcome":"+10","Keys":[],"TotalKeys":0,"Block":2,"Trial":165,"Robot":2,"Valence":"Win","Action":"No-Go","Sham":0,"Color":"yellow","trial_type":"pit-trial","trial_index":181,"time_elapsed":844167,"internal_node_id":"0.0-170.0","task_version":"test-retest"},{"Rune":"rune_01_ingwaz","Hex":"#3366ff99","Correct":-1,"Choice":-1,"RT":-1,"Accuracy":1,"Outcome":"-1","Keys":[],"TotalKeys":0,"Block":2,"Trial":166,"Robot":4,"Valence":"Lose","Action":"No-Go","Sham":0,"Color":"blue","trial_type":"pit-trial","trial_index":182,"time_elapsed":848176,"internal_node_id":"0.0-171.0","task_version":"test-retest"},{"Rune":"rune_01_yr","Hex":"#3366ff99","Correct":32,"Choice":32,"RT":365.5699999653734,"Accuracy":1,"Outcome":"-1","Keys":[1874.3399999802932],"TotalKeys":1,"Block":2,"Trial":167,"Robot":3,"Valence":"Lose","Action":"Go","Sham":0,"Color":"blue","trial_type":"pit-trial","trial_index":183,"time_elapsed":851057,"internal_node_id":"0.0-172.0","task_version":"test-retest"},{"Rune":"rune_01_ger","Hex":"#ffcc3399","Correct":32,"Choice":32,"RT":484.7249999875203,"Accuracy":1,"Outcome":"+1","Keys":[1987.3549999902025],"TotalKeys":1,"Block":2,"Trial":168,"Robot":1,"Valence":"Win","Action":"Go","Sham":1,"Color":"yellow","trial_type":"pit-trial","trial_index":184,"time_elapsed":854048,"internal_node_id":"0.0-173.0","task_version":"test-retest"},{"Rune":"rune_01_ear","Hex":"#ffcc3399","Correct":-1,"Choice":-1,"RT":-1,"Accuracy":1,"Outcome":"+10","Keys":[],"TotalKeys":0,"Block":2,"Trial":169,"Robot":2,"Valence":"Win","Action":"No-Go","Sham":0,"Color":"yellow","trial_type":"pit-trial","trial_index":185,"time_elapsed":858053,"internal_node_id":"0.0-174.0","task_version":"test-retest"},{"Rune":"rune_01_ger","Hex":"#ffcc3399","Correct":32,"Choice":32,"RT":684.5850000390783,"Accuracy":1,"Outcome":"+10","Keys":[2185.5000000214204],"TotalKeys":1,"Block":2,"Trial":170,"Robot":1,"Valence":"Win","Action":"Go","Sham":0,"Color":"yellow","trial_type":"pit-trial","trial_index":186,"time_elapsed":861243,"internal_node_id":"0.0-175.0","task_version":"test-retest"},{"Rune":"rune_01_yr","Hex":"#3366ff99","Correct":32,"Choice":32,"RT":434.7399999969639,"Accuracy":1,"Outcome":"-10","Keys":[1935.315000009723],"TotalKeys":1,"Block":2,"Trial":171,"Robot":3,"Valence":"Lose","Action":"Go","Sham":1,"Color":"blue","trial_type":"pit-trial","trial_index":187,"time_elapsed":864181,"internal_node_id":"0.0-176.0","task_version":"test-retest"},{"Rune":"rune_01_ingwaz","Hex":"#3366ff99","Correct":-1,"Choice":-1,"RT":-1,"Accuracy":1,"Outcome":"-1","Keys":[],"TotalKeys":0,"Block":2,"Trial":172,"Robot":4,"Valence":"Lose","Action":"No-Go","Sham":0,"Color":"blue","trial_type":"pit-trial","trial_index":188,"time_elapsed":868190,"internal_node_id":"0.0-177.0","task_version":"test-retest"},{"Rune":"rune_01_ear","Hex":"#ffcc3399","Correct":-1,"Choice":-1,"RT":-1,"Accuracy":1,"Outcome":"+10","Keys":[],"TotalKeys":0,"Block":2,"Trial":173,"Robot":2,"Valence":"Win","Action":"No-Go","Sham":0,"Color":"yellow","trial_type":"pit-trial","trial_index":189,"time_elapsed":872198,"internal_node_id":"0.0-178.0","task_version":"test-retest"},{"Rune":"rune_01_yr","Hex":"#3366ff99","Correct":32,"Choice":32,"RT":508.72500002151355,"Accuracy":1,"Outcome":"-1","Keys":[2009.2600000207312],"TotalKeys":1,"Block":2,"Trial":174,"Robot":3,"Valence":"Lose","Action":"Go","Sham":0,"Color":"blue","trial_type":"pit-trial","trial_index":190,"time_elapsed":875214,"internal_node_id":"0.0-179.0","task_version":"test-retest"},{"Rune":"rune_01_ingwaz","Hex":"#3366ff99","Correct":-1,"Choice":-1,"RT":-1,"Accuracy":1,"Outcome":"-1","Keys":[],"TotalKeys":0,"Block":2,"Trial":175,"Robot":4,"Valence":"Lose","Action":"No-Go","Sham":0,"Color":"blue","trial_type":"pit-trial","trial_index":191,"time_elapsed":879221,"internal_node_id":"0.0-180.0","task_version":"test-retest"},{"Rune":"rune_01_ger","Hex":"#ffcc3399","Correct":32,"Choice":32,"RT":413.910000002943,"Accuracy":1,"Outcome":"+10","Keys":[1919.6499999961816],"TotalKeys":1,"Block":2,"Trial":176,"Robot":1,"Valence":"Win","Action":"Go","Sham":0,"Color":"yellow","trial_type":"pit-trial","trial_index":192,"time_elapsed":882148,"internal_node_id":"0.0-181.0","task_version":"test-retest"},{"Rune":"rune_01_ear","Hex":"#ffcc3399","Correct":-1,"Choice":-1,"RT":-1,"Accuracy":1,"Outcome":"+1","Keys":[],"TotalKeys":0,"Block":2,"Trial":177,"Robot":2,"Valence":"Win","Action":"No-Go","Sham":1,"Color":"yellow","trial_type":"pit-trial","trial_index":193,"time_elapsed":886158,"internal_node_id":"0.0-182.0","task_version":"test-retest"},{"Rune":"rune_01_ger","Hex":"#ffcc3399","Correct":32,"Choice":32,"RT":470.64499999396503,"Accuracy":1,"Outcome":"+10","Keys":[1972.3249999806285],"TotalKeys":1,"Block":2,"Trial":178,"Robot":1,"Valence":"Win","Action":"Go","Sham":0,"Color":"yellow","trial_type":"pit-trial","trial_index":194,"time_elapsed":889137,"internal_node_id":"0.0-183.0","task_version":"test-retest"},{"Rune":"rune_01_yr","Hex":"#3366ff99","Correct":32,"Choice":32,"RT":626.494999974966,"Accuracy":1,"Outcome":"-1","Keys":[2129.5500000123866],"TotalKeys":1,"Block":2,"Trial":179,"Robot":3,"Valence":"Lose","Action":"Go","Sham":0,"Color":"blue","trial_type":"pit-trial","trial_index":195,"time_elapsed":892270,"internal_node_id":"0.0-184.0","task_version":"test-retest"},{"Rune":"rune_01_ingwaz","Hex":"#3366ff99","Correct":-1,"Choice":-1,"RT":-1,"Accuracy":1,"Outcome":"-1","Keys":[],"TotalKeys":0,"Block":2,"Trial":180,"Robot":4,"Valence":"Lose","Action":"No-Go","Sham":0,"Color":"blue","trial_type":"pit-trial","trial_index":196,"time_elapsed":896276,"internal_node_id":"0.0-185.0","task_version":"test-retest"},{"view_history":"[{\"page_index\":0,\"viewing_time\":2119.7749999701045},{\"page_index\":1,\"viewing_time\":1769.975000002887}]","rt":3890.2799999923445,"trial_type":"pit-instructions","trial_index":197,"time_elapsed":900168,"internal_node_id":"0.0-186.0","task_version":"test-retest"},{"Rune":"rune_01_ear","Hex":"#ffcc3399","Correct":-1,"Choice":-1,"RT":-1,"Accuracy":1,"Outcome":"+10","Keys":[],"TotalKeys":0,"Block":2,"Trial":181,"Robot":2,"Valence":"Win","Action":"No-Go","Sham":0,"Color":"yellow","trial_type":"pit-trial","trial_index":198,"time_elapsed":904177,"internal_node_id":"0.0-187.0","task_version":"test-retest"},{"Rune":"rune_01_ingwaz","Hex":"#3366ff99","Correct":-1,"Choice":-1,"RT":-1,"Accuracy":1,"Outcome":"-1","Keys":[],"TotalKeys":0,"Block":2,"Trial":182,"Robot":4,"Valence":"Lose","Action":"No-Go","Sham":0,"Color":"blue","trial_type":"pit-trial","trial_index":199,"time_elapsed":908184,"internal_node_id":"0.0-188.0","task_version":"test-retest"},{"Rune":"rune_01_ger","Hex":"#ffcc3399","Correct":32,"Choice":32,"RT":423.0199999874458,"Accuracy":1,"Outcome":"+10","Keys":[1929.0000000037253],"TotalKeys":1,"Block":2,"Trial":183,"Robot":1,"Valence":"Win","Action":"Go","Sham":0,"Color":"yellow","trial_type":"pit-trial","trial_index":200,"time_elapsed":911119,"internal_node_id":"0.0-189.0","task_version":"test-retest"},{"Rune":"rune_01_yr","Hex":"#3366ff99","Correct":32,"Choice":32,"RT":476.7100000171922,"Accuracy":1,"Outcome":"-1","Keys":[1978.049999976065],"TotalKeys":1,"Block":2,"Trial":184,"Robot":3,"Valence":"Lose","Action":"Go","Sham":0,"Color":"blue","trial_type":"pit-trial","trial_index":201,"time_elapsed":914104,"internal_node_id":"0.0-190.0","task_version":"test-retest"},{"Rune":"rune_01_yr","Hex":"#3366ff99","Correct":32,"Choice":32,"RT":487.9899999941699,"Accuracy":1,"Outcome":"-1","Keys":[1989.9249999434687],"TotalKeys":1,"Block":2,"Trial":185,"Robot":3,"Valence":"Lose","Action":"Go","Sham":0,"Color":"blue","trial_type":"pit-trial","trial_index":202,"time_elapsed":917100,"internal_node_id":"0.0-191.0","task_version":"test-retest"},{"Rune":"rune_01_ingwaz","Hex":"#3366ff99","Correct":-1,"Choice":-1,"RT":-1,"Accuracy":1,"Outcome":"-1","Keys":[],"TotalKeys":0,"Block":2,"Trial":186,"Robot":4,"Valence":"Lose","Action":"No-Go","Sham":0,"Color":"blue","trial_type":"pit-trial","trial_index":203,"time_elapsed":921111,"internal_node_id":"0.0-192.0","task_version":"test-retest"},{"Rune":"rune_01_ger","Hex":"#ffcc3399","Correct":32,"Choice":32,"RT":446.010000014212,"Accuracy":1,"Outcome":"+10","Keys":[1947.4850000115111],"TotalKeys":1,"Block":2,"Trial":187,"Robot":1,"Valence":"Win","Action":"Go","Sham":0,"Color":"yellow","trial_type":"pit-trial","trial_index":204,"time_elapsed":924064,"internal_node_id":"0.0-193.0","task_version":"test-retest"},{"Rune":"rune_01_ear","Hex":"#ffcc3399","Correct":-1,"Choice":-1,"RT":-1,"Accuracy":1,"Outcome":"+1","Keys":[],"TotalKeys":0,"Block":2,"Trial":188,"Robot":2,"Valence":"Win","Action":"No-Go","Sham":1,"Color":"yellow","trial_type":"pit-trial","trial_index":205,"time_elapsed":928067,"internal_node_id":"0.0-194.0","task_version":"test-retest"},{"Rune":"rune_01_ger","Hex":"#ffcc3399","Correct":32,"Choice":32,"RT":446.4750000042841,"Accuracy":1,"Outcome":"+10","Keys":[1947.2100000130013],"TotalKeys":1,"Block":2,"Trial":189,"Robot":1,"Valence":"Win","Action":"Go","Sham":0,"Color":"yellow","trial_type":"pit-trial","trial_index":206,"time_elapsed":931019,"internal_node_id":"0.0-195.0","task_version":"test-retest"},{"Rune":"rune_01_ear","Hex":"#ffcc3399","Correct":-1,"Choice":-1,"RT":-1,"Accuracy":1,"Outcome":"+10","Keys":[],"TotalKeys":0,"Block":2,"Trial":190,"Robot":2,"Valence":"Win","Action":"No-Go","Sham":0,"Color":"yellow","trial_type":"pit-trial","trial_index":207,"time_elapsed":935030,"internal_node_id":"0.0-196.0","task_version":"test-retest"},{"Rune":"rune_01_ingwaz","Hex":"#3366ff99","Correct":-1,"Choice":-1,"RT":-1,"Accuracy":1,"Outcome":"-1","Keys":[],"TotalKeys":0,"Block":2,"Trial":191,"Robot":4,"Valence":"Lose","Action":"No-Go","Sham":0,"Color":"blue","trial_type":"pit-trial","trial_index":208,"time_elapsed":939038,"internal_node_id":"0.0-197.0","task_version":"test-retest"},{"Rune":"rune_01_yr","Hex":"#3366ff99","Correct":32,"Choice":32,"RT":292.0649999869056,"Accuracy":1,"Outcome":"-1","Keys":[1793.0300000007264],"TotalKeys":1,"Block":2,"Trial":192,"Robot":3,"Valence":"Lose","Action":"Go","Sham":0,"Color":"blue","trial_type":"pit-trial","trial_index":209,"time_elapsed":941843,"internal_node_id":"0.0-198.0","task_version":"test-retest"},{"Rune":"rune_01_yr","Hex":"#3366ff99","Correct":32,"Choice":32,"RT":520.9349999786355,"Accuracy":1,"Outcome":"-10","Keys":[2021.7050000210293],"TotalKeys":1,"Block":2,"Trial":193,"Robot":3,"Valence":"Lose","Action":"Go","Sham":1,"Color":"blue","trial_type":"pit-trial","trial_index":210,"time_elapsed":944873,"internal_node_id":"0.0-199.0","task_version":"test-retest"},{"Rune":"rune_01_ear","Hex":"#ffcc3399","Correct":-1,"Choice":-1,"RT":-1,"Accuracy":1,"Outcome":"+10","Keys":[],"TotalKeys":0,"Block":2,"Trial":194,"Robot":2,"Valence":"Win","Action":"No-Go","Sham":0,"Color":"yellow","trial_type":"pit-trial","trial_index":211,"time_elapsed":948884,"internal_node_id":"0.0-200.0","task_version":"test-retest"},{"Rune":"rune_01_ger","Hex":"#ffcc3399","Correct":32,"Choice":32,"RT":418.6749999644235,"Accuracy":1,"Outcome":"+1","Keys":[1920.410000020638],"TotalKeys":1,"Block":2,"Trial":195,"Robot":1,"Valence":"Win","Action":"Go","Sham":1,"Color":"yellow","trial_type":"pit-trial","trial_index":212,"time_elapsed":951818,"internal_node_id":"0.0-201.0","task_version":"test-retest"},{"Rune":"rune_01_ingwaz","Hex":"#3366ff99","Correct":-1,"Choice":-1,"RT":-1,"Accuracy":1,"Outcome":"-1","Keys":[],"TotalKeys":0,"Block":2,"Trial":196,"Robot":4,"Valence":"Lose","Action":"No-Go","Sham":0,"Color":"blue","trial_type":"pit-trial","trial_index":213,"time_elapsed":955825,"internal_node_id":"0.0-202.0","task_version":"test-retest"},{"Rune":"rune_01_ger","Hex":"#ffcc3399","Correct":32,"Choice":32,"RT":324.5149999856949,"Accuracy":1,"Outcome":"+10","Keys":[1866.0150000359863],"TotalKeys":1,"Block":2,"Trial":197,"Robot":1,"Valence":"Win","Action":"Go","Sham":0,"Color":"yellow","trial_type":"pit-trial","trial_index":214,"time_elapsed":958698,"internal_node_id":"0.0-203.0","task_version":"test-retest"},{"Rune":"rune_01_ear","Hex":"#ffcc3399","Correct":-1,"Choice":-1,"RT":-1,"Accuracy":1,"Outcome":"+10","Keys":[],"TotalKeys":0,"Block":2,"Trial":198,"Robot":2,"Valence":"Win","Action":"No-Go","Sham":0,"Color":"yellow","trial_type":"pit-trial","trial_index":215,"time_elapsed":962717,"internal_node_id":"0.0-204.0","task_version":"test-retest"},{"Rune":"rune_01_ingwaz","Hex":"#3366ff99","Correct":-1,"Choice":-1,"RT":-1,"Accuracy":1,"Outcome":"-10","Keys":[],"TotalKeys":0,"Block":2,"Trial":199,"Robot":4,"Valence":"Lose","Action":"No-Go","Sham":1,"Color":"blue","trial_type":"pit-trial","trial_index":216,"time_elapsed":966726,"internal_node_id":"0.0-205.0","task_version":"test-retest"},{"Rune":"rune_01_yr","Hex":"#3366ff99","Correct":32,"Choice":32,"RT":465.4350000200793,"Accuracy":1,"Outcome":"-1","Keys":[1970.7599999965169],"TotalKeys":1,"Block":2,"Trial":200,"Robot":3,"Valence":"Lose","Action":"Go","Sham":0,"Color":"blue","trial_type":"pit-trial","trial_index":217,"time_elapsed":969701,"internal_node_id":"0.0-206.0","task_version":"test-retest"},{"Rune":"rune_01_ear","Hex":"#ffcc3399","Correct":-1,"Choice":-1,"RT":-1,"Accuracy":1,"Outcome":"+10","Keys":[],"TotalKeys":0,"Block":2,"Trial":201,"Robot":2,"Valence":"Win","Action":"No-Go","Sham":0,"Color":"yellow","trial_type":"pit-trial","trial_index":218,"time_elapsed":973712,"internal_node_id":"0.0-207.0","task_version":"test-retest"},{"Rune":"rune_01_yr","Hex":"#3366ff99","Correct":32,"Choice":32,"RT":483.1449999473989,"Accuracy":1,"Outcome":"-1","Keys":[1985.385000007227],"TotalKeys":1,"Block":2,"Trial":202,"Robot":3,"Valence":"Lose","Action":"Go","Sham":0,"Color":"blue","trial_type":"pit-trial","trial_index":219,"time_elapsed":976704,"internal_node_id":"0.0-208.0","task_version":"test-retest"},{"Rune":"rune_01_ger","Hex":"#ffcc3399","Correct":32,"Choice":32,"RT":438.6499999673106,"Accuracy":1,"Outcome":"+10","Keys":[1939.7250000038184],"TotalKeys":1,"Block":2,"Trial":203,"Robot":1,"Valence":"Win","Action":"Go","Sham":0,"Color":"yellow","trial_type":"pit-trial","trial_index":220,"time_elapsed":979651,"internal_node_id":"0.0-209.0","task_version":"test-retest"},{"Rune":"rune_01_ingwaz","Hex":"#3366ff99","Correct":-1,"Choice":-1,"RT":-1,"Accuracy":1,"Outcome":"-1","Keys":[],"TotalKeys":0,"Block":2,"Trial":204,"Robot":4,"Valence":"Lose","Action":"No-Go","Sham":0,"Color":"blue","trial_type":"pit-trial","trial_index":221,"time_elapsed":983660,"internal_node_id":"0.0-210.0","task_version":"test-retest"},{"Rune":"rune_01_ingwaz","Hex":"#3366ff99","Correct":-1,"Choice":-1,"RT":-1,"Accuracy":1,"Outcome":"-1","Keys":[],"TotalKeys":0,"Block":2,"Trial":205,"Robot":4,"Valence":"Lose","Action":"No-Go","Sham":0,"Color":"blue","trial_type":"pit-trial","trial_index":222,"time_elapsed":987669,"internal_node_id":"0.0-211.0","task_version":"test-retest"},{"Rune":"rune_01_ear","Hex":"#ffcc3399","Correct":-1,"Choice":-1,"RT":-1,"Accuracy":1,"Outcome":"+10","Keys":[],"TotalKeys":0,"Block":2,"Trial":206,"Robot":2,"Valence":"Win","Action":"No-Go","Sham":0,"Color":"yellow","trial_type":"pit-trial","trial_index":223,"time_elapsed":991680,"internal_node_id":"0.0-212.0","task_version":"test-retest"},{"Rune":"rune_01_yr","Hex":"#3366ff99","Correct":32,"Choice":32,"RT":429.42999996012077,"Accuracy":1,"Outcome":"-1","Keys":[1934.5050000119954],"TotalKeys":1,"Block":2,"Trial":207,"Robot":3,"Valence":"Lose","Action":"Go","Sham":0,"Color":"blue","trial_type":"pit-trial","trial_index":224,"time_elapsed":994620,"internal_node_id":"0.0-213.0","task_version":"test-retest"},{"Rune":"rune_01_ger","Hex":"#ffcc3399","Correct":32,"Choice":32,"RT":471.6450000414625,"Accuracy":1,"Outcome":"+10","Keys":[1974.2199999745935],"TotalKeys":1,"Block":2,"Trial":208,"Robot":1,"Valence":"Win","Action":"Go","Sham":0,"Color":"yellow","trial_type":"pit-trial","trial_index":225,"time_elapsed":997600,"internal_node_id":"0.0-214.0","task_version":"test-retest"},{"Rune":"rune_01_ger","Hex":"#ffcc3399","Correct":32,"Choice":32,"RT":447.0100000035018,"Accuracy":1,"Outcome":"+10","Keys":[1949.190000013914],"TotalKeys":1,"Block":2,"Trial":209,"Robot":1,"Valence":"Win","Action":"Go","Sham":0,"Color":"yellow","trial_type":"pit-trial","trial_index":226,"time_elapsed":1000556,"internal_node_id":"0.0-215.0","task_version":"test-retest"},{"Rune":"rune_01_ear","Hex":"#ffcc3399","Correct":-1,"Choice":-1,"RT":-1,"Accuracy":1,"Outcome":"+10","Keys":[],"TotalKeys":0,"Block":2,"Trial":210,"Robot":2,"Valence":"Win","Action":"No-Go","Sham":0,"Color":"yellow","trial_type":"pit-trial","trial_index":227,"time_elapsed":1004565,"internal_node_id":"0.0-216.0","task_version":"test-retest"},{"Rune":"rune_01_yr","Hex":"#3366ff99","Correct":32,"Choice":32,"RT":462.0449999929406,"Accuracy":1,"Outcome":"-10","Keys":[1963.7450000154786],"TotalKeys":1,"Block":2,"Trial":211,"Robot":3,"Valence":"Lose","Action":"Go","Sham":1,"Color":"blue","trial_type":"pit-trial","trial_index":228,"time_elapsed":1007536,"internal_node_id":"0.0-217.0","task_version":"test-retest"},{"Rune":"rune_01_ingwaz","Hex":"#3366ff99","Correct":-1,"Choice":-1,"RT":-1,"Accuracy":1,"Outcome":"-1","Keys":[],"TotalKeys":0,"Block":2,"Trial":212,"Robot":4,"Valence":"Lose","Action":"No-Go","Sham":0,"Color":"blue","trial_type":"pit-trial","trial_index":229,"time_elapsed":1011548,"internal_node_id":"0.0-218.0","task_version":"test-retest"},{"Rune":"rune_01_yr","Hex":"#3366ff99","Correct":32,"Choice":32,"RT":413.1749999942258,"Accuracy":1,"Outcome":"-1","Keys":[1915.5550000141375],"TotalKeys":1,"Block":2,"Trial":213,"Robot":3,"Valence":"Lose","Action":"Go","Sham":0,"Color":"blue","trial_type":"pit-trial","trial_index":230,"time_elapsed":1014470,"internal_node_id":"0.0-219.0","task_version":"test-retest"},{"Rune":"rune_01_ger","Hex":"#ffcc3399","Correct":32,"Choice":32,"RT":562.3800000175834,"Accuracy":1,"Outcome":"+1","Keys":[2066.274999990128],"TotalKeys":1,"Block":2,"Trial":214,"Robot":1,"Valence":"Win","Action":"Go","Sham":1,"Color":"yellow","trial_type":"pit-trial","trial_index":231,"time_elapsed":1017541,"internal_node_id":"0.0-220.0","task_version":"test-retest"},{"Rune":"rune_01_ingwaz","Hex":"#3366ff99","Correct":-1,"Choice":-1,"RT":-1,"Accuracy":1,"Outcome":"-1","Keys":[],"TotalKeys":0,"Block":2,"Trial":215,"Robot":4,"Valence":"Lose","Action":"No-Go","Sham":0,"Color":"blue","trial_type":"pit-trial","trial_index":232,"time_elapsed":1021549,"internal_node_id":"0.0-221.0","task_version":"test-retest"},{"Rune":"rune_01_ear","Hex":"#ffcc3399","Correct":-1,"Choice":-1,"RT":-1,"Accuracy":1,"Outcome":"+10","Keys":[],"TotalKeys":0,"Block":2,"Trial":216,"Robot":2,"Valence":"Win","Action":"No-Go","Sham":0,"Color":"yellow","trial_type":"pit-trial","trial_index":233,"time_elapsed":1025560,"internal_node_id":"0.0-222.0","task_version":"test-retest"},{"Rune":"rune_01_ingwaz","Hex":"#3366ff99","Correct":-1,"Choice":-1,"RT":-1,"Accuracy":1,"Outcome":"-10","Keys":[],"TotalKeys":0,"Block":2,"Trial":217,"Robot":4,"Valence":"Lose","Action":"No-Go","Sham":1,"Color":"blue","trial_type":"pit-trial","trial_index":234,"time_elapsed":1029569,"internal_node_id":"0.0-223.0","task_version":"test-retest"},{"Rune":"rune_01_yr","Hex":"#3366ff99","Correct":32,"Choice":32,"RT":459.0550000430085,"Accuracy":1,"Outcome":"-1","Keys":[1960.5050000245683],"TotalKeys":1,"Block":2,"Trial":218,"Robot":3,"Valence":"Lose","Action":"Go","Sham":0,"Color":"blue","trial_type":"pit-trial","trial_index":235,"time_elapsed":1032535,"internal_node_id":"0.0-224.0","task_version":"test-retest"},{"Rune":"rune_01_ear","Hex":"#ffcc3399","Correct":-1,"Choice":-1,"RT":-1,"Accuracy":1,"Outcome":"+1","Keys":[],"TotalKeys":0,"Block":2,"Trial":219,"Robot":2,"Valence":"Win","Action":"No-Go","Sham":1,"Color":"yellow","trial_type":"pit-trial","trial_index":236,"time_elapsed":1036547,"internal_node_id":"0.0-225.0","task_version":"test-retest"},{"Rune":"rune_01_ger","Hex":"#ffcc3399","Correct":32,"Choice":32,"RT":447.0300000393763,"Accuracy":1,"Outcome":"+10","Keys":[1954.3800000101328],"TotalKeys":1,"Block":2,"Trial":220,"Robot":1,"Valence":"Win","Action":"Go","Sham":0,"Color":"yellow","trial_type":"pit-trial","trial_index":237,"time_elapsed":1039508,"internal_node_id":"0.0-226.0","task_version":"test-retest"},{"Rune":"rune_01_ear","Hex":"#ffcc3399","Correct":-1,"Choice":-1,"RT":-1,"Accuracy":1,"Outcome":"+10","Keys":[],"TotalKeys":0,"Block":2,"Trial":221,"Robot":2,"Valence":"Win","Action":"No-Go","Sham":0,"Color":"yellow","trial_type":"pit-trial","trial_index":238,"time_elapsed":1043518,"internal_node_id":"0.0-227.0","task_version":"test-retest"},{"Rune":"rune_01_ger","Hex":"#ffcc3399","Correct":32,"Choice":32,"RT":668.6549999867566,"Accuracy":1,"Outcome":"+10","Keys":[2169.2299999995157],"TotalKeys":1,"Block":2,"Trial":222,"Robot":1,"Valence":"Win","Action":"Go","Sham":0,"Color":"yellow","trial_type":"pit-trial","trial_index":239,"time_elapsed":1046697,"internal_node_id":"0.0-228.0","task_version":"test-retest"},{"Rune":"rune_01_ingwaz","Hex":"#3366ff99","Correct":-1,"Choice":-1,"RT":-1,"Accuracy":1,"Outcome":"-1","Keys":[],"TotalKeys":0,"Block":2,"Trial":223,"Robot":4,"Valence":"Lose","Action":"No-Go","Sham":0,"Color":"blue","trial_type":"pit-trial","trial_index":240,"time_elapsed":1050705,"internal_node_id":"0.0-229.0","task_version":"test-retest"},{"Rune":"rune_01_yr","Hex":"#3366ff99","Correct":32,"Choice":32,"RT":382.744999951683,"Accuracy":1,"Outcome":"-1","Keys":[1883.1749999662861],"TotalKeys":1,"Block":2,"Trial":224,"Robot":3,"Valence":"Lose","Action":"Go","Sham":0,"Color":"blue","trial_type":"pit-trial","trial_index":241,"time_elapsed":1053595,"internal_node_id":"0.0-230.0","task_version":"test-retest"},{"Rune":"rune_01_ingwaz","Hex":"#3366ff99","Correct":-1,"Choice":-1,"RT":-1,"Accuracy":1,"Outcome":"-1","Keys":[],"TotalKeys":0,"Block":2,"Trial":225,"Robot":4,"Valence":"Lose","Action":"No-Go","Sham":0,"Color":"blue","trial_type":"pit-trial","trial_index":242,"time_elapsed":1057606,"internal_node_id":"0.0-231.0","task_version":"test-retest"},{"Rune":"rune_01_yr","Hex":"#3366ff99","Correct":32,"Choice":32,"RT":457.64500001678243,"Accuracy":1,"Outcome":"-1","Keys":[1958.6399999679998],"TotalKeys":1,"Block":2,"Trial":226,"Robot":3,"Valence":"Lose","Action":"Go","Sham":0,"Color":"blue","trial_type":"pit-trial","trial_index":243,"time_elapsed":1060570,"internal_node_id":"0.0-232.0","task_version":"test-retest"},{"Rune":"rune_01_ear","Hex":"#ffcc3399","Correct":-1,"Choice":-1,"RT":-1,"Accuracy":1,"Outcome":"+1","Keys":[],"TotalKeys":0,"Block":2,"Trial":227,"Robot":2,"Valence":"Win","Action":"No-Go","Sham":1,"Color":"yellow","trial_type":"pit-trial","trial_index":244,"time_elapsed":1064581,"internal_node_id":"0.0-233.0","task_version":"test-retest"},{"Rune":"rune_01_ger","Hex":"#ffcc3399","Correct":32,"Choice":32,"RT":384.0949999867007,"Accuracy":1,"Outcome":"+10","Keys":[1885.6849999865517],"TotalKeys":1,"Block":2,"Trial":228,"Robot":1,"Valence":"Win","Action":"Go","Sham":0,"Color":"yellow","trial_type":"pit-trial","trial_index":245,"time_elapsed":1067472,"internal_node_id":"0.0-234.0","task_version":"test-retest"},{"Rune":"rune_01_yr","Hex":"#3366ff99","Correct":32,"Choice":32,"RT":416.23500001151115,"Accuracy":1,"Outcome":"-1","Keys":[1917.0849999645725],"TotalKeys":1,"Block":2,"Trial":229,"Robot":3,"Valence":"Lose","Action":"Go","Sham":0,"Color":"blue","trial_type":"pit-trial","trial_index":246,"time_elapsed":1070395,"internal_node_id":"0.0-235.0","task_version":"test-retest"},{"Rune":"rune_01_ear","Hex":"#ffcc3399","Correct":-1,"Choice":-1,"RT":-1,"Accuracy":1,"Outcome":"+10","Keys":[],"TotalKeys":0,"Block":2,"Trial":230,"Robot":2,"Valence":"Win","Action":"No-Go","Sham":0,"Color":"yellow","trial_type":"pit-trial","trial_index":247,"time_elapsed":1074406,"internal_node_id":"0.0-236.0","task_version":"test-retest"},{"Rune":"rune_01_ger","Hex":"#ffcc3399","Correct":32,"Choice":32,"RT":622.55999998888,"Accuracy":1,"Outcome":"+10","Keys":[2125.9100000024773],"TotalKeys":1,"Block":2,"Trial":231,"Robot":1,"Valence":"Win","Action":"Go","Sham":0,"Color":"yellow","trial_type":"pit-trial","trial_index":248,"time_elapsed":1077538,"internal_node_id":"0.0-237.0","task_version":"test-retest"},{"Rune":"rune_01_ingwaz","Hex":"#3366ff99","Correct":-1,"Choice":-1,"RT":-1,"Accuracy":1,"Outcome":"-1","Keys":[],"TotalKeys":0,"Block":2,"Trial":232,"Robot":4,"Valence":"Lose","Action":"No-Go","Sham":0,"Color":"blue","trial_type":"pit-trial","trial_index":249,"time_elapsed":1081545,"internal_node_id":"0.0-238.0","task_version":"test-retest"},{"Rune":"rune_01_ear","Hex":"#ffcc3399","Correct":-1,"Choice":-1,"RT":-1,"Accuracy":1,"Outcome":"+10","Keys":[],"TotalKeys":0,"Block":2,"Trial":233,"Robot":2,"Valence":"Win","Action":"No-Go","Sham":0,"Color":"yellow","trial_type":"pit-trial","trial_index":250,"time_elapsed":1085553,"internal_node_id":"0.0-239.0","task_version":"test-retest"},{"Rune":"rune_01_ingwaz","Hex":"#3366ff99","Correct":-1,"Choice":-1,"RT":-1,"Accuracy":1,"Outcome":"-10","Keys":[],"TotalKeys":0,"Block":2,"Trial":234,"Robot":4,"Valence":"Lose","Action":"No-Go","Sham":1,"Color":"blue","trial_type":"pit-trial","trial_index":251,"time_elapsed":1089560,"internal_node_id":"0.0-240.0","task_version":"test-retest"},{"Rune":"rune_01_yr","Hex":"#3366ff99","Correct":32,"Choice":32,"RT":457.2150000021793,"Accuracy":1,"Outcome":"-1","Keys":[1957.5899999472313],"TotalKeys":1,"Block":2,"Trial":235,"Robot":3,"Valence":"Lose","Action":"Go","Sham":0,"Color":"blue","trial_type":"pit-trial","trial_index":252,"time_elapsed":1092520,"internal_node_id":"0.0-241.0","task_version":"test-retest"},{"Rune":"rune_01_ger","Hex":"#ffcc3399","Correct":32,"Choice":32,"RT":393.2550000026822,"Accuracy":1,"Outcome":"+1","Keys":[1894.5149999926798],"TotalKeys":1,"Block":2,"Trial":236,"Robot":1,"Valence":"Win","Action":"Go","Sham":1,"Color":"yellow","trial_type":"pit-trial","trial_index":253,"time_elapsed":1095421,"internal_node_id":"0.0-242.0","task_version":"test-retest"},{"Rune":"rune_01_ear","Hex":"#ffcc3399","Correct":-1,"Choice":-1,"RT":-1,"Accuracy":1,"Outcome":"+10","Keys":[],"TotalKeys":0,"Block":2,"Trial":237,"Robot":2,"Valence":"Win","Action":"No-Go","Sham":0,"Color":"yellow","trial_type":"pit-trial","trial_index":254,"time_elapsed":1099427,"internal_node_id":"0.0-243.0","task_version":"test-retest"},{"Rune":"rune_01_yr","Hex":"#3366ff99","Correct":32,"Choice":32,"RT":525.4149999818765,"Accuracy":1,"Outcome":"-10","Keys":[2027.4300000164658],"TotalKeys":1,"Block":2,"Trial":238,"Robot":3,"Valence":"Lose","Action":"Go","Sham":1,"Color":"blue","trial_type":"pit-trial","trial_index":255,"time_elapsed":1102462,"internal_node_id":"0.0-244.0","task_version":"test-retest"},{"Rune":"rune_01_ingwaz","Hex":"#3366ff99","Correct":-1,"Choice":-1,"RT":-1,"Accuracy":1,"Outcome":"-1","Keys":[],"TotalKeys":0,"Block":2,"Trial":239,"Robot":4,"Valence":"Lose","Action":"No-Go","Sham":0,"Color":"blue","trial_type":"pit-trial","trial_index":256,"time_elapsed":1106469,"internal_node_id":"0.0-245.0","task_version":"test-retest"},{"Rune":"rune_01_ger","Hex":"#ffcc3399","Correct":32,"Choice":32,"RT":380.6500000064261,"Accuracy":1,"Outcome":"+10","Keys":[1884.4200000166893],"TotalKeys":1,"Block":2,"Trial":240,"Robot":1,"Valence":"Win","Action":"Go","Sham":0,"Color":"yellow","trial_type":"pit-trial","trial_index":257,"time_elapsed":1109356,"internal_node_id":"0.0-246.0","task_version":"test-retest"},{"view_history":"[{\"page_index\":0,\"viewing_time\":3175.5499999853782}]","rt":3176.080000004731,"trial_type":"pit-instructions","trial_index":258,"time_elapsed":1112534,"internal_node_id":"0.0-247.0","task_version":"test-retest"},{"responses":{"Q01":"1","Q02":"1","Q07":"0","Q08":"0","Q03":"0","Q05":"0","Q04":"0","Q06":"0"},"rt":21636.19499997003,"survey":"gad7","trial_type":"survey-template","trial_index":259,"time_elapsed":1134176,"internal_node_id":"0.0-248.0","task_version":"test-retest"},{"responses":{"Q08":"2","Q03":"3","Q11":"1","Q09":"1","Q13":"0","Q02":"3","Q12":"1","Q10":"1","Q07":"3","Q01":"3","Q04":"3","Q05":"3","Q06":"2"},"rt":32319.610000005923,"survey":"bisbas","trial_type":"survey-template","trial_index":260,"time_elapsed":1166500,"internal_node_id":"0.0-249.0","task_version":"test-retest"},{"responses":{"Q12":"1","Q13":"0","Q03":"0","Q02":"1","Q11":"1","Q07":"0","Q15":"0","Q05":"1","Q08":"0","Q01":"0","Q06":"0","Q10":"1","Q14":"0","Q04":"0","Q09":"0"},"rt":76938.21000005119,"survey":"7up7down","trial_type":"survey-template","trial_index":261,"time_elapsed":1243445,"internal_node_id":"0.0-250.0","task_version":"test-retest"},{"rt":9380.734999955166,"responses":{"age":"26","gender-categorical":"Female","gender-free-response":"","ethnicity":"Rather not say","race":"Rather not say","language":"Yes","fluency":"Very well"},"survey":"demographics","trial_type":"survey-demo","trial_index":262,"time_elapsed":1252830,"internal_node_id":"0.0-251.0","task_version":"test-retest"},{"rt":22217.44000003673,"responses":{"difficulty":"3","fun":"3","clarity":"4","strategy":"I remembered which ones were complete or incomplete","feedback":""},"survey":"debrief","trial_type":"survey-debrief","trial_index":263,"time_elapsed":1275051,"internal_node_id":"0.0-252.0","task_version":"test-retest"},{"rt":2847.150000045076,"stimulus":"You earned a bonus of $1.32 out of $1.5.<br><br>Press any key to complete the experiment.","key_press":32,"trial_type":"html-keyboard-response","trial_index":264,"time_elapsed":1277902,"internal_node_id":"0.0-253.0","task_version":"test-retest","accuracy":0.8791666666666667,"bonus":1.32,"interactions":"[{\"event\":\"blur\",\"trial\":11,\"time\":85552},{\"event\":\"focus\",\"trial\":11,\"time\":90820},{\"event\":\"blur\",\"trial\":11,\"time\":92863},{\"event\":\"focus\",\"trial\":11,\"time\":201645},{\"event\":\"blur\",\"trial\":11,\"time\":204335},{\"event\":\"focus\",\"trial\":11,\"time\":205859},{\"event\":\"blur\",\"trial\":136,\"time\":673116},{\"event\":\"focus\",\"trial\":136,\"time\":682119}]"}]