[{"slider_type":"valence","raw_loc":567,"loc":0.634,"trial_type":"affective-slider","trial_index":0,"time_elapsed":5010,"internal_node_id":"0.0-0.0","task_version":"test-retest"},{"responses":{"Q15":"0","Q12":"0","Q01":"0","Q13":"2","Q07":"3","Q05":"3","Q11":"1","Q04":"2","Q02":"1","Q08":"2","Q14":"2","Q09":"3","Q03":"2","Q10":"2","Q06":"3"},"rt":113853.2299999788,"survey":"7up7down","trial_type":"survey-template","trial_index":1,"time_elapsed":118869,"internal_node_id":"0.0-1.0","task_version":"test-retest"},{"responses":{"Q05":"0","Q08":"0","Q03":"0","Q06":"0","Q02":"1","Q01":"1","Q04":"0","Q07":"0"},"rt":33656.30499998224,"survey":"gad7","trial_type":"survey-template","trial_index":2,"time_elapsed":152529,"internal_node_id":"0.0-2.0","task_version":"test-retest"},{"responses":{"Q10":"0","Q02":"0","Q06":"0","Q07":"2","Q05":"3","Q12":"0","Q09":"3","Q13":"0","Q11":"2","Q03":"1","Q04":"2","Q01":"1","Q08":"3"},"rt":49717.4749999831,"survey":"bisbas","trial_type":"survey-template","trial_index":3,"time_elapsed":202252,"internal_node_id":"0.0-3.0","task_version":"test-retest"},{"value":false,"trial_type":"call-function","trial_index":4,"time_elapsed":202257,"internal_node_id":"0.0-4.0","task_version":"test-retest"},{"view_history":"[{\"page_index\":0,\"viewing_time\":7811.90499998047},{\"page_index\":1,\"viewing_time\":3880.0200000114273},{\"page_index\":2,\"viewing_time\":5983.379999990575},{\"page_index\":3,\"viewing_time\":2888.7200000172015},{\"page_index\":4,\"viewing_time\":1136.6549999802373}]","rt":21701.934999990044,"trial_type":"pit-instructions","trial_index":5,"time_elapsed":223968,"internal_node_id":"0.0-5.0-0.0","task_version":"test-retest"},{"Rune":"rune_00_ingz","Hex":"#FFFFF080","Correct":32,"Choice":-1,"RT":-1,"Accuracy":0,"Outcome":"+0","Keys":[],"TotalKeys":0,"Block":0,"Action":"Go","trial_type":"pit-trial","trial_index":6,"time_elapsed":227976,"internal_node_id":"0.0-5.0-1.0-0.0","task_version":"test-retest"},{"Rune":"rune_00_ingz","Hex":"#FFFFF080","Correct":32,"Choice":-1,"RT":-1,"Accuracy":0,"Outcome":"+0","Keys":[],"TotalKeys":0,"Block":0,"Action":"Go","trial_type":"pit-trial","trial_index":7,"time_elapsed":231983,"internal_node_id":"0.0-5.0-1.0-0.1","task_version":"test-retest"},{"Rune":"rune_00_ingz","Hex":"#FFFFF080","Correct":32,"Choice":-1,"RT":-1,"Accuracy":0,"Outcome":"+0","Keys":[],"TotalKeys":0,"Block":0,"Action":"Go","trial_type":"pit-trial","trial_index":8,"time_elapsed":235989,"internal_node_id":"0.0-5.0-1.0-0.2","task_version":"test-retest"},{"Rune":"rune_00_ingz","Hex":"#FFFFF080","Correct":32,"Choice":-1,"RT":-1,"Accuracy":0,"Outcome":"+0","Keys":[],"TotalKeys":0,"Block":0,"Action":"Go","trial_type":"pit-trial","trial_index":9,"time_elapsed":239997,"internal_node_id":"0.0-5.0-1.0-0.3","task_version":"test-retest"},{"view_history":"[{\"page_index\":0,\"viewing_time\":3946.605000004638}]","rt":3947.249999997439,"trial_type":"pit-instructions","trial_index":10,"time_elapsed":243946,"internal_node_id":"0.0-5.0-2.0","task_version":"test-retest"},{"Rune":"rune_00_isaz","Hex":"#FFFFF080","Correct":-1,"Choice":-1,"RT":-1,"Accuracy":1,"Outcome":"+10","Keys":[],"TotalKeys":0,"Block":0,"Action":"No-Go","trial_type":"pit-trial","trial_index":11,"time_elapsed":247950,"internal_node_id":"0.0-5.0-3.0-0.0","task_version":"test-retest"},{"Rune":"rune_00_isaz","Hex":"#FFFFF080","Correct":-1,"Choice":-1,"RT":-1,"Accuracy":1,"Outcome":"+10","Keys":[],"TotalKeys":0,"Block":0,"Action":"No-Go","trial_type":"pit-trial","trial_index":12,"time_elapsed":251954,"internal_node_id":"0.0-5.0-3.0-0.1","task_version":"test-retest"},{"Rune":"rune_00_isaz","Hex":"#FFFFF080","Correct":-1,"Choice":-1,"RT":-1,"Accuracy":1,"Outcome":"+10","Keys":[],"TotalKeys":0,"Block":0,"Action":"No-Go","trial_type":"pit-trial","trial_index":13,"time_elapsed":255957,"internal_node_id":"0.0-5.0-3.0-0.2","task_version":"test-retest"},{"Rune":"rune_00_isaz","Hex":"#FFFFF080","Correct":-1,"Choice":-1,"RT":-1,"Accuracy":1,"Outcome":"+10","Keys":[],"TotalKeys":0,"Block":0,"Action":"No-Go","trial_type":"pit-trial","trial_index":14,"time_elapsed":259962,"internal_node_id":"0.0-5.0-3.0-0.3","task_version":"test-retest"},{"view_history":"[{\"page_index\":0,\"viewing_time\":6600.490000011632},{\"page_index\":1,\"viewing_time\":5990.564999985509},{\"page_index\":2,\"viewing_time\":2785.600000002887},{\"page_index\":3,\"viewing_time\":1010.8699999982491},{\"page_index\":4,\"viewing_time\":1037.450000003446},{\"page_index\":5,\"viewing_time\":4094.4299999973737},{\"page_index\":6,\"viewing_time\":2461.040000023786},{\"page_index\":7,\"viewing_time\":1774.9599999806378}]","rt":25755.935000022873,"trial_type":"pit-instructions","trial_index":15,"time_elapsed":285720,"internal_node_id":"0.0-5.0-4.0","task_version":"test-retest"},{"responses":["Do nothing","+10","-1","True","Yes"],"num_errors":0,"rt":24348.420000023907,"trial_type":"pit-comprehension","trial_index":16,"time_elapsed":310072,"internal_node_id":"0.0-5.0-5.0","task_version":"test-retest"},{"trial_type":"call-function","trial_index":17,"time_elapsed":310077,"internal_node_id":"0.0-6.0","task_version":"test-retest"},{"view_history":"[{\"page_index\":0,\"viewing_time\":2765.209999983199},{\"page_index\":1,\"viewing_time\":20054.449999995995}]","rt":22820.39999999688,"trial_type":"pit-instructions","trial_index":18,"time_elapsed":332898,"internal_node_id":"0.0-7.0","task_version":"test-retest"},{"Rune":"rune_01_ger","Hex":"#3366ff99","Correct":-1,"Choice":-1,"RT":-1,"Accuracy":1,"Outcome":"-10","Keys":[],"TotalKeys":0,"Block":1,"Trial":1,"Robot":4,"Valence":"Lose","Action":"No-Go","Sham":1,"Color":"blue","trial_type":"pit-trial","trial_index":19,"time_elapsed":336906,"internal_node_id":"0.0-8.0","task_version":"test-retest"},{"Rune":"rune_01_ear","Hex":"#3366ff99","Correct":32,"Choice":-1,"RT":-1,"Accuracy":0,"Outcome":"-10","Keys":[],"TotalKeys":0,"Block":1,"Trial":2,"Robot":3,"Valence":"Lose","Action":"Go","Sham":0,"Color":"blue","trial_type":"pit-trial","trial_index":20,"time_elapsed":340910,"internal_node_id":"0.0-9.0","task_version":"test-retest"},{"Rune":"rune_01_yr","Hex":"#ffcc3399","Correct":32,"Choice":-1,"RT":-1,"Accuracy":0,"Outcome":"+1","Keys":[],"TotalKeys":0,"Block":1,"Trial":3,"Robot":1,"Valence":"Win","Action":"Go","Sham":0,"Color":"yellow","trial_type":"pit-trial","trial_index":21,"time_elapsed":344915,"internal_node_id":"0.0-10.0","task_version":"test-retest"},{"Rune":"rune_01_ingwaz","Hex":"#ffcc3399","Correct":-1,"Choice":-1,"RT":-1,"Accuracy":1,"Outcome":"+10","Keys":[],"TotalKeys":0,"Block":1,"Trial":4,"Robot":2,"Valence":"Win","Action":"No-Go","Sham":0,"Color":"yellow","trial_type":"pit-trial","trial_index":22,"time_elapsed":348918,"internal_node_id":"0.0-11.0","task_version":"test-retest"},{"Rune":"rune_01_ear","Hex":"#3366ff99","Correct":32,"Choice":-1,"RT":-1,"Accuracy":0,"Outcome":"-10","Keys":[],"TotalKeys":0,"Block":1,"Trial":5,"Robot":3,"Valence":"Lose","Action":"Go","Sham":0,"Color":"blue","trial_type":"pit-trial","trial_index":23,"time_elapsed":352922,"internal_node_id":"0.0-12.0","task_version":"test-retest"},{"Rune":"rune_01_yr","Hex":"#ffcc3399","Correct":32,"Choice":-1,"RT":-1,"Accuracy":0,"Outcome":"+1","Keys":[],"TotalKeys":0,"Block":1,"Trial":6,"Robot":1,"Valence":"Win","Action":"Go","Sham":0,"Color":"yellow","trial_type":"pit-trial","trial_index":24,"time_elapsed":356928,"internal_node_id":"0.0-13.0","task_version":"test-retest"},{"Rune":"rune_01_ingwaz","Hex":"#ffcc3399","Correct":-1,"Choice":-1,"RT":-1,"Accuracy":1,"Outcome":"+10","Keys":[],"TotalKeys":0,"Block":1,"Trial":7,"Robot":2,"Valence":"Win","Action":"No-Go","Sham":0,"Color":"yellow","trial_type":"pit-trial","trial_index":25,"time_elapsed":360933,"internal_node_id":"0.0-14.0","task_version":"test-retest"},{"Rune":"rune_01_ger","Hex":"#3366ff99","Correct":-1,"Choice":-1,"RT":-1,"Accuracy":1,"Outcome":"-1","Keys":[],"TotalKeys":0,"Block":1,"Trial":8,"Robot":4,"Valence":"Lose","Action":"No-Go","Sham":0,"Color":"blue","trial_type":"pit-trial","trial_index":26,"time_elapsed":364938,"internal_node_id":"0.0-15.0","task_version":"test-retest"},{"Rune":"rune_01_ger","Hex":"#3366ff99","Correct":-1,"Choice":-1,"RT":-1,"Accuracy":1,"Outcome":"-1","Keys":[],"TotalKeys":0,"Block":1,"Trial":9,"Robot":4,"Valence":"Lose","Action":"No-Go","Sham":0,"Color":"blue","trial_type":"pit-trial","trial_index":27,"time_elapsed":368942,"internal_node_id":"0.0-16.0","task_version":"test-retest"},{"Rune":"rune_01_yr","Hex":"#ffcc3399","Correct":32,"Choice":-1,"RT":-1,"Accuracy":0,"Outcome":"+1","Keys":[],"TotalKeys":0,"Block":1,"Trial":10,"Robot":1,"Valence":"Win","Action":"Go","Sham":0,"Color":"yellow","trial_type":"pit-trial","trial_index":28,"time_elapsed":372946,"internal_node_id":"0.0-17.0","task_version":"test-retest"},{"Rune":"rune_01_ear","Hex":"#3366ff99","Correct":32,"Choice":-1,"RT":-1,"Accuracy":0,"Outcome":"-1","Keys":[],"TotalKeys":0,"Block":1,"Trial":11,"Robot":3,"Valence":"Lose","Action":"Go","Sham":1,"Color":"blue","trial_type":"pit-trial","trial_index":29,"time_elapsed":376953,"internal_node_id":"0.0-18.0","task_version":"test-retest"},{"Rune":"rune_01_ingwaz","Hex":"#ffcc3399","Correct":-1,"Choice":-1,"RT":-1,"Accuracy":1,"Outcome":"+10","Keys":[],"TotalKeys":0,"Block":1,"Trial":12,"Robot":2,"Valence":"Win","Action":"No-Go","Sham":0,"Color":"yellow","trial_type":"pit-trial","trial_index":30,"time_elapsed":380977,"internal_node_id":"0.0-19.0","task_version":"test-retest"},{"Rune":"rune_01_ear","Hex":"#3366ff99","Correct":32,"Choice":-1,"RT":-1,"Accuracy":0,"Outcome":"-10","Keys":[],"TotalKeys":0,"Block":1,"Trial":13,"Robot":3,"Valence":"Lose","Action":"Go","Sham":0,"Color":"blue","trial_type":"pit-trial","trial_index":31,"time_elapsed":384981,"internal_node_id":"0.0-20.0","task_version":"test-retest"},{"Rune":"rune_01_ingwaz","Hex":"#ffcc3399","Correct":-1,"Choice":-1,"RT":-1,"Accuracy":1,"Outcome":"+10","Keys":[],"TotalKeys":0,"Block":1,"Trial":14,"Robot":2,"Valence":"Win","Action":"No-Go","Sham":0,"Color":"yellow","trial_type":"pit-trial","trial_index":32,"time_elapsed":388986,"internal_node_id":"0.0-21.0","task_version":"test-retest"},{"Rune":"rune_01_ger","Hex":"#3366ff99","Correct":-1,"Choice":-1,"RT":-1,"Accuracy":1,"Outcome":"-1","Keys":[],"TotalKeys":0,"Block":1,"Trial":15,"Robot":4,"Valence":"Lose","Action":"No-Go","Sham":0,"Color":"blue","trial_type":"pit-trial","trial_index":33,"time_elapsed":392990,"internal_node_id":"0.0-22.0","task_version":"test-retest"},{"Rune":"rune_01_yr","Hex":"#ffcc3399","Correct":32,"Choice":-1,"RT":-1,"Accuracy":0,"Outcome":"+10","Keys":[],"TotalKeys":0,"Block":1,"Trial":16,"Robot":1,"Valence":"Win","Action":"Go","Sham":1,"Color":"yellow","trial_type":"pit-trial","trial_index":34,"time_elapsed":396995,"internal_node_id":"0.0-23.0","task_version":"test-retest"},{"Rune":"rune_01_ingwaz","Hex":"#ffcc3399","Correct":-1,"Choice":-1,"RT":-1,"Accuracy":1,"Outcome":"+1","Keys":[],"TotalKeys":0,"Block":1,"Trial":17,"Robot":2,"Valence":"Win","Action":"No-Go","Sham":1,"Color":"yellow","trial_type":"pit-trial","trial_index":35,"time_elapsed":401000,"internal_node_id":"0.0-24.0","task_version":"test-retest"},{"Rune":"rune_01_ear","Hex":"#3366ff99","Correct":32,"Choice":-1,"RT":-1,"Accuracy":0,"Outcome":"-10","Keys":[],"TotalKeys":0,"Block":1,"Trial":18,"Robot":3,"Valence":"Lose","Action":"Go","Sham":0,"Color":"blue","trial_type":"pit-trial","trial_index":36,"time_elapsed":405005,"internal_node_id":"0.0-25.0","task_version":"test-retest"},{"Rune":"rune_01_ger","Hex":"#3366ff99","Correct":-1,"Choice":-1,"RT":-1,"Accuracy":1,"Outcome":"-1","Keys":[],"TotalKeys":0,"Block":1,"Trial":19,"Robot":4,"Valence":"Lose","Action":"No-Go","Sham":0,"Color":"blue","trial_type":"pit-trial","trial_index":37,"time_elapsed":409009,"internal_node_id":"0.0-26.0","task_version":"test-retest"},{"Rune":"rune_01_yr","Hex":"#ffcc3399","Correct":32,"Choice":-1,"RT":-1,"Accuracy":0,"Outcome":"+1","Keys":[],"TotalKeys":0,"Block":1,"Trial":20,"Robot":1,"Valence":"Win","Action":"Go","Sham":0,"Color":"yellow","trial_type":"pit-trial","trial_index":38,"time_elapsed":413014,"internal_node_id":"0.0-27.0","task_version":"test-retest"},{"Rune":"rune_01_yr","Hex":"#ffcc3399","Correct":32,"Choice":-1,"RT":-1,"Accuracy":0,"Outcome":"+1","Keys":[],"TotalKeys":0,"Block":1,"Trial":21,"Robot":1,"Valence":"Win","Action":"Go","Sham":0,"Color":"yellow","trial_type":"pit-trial","trial_index":39,"time_elapsed":417018,"internal_node_id":"0.0-28.0","task_version":"test-retest"},{"Rune":"rune_01_ger","Hex":"#3366ff99","Correct":-1,"Choice":-1,"RT":-1,"Accuracy":1,"Outcome":"-1","Keys":[],"TotalKeys":0,"Block":1,"Trial":22,"Robot":4,"Valence":"Lose","Action":"No-Go","Sham":0,"Color":"blue","trial_type":"pit-trial","trial_index":40,"time_elapsed":421023,"internal_node_id":"0.0-29.0","task_version":"test-retest"},{"Rune":"rune_01_ear","Hex":"#3366ff99","Correct":32,"Choice":-1,"RT":-1,"Accuracy":0,"Outcome":"-10","Keys":[],"TotalKeys":0,"Block":1,"Trial":23,"Robot":3,"Valence":"Lose","Action":"Go","Sham":0,"Color":"blue","trial_type":"pit-trial","trial_index":41,"time_elapsed":425026,"internal_node_id":"0.0-30.0","task_version":"test-retest"},{"Rune":"rune_01_ingwaz","Hex":"#ffcc3399","Correct":-1,"Choice":-1,"RT":-1,"Accuracy":1,"Outcome":"+10","Keys":[3930.945000000065],"TotalKeys":1,"Block":1,"Trial":24,"Robot":2,"Valence":"Win","Action":"No-Go","Sham":0,"Color":"yellow","trial_type":"pit-trial","trial_index":42,"time_elapsed":429030,"internal_node_id":"0.0-31.0","task_version":"test-retest"},{"Rune":"rune_01_yr","Hex":"#ffcc3399","Correct":32,"Choice":-1,"RT":-1,"Accuracy":0,"Outcome":"+10","Keys":[1189.0800000110175],"TotalKeys":1,"Block":1,"Trial":25,"Robot":1,"Valence":"Win","Action":"Go","Sham":1,"Color":"yellow","trial_type":"pit-trial","trial_index":43,"time_elapsed":433035,"internal_node_id":"0.0-32.0","task_version":"test-retest"},{"Rune":"rune_01_ingwaz","Hex":"#ffcc3399","Correct":-1,"Choice":32,"RT":461.5449999982957,"Accuracy":0,"Outcome":"+10","Keys":[1134.794999990845,1963.0149999866262],"TotalKeys":2,"Block":1,"Trial":26,"Robot":2,"Valence":"Win","Action":"No-Go","Sham":1,"Color":"yellow","trial_type":"pit-trial","trial_index":44,"time_elapsed":436002,"internal_node_id":"0.0-33.0","task_version":"test-retest"},{"Rune":"rune_01_ger","Hex":"#3366ff99","Correct":-1,"Choice":-1,"RT":-1,"Accuracy":1,"Outcome":"-10","Keys":[1354.5300000114366],"TotalKeys":1,"Block":1,"Trial":27,"Robot":4,"Valence":"Lose","Action":"No-Go","Sham":1,"Color":"blue","trial_type":"pit-trial","trial_index":45,"time_elapsed":440008,"internal_node_id":"0.0-34.0","task_version":"test-retest"},{"Rune":"rune_01_ear","Hex":"#3366ff99","Correct":32,"Choice":-1,"RT":-1,"Accuracy":0,"Outcome":"-10","Keys":[1338.2350000028964],"TotalKeys":1,"Block":1,"Trial":28,"Robot":3,"Valence":"Lose","Action":"Go","Sham":0,"Color":"blue","trial_type":"pit-trial","trial_index":46,"time_elapsed":444018,"internal_node_id":"0.0-35.0","task_version":"test-retest"},{"Rune":"rune_01_ingwaz","Hex":"#ffcc3399","Correct":-1,"Choice":-1,"RT":-1,"Accuracy":1,"Outcome":"+10","Keys":[1314.7349999926519],"TotalKeys":1,"Block":1,"Trial":29,"Robot":2,"Valence":"Win","Action":"No-Go","Sham":0,"Color":"yellow","trial_type":"pit-trial","trial_index":47,"time_elapsed":448021,"internal_node_id":"0.0-36.0","task_version":"test-retest"},{"Rune":"rune_01_yr","Hex":"#ffcc3399","Correct":32,"Choice":-1,"RT":-1,"Accuracy":0,"Outcome":"+1","Keys":[1398.1450000137556],"TotalKeys":1,"Block":1,"Trial":30,"Robot":1,"Valence":"Win","Action":"Go","Sham":0,"Color":"yellow","trial_type":"pit-trial","trial_index":48,"time_elapsed":452027,"internal_node_id":"0.0-37.0","task_version":"test-retest"},{"Rune":"rune_01_ear","Hex":"#3366ff99","Correct":32,"Choice":-1,"RT":-1,"Accuracy":0,"Outcome":"-10","Keys":[1294.5250000047963],"TotalKeys":1,"Block":1,"Trial":31,"Robot":3,"Valence":"Lose","Action":"Go","Sham":0,"Color":"blue","trial_type":"pit-trial","trial_index":49,"time_elapsed":456030,"internal_node_id":"0.0-38.0","task_version":"test-retest"},{"Rune":"rune_01_ger","Hex":"#3366ff99","Correct":-1,"Choice":-1,"RT":-1,"Accuracy":1,"Outcome":"-1","Keys":[1134.3200000119396],"TotalKeys":1,"Block":1,"Trial":32,"Robot":4,"Valence":"Lose","Action":"No-Go","Sham":0,"Color":"blue","trial_type":"pit-trial","trial_index":50,"time_elapsed":460036,"internal_node_id":"0.0-39.0","task_version":"test-retest"},{"Rune":"rune_01_ingwaz","Hex":"#ffcc3399","Correct":-1,"Choice":32,"RT":292.0950000116136,"Accuracy":0,"Outcome":"+1","Keys":[702.67500000773,1383.4400000050664,1793.005000014091,2277.880000008736],"TotalKeys":4,"Block":1,"Trial":33,"Robot":2,"Valence":"Win","Action":"No-Go","Sham":0,"Color":"yellow","trial_type":"pit-trial","trial_index":51,"time_elapsed":462832,"internal_node_id":"0.0-40.0","task_version":"test-retest"},{"Rune":"rune_01_ger","Hex":"#3366ff99","Correct":-1,"Choice":32,"RT":268.7949999817647,"Accuracy":0,"Outcome":"-10","Keys":[1768.8950000156183],"TotalKeys":1,"Block":1,"Trial":34,"Robot":4,"Valence":"Lose","Action":"No-Go","Sham":0,"Color":"blue","trial_type":"pit-trial","trial_index":52,"time_elapsed":465605,"internal_node_id":"0.0-41.0","task_version":"test-retest"},{"Rune":"rune_01_yr","Hex":"#ffcc3399","Correct":32,"Choice":32,"RT":1375.9350000182167,"Accuracy":1,"Outcome":"+10","Keys":[2876.0500000207685],"TotalKeys":1,"Block":1,"Trial":35,"Robot":1,"Valence":"Win","Action":"Go","Sham":0,"Color":"yellow","trial_type":"pit-trial","trial_index":53,"time_elapsed":469484,"internal_node_id":"0.0-42.0","task_version":"test-retest"},{"Rune":"rune_01_ear","Hex":"#3366ff99","Correct":32,"Choice":32,"RT":1154.3949999904726,"Accuracy":1,"Outcome":"-1","Keys":[2657.3849999986123,2981.020000006538],"TotalKeys":2,"Block":1,"Trial":36,"Robot":3,"Valence":"Lose","Action":"Go","Sham":0,"Color":"blue","trial_type":"pit-trial","trial_index":54,"time_elapsed":473146,"internal_node_id":"0.0-43.0","task_version":"test-retest"},{"Rune":"rune_01_ger","Hex":"#3366ff99","Correct":-1,"Choice":32,"RT":1058.484999986831,"Accuracy":0,"Outcome":"-10","Keys":[2560.060000017984],"TotalKeys":1,"Block":1,"Trial":37,"Robot":4,"Valence":"Lose","Action":"No-Go","Sham":0,"Color":"blue","trial_type":"pit-trial","trial_index":55,"time_elapsed":476709,"internal_node_id":"0.0-44.0","task_version":"test-retest"},{"Rune":"rune_01_ear","Hex":"#3366ff99","Correct":32,"Choice":32,"RT":1211.2450000131503,"Accuracy":1,"Outcome":"-10","Keys":[2711.5900000208057],"TotalKeys":1,"Block":1,"Trial":38,"Robot":3,"Valence":"Lose","Action":"Go","Sham":1,"Color":"blue","trial_type":"pit-trial","trial_index":56,"time_elapsed":480424,"internal_node_id":"0.0-45.0","task_version":"test-retest"},{"Rune":"rune_01_ingwaz","Hex":"#ffcc3399","Correct":-1,"Choice":-1,"RT":-1,"Accuracy":1,"Outcome":"+10","Keys":[1349.305000010645,3995.360000000801],"TotalKeys":2,"Block":1,"Trial":39,"Robot":2,"Valence":"Win","Action":"No-Go","Sham":0,"Color":"yellow","trial_type":"pit-trial","trial_index":57,"time_elapsed":484428,"internal_node_id":"0.0-46.0","task_version":"test-retest"},{"Rune":"rune_01_yr","Hex":"#ffcc3399","Correct":32,"Choice":32,"RT":616.7100000020582,"Accuracy":1,"Outcome":"+10","Keys":[2117.5750000111293],"TotalKeys":1,"Block":1,"Trial":40,"Robot":1,"Valence":"Win","Action":"Go","Sham":0,"Color":"yellow","trial_type":"pit-trial","trial_index":58,"time_elapsed":487548,"internal_node_id":"0.0-47.0","task_version":"test-retest"},{"Rune":"rune_01_ger","Hex":"#3366ff99","Correct":-1,"Choice":-1,"RT":-1,"Accuracy":1,"Outcome":"-10","Keys":[],"TotalKeys":0,"Block":1,"Trial":41,"Robot":4,"Valence":"Lose","Action":"No-Go","Sham":1,"Color":"blue","trial_type":"pit-trial","trial_index":59,"time_elapsed":491552,"internal_node_id":"0.0-48.0","task_version":"test-retest"},{"Rune":"rune_01_ear","Hex":"#3366ff99","Correct":32,"Choice":-1,"RT":-1,"Accuracy":0,"Outcome":"-10","Keys":[1255.6749999930616],"TotalKeys":1,"Block":1,"Trial":42,"Robot":3,"Valence":"Lose","Action":"Go","Sham":0,"Color":"blue","trial_type":"pit-trial","trial_index":60,"time_elapsed":495555,"internal_node_id":"0.0-49.0","task_version":"test-retest"},{"Rune":"rune_01_ingwaz","Hex":"#ffcc3399","Correct":-1,"Choice":-1,"RT":-1,"Accuracy":1,"Outcome":"+10","Keys":[],"TotalKeys":0,"Block":1,"Trial":43,"Robot":2,"Valence":"Win","Action":"No-Go","Sham":0,"Color":"yellow","trial_type":"pit-trial","trial_index":61,"time_elapsed":499561,"internal_node_id":"0.0-50.0","task_version":"test-retest"},{"Rune":"rune_01_yr","Hex":"#ffcc3399","Correct":32,"Choice":32,"RT":904.4799999974202,"Accuracy":1,"Outcome":"+10","Keys":[2405.8250000234693],"TotalKeys":1,"Block":1,"Trial":44,"Robot":1,"Valence":"Win","Action":"Go","Sham":0,"Color":"yellow","trial_type":"pit-trial","trial_index":62,"time_elapsed":502970,"internal_node_id":"0.0-51.0","task_version":"test-retest"},{"Rune":"rune_01_ger","Hex":"#3366ff99","Correct":-1,"Choice":32,"RT":420.2950000180863,"Accuracy":0,"Outcome":"-10","Keys":[1920.8600000129081],"TotalKeys":1,"Block":1,"Trial":45,"Robot":4,"Valence":"Lose","Action":"No-Go","Sham":0,"Color":"blue","trial_type":"pit-trial","trial_index":63,"time_elapsed":505906,"internal_node_id":"0.0-52.0","task_version":"test-retest"},{"Rune":"rune_01_ingwaz","Hex":"#ffcc3399","Correct":-1,"Choice":32,"RT":609.8750000237487,"Accuracy":0,"Outcome":"+1","Keys":[2110.305000009248],"TotalKeys":1,"Block":1,"Trial":46,"Robot":2,"Valence":"Win","Action":"No-Go","Sham":0,"Color":"yellow","trial_type":"pit-trial","trial_index":64,"time_elapsed":509021,"internal_node_id":"0.0-53.0","task_version":"test-retest"},{"Rune":"rune_01_yr","Hex":"#ffcc3399","Correct":32,"Choice":32,"RT":13.21000000461936,"Accuracy":1,"Outcome":"+1","Keys":[387.8649999969639,1513.7899999972433],"TotalKeys":2,"Block":1,"Trial":47,"Robot":1,"Valence":"Win","Action":"Go","Sham":1,"Color":"yellow","trial_type":"pit-trial","trial_index":65,"time_elapsed":511539,"internal_node_id":"0.0-54.0","task_version":"test-retest"},{"Rune":"rune_01_ear","Hex":"#3366ff99","Correct":32,"Choice":-1,"RT":-1,"Accuracy":0,"Outcome":"-10","Keys":[],"TotalKeys":0,"Block":1,"Trial":48,"Robot":3,"Valence":"Lose","Action":"Go","Sham":0,"Color":"blue","trial_type":"pit-trial","trial_index":66,"time_elapsed":515545,"internal_node_id":"0.0-55.0","task_version":"test-retest"},{"Rune":"rune_01_yr","Hex":"#ffcc3399","Correct":32,"Choice":32,"RT":381.98500001453795,"Accuracy":1,"Outcome":"+10","Keys":[765.4099999926984,1882.2499999951106],"TotalKeys":2,"Block":1,"Trial":49,"Robot":1,"Valence":"Win","Action":"Go","Sham":0,"Color":"yellow","trial_type":"pit-trial","trial_index":67,"time_elapsed":518431,"internal_node_id":"0.0-56.0","task_version":"test-retest"},{"Rune":"rune_01_ingwaz","Hex":"#ffcc3399","Correct":-1,"Choice":-1,"RT":-1,"Accuracy":1,"Outcome":"+10","Keys":[3530.7949999987613],"TotalKeys":1,"Block":1,"Trial":50,"Robot":2,"Valence":"Win","Action":"No-Go","Sham":0,"Color":"yellow","trial_type":"pit-trial","trial_index":68,"time_elapsed":522440,"internal_node_id":"0.0-57.0","task_version":"test-retest"},{"Rune":"rune_01_ear","Hex":"#3366ff99","Correct":32,"Choice":-1,"RT":-1,"Accuracy":0,"Outcome":"-1","Keys":[3507.019999990007],"TotalKeys":1,"Block":1,"Trial":51,"Robot":3,"Valence":"Lose","Action":"Go","Sham":1,"Color":"blue","trial_type":"pit-trial","trial_index":69,"time_elapsed":526443,"internal_node_id":"0.0-58.0","task_version":"test-retest"},{"Rune":"rune_01_ger","Hex":"#3366ff99","Correct":-1,"Choice":32,"RT":950.3649999969639,"Accuracy":0,"Outcome":"-10","Keys":[2450.574999995297],"TotalKeys":1,"Block":1,"Trial":52,"Robot":4,"Valence":"Lose","Action":"No-Go","Sham":0,"Color":"blue","trial_type":"pit-trial","trial_index":70,"time_elapsed":529897,"internal_node_id":"0.0-59.0","task_version":"test-retest"},{"Rune":"rune_01_ingwaz","Hex":"#ffcc3399","Correct":-1,"Choice":32,"RT":413.40000001946464,"Accuracy":0,"Outcome":"+1","Keys":[1089.6499999798834,1913.6549999821],"TotalKeys":2,"Block":1,"Trial":53,"Robot":2,"Valence":"Win","Action":"No-Go","Sham":0,"Color":"yellow","trial_type":"pit-trial","trial_index":71,"time_elapsed":532814,"internal_node_id":"0.0-60.0","task_version":"test-retest"},{"Rune":"rune_01_ear","Hex":"#3366ff99","Correct":32,"Choice":-1,"RT":-1,"Accuracy":0,"Outcome":"-10","Keys":[],"TotalKeys":0,"Block":1,"Trial":54,"Robot":3,"Valence":"Lose","Action":"Go","Sham":0,"Color":"blue","trial_type":"pit-trial","trial_index":72,"time_elapsed":536818,"internal_node_id":"0.0-61.0","task_version":"test-retest"},{"Rune":"rune_01_ger","Hex":"#3366ff99","Correct":-1,"Choice":-1,"RT":-1,"Accuracy":1,"Outcome":"-1","Keys":[],"TotalKeys":0,"Block":1,"Trial":55,"Robot":4,"Valence":"Lose","Action":"No-Go","Sham":0,"Color":"blue","trial_type":"pit-trial","trial_index":73,"time_elapsed":540823,"internal_node_id":"0.0-62.0","task_version":"test-retest"},{"Rune":"rune_01_yr","Hex":"#ffcc3399","Correct":32,"Choice":-1,"RT":-1,"Accuracy":0,"Outcome":"+1","Keys":[],"TotalKeys":0,"Block":1,"Trial":56,"Robot":1,"Valence":"Win","Action":"Go","Sham":0,"Color":"yellow","trial_type":"pit-trial","trial_index":74,"time_elapsed":544829,"internal_node_id":"0.0-63.0","task_version":"test-retest"},{"Rune":"rune_01_ger","Hex":"#3366ff99","Correct":-1,"Choice":-1,"RT":-1,"Accuracy":1,"Outcome":"-1","Keys":[1486.2599999760278],"TotalKeys":1,"Block":1,"Trial":57,"Robot":4,"Valence":"Lose","Action":"No-Go","Sham":0,"Color":"blue","trial_type":"pit-trial","trial_index":75,"time_elapsed":548838,"internal_node_id":"0.0-64.0","task_version":"test-retest"},{"Rune":"rune_01_yr","Hex":"#ffcc3399","Correct":32,"Choice":-1,"RT":-1,"Accuracy":0,"Outcome":"+1","Keys":[],"TotalKeys":0,"Block":1,"Trial":58,"Robot":1,"Valence":"Win","Action":"Go","Sham":0,"Color":"yellow","trial_type":"pit-trial","trial_index":76,"time_elapsed":552842,"internal_node_id":"0.0-65.0","task_version":"test-retest"},{"Rune":"rune_01_ear","Hex":"#3366ff99","Correct":32,"Choice":-1,"RT":-1,"Accuracy":0,"Outcome":"-10","Keys":[],"TotalKeys":0,"Block":1,"Trial":59,"Robot":3,"Valence":"Lose","Action":"Go","Sham":0,"Color":"blue","trial_type":"pit-trial","trial_index":77,"time_elapsed":558214,"internal_node_id":"0.0-66.0","task_version":"test-retest"},{"Rune":"rune_01_ingwaz","Hex":"#ffcc3399","Correct":-1,"Choice":-1,"RT":-1,"Accuracy":1,"Outcome":"+1","Keys":[],"TotalKeys":0,"Block":1,"Trial":60,"Robot":2,"Valence":"Win","Action":"No-Go","Sham":1,"Color":"yellow","trial_type":"pit-trial","trial_index":78,"time_elapsed":562221,"internal_node_id":"0.0-67.0","task_version":"test-retest"},{"value":false,"trial_type":"call-function","trial_index":79,"time_elapsed":562224,"internal_node_id":"0.0-68.0","task_version":"test-retest"},{"view_history":"[{\"page_index\":0,\"viewing_time\":38293.62499999115},{\"page_index\":1,\"viewing_time\":2149.860000004992}]","rt":40444.22000000486,"trial_type":"pit-instructions","trial_index":80,"time_elapsed":602669,"internal_node_id":"0.0-69.0","task_version":"test-retest"},{"Rune":"rune_01_yr","Hex":"#ffcc3399","Correct":32,"Choice":-1,"RT":-1,"Accuracy":0,"Outcome":"+1","Keys":[3061.645000008866],"TotalKeys":1,"Block":1,"Trial":61,"Robot":1,"Valence":"Win","Action":"Go","Sham":0,"Color":"yellow","trial_type":"pit-trial","trial_index":81,"time_elapsed":606675,"internal_node_id":"0.0-70.0","task_version":"test-retest"},{"Rune":"rune_01_ingwaz","Hex":"#ffcc3399","Correct":-1,"Choice":32,"RT":266.11500000581145,"Accuracy":0,"Outcome":"+1","Keys":[1766.7249999940395],"TotalKeys":1,"Block":1,"Trial":62,"Robot":2,"Valence":"Win","Action":"No-Go","Sham":0,"Color":"yellow","trial_type":"pit-trial","trial_index":82,"time_elapsed":609445,"internal_node_id":"0.0-71.0","task_version":"test-retest"},{"Rune":"rune_01_ear","Hex":"#3366ff99","Correct":32,"Choice":32,"RT":254.73499999498017,"Accuracy":1,"Outcome":"-1","Keys":[1206.8049999943469,1756.3399999926332],"TotalKeys":2,"Block":1,"Trial":63,"Robot":3,"Valence":"Lose","Action":"Go","Sham":0,"Color":"blue","trial_type":"pit-trial","trial_index":83,"time_elapsed":612205,"internal_node_id":"0.0-72.0","task_version":"test-retest"},{"Rune":"rune_01_ger","Hex":"#3366ff99","Correct":-1,"Choice":32,"RT":1066.4299999771174,"Accuracy":0,"Outcome":"-10","Keys":[1276.465000002645,2567.3750000132713],"TotalKeys":2,"Block":1,"Trial":64,"Robot":4,"Valence":"Lose","Action":"No-Go","Sham":0,"Color":"blue","trial_type":"pit-trial","trial_index":84,"time_elapsed":615776,"internal_node_id":"0.0-73.0","task_version":"test-retest"},{"Rune":"rune_01_ger","Hex":"#3366ff99","Correct":-1,"Choice":-1,"RT":-1,"Accuracy":1,"Outcome":"-1","Keys":[330.5099999997765],"TotalKeys":1,"Block":1,"Trial":65,"Robot":4,"Valence":"Lose","Action":"No-Go","Sham":0,"Color":"blue","trial_type":"pit-trial","trial_index":85,"time_elapsed":619780,"internal_node_id":"0.0-74.0","task_version":"test-retest"},{"Rune":"rune_01_yr","Hex":"#ffcc3399","Correct":32,"Choice":32,"RT":760.6800000066869,"Accuracy":1,"Outcome":"+10","Keys":[2261.545000015758],"TotalKeys":1,"Block":1,"Trial":66,"Robot":1,"Valence":"Win","Action":"Go","Sham":0,"Color":"yellow","trial_type":"pit-trial","trial_index":86,"time_elapsed":623046,"internal_node_id":"0.0-75.0","task_version":"test-retest"},{"Rune":"rune_01_ear","Hex":"#3366ff99","Correct":32,"Choice":32,"RT":238.23499999707565,"Accuracy":1,"Outcome":"-1","Keys":[1107.5000000128057,1739.000000001397],"TotalKeys":2,"Block":1,"Trial":67,"Robot":3,"Valence":"Lose","Action":"Go","Sham":0,"Color":"blue","trial_type":"pit-trial","trial_index":87,"time_elapsed":625788,"internal_node_id":"0.0-76.0","task_version":"test-retest"},{"Rune":"rune_01_ingwaz","Hex":"#ffcc3399","Correct":-1,"Choice":32,"RT":886.5349999978207,"Accuracy":0,"Outcome":"+10","Keys":[1104.4800000090618,2387.2749999864027],"TotalKeys":2,"Block":1,"Trial":68,"Robot":2,"Valence":"Win","Action":"No-Go","Sham":1,"Color":"yellow","trial_type":"pit-trial","trial_index":88,"time_elapsed":629180,"internal_node_id":"0.0-77.0","task_version":"test-retest"},{"Rune":"rune_01_ingwaz","Hex":"#ffcc3399","Correct":-1,"Choice":32,"RT":1086.6649999807123,"Accuracy":0,"Outcome":"+1","Keys":[1048.0749999987893,2587.3500000161584],"TotalKeys":2,"Block":1,"Trial":69,"Robot":2,"Valence":"Win","Action":"No-Go","Sham":0,"Color":"yellow","trial_type":"pit-trial","trial_index":89,"time_elapsed":632771,"internal_node_id":"0.0-78.0","task_version":"test-retest"},{"Rune":"rune_01_ger","Hex":"#3366ff99","Correct":-1,"Choice":32,"RT":931.605000019772,"Accuracy":0,"Outcome":"-10","Keys":[2432.440000004135],"TotalKeys":1,"Block":1,"Trial":70,"Robot":4,"Valence":"Lose","Action":"No-Go","Sham":0,"Color":"blue","trial_type":"pit-trial","trial_index":90,"time_elapsed":636207,"internal_node_id":"0.0-79.0","task_version":"test-retest"},{"Rune":"rune_01_ear","Hex":"#3366ff99","Correct":32,"Choice":-1,"RT":-1,"Accuracy":0,"Outcome":"-1","Keys":[499.6849999879487,1458.6399999971036,3662.0100000000093],"TotalKeys":3,"Block":1,"Trial":71,"Robot":3,"Valence":"Lose","Action":"Go","Sham":1,"Color":"blue","trial_type":"pit-trial","trial_index":91,"time_elapsed":640211,"internal_node_id":"0.0-80.0","task_version":"test-retest"},{"Rune":"rune_01_yr","Hex":"#ffcc3399","Correct":32,"Choice":32,"RT":933.9600000239443,"Accuracy":1,"Outcome":"+10","Keys":[1314.9300000222865,2436.0600000072736],"TotalKeys":2,"Block":1,"Trial":72,"Robot":1,"Valence":"Win","Action":"Go","Sham":0,"Color":"yellow","trial_type":"pit-trial","trial_index":92,"time_elapsed":643654,"internal_node_id":"0.0-81.0","task_version":"test-retest"},{"Rune":"rune_01_ger","Hex":"#3366ff99","Correct":-1,"Choice":-1,"RT":-1,"Accuracy":1,"Outcome":"-1","Keys":[1346.8099999881815],"TotalKeys":1,"Block":1,"Trial":73,"Robot":4,"Valence":"Lose","Action":"No-Go","Sham":0,"Color":"blue","trial_type":"pit-trial","trial_index":93,"time_elapsed":647658,"internal_node_id":"0.0-82.0","task_version":"test-retest"},{"Rune":"rune_01_ear","Hex":"#3366ff99","Correct":32,"Choice":-1,"RT":-1,"Accuracy":0,"Outcome":"-10","Keys":[511.31500001065433,3128.770000010263],"TotalKeys":2,"Block":1,"Trial":74,"Robot":3,"Valence":"Lose","Action":"Go","Sham":0,"Color":"blue","trial_type":"pit-trial","trial_index":94,"time_elapsed":651661,"internal_node_id":"0.0-83.0","task_version":"test-retest"},{"Rune":"rune_01_ingwaz","Hex":"#ffcc3399","Correct":-1,"Choice":32,"RT":1304.3299999844749,"Accuracy":0,"Outcome":"+1","Keys":[685.2699999872129,1295.2449999866076,2804.6399999875575],"TotalKeys":3,"Block":1,"Trial":75,"Robot":2,"Valence":"Win","Action":"No-Go","Sham":0,"Color":"yellow","trial_type":"pit-trial","trial_index":95,"time_elapsed":655469,"internal_node_id":"0.0-84.0","task_version":"test-retest"},{"Rune":"rune_01_yr","Hex":"#ffcc3399","Correct":32,"Choice":-1,"RT":-1,"Accuracy":0,"Outcome":"+1","Keys":[1242.5550000043586,3001.170000003185],"TotalKeys":2,"Block":1,"Trial":76,"Robot":1,"Valence":"Win","Action":"Go","Sham":0,"Color":"yellow","trial_type":"pit-trial","trial_index":96,"time_elapsed":659475,"internal_node_id":"0.0-85.0","task_version":"test-retest"},{"Rune":"rune_01_ear","Hex":"#3366ff99","Correct":32,"Choice":-1,"RT":-1,"Accuracy":0,"Outcome":"-10","Keys":[3680.2650000026915],"TotalKeys":1,"Block":1,"Trial":77,"Robot":3,"Valence":"Lose","Action":"Go","Sham":0,"Color":"blue","trial_type":"pit-trial","trial_index":97,"time_elapsed":663479,"internal_node_id":"0.0-86.0","task_version":"test-retest"},{"Rune":"rune_01_ger","Hex":"#3366ff99","Correct":-1,"Choice":32,"RT":147.3849999892991,"Accuracy":0,"Outcome":"-1","Keys":[1647.6799999945797],"TotalKeys":1,"Block":1,"Trial":78,"Robot":4,"Valence":"Lose","Action":"No-Go","Sham":1,"Color":"blue","trial_type":"pit-trial","trial_index":98,"time_elapsed":666131,"internal_node_id":"0.0-87.0","task_version":"test-retest"},{"Rune":"rune_01_ingwaz","Hex":"#ffcc3399","Correct":-1,"Choice":32,"RT":408.10999998939224,"Accuracy":0,"Outcome":"+1","Keys":[1908.1550000119023],"TotalKeys":1,"Block":1,"Trial":79,"Robot":2,"Valence":"Win","Action":"No-Go","Sham":0,"Color":"yellow","trial_type":"pit-trial","trial_index":99,"time_elapsed":669045,"internal_node_id":"0.0-88.0","task_version":"test-retest"},{"Rune":"rune_01_yr","Hex":"#ffcc3399","Correct":32,"Choice":32,"RT":113.94499999005347,"Accuracy":1,"Outcome":"+1","Keys":[1615.044999984093],"TotalKeys":1,"Block":1,"Trial":80,"Robot":1,"Valence":"Win","Action":"Go","Sham":1,"Color":"yellow","trial_type":"pit-trial","trial_index":100,"time_elapsed":671663,"internal_node_id":"0.0-89.0","task_version":"test-retest"},{"Rune":"rune_01_ear","Hex":"#3366ff99","Correct":32,"Choice":32,"RT":1069.7199999995064,"Accuracy":1,"Outcome":"-1","Keys":[1456.1500000127126,2570.269999996526],"TotalKeys":2,"Block":1,"Trial":81,"Robot":3,"Valence":"Lose","Action":"Go","Sham":0,"Color":"blue","trial_type":"pit-trial","trial_index":101,"time_elapsed":675236,"internal_node_id":"0.0-90.0","task_version":"test-retest"},{"Rune":"rune_01_ingwaz","Hex":"#ffcc3399","Correct":-1,"Choice":-1,"RT":-1,"Accuracy":1,"Outcome":"+1","Keys":[565.6200000084937],"TotalKeys":1,"Block":1,"Trial":82,"Robot":2,"Valence":"Win","Action":"No-Go","Sham":1,"Color":"yellow","trial_type":"pit-trial","trial_index":102,"time_elapsed":679241,"internal_node_id":"0.0-91.0","task_version":"test-retest"},{"Rune":"rune_01_yr","Hex":"#ffcc3399","Correct":32,"Choice":-1,"RT":-1,"Accuracy":0,"Outcome":"+1","Keys":[],"TotalKeys":0,"Block":1,"Trial":83,"Robot":1,"Valence":"Win","Action":"Go","Sham":0,"Color":"yellow","trial_type":"pit-trial","trial_index":103,"time_elapsed":683245,"internal_node_id":"0.0-92.0","task_version":"test-retest"},{"Rune":"rune_01_ger","Hex":"#3366ff99","Correct":-1,"Choice":-1,"RT":-1,"Accuracy":1,"Outcome":"-1","Keys":[3079.8500000091735],"TotalKeys":1,"Block":1,"Trial":84,"Robot":4,"Valence":"Lose","Action":"No-Go","Sham":0,"Color":"blue","trial_type":"pit-trial","trial_index":104,"time_elapsed":687249,"internal_node_id":"0.0-93.0","task_version":"test-retest"},{"Rune":"rune_01_yr","Hex":"#ffcc3399","Correct":32,"Choice":32,"RT":832.2200000111479,"Accuracy":1,"Outcome":"+1","Keys":[2332.540000003064],"TotalKeys":1,"Block":1,"Trial":85,"Robot":1,"Valence":"Win","Action":"Go","Sham":1,"Color":"yellow","trial_type":"pit-trial","trial_index":105,"time_elapsed":690585,"internal_node_id":"0.0-94.0","task_version":"test-retest"},{"Rune":"rune_01_ear","Hex":"#3366ff99","Correct":32,"Choice":-1,"RT":-1,"Accuracy":0,"Outcome":"-10","Keys":[994.7450000036042],"TotalKeys":1,"Block":1,"Trial":86,"Robot":3,"Valence":"Lose","Action":"Go","Sham":0,"Color":"blue","trial_type":"pit-trial","trial_index":106,"time_elapsed":694589,"internal_node_id":"0.0-95.0","task_version":"test-retest"},{"Rune":"rune_01_ger","Hex":"#3366ff99","Correct":-1,"Choice":-1,"RT":-1,"Accuracy":1,"Outcome":"-1","Keys":[395.6600000092294],"TotalKeys":1,"Block":1,"Trial":87,"Robot":4,"Valence":"Lose","Action":"No-Go","Sham":0,"Color":"blue","trial_type":"pit-trial","trial_index":107,"time_elapsed":698594,"internal_node_id":"0.0-96.0","task_version":"test-retest"},{"Rune":"rune_01_ingwaz","Hex":"#ffcc3399","Correct":-1,"Choice":-1,"RT":-1,"Accuracy":1,"Outcome":"+10","Keys":[627.4049999774434],"TotalKeys":1,"Block":1,"Trial":88,"Robot":2,"Valence":"Win","Action":"No-Go","Sham":0,"Color":"yellow","trial_type":"pit-trial","trial_index":108,"time_elapsed":702597,"internal_node_id":"0.0-97.0","task_version":"test-retest"},{"Rune":"rune_01_ear","Hex":"#3366ff99","Correct":32,"Choice":-1,"RT":-1,"Accuracy":0,"Outcome":"-10","Keys":[1293.069999985164,3170.3399999823887],"TotalKeys":2,"Block":1,"Trial":89,"Robot":3,"Valence":"Lose","Action":"Go","Sham":0,"Color":"blue","trial_type":"pit-trial","trial_index":109,"time_elapsed":706600,"internal_node_id":"0.0-98.0","task_version":"test-retest"},{"Rune":"rune_01_ingwaz","Hex":"#ffcc3399","Correct":-1,"Choice":-1,"RT":-1,"Accuracy":1,"Outcome":"+10","Keys":[1361.5850000060163],"TotalKeys":1,"Block":1,"Trial":90,"Robot":2,"Valence":"Win","Action":"No-Go","Sham":0,"Color":"yellow","trial_type":"pit-trial","trial_index":110,"time_elapsed":710606,"internal_node_id":"0.0-99.0","task_version":"test-retest"},{"Rune":"rune_01_yr","Hex":"#ffcc3399","Correct":32,"Choice":-1,"RT":-1,"Accuracy":0,"Outcome":"+1","Keys":[],"TotalKeys":0,"Block":1,"Trial":91,"Robot":1,"Valence":"Win","Action":"Go","Sham":0,"Color":"yellow","trial_type":"pit-trial","trial_index":111,"time_elapsed":714610,"internal_node_id":"0.0-100.0","task_version":"test-retest"},{"Rune":"rune_01_ger","Hex":"#3366ff99","Correct":-1,"Choice":-1,"RT":-1,"Accuracy":1,"Outcome":"-1","Keys":[],"TotalKeys":0,"Block":1,"Trial":92,"Robot":4,"Valence":"Lose","Action":"No-Go","Sham":0,"Color":"blue","trial_type":"pit-trial","trial_index":112,"time_elapsed":718615,"internal_node_id":"0.0-101.0","task_version":"test-retest"},{"Rune":"rune_01_ingwaz","Hex":"#ffcc3399","Correct":-1,"Choice":-1,"RT":-1,"Accuracy":1,"Outcome":"+10","Keys":[],"TotalKeys":0,"Block":1,"Trial":93,"Robot":2,"Valence":"Win","Action":"No-Go","Sham":0,"Color":"yellow","trial_type":"pit-trial","trial_index":113,"time_elapsed":722620,"internal_node_id":"0.0-102.0","task_version":"test-retest"},{"Rune":"rune_01_ger","Hex":"#3366ff99","Correct":-1,"Choice":-1,"RT":-1,"Accuracy":1,"Outcome":"-10","Keys":[],"TotalKeys":0,"Block":1,"Trial":94,"Robot":4,"Valence":"Lose","Action":"No-Go","Sham":1,"Color":"blue","trial_type":"pit-trial","trial_index":114,"time_elapsed":726625,"internal_node_id":"0.0-103.0","task_version":"test-retest"},{"Rune":"rune_01_ear","Hex":"#3366ff99","Correct":32,"Choice":-1,"RT":-1,"Accuracy":0,"Outcome":"-1","Keys":[],"TotalKeys":0,"Block":1,"Trial":95,"Robot":3,"Valence":"Lose","Action":"Go","Sham":1,"Color":"blue","trial_type":"pit-trial","trial_index":115,"time_elapsed":730631,"internal_node_id":"0.0-104.0","task_version":"test-retest"},{"Rune":"rune_01_yr","Hex":"#ffcc3399","Correct":32,"Choice":-1,"RT":-1,"Accuracy":0,"Outcome":"+1","Keys":[],"TotalKeys":0,"Block":1,"Trial":96,"Robot":1,"Valence":"Win","Action":"Go","Sham":0,"Color":"yellow","trial_type":"pit-trial","trial_index":116,"time_elapsed":734640,"internal_node_id":"0.0-105.0","task_version":"test-retest"},{"Rune":"rune_01_ingwaz","Hex":"#ffcc3399","Correct":-1,"Choice":-1,"RT":-1,"Accuracy":1,"Outcome":"+10","Keys":[],"TotalKeys":0,"Block":1,"Trial":97,"Robot":2,"Valence":"Win","Action":"No-Go","Sham":0,"Color":"yellow","trial_type":"pit-trial","trial_index":117,"time_elapsed":738644,"internal_node_id":"0.0-106.0","task_version":"test-retest"},{"Rune":"rune_01_yr","Hex":"#ffcc3399","Correct":32,"Choice":-1,"RT":-1,"Accuracy":0,"Outcome":"+1","Keys":[],"TotalKeys":0,"Block":1,"Trial":98,"Robot":1,"Valence":"Win","Action":"Go","Sham":0,"Color":"yellow","trial_type":"pit-trial","trial_index":118,"time_elapsed":742649,"internal_node_id":"0.0-107.0","task_version":"test-retest"},{"Rune":"rune_01_ger","Hex":"#3366ff99","Correct":-1,"Choice":-1,"RT":-1,"Accuracy":1,"Outcome":"-1","Keys":[],"TotalKeys":0,"Block":1,"Trial":99,"Robot":4,"Valence":"Lose","Action":"No-Go","Sham":0,"Color":"blue","trial_type":"pit-trial","trial_index":119,"time_elapsed":746653,"internal_node_id":"0.0-108.0","task_version":"test-retest"},{"Rune":"rune_01_ear","Hex":"#3366ff99","Correct":32,"Choice":-1,"RT":-1,"Accuracy":0,"Outcome":"-10","Keys":[],"TotalKeys":0,"Block":1,"Trial":100,"Robot":3,"Valence":"Lose","Action":"Go","Sham":0,"Color":"blue","trial_type":"pit-trial","trial_index":120,"time_elapsed":750657,"internal_node_id":"0.0-109.0","task_version":"test-retest"},{"Rune":"rune_01_ear","Hex":"#3366ff99","Correct":32,"Choice":-1,"RT":-1,"Accuracy":0,"Outcome":"-10","Keys":[],"TotalKeys":0,"Block":1,"Trial":101,"Robot":3,"Valence":"Lose","Action":"Go","Sham":0,"Color":"blue","trial_type":"pit-trial","trial_index":121,"time_elapsed":754662,"internal_node_id":"0.0-110.0","task_version":"test-retest"},{"Rune":"rune_01_yr","Hex":"#ffcc3399","Correct":32,"Choice":-1,"RT":-1,"Accuracy":0,"Outcome":"+10","Keys":[],"TotalKeys":0,"Block":1,"Trial":102,"Robot":1,"Valence":"Win","Action":"Go","Sham":1,"Color":"yellow","trial_type":"pit-trial","trial_index":122,"time_elapsed":758666,"internal_node_id":"0.0-111.0","task_version":"test-retest"},{"Rune":"rune_01_ger","Hex":"#3366ff99","Correct":-1,"Choice":-1,"RT":-1,"Accuracy":1,"Outcome":"-10","Keys":[],"TotalKeys":0,"Block":1,"Trial":103,"Robot":4,"Valence":"Lose","Action":"No-Go","Sham":1,"Color":"blue","trial_type":"pit-trial","trial_index":123,"time_elapsed":762671,"internal_node_id":"0.0-112.0","task_version":"test-retest"},{"Rune":"rune_01_ingwaz","Hex":"#ffcc3399","Correct":-1,"Choice":-1,"RT":-1,"Accuracy":1,"Outcome":"+10","Keys":[],"TotalKeys":0,"Block":1,"Trial":104,"Robot":2,"Valence":"Win","Action":"No-Go","Sham":0,"Color":"yellow","trial_type":"pit-trial","trial_index":124,"time_elapsed":766678,"internal_node_id":"0.0-113.0","task_version":"test-retest"},{"Rune":"rune_01_ingwaz","Hex":"#ffcc3399","Correct":-1,"Choice":-1,"RT":-1,"Accuracy":1,"Outcome":"+10","Keys":[],"TotalKeys":0,"Block":1,"Trial":105,"Robot":2,"Valence":"Win","Action":"No-Go","Sham":0,"Color":"yellow","trial_type":"pit-trial","trial_index":125,"time_elapsed":770683,"internal_node_id":"0.0-114.0","task_version":"test-retest"},{"Rune":"rune_01_ear","Hex":"#3366ff99","Correct":32,"Choice":-1,"RT":-1,"Accuracy":0,"Outcome":"-10","Keys":[],"TotalKeys":0,"Block":1,"Trial":106,"Robot":3,"Valence":"Lose","Action":"Go","Sham":0,"Color":"blue","trial_type":"pit-trial","trial_index":126,"time_elapsed":774687,"internal_node_id":"0.0-115.0","task_version":"test-retest"},{"Rune":"rune_01_yr","Hex":"#ffcc3399","Correct":32,"Choice":-1,"RT":-1,"Accuracy":0,"Outcome":"+1","Keys":[],"TotalKeys":0,"Block":1,"Trial":107,"Robot":1,"Valence":"Win","Action":"Go","Sham":0,"Color":"yellow","trial_type":"pit-trial","trial_index":127,"time_elapsed":778691,"internal_node_id":"0.0-116.0","task_version":"test-retest"},{"Rune":"rune_01_ger","Hex":"#3366ff99","Correct":-1,"Choice":-1,"RT":-1,"Accuracy":1,"Outcome":"-1","Keys":[],"TotalKeys":0,"Block":1,"Trial":108,"Robot":4,"Valence":"Lose","Action":"No-Go","Sham":0,"Color":"blue","trial_type":"pit-trial","trial_index":128,"time_elapsed":782697,"internal_node_id":"0.0-117.0","task_version":"test-retest"},{"Rune":"rune_01_ger","Hex":"#3366ff99","Correct":-1,"Choice":-1,"RT":-1,"Accuracy":1,"Outcome":"-1","Keys":[],"TotalKeys":0,"Block":1,"Trial":109,"Robot":4,"Valence":"Lose","Action":"No-Go","Sham":0,"Color":"blue","trial_type":"pit-trial","trial_index":129,"time_elapsed":786702,"internal_node_id":"0.0-118.0","task_version":"test-retest"},{"Rune":"rune_01_yr","Hex":"#ffcc3399","Correct":32,"Choice":-1,"RT":-1,"Accuracy":0,"Outcome":"+1","Keys":[],"TotalKeys":0,"Block":1,"Trial":110,"Robot":1,"Valence":"Win","Action":"Go","Sham":0,"Color":"yellow","trial_type":"pit-trial","trial_index":130,"time_elapsed":790705,"internal_node_id":"0.0-119.0","task_version":"test-retest"},{"Rune":"rune_01_ingwaz","Hex":"#ffcc3399","Correct":-1,"Choice":-1,"RT":-1,"Accuracy":1,"Outcome":"+10","Keys":[],"TotalKeys":0,"Block":1,"Trial":111,"Robot":2,"Valence":"Win","Action":"No-Go","Sham":0,"Color":"yellow","trial_type":"pit-trial","trial_index":131,"time_elapsed":794709,"internal_node_id":"0.0-120.0","task_version":"test-retest"},{"Rune":"rune_01_ear","Hex":"#3366ff99","Correct":32,"Choice":-1,"RT":-1,"Accuracy":0,"Outcome":"-10","Keys":[3664.5100000023376],"TotalKeys":1,"Block":1,"Trial":112,"Robot":3,"Valence":"Lose","Action":"Go","Sham":0,"Color":"blue","trial_type":"pit-trial","trial_index":132,"time_elapsed":798713,"internal_node_id":"0.0-121.0","task_version":"test-retest"},{"Rune":"rune_01_ear","Hex":"#3366ff99","Correct":32,"Choice":32,"RT":1418.5149999975692,"Accuracy":1,"Outcome":"-1","Keys":[987.8000000026077,2919.3800000066403],"TotalKeys":2,"Block":1,"Trial":113,"Robot":3,"Valence":"Lose","Action":"Go","Sham":0,"Color":"blue","trial_type":"pit-trial","trial_index":133,"time_elapsed":802635,"internal_node_id":"0.0-122.0","task_version":"test-retest"},{"Rune":"rune_01_ingwaz","Hex":"#ffcc3399","Correct":-1,"Choice":32,"RT":532.2750000050291,"Accuracy":0,"Outcome":"+1","Keys":[2033.4699999948498],"TotalKeys":1,"Block":1,"Trial":114,"Robot":2,"Valence":"Win","Action":"No-Go","Sham":0,"Color":"yellow","trial_type":"pit-trial","trial_index":134,"time_elapsed":805672,"internal_node_id":"0.0-123.0","task_version":"test-retest"},{"Rune":"rune_01_ger","Hex":"#3366ff99","Correct":-1,"Choice":32,"RT":179.14500000188127,"Accuracy":0,"Outcome":"-10","Keys":[84.74500000011176,1679.3999999936204],"TotalKeys":2,"Block":1,"Trial":115,"Robot":4,"Valence":"Lose","Action":"No-Go","Sham":0,"Color":"blue","trial_type":"pit-trial","trial_index":135,"time_elapsed":808356,"internal_node_id":"0.0-124.0","task_version":"test-retest"},{"Rune":"rune_01_yr","Hex":"#ffcc3399","Correct":32,"Choice":-1,"RT":-1,"Accuracy":0,"Outcome":"+1","Keys":[1143.6399999947753],"TotalKeys":1,"Block":1,"Trial":116,"Robot":1,"Valence":"Win","Action":"Go","Sham":0,"Color":"yellow","trial_type":"pit-trial","trial_index":136,"time_elapsed":812359,"internal_node_id":"0.0-125.0","task_version":"test-retest"},{"Rune":"rune_01_yr","Hex":"#ffcc3399","Correct":32,"Choice":-1,"RT":-1,"Accuracy":0,"Outcome":"+1","Keys":[1253.7000000011176],"TotalKeys":1,"Block":1,"Trial":117,"Robot":1,"Valence":"Win","Action":"Go","Sham":0,"Color":"yellow","trial_type":"pit-trial","trial_index":137,"time_elapsed":816362,"internal_node_id":"0.0-126.0","task_version":"test-retest"},{"Rune":"rune_01_ear","Hex":"#3366ff99","Correct":32,"Choice":-1,"RT":-1,"Accuracy":0,"Outcome":"-1","Keys":[1162.560000026133],"TotalKeys":1,"Block":1,"Trial":118,"Robot":3,"Valence":"Lose","Action":"Go","Sham":1,"Color":"blue","trial_type":"pit-trial","trial_index":138,"time_elapsed":820367,"internal_node_id":"0.0-127.0","task_version":"test-retest"},{"Rune":"rune_01_ger","Hex":"#3366ff99","Correct":-1,"Choice":32,"RT":1489.6799999987707,"Accuracy":0,"Outcome":"-10","Keys":[2990.0199999974575],"TotalKeys":1,"Block":1,"Trial":119,"Robot":4,"Valence":"Lose","Action":"No-Go","Sham":0,"Color":"blue","trial_type":"pit-trial","trial_index":139,"time_elapsed":824360,"internal_node_id":"0.0-128.0","task_version":"test-retest"},{"Rune":"rune_01_ingwaz","Hex":"#ffcc3399","Correct":-1,"Choice":-1,"RT":-1,"Accuracy":1,"Outcome":"+1","Keys":[],"TotalKeys":0,"Block":1,"Trial":120,"Robot":2,"Valence":"Win","Action":"No-Go","Sham":1,"Color":"yellow","trial_type":"pit-trial","trial_index":140,"time_elapsed":828365,"internal_node_id":"0.0-129.0","task_version":"test-retest"},{"view_history":"[{\"page_index\":0,\"viewing_time\":10231.939999997849},{\"page_index\":1,\"viewing_time\":1885.3449999878649},{\"page_index\":2,\"viewing_time\":1327.660000009928}]","rt":13445.47999999486,"trial_type":"pit-instructions","trial_index":141,"time_elapsed":841812,"internal_node_id":"0.0-130.0","task_version":"test-retest"},{"Rune":"rune_02_haglaz","Hex":"#3366ff99","Correct":-1,"Choice":-1,"RT":-1,"Accuracy":1,"Outcome":"-10","Keys":[1422.5799999840092],"TotalKeys":1,"Block":2,"Trial":121,"Robot":4,"Valence":"Lose","Action":"No-Go","Sham":1,"Color":"blue","trial_type":"pit-trial","trial_index":142,"time_elapsed":845819,"internal_node_id":"0.0-131.0","task_version":"test-retest"},{"Rune":"rune_02_cen","Hex":"#ffcc3399","Correct":-1,"Choice":-1,"RT":-1,"Accuracy":1,"Outcome":"+10","Keys":[1148.9949999959208],"TotalKeys":1,"Block":2,"Trial":122,"Robot":2,"Valence":"Win","Action":"No-Go","Sham":0,"Color":"yellow","trial_type":"pit-trial","trial_index":143,"time_elapsed":849822,"internal_node_id":"0.0-132.0","task_version":"test-retest"},{"Rune":"rune_02_raido","Hex":"#3366ff99","Correct":32,"Choice":32,"RT":14.285000012023374,"Accuracy":1,"Outcome":"-1","Keys":[1514.6250000107102],"TotalKeys":1,"Block":2,"Trial":123,"Robot":3,"Valence":"Lose","Action":"Go","Sham":0,"Color":"blue","trial_type":"pit-trial","trial_index":144,"time_elapsed":852340,"internal_node_id":"0.0-133.0","task_version":"test-retest"},{"Rune":"rune_02_os","Hex":"#ffcc3399","Correct":32,"Choice":32,"RT":1294.1050000081304,"Accuracy":1,"Outcome":"+10","Keys":[364.67999999877065,2795.1450000109617],"TotalKeys":2,"Block":2,"Trial":124,"Robot":1,"Valence":"Win","Action":"Go","Sham":0,"Color":"yellow","trial_type":"pit-trial","trial_index":145,"time_elapsed":856139,"internal_node_id":"0.0-134.0","task_version":"test-retest"},{"Rune":"rune_02_os","Hex":"#ffcc3399","Correct":32,"Choice":32,"RT":37.420000007841736,"Accuracy":1,"Outcome":"+10","Keys":[1538.2950000057463],"TotalKeys":1,"Block":2,"Trial":125,"Robot":1,"Valence":"Win","Action":"Go","Sham":0,"Color":"yellow","trial_type":"pit-trial","trial_index":146,"time_elapsed":858684,"internal_node_id":"0.0-135.0","task_version":"test-retest"},{"Rune":"rune_02_cen","Hex":"#ffcc3399","Correct":-1,"Choice":32,"RT":1452.434999984689,"Accuracy":0,"Outcome":"+1","Keys":[2953.385000000708],"TotalKeys":1,"Block":2,"Trial":126,"Robot":2,"Valence":"Win","Action":"No-Go","Sham":0,"Color":"yellow","trial_type":"pit-trial","trial_index":147,"time_elapsed":862641,"internal_node_id":"0.0-136.0","task_version":"test-retest"},{"Rune":"rune_02_haglaz","Hex":"#3366ff99","Correct":-1,"Choice":-1,"RT":-1,"Accuracy":1,"Outcome":"-1","Keys":[3034.5549999910872],"TotalKeys":1,"Block":2,"Trial":127,"Robot":4,"Valence":"Lose","Action":"No-Go","Sham":0,"Color":"blue","trial_type":"pit-trial","trial_index":148,"time_elapsed":866645,"internal_node_id":"0.0-137.0","task_version":"test-retest"},{"Rune":"rune_02_raido","Hex":"#3366ff99","Correct":32,"Choice":-1,"RT":-1,"Accuracy":0,"Outcome":"-10","Keys":[1026.2849999999162,3429.889999999432],"TotalKeys":2,"Block":2,"Trial":128,"Robot":3,"Valence":"Lose","Action":"Go","Sham":0,"Color":"blue","trial_type":"pit-trial","trial_index":149,"time_elapsed":870650,"internal_node_id":"0.0-138.0","task_version":"test-retest"},{"Rune":"rune_02_cen","Hex":"#ffcc3399","Correct":-1,"Choice":32,"RT":644.8099999979604,"Accuracy":0,"Outcome":"+1","Keys":[2145.840000011958],"TotalKeys":1,"Block":2,"Trial":129,"Robot":2,"Valence":"Win","Action":"No-Go","Sham":0,"Color":"yellow","trial_type":"pit-trial","trial_index":150,"time_elapsed":873800,"internal_node_id":"0.0-139.0","task_version":"test-retest"},{"Rune":"rune_02_haglaz","Hex":"#3366ff99","Correct":-1,"Choice":-1,"RT":-1,"Accuracy":1,"Outcome":"-1","Keys":[987.8099999914411,3093.52999998373],"TotalKeys":2,"Block":2,"Trial":130,"Robot":4,"Valence":"Lose","Action":"No-Go","Sham":0,"Color":"blue","trial_type":"pit-trial","trial_index":151,"time_elapsed":877805,"internal_node_id":"0.0-140.0","task_version":"test-retest"},{"Rune":"rune_02_os","Hex":"#ffcc3399","Correct":32,"Choice":-1,"RT":-1,"Accuracy":0,"Outcome":"+1","Keys":[814.024999999674,1437.0050000143237],"TotalKeys":2,"Block":2,"Trial":131,"Robot":1,"Valence":"Win","Action":"Go","Sham":0,"Color":"yellow","trial_type":"pit-trial","trial_index":152,"time_elapsed":881810,"internal_node_id":"0.0-141.0","task_version":"test-retest"},{"Rune":"rune_02_raido","Hex":"#3366ff99","Correct":32,"Choice":32,"RT":357.8350000025239,"Accuracy":1,"Outcome":"-10","Keys":[1858.0150000052527],"TotalKeys":1,"Block":2,"Trial":132,"Robot":3,"Valence":"Lose","Action":"Go","Sham":1,"Color":"blue","trial_type":"pit-trial","trial_index":153,"time_elapsed":884670,"internal_node_id":"0.0-142.0","task_version":"test-retest"},{"Rune":"rune_02_cen","Hex":"#ffcc3399","Correct":-1,"Choice":-1,"RT":-1,"Accuracy":1,"Outcome":"+10","Keys":[1229.8399999854155,3079.059999989113],"TotalKeys":2,"Block":2,"Trial":133,"Robot":2,"Valence":"Win","Action":"No-Go","Sham":0,"Color":"yellow","trial_type":"pit-trial","trial_index":154,"time_elapsed":888676,"internal_node_id":"0.0-143.0","task_version":"test-retest"},{"Rune":"rune_02_haglaz","Hex":"#3366ff99","Correct":-1,"Choice":32,"RT":419.0999999991618,"Accuracy":0,"Outcome":"-10","Keys":[1920.0300000084098],"TotalKeys":1,"Block":2,"Trial":134,"Robot":4,"Valence":"Lose","Action":"No-Go","Sham":0,"Color":"blue","trial_type":"pit-trial","trial_index":155,"time_elapsed":891601,"internal_node_id":"0.0-144.0","task_version":"test-retest"},{"Rune":"rune_02_raido","Hex":"#3366ff99","Correct":32,"Choice":32,"RT":1461.3349999999627,"Accuracy":1,"Outcome":"-1","Keys":[753.1349999771919,2961.9850000017323],"TotalKeys":2,"Block":2,"Trial":135,"Robot":3,"Valence":"Lose","Action":"Go","Sham":0,"Color":"blue","trial_type":"pit-trial","trial_index":156,"time_elapsed":895566,"internal_node_id":"0.0-145.0","task_version":"test-retest"},{"Rune":"rune_02_os","Hex":"#ffcc3399","Correct":32,"Choice":32,"RT":563.9749999972992,"Accuracy":1,"Outcome":"+1","Keys":[721.0499999928288,2064.6600000036415],"TotalKeys":2,"Block":2,"Trial":136,"Robot":1,"Valence":"Win","Action":"Go","Sham":1,"Color":"yellow","trial_type":"pit-trial","trial_index":157,"time_elapsed":898635,"internal_node_id":"0.0-146.0","task_version":"test-retest"},{"Rune":"rune_02_raido","Hex":"#3366ff99","Correct":32,"Choice":32,"RT":1373.730000021169,"Accuracy":1,"Outcome":"-1","Keys":[1075.0549999938812,2875.1500000071246],"TotalKeys":2,"Block":2,"Trial":137,"Robot":3,"Valence":"Lose","Action":"Go","Sham":0,"Color":"blue","trial_type":"pit-trial","trial_index":158,"time_elapsed":902514,"internal_node_id":"0.0-147.0","task_version":"test-retest"},{"Rune":"rune_02_cen","Hex":"#ffcc3399","Correct":-1,"Choice":-1,"RT":-1,"Accuracy":1,"Outcome":"+1","Keys":[559.7900000284426],"TotalKeys":1,"Block":2,"Trial":138,"Robot":2,"Valence":"Win","Action":"No-Go","Sham":1,"Color":"yellow","trial_type":"pit-trial","trial_index":159,"time_elapsed":906517,"internal_node_id":"0.0-148.0","task_version":"test-retest"},{"Rune":"rune_02_os","Hex":"#ffcc3399","Correct":32,"Choice":32,"RT":223.4699999971781,"Accuracy":1,"Outcome":"+10","Keys":[345.4100000089966,1728.5800000245217],"TotalKeys":2,"Block":2,"Trial":139,"Robot":1,"Valence":"Win","Action":"Go","Sham":0,"Color":"yellow","trial_type":"pit-trial","trial_index":160,"time_elapsed":909248,"internal_node_id":"0.0-149.0","task_version":"test-retest"},{"Rune":"rune_02_haglaz","Hex":"#3366ff99","Correct":-1,"Choice":32,"RT":859.664999996312,"Accuracy":0,"Outcome":"-10","Keys":[2360.435000009602],"TotalKeys":1,"Block":2,"Trial":140,"Robot":4,"Valence":"Lose","Action":"No-Go","Sham":0,"Color":"blue","trial_type":"pit-trial","trial_index":161,"time_elapsed":912612,"internal_node_id":"0.0-150.0","task_version":"test-retest"},{"Rune":"rune_02_cen","Hex":"#ffcc3399","Correct":-1,"Choice":-1,"RT":-1,"Accuracy":1,"Outcome":"+10","Keys":[384.95000000693835],"TotalKeys":1,"Block":2,"Trial":141,"Robot":2,"Valence":"Win","Action":"No-Go","Sham":0,"Color":"yellow","trial_type":"pit-trial","trial_index":162,"time_elapsed":916615,"internal_node_id":"0.0-151.0","task_version":"test-retest"},{"Rune":"rune_02_haglaz","Hex":"#3366ff99","Correct":-1,"Choice":-1,"RT":-1,"Accuracy":1,"Outcome":"-1","Keys":[35.22499999962747,3440.9250000026077],"TotalKeys":2,"Block":2,"Trial":142,"Robot":4,"Valence":"Lose","Action":"No-Go","Sham":0,"Color":"blue","trial_type":"pit-trial","trial_index":163,"time_elapsed":920621,"internal_node_id":"0.0-152.0","task_version":"test-retest"},{"Rune":"rune_02_os","Hex":"#ffcc3399","Correct":32,"Choice":32,"RT":856.8150000064634,"Accuracy":1,"Outcome":"+10","Keys":[1075.7100000046194,2359.4150000135414],"TotalKeys":2,"Block":2,"Trial":143,"Robot":1,"Valence":"Win","Action":"Go","Sham":0,"Color":"yellow","trial_type":"pit-trial","trial_index":164,"time_elapsed":923987,"internal_node_id":"0.0-153.0","task_version":"test-retest"},{"Rune":"rune_02_raido","Hex":"#3366ff99","Correct":32,"Choice":-1,"RT":-1,"Accuracy":0,"Outcome":"-10","Keys":[1058.2899999863002],"TotalKeys":1,"Block":2,"Trial":144,"Robot":3,"Valence":"Lose","Action":"Go","Sham":0,"Color":"blue","trial_type":"pit-trial","trial_index":165,"time_elapsed":927992,"internal_node_id":"0.0-154.0","task_version":"test-retest"},{"Rune":"rune_02_cen","Hex":"#ffcc3399","Correct":-1,"Choice":-1,"RT":-1,"Accuracy":1,"Outcome":"+1","Keys":[],"TotalKeys":0,"Block":2,"Trial":145,"Robot":2,"Valence":"Win","Action":"No-Go","Sham":1,"Color":"yellow","trial_type":"pit-trial","trial_index":166,"time_elapsed":931996,"internal_node_id":"0.0-155.0","task_version":"test-retest"},{"Rune":"rune_02_os","Hex":"#ffcc3399","Correct":32,"Choice":-1,"RT":-1,"Accuracy":0,"Outcome":"+10","Keys":[],"TotalKeys":0,"Block":2,"Trial":146,"Robot":1,"Valence":"Win","Action":"Go","Sham":1,"Color":"yellow","trial_type":"pit-trial","trial_index":167,"time_elapsed":936001,"internal_node_id":"0.0-156.0","task_version":"test-retest"},{"Rune":"rune_02_raido","Hex":"#3366ff99","Correct":32,"Choice":-1,"RT":-1,"Accuracy":0,"Outcome":"-10","Keys":[],"TotalKeys":0,"Block":2,"Trial":147,"Robot":3,"Valence":"Lose","Action":"Go","Sham":0,"Color":"blue","trial_type":"pit-trial","trial_index":168,"time_elapsed":940012,"internal_node_id":"0.0-157.0","task_version":"test-retest"},{"Rune":"rune_02_haglaz","Hex":"#3366ff99","Correct":-1,"Choice":-1,"RT":-1,"Accuracy":1,"Outcome":"-10","Keys":[],"TotalKeys":0,"Block":2,"Trial":148,"Robot":4,"Valence":"Lose","Action":"No-Go","Sham":1,"Color":"blue","trial_type":"pit-trial","trial_index":169,"time_elapsed":944015,"internal_node_id":"0.0-158.0","task_version":"test-retest"},{"Rune":"rune_02_cen","Hex":"#ffcc3399","Correct":-1,"Choice":-1,"RT":-1,"Accuracy":1,"Outcome":"+10","Keys":[],"TotalKeys":0,"Block":2,"Trial":149,"Robot":2,"Valence":"Win","Action":"No-Go","Sham":0,"Color":"yellow","trial_type":"pit-trial","trial_index":170,"time_elapsed":948019,"internal_node_id":"0.0-159.0","task_version":"test-retest"},{"Rune":"rune_02_os","Hex":"#ffcc3399","Correct":32,"Choice":-1,"RT":-1,"Accuracy":0,"Outcome":"+1","Keys":[],"TotalKeys":0,"Block":2,"Trial":150,"Robot":1,"Valence":"Win","Action":"Go","Sham":0,"Color":"yellow","trial_type":"pit-trial","trial_index":171,"time_elapsed":952025,"internal_node_id":"0.0-160.0","task_version":"test-retest"},{"Rune":"rune_02_raido","Hex":"#3366ff99","Correct":32,"Choice":-1,"RT":-1,"Accuracy":0,"Outcome":"-10","Keys":[],"TotalKeys":0,"Block":2,"Trial":151,"Robot":3,"Valence":"Lose","Action":"Go","Sham":0,"Color":"blue","trial_type":"pit-trial","trial_index":172,"time_elapsed":956031,"internal_node_id":"0.0-161.0","task_version":"test-retest"},{"Rune":"rune_02_haglaz","Hex":"#3366ff99","Correct":-1,"Choice":-1,"RT":-1,"Accuracy":1,"Outcome":"-1","Keys":[],"TotalKeys":0,"Block":2,"Trial":152,"Robot":4,"Valence":"Lose","Action":"No-Go","Sham":0,"Color":"blue","trial_type":"pit-trial","trial_index":173,"time_elapsed":960035,"internal_node_id":"0.0-162.0","task_version":"test-retest"},{"Rune":"rune_02_raido","Hex":"#3366ff99","Correct":32,"Choice":-1,"RT":-1,"Accuracy":0,"Outcome":"-10","Keys":[],"TotalKeys":0,"Block":2,"Trial":153,"Robot":3,"Valence":"Lose","Action":"Go","Sham":0,"Color":"blue","trial_type":"pit-trial","trial_index":174,"time_elapsed":964048,"internal_node_id":"0.0-163.0","task_version":"test-retest"},{"Rune":"rune_02_cen","Hex":"#ffcc3399","Correct":-1,"Choice":-1,"RT":-1,"Accuracy":1,"Outcome":"+10","Keys":[],"TotalKeys":0,"Block":2,"Trial":154,"Robot":2,"Valence":"Win","Action":"No-Go","Sham":0,"Color":"yellow","trial_type":"pit-trial","trial_index":175,"time_elapsed":968054,"internal_node_id":"0.0-164.0","task_version":"test-retest"},{"Rune":"rune_02_os","Hex":"#ffcc3399","Correct":32,"Choice":-1,"RT":-1,"Accuracy":0,"Outcome":"+1","Keys":[],"TotalKeys":0,"Block":2,"Trial":155,"Robot":1,"Valence":"Win","Action":"Go","Sham":0,"Color":"yellow","trial_type":"pit-trial","trial_index":176,"time_elapsed":972058,"internal_node_id":"0.0-165.0","task_version":"test-retest"},{"Rune":"rune_02_haglaz","Hex":"#3366ff99","Correct":-1,"Choice":-1,"RT":-1,"Accuracy":1,"Outcome":"-1","Keys":[],"TotalKeys":0,"Block":2,"Trial":156,"Robot":4,"Valence":"Lose","Action":"No-Go","Sham":0,"Color":"blue","trial_type":"pit-trial","trial_index":177,"time_elapsed":976063,"internal_node_id":"0.0-166.0","task_version":"test-retest"},{"Rune":"rune_02_raido","Hex":"#3366ff99","Correct":32,"Choice":-1,"RT":-1,"Accuracy":0,"Outcome":"-1","Keys":[],"TotalKeys":0,"Block":2,"Trial":157,"Robot":3,"Valence":"Lose","Action":"Go","Sham":1,"Color":"blue","trial_type":"pit-trial","trial_index":178,"time_elapsed":980066,"internal_node_id":"0.0-167.0","task_version":"test-retest"},{"Rune":"rune_02_cen","Hex":"#ffcc3399","Correct":-1,"Choice":-1,"RT":-1,"Accuracy":1,"Outcome":"+10","Keys":[],"TotalKeys":0,"Block":2,"Trial":158,"Robot":2,"Valence":"Win","Action":"No-Go","Sham":0,"Color":"yellow","trial_type":"pit-trial","trial_index":179,"time_elapsed":984070,"internal_node_id":"0.0-168.0","task_version":"test-retest"},{"Rune":"rune_02_haglaz","Hex":"#3366ff99","Correct":-1,"Choice":-1,"RT":-1,"Accuracy":1,"Outcome":"-1","Keys":[],"TotalKeys":0,"Block":2,"Trial":159,"Robot":4,"Valence":"Lose","Action":"No-Go","Sham":0,"Color":"blue","trial_type":"pit-trial","trial_index":180,"time_elapsed":988080,"internal_node_id":"0.0-169.0","task_version":"test-retest"},{"Rune":"rune_02_os","Hex":"#ffcc3399","Correct":32,"Choice":-1,"RT":-1,"Accuracy":0,"Outcome":"+1","Keys":[],"TotalKeys":0,"Block":2,"Trial":160,"Robot":1,"Valence":"Win","Action":"Go","Sham":0,"Color":"yellow","trial_type":"pit-trial","trial_index":181,"time_elapsed":992084,"internal_node_id":"0.0-170.0","task_version":"test-retest"},{"Rune":"rune_02_os","Hex":"#ffcc3399","Correct":32,"Choice":-1,"RT":-1,"Accuracy":0,"Outcome":"+1","Keys":[],"TotalKeys":0,"Block":2,"Trial":161,"Robot":1,"Valence":"Win","Action":"Go","Sham":0,"Color":"yellow","trial_type":"pit-trial","trial_index":182,"time_elapsed":996090,"internal_node_id":"0.0-171.0","task_version":"test-retest"},{"Rune":"rune_02_raido","Hex":"#3366ff99","Correct":32,"Choice":-1,"RT":-1,"Accuracy":0,"Outcome":"-10","Keys":[],"TotalKeys":0,"Block":2,"Trial":162,"Robot":3,"Valence":"Lose","Action":"Go","Sham":0,"Color":"blue","trial_type":"pit-trial","trial_index":183,"time_elapsed":1000094,"internal_node_id":"0.0-172.0","task_version":"test-retest"},{"Rune":"rune_02_haglaz","Hex":"#3366ff99","Correct":-1,"Choice":-1,"RT":-1,"Accuracy":1,"Outcome":"-10","Keys":[],"TotalKeys":0,"Block":2,"Trial":163,"Robot":4,"Valence":"Lose","Action":"No-Go","Sham":1,"Color":"blue","trial_type":"pit-trial","trial_index":184,"time_elapsed":1004097,"internal_node_id":"0.0-173.0","task_version":"test-retest"},{"Rune":"rune_02_cen","Hex":"#ffcc3399","Correct":-1,"Choice":-1,"RT":-1,"Accuracy":1,"Outcome":"+10","Keys":[],"TotalKeys":0,"Block":2,"Trial":164,"Robot":2,"Valence":"Win","Action":"No-Go","Sham":0,"Color":"yellow","trial_type":"pit-trial","trial_index":185,"time_elapsed":1008101,"internal_node_id":"0.0-174.0","task_version":"test-retest"},{"Rune":"rune_02_cen","Hex":"#ffcc3399","Correct":-1,"Choice":-1,"RT":-1,"Accuracy":1,"Outcome":"+10","Keys":[],"TotalKeys":0,"Block":2,"Trial":165,"Robot":2,"Valence":"Win","Action":"No-Go","Sham":0,"Color":"yellow","trial_type":"pit-trial","trial_index":186,"time_elapsed":1012105,"internal_node_id":"0.0-175.0","task_version":"test-retest"},{"Rune":"rune_02_raido","Hex":"#3366ff99","Correct":32,"Choice":-1,"RT":-1,"Accuracy":0,"Outcome":"-10","Keys":[],"TotalKeys":0,"Block":2,"Trial":166,"Robot":3,"Valence":"Lose","Action":"Go","Sham":0,"Color":"blue","trial_type":"pit-trial","trial_index":187,"time_elapsed":1016109,"internal_node_id":"0.0-176.0","task_version":"test-retest"},{"Rune":"rune_02_haglaz","Hex":"#3366ff99","Correct":-1,"Choice":-1,"RT":-1,"Accuracy":1,"Outcome":"-1","Keys":[],"TotalKeys":0,"Block":2,"Trial":167,"Robot":4,"Valence":"Lose","Action":"No-Go","Sham":0,"Color":"blue","trial_type":"pit-trial","trial_index":188,"time_elapsed":1020114,"internal_node_id":"0.0-177.0","task_version":"test-retest"},{"Rune":"rune_02_os","Hex":"#ffcc3399","Correct":32,"Choice":-1,"RT":-1,"Accuracy":0,"Outcome":"+10","Keys":[],"TotalKeys":0,"Block":2,"Trial":168,"Robot":1,"Valence":"Win","Action":"Go","Sham":1,"Color":"yellow","trial_type":"pit-trial","trial_index":189,"time_elapsed":1024117,"internal_node_id":"0.0-178.0","task_version":"test-retest"},{"Rune":"rune_02_haglaz","Hex":"#3366ff99","Correct":-1,"Choice":-1,"RT":-1,"Accuracy":1,"Outcome":"-1","Keys":[],"TotalKeys":0,"Block":2,"Trial":169,"Robot":4,"Valence":"Lose","Action":"No-Go","Sham":0,"Color":"blue","trial_type":"pit-trial","trial_index":190,"time_elapsed":1028125,"internal_node_id":"0.0-179.0","task_version":"test-retest"},{"Rune":"rune_02_raido","Hex":"#3366ff99","Correct":32,"Choice":-1,"RT":-1,"Accuracy":0,"Outcome":"-1","Keys":[],"TotalKeys":0,"Block":2,"Trial":170,"Robot":3,"Valence":"Lose","Action":"Go","Sham":1,"Color":"blue","trial_type":"pit-trial","trial_index":191,"time_elapsed":1032129,"internal_node_id":"0.0-180.0","task_version":"test-retest"},{"Rune":"rune_02_os","Hex":"#ffcc3399","Correct":32,"Choice":-1,"RT":-1,"Accuracy":0,"Outcome":"+1","Keys":[],"TotalKeys":0,"Block":2,"Trial":171,"Robot":1,"Valence":"Win","Action":"Go","Sham":0,"Color":"yellow","trial_type":"pit-trial","trial_index":192,"time_elapsed":1036133,"internal_node_id":"0.0-181.0","task_version":"test-retest"},{"Rune":"rune_02_cen","Hex":"#ffcc3399","Correct":-1,"Choice":-1,"RT":-1,"Accuracy":1,"Outcome":"+10","Keys":[],"TotalKeys":0,"Block":2,"Trial":172,"Robot":2,"Valence":"Win","Action":"No-Go","Sham":0,"Color":"yellow","trial_type":"pit-trial","trial_index":193,"time_elapsed":1040136,"internal_node_id":"0.0-182.0","task_version":"test-retest"},{"Rune":"rune_02_os","Hex":"#ffcc3399","Correct":32,"Choice":-1,"RT":-1,"Accuracy":0,"Outcome":"+1","Keys":[],"TotalKeys":0,"Block":2,"Trial":173,"Robot":1,"Valence":"Win","Action":"Go","Sham":0,"Color":"yellow","trial_type":"pit-trial","trial_index":194,"time_elapsed":1044139,"internal_node_id":"0.0-183.0","task_version":"test-retest"},{"Rune":"rune_02_haglaz","Hex":"#3366ff99","Correct":-1,"Choice":-1,"RT":-1,"Accuracy":1,"Outcome":"-1","Keys":[],"TotalKeys":0,"Block":2,"Trial":174,"Robot":4,"Valence":"Lose","Action":"No-Go","Sham":0,"Color":"blue","trial_type":"pit-trial","trial_index":195,"time_elapsed":1048143,"internal_node_id":"0.0-184.0","task_version":"test-retest"},{"Rune":"rune_02_raido","Hex":"#3366ff99","Correct":32,"Choice":-1,"RT":-1,"Accuracy":0,"Outcome":"-10","Keys":[],"TotalKeys":0,"Block":2,"Trial":175,"Robot":3,"Valence":"Lose","Action":"Go","Sham":0,"Color":"blue","trial_type":"pit-trial","trial_index":196,"time_elapsed":1052147,"internal_node_id":"0.0-185.0","task_version":"test-retest"},{"Rune":"rune_02_cen","Hex":"#ffcc3399","Correct":-1,"Choice":-1,"RT":-1,"Accuracy":1,"Outcome":"+10","Keys":[],"TotalKeys":0,"Block":2,"Trial":176,"Robot":2,"Valence":"Win","Action":"No-Go","Sham":0,"Color":"yellow","trial_type":"pit-trial","trial_index":197,"time_elapsed":1056151,"internal_node_id":"0.0-186.0","task_version":"test-retest"},{"Rune":"rune_02_raido","Hex":"#3366ff99","Correct":32,"Choice":-1,"RT":-1,"Accuracy":0,"Outcome":"-10","Keys":[],"TotalKeys":0,"Block":2,"Trial":177,"Robot":3,"Valence":"Lose","Action":"Go","Sham":0,"Color":"blue","trial_type":"pit-trial","trial_index":198,"time_elapsed":1060155,"internal_node_id":"0.0-187.0","task_version":"test-retest"},{"Rune":"rune_02_os","Hex":"#ffcc3399","Correct":32,"Choice":-1,"RT":-1,"Accuracy":0,"Outcome":"+1","Keys":[],"TotalKeys":0,"Block":2,"Trial":178,"Robot":1,"Valence":"Win","Action":"Go","Sham":0,"Color":"yellow","trial_type":"pit-trial","trial_index":199,"time_elapsed":1064160,"internal_node_id":"0.0-188.0","task_version":"test-retest"},{"Rune":"rune_02_cen","Hex":"#ffcc3399","Correct":-1,"Choice":-1,"RT":-1,"Accuracy":1,"Outcome":"+1","Keys":[],"TotalKeys":0,"Block":2,"Trial":179,"Robot":2,"Valence":"Win","Action":"No-Go","Sham":1,"Color":"yellow","trial_type":"pit-trial","trial_index":200,"time_elapsed":1068164,"internal_node_id":"0.0-189.0","task_version":"test-retest"},{"Rune":"rune_02_haglaz","Hex":"#3366ff99","Correct":-1,"Choice":-1,"RT":-1,"Accuracy":1,"Outcome":"-1","Keys":[],"TotalKeys":0,"Block":2,"Trial":180,"Robot":4,"Valence":"Lose","Action":"No-Go","Sham":0,"Color":"blue","trial_type":"pit-trial","trial_index":201,"time_elapsed":1072169,"internal_node_id":"0.0-190.0","task_version":"test-retest"},{"view_history":"[{\"page_index\":0,\"viewing_time\":5327.834999974584},{\"page_index\":1,\"viewing_time\":1441.095000016503}]","rt":6769.494999985909,"trial_type":"pit-instructions","trial_index":202,"time_elapsed":1078940,"internal_node_id":"0.0-191.0","task_version":"test-retest"},{"Rune":"rune_02_raido","Hex":"#3366ff99","Correct":32,"Choice":-1,"RT":-1,"Accuracy":0,"Outcome":"-10","Keys":[],"TotalKeys":0,"Block":2,"Trial":181,"Robot":3,"Valence":"Lose","Action":"Go","Sham":0,"Color":"blue","trial_type":"pit-trial","trial_index":203,"time_elapsed":1082945,"internal_node_id":"0.0-192.0","task_version":"test-retest"},{"Rune":"rune_02_haglaz","Hex":"#3366ff99","Correct":-1,"Choice":-1,"RT":-1,"Accuracy":1,"Outcome":"-1","Keys":[],"TotalKeys":0,"Block":2,"Trial":182,"Robot":4,"Valence":"Lose","Action":"No-Go","Sham":0,"Color":"blue","trial_type":"pit-trial","trial_index":204,"time_elapsed":1086949,"internal_node_id":"0.0-193.0","task_version":"test-retest"},{"Rune":"rune_02_cen","Hex":"#ffcc3399","Correct":-1,"Choice":-1,"RT":-1,"Accuracy":1,"Outcome":"+10","Keys":[],"TotalKeys":0,"Block":2,"Trial":183,"Robot":2,"Valence":"Win","Action":"No-Go","Sham":0,"Color":"yellow","trial_type":"pit-trial","trial_index":205,"time_elapsed":1090955,"internal_node_id":"0.0-194.0","task_version":"test-retest"},{"Rune":"rune_02_os","Hex":"#ffcc3399","Correct":32,"Choice":-1,"RT":-1,"Accuracy":0,"Outcome":"+1","Keys":[],"TotalKeys":0,"Block":2,"Trial":184,"Robot":1,"Valence":"Win","Action":"Go","Sham":0,"Color":"yellow","trial_type":"pit-trial","trial_index":206,"time_elapsed":1094959,"internal_node_id":"0.0-195.0","task_version":"test-retest"},{"Rune":"rune_02_raido","Hex":"#3366ff99","Correct":32,"Choice":-1,"RT":-1,"Accuracy":0,"Outcome":"-10","Keys":[],"TotalKeys":0,"Block":2,"Trial":185,"Robot":3,"Valence":"Lose","Action":"Go","Sham":0,"Color":"blue","trial_type":"pit-trial","trial_index":207,"time_elapsed":1098963,"internal_node_id":"0.0-196.0","task_version":"test-retest"},{"Rune":"rune_02_os","Hex":"#ffcc3399","Correct":32,"Choice":-1,"RT":-1,"Accuracy":0,"Outcome":"+1","Keys":[],"TotalKeys":0,"Block":2,"Trial":186,"Robot":1,"Valence":"Win","Action":"Go","Sham":0,"Color":"yellow","trial_type":"pit-trial","trial_index":208,"time_elapsed":1102969,"internal_node_id":"0.0-197.0","task_version":"test-retest"},{"Rune":"rune_02_cen","Hex":"#ffcc3399","Correct":-1,"Choice":-1,"RT":-1,"Accuracy":1,"Outcome":"+1","Keys":[],"TotalKeys":0,"Block":2,"Trial":187,"Robot":2,"Valence":"Win","Action":"No-Go","Sham":1,"Color":"yellow","trial_type":"pit-trial","trial_index":209,"time_elapsed":1106972,"internal_node_id":"0.0-198.0","task_version":"test-retest"},{"Rune":"rune_02_haglaz","Hex":"#3366ff99","Correct":-1,"Choice":-1,"RT":-1,"Accuracy":1,"Outcome":"-1","Keys":[],"TotalKeys":0,"Block":2,"Trial":188,"Robot":4,"Valence":"Lose","Action":"No-Go","Sham":0,"Color":"blue","trial_type":"pit-trial","trial_index":210,"time_elapsed":1110977,"internal_node_id":"0.0-199.0","task_version":"test-retest"},{"Rune":"rune_02_os","Hex":"#ffcc3399","Correct":32,"Choice":-1,"RT":-1,"Accuracy":0,"Outcome":"+1","Keys":[],"TotalKeys":0,"Block":2,"Trial":189,"Robot":1,"Valence":"Win","Action":"Go","Sham":0,"Color":"yellow","trial_type":"pit-trial","trial_index":211,"time_elapsed":1114980,"internal_node_id":"0.0-200.0","task_version":"test-retest"},{"Rune":"rune_02_haglaz","Hex":"#3366ff99","Correct":-1,"Choice":-1,"RT":-1,"Accuracy":1,"Outcome":"-1","Keys":[],"TotalKeys":0,"Block":2,"Trial":190,"Robot":4,"Valence":"Lose","Action":"No-Go","Sham":0,"Color":"blue","trial_type":"pit-trial","trial_index":212,"time_elapsed":1118985,"internal_node_id":"0.0-201.0","task_version":"test-retest"},{"Rune":"rune_02_raido","Hex":"#3366ff99","Correct":32,"Choice":-1,"RT":-1,"Accuracy":0,"Outcome":"-1","Keys":[],"TotalKeys":0,"Block":2,"Trial":191,"Robot":3,"Valence":"Lose","Action":"Go","Sham":1,"Color":"blue","trial_type":"pit-trial","trial_index":213,"time_elapsed":1122989,"internal_node_id":"0.0-202.0","task_version":"test-retest"},{"Rune":"rune_02_cen","Hex":"#ffcc3399","Correct":-1,"Choice":-1,"RT":-1,"Accuracy":1,"Outcome":"+10","Keys":[],"TotalKeys":0,"Block":2,"Trial":192,"Robot":2,"Valence":"Win","Action":"No-Go","Sham":0,"Color":"yellow","trial_type":"pit-trial","trial_index":214,"time_elapsed":1126995,"internal_node_id":"0.0-203.0","task_version":"test-retest"},{"Rune":"rune_02_raido","Hex":"#3366ff99","Correct":32,"Choice":-1,"RT":-1,"Accuracy":0,"Outcome":"-10","Keys":[],"TotalKeys":0,"Block":2,"Trial":193,"Robot":3,"Valence":"Lose","Action":"Go","Sham":0,"Color":"blue","trial_type":"pit-trial","trial_index":215,"time_elapsed":1130999,"internal_node_id":"0.0-204.0","task_version":"test-retest"},{"Rune":"rune_02_cen","Hex":"#ffcc3399","Correct":-1,"Choice":-1,"RT":-1,"Accuracy":1,"Outcome":"+10","Keys":[],"TotalKeys":0,"Block":2,"Trial":194,"Robot":2,"Valence":"Win","Action":"No-Go","Sham":0,"Color":"yellow","trial_type":"pit-trial","trial_index":216,"time_elapsed":1135003,"internal_node_id":"0.0-205.0","task_version":"test-retest"},{"Rune":"rune_02_haglaz","Hex":"#3366ff99","Correct":-1,"Choice":-1,"RT":-1,"Accuracy":1,"Outcome":"-1","Keys":[],"TotalKeys":0,"Block":2,"Trial":195,"Robot":4,"Valence":"Lose","Action":"No-Go","Sham":0,"Color":"blue","trial_type":"pit-trial","trial_index":217,"time_elapsed":1139006,"internal_node_id":"0.0-206.0","task_version":"test-retest"},{"Rune":"rune_02_os","Hex":"#ffcc3399","Correct":32,"Choice":-1,"RT":-1,"Accuracy":0,"Outcome":"+1","Keys":[],"TotalKeys":0,"Block":2,"Trial":196,"Robot":1,"Valence":"Win","Action":"Go","Sham":0,"Color":"yellow","trial_type":"pit-trial","trial_index":218,"time_elapsed":1143013,"internal_node_id":"0.0-207.0","task_version":"test-retest"},{"Rune":"rune_02_haglaz","Hex":"#3366ff99","Correct":-1,"Choice":-1,"RT":-1,"Accuracy":1,"Outcome":"-10","Keys":[],"TotalKeys":0,"Block":2,"Trial":197,"Robot":4,"Valence":"Lose","Action":"No-Go","Sham":1,"Color":"blue","trial_type":"pit-trial","trial_index":219,"time_elapsed":1147020,"internal_node_id":"0.0-208.0","task_version":"test-retest"},{"Rune":"rune_02_raido","Hex":"#3366ff99","Correct":32,"Choice":-1,"RT":-1,"Accuracy":0,"Outcome":"-10","Keys":[],"TotalKeys":0,"Block":2,"Trial":198,"Robot":3,"Valence":"Lose","Action":"Go","Sham":0,"Color":"blue","trial_type":"pit-trial","trial_index":220,"time_elapsed":1151025,"internal_node_id":"0.0-209.0","task_version":"test-retest"},{"Rune":"rune_02_cen","Hex":"#ffcc3399","Correct":-1,"Choice":-1,"RT":-1,"Accuracy":1,"Outcome":"+10","Keys":[],"TotalKeys":0,"Block":2,"Trial":199,"Robot":2,"Valence":"Win","Action":"No-Go","Sham":0,"Color":"yellow","trial_type":"pit-trial","trial_index":221,"time_elapsed":1155032,"internal_node_id":"0.0-210.0","task_version":"test-retest"},{"Rune":"rune_02_os","Hex":"#ffcc3399","Correct":32,"Choice":-1,"RT":-1,"Accuracy":0,"Outcome":"+10","Keys":[],"TotalKeys":0,"Block":2,"Trial":200,"Robot":1,"Valence":"Win","Action":"Go","Sham":1,"Color":"yellow","trial_type":"pit-trial","trial_index":222,"time_elapsed":1159037,"internal_node_id":"0.0-211.0","task_version":"test-retest"},{"Rune":"rune_02_haglaz","Hex":"#3366ff99","Correct":-1,"Choice":-1,"RT":-1,"Accuracy":1,"Outcome":"-1","Keys":[],"TotalKeys":0,"Block":2,"Trial":201,"Robot":4,"Valence":"Lose","Action":"No-Go","Sham":0,"Color":"blue","trial_type":"pit-trial","trial_index":223,"time_elapsed":1163041,"internal_node_id":"0.0-212.0","task_version":"test-retest"},{"Rune":"rune_02_raido","Hex":"#3366ff99","Correct":32,"Choice":-1,"RT":-1,"Accuracy":0,"Outcome":"-10","Keys":[],"TotalKeys":0,"Block":2,"Trial":202,"Robot":3,"Valence":"Lose","Action":"Go","Sham":0,"Color":"blue","trial_type":"pit-trial","trial_index":224,"time_elapsed":1167045,"internal_node_id":"0.0-213.0","task_version":"test-retest"},{"Rune":"rune_02_cen","Hex":"#ffcc3399","Correct":-1,"Choice":-1,"RT":-1,"Accuracy":1,"Outcome":"+1","Keys":[],"TotalKeys":0,"Block":2,"Trial":203,"Robot":2,"Valence":"Win","Action":"No-Go","Sham":1,"Color":"yellow","trial_type":"pit-trial","trial_index":225,"time_elapsed":1171049,"internal_node_id":"0.0-214.0","task_version":"test-retest"},{"Rune":"rune_02_os","Hex":"#ffcc3399","Correct":32,"Choice":-1,"RT":-1,"Accuracy":0,"Outcome":"+1","Keys":[],"TotalKeys":0,"Block":2,"Trial":204,"Robot":1,"Valence":"Win","Action":"Go","Sham":0,"Color":"yellow","trial_type":"pit-trial","trial_index":226,"time_elapsed":1175053,"internal_node_id":"0.0-215.0","task_version":"test-retest"},{"Rune":"rune_02_os","Hex":"#ffcc3399","Correct":32,"Choice":-1,"RT":-1,"Accuracy":0,"Outcome":"+10","Keys":[],"TotalKeys":0,"Block":2,"Trial":205,"Robot":1,"Valence":"Win","Action":"Go","Sham":1,"Color":"yellow","trial_type":"pit-trial","trial_index":227,"time_elapsed":1179056,"internal_node_id":"0.0-216.0","task_version":"test-retest"},{"Rune":"rune_02_raido","Hex":"#3366ff99","Correct":32,"Choice":-1,"RT":-1,"Accuracy":0,"Outcome":"-10","Keys":[],"TotalKeys":0,"Block":2,"Trial":206,"Robot":3,"Valence":"Lose","Action":"Go","Sham":0,"Color":"blue","trial_type":"pit-trial","trial_index":228,"time_elapsed":1183061,"internal_node_id":"0.0-217.0","task_version":"test-retest"},{"Rune":"rune_02_haglaz","Hex":"#3366ff99","Correct":-1,"Choice":-1,"RT":-1,"Accuracy":1,"Outcome":"-1","Keys":[],"TotalKeys":0,"Block":2,"Trial":207,"Robot":4,"Valence":"Lose","Action":"No-Go","Sham":0,"Color":"blue","trial_type":"pit-trial","trial_index":229,"time_elapsed":1187066,"internal_node_id":"0.0-218.0","task_version":"test-retest"},{"Rune":"rune_02_cen","Hex":"#ffcc3399","Correct":-1,"Choice":-1,"RT":-1,"Accuracy":1,"Outcome":"+10","Keys":[],"TotalKeys":0,"Block":2,"Trial":208,"Robot":2,"Valence":"Win","Action":"No-Go","Sham":0,"Color":"yellow","trial_type":"pit-trial","trial_index":230,"time_elapsed":1191070,"internal_node_id":"0.0-219.0","task_version":"test-retest"},{"Rune":"rune_02_raido","Hex":"#3366ff99","Correct":32,"Choice":-1,"RT":-1,"Accuracy":0,"Outcome":"-10","Keys":[],"TotalKeys":0,"Block":2,"Trial":209,"Robot":3,"Valence":"Lose","Action":"Go","Sham":0,"Color":"blue","trial_type":"pit-trial","trial_index":231,"time_elapsed":1195073,"internal_node_id":"0.0-220.0","task_version":"test-retest"},{"Rune":"rune_02_haglaz","Hex":"#3366ff99","Correct":-1,"Choice":-1,"RT":-1,"Accuracy":1,"Outcome":"-1","Keys":[],"TotalKeys":0,"Block":2,"Trial":210,"Robot":4,"Valence":"Lose","Action":"No-Go","Sham":0,"Color":"blue","trial_type":"pit-trial","trial_index":232,"time_elapsed":1199077,"internal_node_id":"0.0-221.0","task_version":"test-retest"},{"Rune":"rune_02_os","Hex":"#ffcc3399","Correct":32,"Choice":-1,"RT":-1,"Accuracy":0,"Outcome":"+1","Keys":[],"TotalKeys":0,"Block":2,"Trial":211,"Robot":1,"Valence":"Win","Action":"Go","Sham":0,"Color":"yellow","trial_type":"pit-trial","trial_index":233,"time_elapsed":1203081,"internal_node_id":"0.0-222.0","task_version":"test-retest"},{"Rune":"rune_02_cen","Hex":"#ffcc3399","Correct":-1,"Choice":-1,"RT":-1,"Accuracy":1,"Outcome":"+10","Keys":[],"TotalKeys":0,"Block":2,"Trial":212,"Robot":2,"Valence":"Win","Action":"No-Go","Sham":0,"Color":"yellow","trial_type":"pit-trial","trial_index":234,"time_elapsed":1207087,"internal_node_id":"0.0-223.0","task_version":"test-retest"},{"Rune":"rune_02_raido","Hex":"#3366ff99","Correct":32,"Choice":-1,"RT":-1,"Accuracy":0,"Outcome":"-1","Keys":[],"TotalKeys":0,"Block":2,"Trial":213,"Robot":3,"Valence":"Lose","Action":"Go","Sham":1,"Color":"blue","trial_type":"pit-trial","trial_index":235,"time_elapsed":1211092,"internal_node_id":"0.0-224.0","task_version":"test-retest"},{"Rune":"rune_02_os","Hex":"#ffcc3399","Correct":32,"Choice":-1,"RT":-1,"Accuracy":0,"Outcome":"+1","Keys":[],"TotalKeys":0,"Block":2,"Trial":214,"Robot":1,"Valence":"Win","Action":"Go","Sham":0,"Color":"yellow","trial_type":"pit-trial","trial_index":236,"time_elapsed":1215096,"internal_node_id":"0.0-225.0","task_version":"test-retest"},{"Rune":"rune_02_cen","Hex":"#ffcc3399","Correct":-1,"Choice":-1,"RT":-1,"Accuracy":1,"Outcome":"+10","Keys":[],"TotalKeys":0,"Block":2,"Trial":215,"Robot":2,"Valence":"Win","Action":"No-Go","Sham":0,"Color":"yellow","trial_type":"pit-trial","trial_index":237,"time_elapsed":1219101,"internal_node_id":"0.0-226.0","task_version":"test-retest"},{"Rune":"rune_02_haglaz","Hex":"#3366ff99","Correct":-1,"Choice":-1,"RT":-1,"Accuracy":1,"Outcome":"-10","Keys":[],"TotalKeys":0,"Block":2,"Trial":216,"Robot":4,"Valence":"Lose","Action":"No-Go","Sham":1,"Color":"blue","trial_type":"pit-trial","trial_index":238,"time_elapsed":1223105,"internal_node_id":"0.0-227.0","task_version":"test-retest"},{"Rune":"rune_02_raido","Hex":"#3366ff99","Correct":32,"Choice":-1,"RT":-1,"Accuracy":0,"Outcome":"-10","Keys":[],"TotalKeys":0,"Block":2,"Trial":217,"Robot":3,"Valence":"Lose","Action":"Go","Sham":0,"Color":"blue","trial_type":"pit-trial","trial_index":239,"time_elapsed":1227109,"internal_node_id":"0.0-228.0","task_version":"test-retest"},{"Rune":"rune_02_haglaz","Hex":"#3366ff99","Correct":-1,"Choice":-1,"RT":-1,"Accuracy":1,"Outcome":"-1","Keys":[],"TotalKeys":0,"Block":2,"Trial":218,"Robot":4,"Valence":"Lose","Action":"No-Go","Sham":0,"Color":"blue","trial_type":"pit-trial","trial_index":240,"time_elapsed":1231113,"internal_node_id":"0.0-229.0","task_version":"test-retest"},{"Rune":"rune_02_cen","Hex":"#ffcc3399","Correct":-1,"Choice":-1,"RT":-1,"Accuracy":1,"Outcome":"+10","Keys":[],"TotalKeys":0,"Block":2,"Trial":219,"Robot":2,"Valence":"Win","Action":"No-Go","Sham":0,"Color":"yellow","trial_type":"pit-trial","trial_index":241,"time_elapsed":1235118,"internal_node_id":"0.0-230.0","task_version":"test-retest"},{"Rune":"rune_02_os","Hex":"#ffcc3399","Correct":32,"Choice":-1,"RT":-1,"Accuracy":0,"Outcome":"+1","Keys":[],"TotalKeys":0,"Block":2,"Trial":220,"Robot":1,"Valence":"Win","Action":"Go","Sham":0,"Color":"yellow","trial_type":"pit-trial","trial_index":242,"time_elapsed":1239123,"internal_node_id":"0.0-231.0","task_version":"test-retest"},{"Rune":"rune_02_os","Hex":"#ffcc3399","Correct":32,"Choice":-1,"RT":-1,"Accuracy":0,"Outcome":"+10","Keys":[],"TotalKeys":0,"Block":2,"Trial":221,"Robot":1,"Valence":"Win","Action":"Go","Sham":1,"Color":"yellow","trial_type":"pit-trial","trial_index":243,"time_elapsed":1243127,"internal_node_id":"0.0-232.0","task_version":"test-retest"},{"Rune":"rune_02_raido","Hex":"#3366ff99","Correct":32,"Choice":-1,"RT":-1,"Accuracy":0,"Outcome":"-10","Keys":[],"TotalKeys":0,"Block":2,"Trial":222,"Robot":3,"Valence":"Lose","Action":"Go","Sham":0,"Color":"blue","trial_type":"pit-trial","trial_index":244,"time_elapsed":1247131,"internal_node_id":"0.0-233.0","task_version":"test-retest"},{"Rune":"rune_02_cen","Hex":"#ffcc3399","Correct":-1,"Choice":-1,"RT":-1,"Accuracy":1,"Outcome":"+10","Keys":[],"TotalKeys":0,"Block":2,"Trial":223,"Robot":2,"Valence":"Win","Action":"No-Go","Sham":0,"Color":"yellow","trial_type":"pit-trial","trial_index":245,"time_elapsed":1251136,"internal_node_id":"0.0-234.0","task_version":"test-retest"},{"Rune":"rune_02_haglaz","Hex":"#3366ff99","Correct":-1,"Choice":-1,"RT":-1,"Accuracy":1,"Outcome":"-10","Keys":[],"TotalKeys":0,"Block":2,"Trial":224,"Robot":4,"Valence":"Lose","Action":"No-Go","Sham":1,"Color":"blue","trial_type":"pit-trial","trial_index":246,"time_elapsed":1255139,"internal_node_id":"0.0-235.0","task_version":"test-retest"},{"Rune":"rune_02_haglaz","Hex":"#3366ff99","Correct":-1,"Choice":-1,"RT":-1,"Accuracy":1,"Outcome":"-1","Keys":[],"TotalKeys":0,"Block":2,"Trial":225,"Robot":4,"Valence":"Lose","Action":"No-Go","Sham":0,"Color":"blue","trial_type":"pit-trial","trial_index":247,"time_elapsed":1259144,"internal_node_id":"0.0-236.0","task_version":"test-retest"},{"Rune":"rune_02_cen","Hex":"#ffcc3399","Correct":-1,"Choice":-1,"RT":-1,"Accuracy":1,"Outcome":"+10","Keys":[],"TotalKeys":0,"Block":2,"Trial":226,"Robot":2,"Valence":"Win","Action":"No-Go","Sham":0,"Color":"yellow","trial_type":"pit-trial","trial_index":248,"time_elapsed":1263147,"internal_node_id":"0.0-237.0","task_version":"test-retest"},{"Rune":"rune_02_raido","Hex":"#3366ff99","Correct":32,"Choice":-1,"RT":-1,"Accuracy":0,"Outcome":"-10","Keys":[],"TotalKeys":0,"Block":2,"Trial":227,"Robot":3,"Valence":"Lose","Action":"Go","Sham":0,"Color":"blue","trial_type":"pit-trial","trial_index":249,"time_elapsed":1267151,"internal_node_id":"0.0-238.0","task_version":"test-retest"},{"Rune":"rune_02_os","Hex":"#ffcc3399","Correct":32,"Choice":-1,"RT":-1,"Accuracy":0,"Outcome":"+1","Keys":[],"TotalKeys":0,"Block":2,"Trial":228,"Robot":1,"Valence":"Win","Action":"Go","Sham":0,"Color":"yellow","trial_type":"pit-trial","trial_index":250,"time_elapsed":1271157,"internal_node_id":"0.0-239.0","task_version":"test-retest"},{"Rune":"rune_02_cen","Hex":"#ffcc3399","Correct":-1,"Choice":-1,"RT":-1,"Accuracy":1,"Outcome":"+10","Keys":[],"TotalKeys":0,"Block":2,"Trial":229,"Robot":2,"Valence":"Win","Action":"No-Go","Sham":0,"Color":"yellow","trial_type":"pit-trial","trial_index":251,"time_elapsed":1275161,"internal_node_id":"0.0-240.0","task_version":"test-retest"},{"Rune":"rune_02_haglaz","Hex":"#3366ff99","Correct":-1,"Choice":-1,"RT":-1,"Accuracy":1,"Outcome":"-1","Keys":[],"TotalKeys":0,"Block":2,"Trial":230,"Robot":4,"Valence":"Lose","Action":"No-Go","Sham":0,"Color":"blue","trial_type":"pit-trial","trial_index":252,"time_elapsed":1280211,"internal_node_id":"0.0-241.0","task_version":"test-retest"},{"Rune":"rune_02_raido","Hex":"#3366ff99","Correct":32,"Choice":-1,"RT":-1,"Accuracy":0,"Outcome":"-10","Keys":[],"TotalKeys":0,"Block":2,"Trial":231,"Robot":3,"Valence":"Lose","Action":"Go","Sham":0,"Color":"blue","trial_type":"pit-trial","trial_index":253,"time_elapsed":1285654,"internal_node_id":"0.0-242.0","task_version":"test-retest"},{"Rune":"rune_02_os","Hex":"#ffcc3399","Correct":32,"Choice":-1,"RT":-1,"Accuracy":0,"Outcome":"+1","Keys":[],"TotalKeys":0,"Block":2,"Trial":232,"Robot":1,"Valence":"Win","Action":"Go","Sham":0,"Color":"yellow","trial_type":"pit-trial","trial_index":254,"time_elapsed":1289657,"internal_node_id":"0.0-243.0","task_version":"test-retest"},{"Rune":"rune_02_haglaz","Hex":"#3366ff99","Correct":-1,"Choice":-1,"RT":-1,"Accuracy":1,"Outcome":"-1","Keys":[],"TotalKeys":0,"Block":2,"Trial":233,"Robot":4,"Valence":"Lose","Action":"No-Go","Sham":0,"Color":"blue","trial_type":"pit-trial","trial_index":255,"time_elapsed":1293661,"internal_node_id":"0.0-244.0","task_version":"test-retest"},{"Rune":"rune_02_cen","Hex":"#ffcc3399","Correct":-1,"Choice":-1,"RT":-1,"Accuracy":1,"Outcome":"+10","Keys":[],"TotalKeys":0,"Block":2,"Trial":234,"Robot":2,"Valence":"Win","Action":"No-Go","Sham":0,"Color":"yellow","trial_type":"pit-trial","trial_index":256,"time_elapsed":1297665,"internal_node_id":"0.0-245.0","task_version":"test-retest"},{"Rune":"rune_02_raido","Hex":"#3366ff99","Correct":32,"Choice":-1,"RT":-1,"Accuracy":0,"Outcome":"-10","Keys":[],"TotalKeys":0,"Block":2,"Trial":235,"Robot":3,"Valence":"Lose","Action":"Go","Sham":0,"Color":"blue","trial_type":"pit-trial","trial_index":257,"time_elapsed":1301669,"internal_node_id":"0.0-246.0","task_version":"test-retest"},{"Rune":"rune_02_os","Hex":"#ffcc3399","Correct":32,"Choice":-1,"RT":-1,"Accuracy":0,"Outcome":"+1","Keys":[],"TotalKeys":0,"Block":2,"Trial":236,"Robot":1,"Valence":"Win","Action":"Go","Sham":0,"Color":"yellow","trial_type":"pit-trial","trial_index":258,"time_elapsed":1305673,"internal_node_id":"0.0-247.0","task_version":"test-retest"},{"Rune":"rune_02_haglaz","Hex":"#3366ff99","Correct":-1,"Choice":-1,"RT":-1,"Accuracy":1,"Outcome":"-1","Keys":[],"TotalKeys":0,"Block":2,"Trial":237,"Robot":4,"Valence":"Lose","Action":"No-Go","Sham":0,"Color":"blue","trial_type":"pit-trial","trial_index":259,"time_elapsed":1309676,"internal_node_id":"0.0-248.0","task_version":"test-retest"},{"Rune":"rune_02_os","Hex":"#ffcc3399","Correct":32,"Choice":-1,"RT":-1,"Accuracy":0,"Outcome":"+1","Keys":[],"TotalKeys":0,"Block":2,"Trial":238,"Robot":1,"Valence":"Win","Action":"Go","Sham":0,"Color":"yellow","trial_type":"pit-trial","trial_index":260,"time_elapsed":1313682,"internal_node_id":"0.0-249.0","task_version":"test-retest"},{"Rune":"rune_02_cen","Hex":"#ffcc3399","Correct":-1,"Choice":-1,"RT":-1,"Accuracy":1,"Outcome":"+1","Keys":[],"TotalKeys":0,"Block":2,"Trial":239,"Robot":2,"Valence":"Win","Action":"No-Go","Sham":1,"Color":"yellow","trial_type":"pit-trial","trial_index":261,"time_elapsed":1317686,"internal_node_id":"0.0-250.0","task_version":"test-retest"},{"Rune":"rune_02_raido","Hex":"#3366ff99","Correct":32,"Choice":-1,"RT":-1,"Accuracy":0,"Outcome":"-1","Keys":[],"TotalKeys":0,"Block":2,"Trial":240,"Robot":3,"Valence":"Lose","Action":"Go","Sham":1,"Color":"blue","trial_type":"pit-trial","trial_index":262,"time_elapsed":1321691,"internal_node_id":"0.0-251.0","task_version":"test-retest"},{"view_history":"[{\"page_index\":0,\"viewing_time\":3787.5549999880604}]","rt":3788.1599999964237,"trial_type":"pit-instructions","trial_index":263,"time_elapsed":1325480,"internal_node_id":"0.0-252.0","task_version":"test-retest"},{"rt":28519.96499998495,"responses":{"age":"35","gender-categorical":"Female","gender-free-response":"","ethnicity":"Not Hispanic or Latino","race":"White","language":"Yes","fluency":"Very well"},"survey":"demographics","trial_type":"survey-demo","trial_index":264,"time_elapsed":1354009,"internal_node_id":"0.0-253.0","task_version":"test-retest"},{"rt":8466.699999989942,"responses":{"difficulty":"5","fun":"4","clarity":"5","strategy":"","feedback":""},"survey":"debrief","trial_type":"survey-debrief","trial_index":265,"time_elapsed":1362480,"internal_node_id":"0.0-254.0","task_version":"test-retest"},{"rt":4992.310000001453,"stimulus":"You earned a bonus of $0.76 out of $1.5.<br><br>Press any key to complete the experiment.","key_press":32,"trial_type":"html-keyboard-response","trial_index":266,"time_elapsed":1367475,"internal_node_id":"0.0-255.0","task_version":"test-retest","accuracy":0.5041666666666667,"bonus":0.76,"interactions":"[{\"event\":\"blur\",\"trial\":18,\"time\":316122},{\"event\":\"focus\",\"trial\":18,\"time\":327613},{\"event\":\"blur\",\"trial\":27,\"time\":367040},{\"event\":\"focus\",\"trial\":28,\"time\":372320},{\"event\":\"blur\",\"trial\":77,\"time\":553719},{\"event\":\"focus\",\"trial\":78,\"time\":558935},{\"event\":\"blur\",\"trial\":252,\"time\":1276161},{\"event\":\"focus\",\"trial\":254,\"time\":1285657},{\"event\":\"blur\",\"trial\":256,\"time\":1296415},{\"event\":\"focus\",\"trial\":258,\"time\":1302762}]"}]