subject,session,block,trial,exposure,stimulus,valence,action,robot,rune,color,correct,choice,rt,accuracy,sham,outcome,totalkeys
0ubclurpshlgyru3cwo3stun,1,1,1,1,1,win,no-go,ngw,rune_02_os,yellow,0,1,0.396,0,0.0,+1,1
0ubclurpshlgyru3cwo3stun,1,1,2,1,2,win,go,gw,rune_02_cen,yellow,1,1,0.561,1,0.0,+10,1
0ubclurpshlgyru3cwo3stun,1,1,3,1,3,lose,go,gal,rune_02_raido,blue,1,1,0.577,1,0.0,-1,1
0ubclurpshlgyru3cwo3stun,1,1,4,1,4,lose,no-go,ngal,rune_02_haglaz,blue,0,0,,1,0.0,-1,0
0ubclurpshlgyru3cwo3stun,1,1,5,2,1,win,no-go,ngw,rune_02_os,yellow,0,1,0.614,0,0.0,+1,1
0ubclurpshlgyru3cwo3stun,1,1,6,2,2,win,go,gw,rune_02_cen,yellow,1,1,0.455,1,0.0,+10,1
0ubclurpshlgyru3cwo3stun,1,1,7,2,3,lose,go,gal,rune_02_raido,blue,1,0,,0,0.0,-10,0
0ubclurpshlgyru3cwo3stun,1,1,8,2,4,lose,no-go,ngal,rune_02_haglaz,blue,0,1,0.752,0,1.0,-1,1
0ubclurpshlgyru3cwo3stun,1,1,9,3,3,lose,go,gal,rune_02_raido,blue,1,1,0.958,1,1.0,-10,1
0ubclurpshlgyru3cwo3stun,1,1,10,3,1,win,no-go,ngw,rune_02_os,yellow,0,1,0.76,0,0.0,+1,1
0ubclurpshlgyru3cwo3stun,1,1,11,3,4,lose,no-go,ngal,rune_02_haglaz,blue,0,1,0.803,0,0.0,-10,1
0ubclurpshlgyru3cwo3stun,1,1,12,3,2,win,go,gw,rune_02_cen,yellow,1,1,0.633,1,0.0,+10,1
0ubclurpshlgyru3cwo3stun,1,1,13,4,4,lose,no-go,ngal,rune_02_haglaz,blue,0,0,,1,0.0,-1,0
0ubclurpshlgyru3cwo3stun,1,1,14,4,2,win,go,gw,rune_02_cen,yellow,1,1,0.625,1,1.0,+1,1
0ubclurpshlgyru3cwo3stun,1,1,15,4,1,win,no-go,ngw,rune_02_os,yellow,0,1,0.965,0,0.0,+1,1
0ubclurpshlgyru3cwo3stun,1,1,16,4,3,lose,go,gal,rune_02_raido,blue,1,0,,0,0.0,-10,0
0ubclurpshlgyru3cwo3stun,1,1,17,5,3,lose,go,gal,rune_02_raido,blue,1,1,0.528,1,0.0,-1,1
0ubclurpshlgyru3cwo3stun,1,1,18,5,2,win,go,gw,rune_02_cen,yellow,1,1,0.592,1,0.0,+10,1
0ubclurpshlgyru3cwo3stun,1,1,19,5,4,lose,no-go,ngal,rune_02_haglaz,blue,0,0,,1,0.0,-1,0
0ubclurpshlgyru3cwo3stun,1,1,20,5,1,win,no-go,ngw,rune_02_os,yellow,0,0,,1,1.0,+1,0
0ubclurpshlgyru3cwo3stun,1,1,21,6,4,lose,no-go,ngal,rune_02_haglaz,blue,0,0,,1,0.0,-1,0
0ubclurpshlgyru3cwo3stun,1,1,22,6,2,win,go,gw,rune_02_cen,yellow,1,1,0.446,1,0.0,+10,1
0ubclurpshlgyru3cwo3stun,1,1,23,6,1,win,no-go,ngw,rune_02_os,yellow,0,0,,1,0.0,+10,0
0ubclurpshlgyru3cwo3stun,1,1,24,6,3,lose,go,gal,rune_02_raido,blue,1,1,1.059,1,0.0,-1,1
0ubclurpshlgyru3cwo3stun,1,1,25,7,4,lose,no-go,ngal,rune_02_haglaz,blue,0,0,,1,1.0,-10,0
0ubclurpshlgyru3cwo3stun,1,1,26,7,2,win,go,gw,rune_02_cen,yellow,1,1,0.729,1,0.0,+10,1
0ubclurpshlgyru3cwo3stun,1,1,27,7,3,lose,go,gal,rune_02_raido,blue,1,1,1.241,1,0.0,-1,1
0ubclurpshlgyru3cwo3stun,1,1,28,7,1,win,no-go,ngw,rune_02_os,yellow,0,0,,1,0.0,+10,0
0ubclurpshlgyru3cwo3stun,1,1,29,8,2,win,go,gw,rune_02_cen,yellow,1,1,0.507,1,0.0,+10,1
0ubclurpshlgyru3cwo3stun,1,1,30,8,1,win,no-go,ngw,rune_02_os,yellow,0,0,,1,0.0,+10,0
0ubclurpshlgyru3cwo3stun,1,1,31,8,3,lose,go,gal,rune_02_raido,blue,1,1,0.918,1,1.0,-10,1
0ubclurpshlgyru3cwo3stun,1,1,32,8,4,lose,no-go,ngal,rune_02_haglaz,blue,0,0,,1,0.0,-1,0
0ubclurpshlgyru3cwo3stun,1,1,33,9,2,win,go,gw,rune_02_cen,yellow,1,1,0.426,1,0.0,+10,1
0ubclurpshlgyru3cwo3stun,1,1,34,9,3,lose,go,gal,rune_02_raido,blue,1,1,0.532,1,0.0,-1,1
0ubclurpshlgyru3cwo3stun,1,1,35,9,4,lose,no-go,ngal,rune_02_haglaz,blue,0,0,,1,0.0,-1,0
0ubclurpshlgyru3cwo3stun,1,1,36,9,1,win,no-go,ngw,rune_02_os,yellow,0,0,,1,1.0,+1,0
0ubclurpshlgyru3cwo3stun,1,1,37,10,4,lose,no-go,ngal,rune_02_haglaz,blue,0,0,,1,0.0,-1,0
0ubclurpshlgyru3cwo3stun,1,1,38,10,2,win,go,gw,rune_02_cen,yellow,1,1,0.31,1,1.0,+1,1
0ubclurpshlgyru3cwo3stun,1,1,39,10,1,win,no-go,ngw,rune_02_os,yellow,0,0,,1,0.0,+10,0
0ubclurpshlgyru3cwo3stun,1,1,40,10,3,lose,go,gal,rune_02_raido,blue,1,1,0.481,1,0.0,-1,1
0ubclurpshlgyru3cwo3stun,1,1,41,11,1,win,no-go,ngw,rune_02_os,yellow,0,0,,1,0.0,+10,0
0ubclurpshlgyru3cwo3stun,1,1,42,11,2,win,go,gw,rune_02_cen,yellow,1,1,0.374,1,0.0,+10,1
0ubclurpshlgyru3cwo3stun,1,1,43,11,4,lose,no-go,ngal,rune_02_haglaz,blue,0,0,,1,0.0,-1,0
0ubclurpshlgyru3cwo3stun,1,1,44,11,3,lose,go,gal,rune_02_raido,blue,1,1,0.605,1,0.0,-1,1
0ubclurpshlgyru3cwo3stun,1,1,45,12,2,win,go,gw,rune_02_cen,yellow,1,1,0.4,1,0.0,+10,1
0ubclurpshlgyru3cwo3stun,1,1,46,12,1,win,no-go,ngw,rune_02_os,yellow,0,0,,1,1.0,+1,0
0ubclurpshlgyru3cwo3stun,1,1,47,12,3,lose,go,gal,rune_02_raido,blue,1,1,0.672,1,0.0,-1,1
0ubclurpshlgyru3cwo3stun,1,1,48,12,4,lose,no-go,ngal,rune_02_haglaz,blue,0,0,,1,0.0,-1,0
0ubclurpshlgyru3cwo3stun,1,1,49,13,3,lose,go,gal,rune_02_raido,blue,1,1,0.621,1,0.0,-1,1
0ubclurpshlgyru3cwo3stun,1,1,50,13,2,win,go,gw,rune_02_cen,yellow,1,1,0.47,1,0.0,+10,1
0ubclurpshlgyru3cwo3stun,1,1,51,13,4,lose,no-go,ngal,rune_02_haglaz,blue,0,0,,1,1.0,-10,0
0ubclurpshlgyru3cwo3stun,1,1,52,13,1,win,no-go,ngw,rune_02_os,yellow,0,0,,1,0.0,+10,0
0ubclurpshlgyru3cwo3stun,1,1,53,14,2,win,go,gw,rune_02_cen,yellow,1,1,0.396,1,0.0,+10,1
0ubclurpshlgyru3cwo3stun,1,1,54,14,3,lose,go,gal,rune_02_raido,blue,1,1,0.413,1,1.0,-10,1
0ubclurpshlgyru3cwo3stun,1,1,55,14,4,lose,no-go,ngal,rune_02_haglaz,blue,0,0,,1,0.0,-1,0
0ubclurpshlgyru3cwo3stun,1,1,56,14,1,win,no-go,ngw,rune_02_os,yellow,0,0,,1,0.0,+10,0
0ubclurpshlgyru3cwo3stun,1,1,57,15,3,lose,go,gal,rune_02_raido,blue,1,1,0.569,1,0.0,-1,1
0ubclurpshlgyru3cwo3stun,1,1,58,15,1,win,no-go,ngw,rune_02_os,yellow,0,0,,1,0.0,+10,0
0ubclurpshlgyru3cwo3stun,1,1,59,15,4,lose,no-go,ngal,rune_02_haglaz,blue,0,0,,1,0.0,-1,0
0ubclurpshlgyru3cwo3stun,1,1,60,15,2,win,go,gw,rune_02_cen,yellow,1,1,0.341,1,1.0,+1,1
0ubclurpshlgyru3cwo3stun,1,1,61,16,1,win,no-go,ngw,rune_02_os,yellow,0,0,,1,0.0,+10,0
0ubclurpshlgyru3cwo3stun,1,1,62,16,2,win,go,gw,rune_02_cen,yellow,1,1,0.389,1,0.0,+10,1
0ubclurpshlgyru3cwo3stun,1,1,63,16,4,lose,no-go,ngal,rune_02_haglaz,blue,0,0,,1,0.0,-1,0
0ubclurpshlgyru3cwo3stun,1,1,64,16,3,lose,go,gal,rune_02_raido,blue,1,1,0.614,1,0.0,-1,1
0ubclurpshlgyru3cwo3stun,1,1,65,17,4,lose,no-go,ngal,rune_02_haglaz,blue,0,0,,1,0.0,-1,0
0ubclurpshlgyru3cwo3stun,1,1,66,17,3,lose,go,gal,rune_02_raido,blue,1,1,0.511,1,0.0,-1,1
0ubclurpshlgyru3cwo3stun,1,1,67,17,2,win,go,gw,rune_02_cen,yellow,1,1,0.371,1,1.0,+1,1
0ubclurpshlgyru3cwo3stun,1,1,68,17,1,win,no-go,ngw,rune_02_os,yellow,0,1,0.409,0,0.0,+1,1
0ubclurpshlgyru3cwo3stun,1,1,69,18,1,win,no-go,ngw,rune_02_os,yellow,0,0,,1,1.0,+1,0
0ubclurpshlgyru3cwo3stun,1,1,70,18,2,win,go,gw,rune_02_cen,yellow,1,1,0.366,1,0.0,+10,1
0ubclurpshlgyru3cwo3stun,1,1,71,18,4,lose,no-go,ngal,rune_02_haglaz,blue,0,0,,1,1.0,-10,0
0ubclurpshlgyru3cwo3stun,1,1,72,18,3,lose,go,gal,rune_02_raido,blue,1,1,0.463,1,0.0,-1,1
0ubclurpshlgyru3cwo3stun,1,1,73,19,1,win,no-go,ngw,rune_02_os,yellow,0,0,,1,0.0,+10,0
0ubclurpshlgyru3cwo3stun,1,1,74,19,3,lose,go,gal,rune_02_raido,blue,1,1,0.531,1,1.0,-10,1
0ubclurpshlgyru3cwo3stun,1,1,75,19,2,win,go,gw,rune_02_cen,yellow,1,1,0.471,1,0.0,+10,1
0ubclurpshlgyru3cwo3stun,1,1,76,19,4,lose,no-go,ngal,rune_02_haglaz,blue,0,0,,1,0.0,-1,0
0ubclurpshlgyru3cwo3stun,1,1,77,20,3,lose,go,gal,rune_02_raido,blue,1,1,0.483,1,0.0,-1,1
0ubclurpshlgyru3cwo3stun,1,1,78,20,1,win,no-go,ngw,rune_02_os,yellow,0,0,,1,0.0,+10,0
0ubclurpshlgyru3cwo3stun,1,1,79,20,4,lose,no-go,ngal,rune_02_haglaz,blue,0,0,,1,0.0,-1,0
0ubclurpshlgyru3cwo3stun,1,1,80,20,2,win,go,gw,rune_02_cen,yellow,1,1,0.49,1,0.0,+10,1
0ubclurpshlgyru3cwo3stun,1,1,81,21,3,lose,go,gal,rune_02_raido,blue,1,1,0.724,1,0.0,-1,1
0ubclurpshlgyru3cwo3stun,1,1,82,21,4,lose,no-go,ngal,rune_02_haglaz,blue,0,0,,1,0.0,-1,0
0ubclurpshlgyru3cwo3stun,1,1,83,21,2,win,go,gw,rune_02_cen,yellow,1,1,0.399,1,0.0,+10,1
0ubclurpshlgyru3cwo3stun,1,1,84,21,1,win,no-go,ngw,rune_02_os,yellow,0,0,,1,0.0,+10,0
0ubclurpshlgyru3cwo3stun,1,1,85,22,4,lose,no-go,ngal,rune_02_haglaz,blue,0,0,,1,0.0,-1,0
0ubclurpshlgyru3cwo3stun,1,1,86,22,3,lose,go,gal,rune_02_raido,blue,1,1,0.36,1,0.0,-1,1
0ubclurpshlgyru3cwo3stun,1,1,87,22,1,win,no-go,ngw,rune_02_os,yellow,0,0,,1,0.0,+10,0
0ubclurpshlgyru3cwo3stun,1,1,88,22,2,win,go,gw,rune_02_cen,yellow,1,1,0.327,1,0.0,+10,1
0ubclurpshlgyru3cwo3stun,1,1,89,23,1,win,no-go,ngw,rune_02_os,yellow,0,0,,1,0.0,+10,0
0ubclurpshlgyru3cwo3stun,1,1,90,23,4,lose,no-go,ngal,rune_02_haglaz,blue,0,0,,1,0.0,-1,0
0ubclurpshlgyru3cwo3stun,1,1,91,23,2,win,go,gw,rune_02_cen,yellow,1,1,0.484,1,0.0,+10,1
0ubclurpshlgyru3cwo3stun,1,1,92,23,3,lose,go,gal,rune_02_raido,blue,1,1,0.496,1,0.0,-1,1
0ubclurpshlgyru3cwo3stun,1,1,93,24,4,lose,no-go,ngal,rune_02_haglaz,blue,0,0,,1,0.0,-1,0
0ubclurpshlgyru3cwo3stun,1,1,94,24,2,win,go,gw,rune_02_cen,yellow,1,1,0.455,1,1.0,+1,1
0ubclurpshlgyru3cwo3stun,1,1,95,24,1,win,no-go,ngw,rune_02_os,yellow,0,0,,1,0.0,+10,0
0ubclurpshlgyru3cwo3stun,1,1,96,24,3,lose,go,gal,rune_02_raido,blue,1,1,0.471,1,0.0,-1,1
0ubclurpshlgyru3cwo3stun,1,1,97,25,2,win,go,gw,rune_02_cen,yellow,1,1,1.113,1,0.0,+10,1
0ubclurpshlgyru3cwo3stun,1,1,98,25,1,win,no-go,ngw,rune_02_os,yellow,0,0,,1,1.0,+1,0
0ubclurpshlgyru3cwo3stun,1,1,99,25,3,lose,go,gal,rune_02_raido,blue,1,1,0.423,1,1.0,-10,1
0ubclurpshlgyru3cwo3stun,1,1,100,25,4,lose,no-go,ngal,rune_02_haglaz,blue,0,0,,1,1.0,-10,0
0ubclurpshlgyru3cwo3stun,1,1,101,26,3,lose,go,gal,rune_02_raido,blue,1,1,0.506,1,1.0,-10,1
0ubclurpshlgyru3cwo3stun,1,1,102,26,4,lose,no-go,ngal,rune_02_haglaz,blue,0,0,,1,1.0,-10,0
0ubclurpshlgyru3cwo3stun,1,1,103,26,2,win,go,gw,rune_02_cen,yellow,1,1,0.56,1,1.0,+1,1
0ubclurpshlgyru3cwo3stun,1,1,104,26,1,win,no-go,ngw,rune_02_os,yellow,0,1,0.36,0,0.0,+1,1
0ubclurpshlgyru3cwo3stun,1,1,105,27,3,lose,go,gal,rune_02_raido,blue,1,1,0.352,1,0.0,-1,1
0ubclurpshlgyru3cwo3stun,1,1,106,27,4,lose,no-go,ngal,rune_02_haglaz,blue,0,0,,1,0.0,-1,0
0ubclurpshlgyru3cwo3stun,1,1,107,27,1,win,no-go,ngw,rune_02_os,yellow,0,1,0.701,0,0.0,+1,1
0ubclurpshlgyru3cwo3stun,1,1,108,27,2,win,go,gw,rune_02_cen,yellow,1,1,0.337,1,0.0,+10,1
0ubclurpshlgyru3cwo3stun,1,1,109,28,2,win,go,gw,rune_02_cen,yellow,1,1,0.425,1,0.0,+10,1
0ubclurpshlgyru3cwo3stun,1,1,110,28,1,win,no-go,ngw,rune_02_os,yellow,0,0,,1,0.0,+10,0
0ubclurpshlgyru3cwo3stun,1,1,111,28,3,lose,go,gal,rune_02_raido,blue,1,1,0.445,1,0.0,-1,1
0ubclurpshlgyru3cwo3stun,1,1,112,28,4,lose,no-go,ngal,rune_02_haglaz,blue,0,0,,1,0.0,-1,0
0ubclurpshlgyru3cwo3stun,1,1,113,29,3,lose,go,gal,rune_02_raido,blue,1,1,0.536,1,0.0,-1,1
0ubclurpshlgyru3cwo3stun,1,1,114,29,2,win,go,gw,rune_02_cen,yellow,1,1,0.392,1,0.0,+10,1
0ubclurpshlgyru3cwo3stun,1,1,115,29,1,win,no-go,ngw,rune_02_os,yellow,0,0,,1,1.0,+1,0
0ubclurpshlgyru3cwo3stun,1,1,116,29,4,lose,no-go,ngal,rune_02_haglaz,blue,0,0,,1,0.0,-1,0
0ubclurpshlgyru3cwo3stun,1,1,117,30,3,lose,go,gal,rune_02_raido,blue,1,1,0.521,1,0.0,-1,1
0ubclurpshlgyru3cwo3stun,1,1,118,30,2,win,go,gw,rune_02_cen,yellow,1,1,0.374,1,0.0,+10,1
0ubclurpshlgyru3cwo3stun,1,1,119,30,4,lose,no-go,ngal,rune_02_haglaz,blue,0,0,,1,0.0,-1,0
0ubclurpshlgyru3cwo3stun,1,1,120,30,1,win,no-go,ngw,rune_02_os,yellow,0,0,,1,0.0,+10,0
0ubclurpshlgyru3cwo3stun,1,2,121,1,5,lose,no-go,ngal,rune_01_ingwaz,blue,0,1,0.496,0,0.0,-10,1
0ubclurpshlgyru3cwo3stun,1,2,122,1,6,lose,go,gal,rune_01_ear,blue,1,1,0.476,1,0.0,-1,1
0ubclurpshlgyru3cwo3stun,1,2,123,1,7,win,no-go,ngw,rune_01_yr,yellow,0,1,0.587,0,0.0,+1,1
0ubclurpshlgyru3cwo3stun,1,2,124,1,8,win,go,gw,rune_01_ger,yellow,1,1,0.698,1,0.0,+10,1
0ubclurpshlgyru3cwo3stun,1,2,125,2,5,lose,no-go,ngal,rune_01_ingwaz,blue,0,0,,1,1.0,-10,0
0ubclurpshlgyru3cwo3stun,1,2,126,2,7,win,no-go,ngw,rune_01_yr,yellow,0,0,,1,0.0,+10,0
0ubclurpshlgyru3cwo3stun,1,2,127,2,8,win,go,gw,rune_01_ger,yellow,1,1,0.823,1,0.0,+10,1
0ubclurpshlgyru3cwo3stun,1,2,128,2,6,lose,go,gal,rune_01_ear,blue,1,0,,0,0.0,-10,0
0ubclurpshlgyru3cwo3stun,1,2,129,3,7,win,no-go,ngw,rune_01_yr,yellow,0,0,,1,0.0,+10,0
0ubclurpshlgyru3cwo3stun,1,2,130,3,5,lose,no-go,ngal,rune_01_ingwaz,blue,0,1,0.731,0,0.0,-10,1
0ubclurpshlgyru3cwo3stun,1,2,131,3,6,lose,go,gal,rune_01_ear,blue,1,1,1.252,1,1.0,-10,1
0ubclurpshlgyru3cwo3stun,1,2,132,3,8,win,go,gw,rune_01_ger,yellow,1,1,0.394,1,0.0,+10,1
0ubclurpshlgyru3cwo3stun,1,2,133,4,6,lose,go,gal,rune_01_ear,blue,1,1,0.591,1,0.0,-1,1
0ubclurpshlgyru3cwo3stun,1,2,134,4,7,win,no-go,ngw,rune_01_yr,yellow,0,0,,1,0.0,+10,0
0ubclurpshlgyru3cwo3stun,1,2,135,4,8,win,go,gw,rune_01_ger,yellow,1,1,0.536,1,1.0,+1,1
0ubclurpshlgyru3cwo3stun,1,2,136,4,5,lose,no-go,ngal,rune_01_ingwaz,blue,0,0,,1,0.0,-1,0
0ubclurpshlgyru3cwo3stun,1,2,137,5,6,lose,go,gal,rune_01_ear,blue,1,1,1.232,1,0.0,-1,1
0ubclurpshlgyru3cwo3stun,1,2,138,5,7,win,no-go,ngw,rune_01_yr,yellow,0,0,,1,1.0,+1,0
0ubclurpshlgyru3cwo3stun,1,2,139,5,5,lose,no-go,ngal,rune_01_ingwaz,blue,0,0,,1,0.0,-1,0
0ubclurpshlgyru3cwo3stun,1,2,140,5,8,win,go,gw,rune_01_ger,yellow,1,1,0.496,1,0.0,+10,1
0ubclurpshlgyru3cwo3stun,1,2,141,6,7,win,no-go,ngw,rune_01_yr,yellow,0,0,,1,0.0,+10,0
0ubclurpshlgyru3cwo3stun,1,2,142,6,5,lose,no-go,ngal,rune_01_ingwaz,blue,0,0,,1,0.0,-1,0
0ubclurpshlgyru3cwo3stun,1,2,143,6,6,lose,go,gal,rune_01_ear,blue,1,1,0.437,1,0.0,-1,1
0ubclurpshlgyru3cwo3stun,1,2,144,6,8,win,go,gw,rune_01_ger,yellow,1,1,0.466,1,0.0,+10,1
0ubclurpshlgyru3cwo3stun,1,2,145,7,7,win,no-go,ngw,rune_01_yr,yellow,0,0,,1,0.0,+10,0
0ubclurpshlgyru3cwo3stun,1,2,146,7,6,lose,go,gal,rune_01_ear,blue,1,1,0.832,1,0.0,-1,1
0ubclurpshlgyru3cwo3stun,1,2,147,7,5,lose,no-go,ngal,rune_01_ingwaz,blue,0,0,,1,1.0,-10,0
0ubclurpshlgyru3cwo3stun,1,2,148,7,8,win,go,gw,rune_01_ger,yellow,1,1,0.426,1,0.0,+10,1
0ubclurpshlgyru3cwo3stun,1,2,149,8,6,lose,go,gal,rune_01_ear,blue,1,1,0.682,1,1.0,-10,1
0ubclurpshlgyru3cwo3stun,1,2,150,8,8,win,go,gw,rune_01_ger,yellow,1,1,0.576,1,0.0,+10,1
0ubclurpshlgyru3cwo3stun,1,2,151,8,5,lose,no-go,ngal,rune_01_ingwaz,blue,0,0,,1,0.0,-1,0
0ubclurpshlgyru3cwo3stun,1,2,152,8,7,win,no-go,ngw,rune_01_yr,yellow,0,0,,1,0.0,+10,0
0ubclurpshlgyru3cwo3stun,1,2,153,9,8,win,go,gw,rune_01_ger,yellow,1,1,0.383,1,0.0,+10,1
0ubclurpshlgyru3cwo3stun,1,2,154,9,5,lose,no-go,ngal,rune_01_ingwaz,blue,0,0,,1,0.0,-1,0
0ubclurpshlgyru3cwo3stun,1,2,155,9,6,lose,go,gal,rune_01_ear,blue,1,1,0.424,1,0.0,-1,1
0ubclurpshlgyru3cwo3stun,1,2,156,9,7,win,no-go,ngw,rune_01_yr,yellow,0,0,,1,1.0,+1,0
0ubclurpshlgyru3cwo3stun,1,2,157,10,5,lose,no-go,ngal,rune_01_ingwaz,blue,0,0,,1,0.0,-1,0
0ubclurpshlgyru3cwo3stun,1,2,158,10,7,win,no-go,ngw,rune_01_yr,yellow,0,0,,1,0.0,+10,0
0ubclurpshlgyru3cwo3stun,1,2,159,10,8,win,go,gw,rune_01_ger,yellow,1,1,0.366,1,1.0,+1,1
0ubclurpshlgyru3cwo3stun,1,2,160,10,6,lose,go,gal,rune_01_ear,blue,1,1,0.512,1,0.0,-1,1
0ubclurpshlgyru3cwo3stun,1,2,161,11,7,win,no-go,ngw,rune_01_yr,yellow,0,0,,1,0.0,+10,0
0ubclurpshlgyru3cwo3stun,1,2,162,11,5,lose,no-go,ngal,rune_01_ingwaz,blue,0,0,,1,0.0,-1,0
0ubclurpshlgyru3cwo3stun,1,2,163,11,6,lose,go,gal,rune_01_ear,blue,1,1,0.462,1,0.0,-1,1
0ubclurpshlgyru3cwo3stun,1,2,164,11,8,win,go,gw,rune_01_ger,yellow,1,1,0.335,1,0.0,+10,1
0ubclurpshlgyru3cwo3stun,1,2,165,12,7,win,no-go,ngw,rune_01_yr,yellow,0,0,,1,1.0,+1,0
0ubclurpshlgyru3cwo3stun,1,2,166,12,6,lose,go,gal,rune_01_ear,blue,1,1,0.37,1,0.0,-1,1
0ubclurpshlgyru3cwo3stun,1,2,167,12,8,win,go,gw,rune_01_ger,yellow,1,1,0.426,1,0.0,+10,1
0ubclurpshlgyru3cwo3stun,1,2,168,12,5,lose,no-go,ngal,rune_01_ingwaz,blue,0,0,,1,0.0,-1,0
0ubclurpshlgyru3cwo3stun,1,2,169,13,5,lose,no-go,ngal,rune_01_ingwaz,blue,0,0,,1,1.0,-10,0
0ubclurpshlgyru3cwo3stun,1,2,170,13,6,lose,go,gal,rune_01_ear,blue,1,1,0.491,1,0.0,-1,1
0ubclurpshlgyru3cwo3stun,1,2,171,13,7,win,no-go,ngw,rune_01_yr,yellow,0,0,,1,0.0,+10,0
0ubclurpshlgyru3cwo3stun,1,2,172,13,8,win,go,gw,rune_01_ger,yellow,1,1,0.326,1,0.0,+10,1
0ubclurpshlgyru3cwo3stun,1,2,173,14,8,win,go,gw,rune_01_ger,yellow,1,1,0.504,1,0.0,+10,1
0ubclurpshlgyru3cwo3stun,1,2,174,14,5,lose,no-go,ngal,rune_01_ingwaz,blue,0,0,,1,0.0,-1,0
0ubclurpshlgyru3cwo3stun,1,2,175,14,6,lose,go,gal,rune_01_ear,blue,1,1,0.451,1,1.0,-10,1
0ubclurpshlgyru3cwo3stun,1,2,176,14,7,win,no-go,ngw,rune_01_yr,yellow,0,0,,1,0.0,+10,0
0ubclurpshlgyru3cwo3stun,1,2,177,15,5,lose,no-go,ngal,rune_01_ingwaz,blue,0,0,,1,0.0,-1,0
0ubclurpshlgyru3cwo3stun,1,2,178,15,6,lose,go,gal,rune_01_ear,blue,1,1,0.366,1,0.0,-1,1
0ubclurpshlgyru3cwo3stun,1,2,179,15,7,win,no-go,ngw,rune_01_yr,yellow,0,0,,1,0.0,+10,0
0ubclurpshlgyru3cwo3stun,1,2,180,15,8,win,go,gw,rune_01_ger,yellow,1,1,0.327,1,1.0,+1,1
0ubclurpshlgyru3cwo3stun,1,2,181,16,7,win,no-go,ngw,rune_01_yr,yellow,0,0,,1,0.0,+10,0
0ubclurpshlgyru3cwo3stun,1,2,182,16,5,lose,no-go,ngal,rune_01_ingwaz,blue,0,0,,1,0.0,-1,0
0ubclurpshlgyru3cwo3stun,1,2,183,16,6,lose,go,gal,rune_01_ear,blue,1,1,0.337,1,0.0,-1,1
0ubclurpshlgyru3cwo3stun,1,2,184,16,8,win,go,gw,rune_01_ger,yellow,1,1,0.311,1,0.0,+10,1
0ubclurpshlgyru3cwo3stun,1,2,185,17,8,win,go,gw,rune_01_ger,yellow,1,1,0.394,1,1.0,+1,1
0ubclurpshlgyru3cwo3stun,1,2,186,17,6,lose,go,gal,rune_01_ear,blue,1,1,0.462,1,0.0,-1,1
0ubclurpshlgyru3cwo3stun,1,2,187,17,5,lose,no-go,ngal,rune_01_ingwaz,blue,0,0,,1,0.0,-1,0
0ubclurpshlgyru3cwo3stun,1,2,188,17,7,win,no-go,ngw,rune_01_yr,yellow,0,0,,1,0.0,+10,0
0ubclurpshlgyru3cwo3stun,1,2,189,18,5,lose,no-go,ngal,rune_01_ingwaz,blue,0,0,,1,1.0,-10,0
0ubclurpshlgyru3cwo3stun,1,2,190,18,7,win,no-go,ngw,rune_01_yr,yellow,0,0,,1,1.0,+1,0
0ubclurpshlgyru3cwo3stun,1,2,191,18,6,lose,go,gal,rune_01_ear,blue,1,1,0.511,1,0.0,-1,1
0ubclurpshlgyru3cwo3stun,1,2,192,18,8,win,go,gw,rune_01_ger,yellow,1,1,0.369,1,0.0,+10,1
0ubclurpshlgyru3cwo3stun,1,2,193,19,6,lose,go,gal,rune_01_ear,blue,1,1,0.431,1,1.0,-10,1
0ubclurpshlgyru3cwo3stun,1,2,194,19,5,lose,no-go,ngal,rune_01_ingwaz,blue,0,0,,1,0.0,-1,0
0ubclurpshlgyru3cwo3stun,1,2,195,19,8,win,go,gw,rune_01_ger,yellow,1,1,0.319,1,0.0,+10,1
0ubclurpshlgyru3cwo3stun,1,2,196,19,7,win,no-go,ngw,rune_01_yr,yellow,0,0,,1,0.0,+10,0
0ubclurpshlgyru3cwo3stun,1,2,197,20,8,win,go,gw,rune_01_ger,yellow,1,1,0.415,1,0.0,+10,1
0ubclurpshlgyru3cwo3stun,1,2,198,20,6,lose,go,gal,rune_01_ear,blue,1,1,0.45,1,0.0,-1,1
0ubclurpshlgyru3cwo3stun,1,2,199,20,5,lose,no-go,ngal,rune_01_ingwaz,blue,0,0,,1,0.0,-1,0
0ubclurpshlgyru3cwo3stun,1,2,200,20,7,win,no-go,ngw,rune_01_yr,yellow,0,0,,1,0.0,+10,0
0ubclurpshlgyru3cwo3stun,1,2,201,21,6,lose,go,gal,rune_01_ear,blue,1,1,0.497,1,0.0,-1,1
0ubclurpshlgyru3cwo3stun,1,2,202,21,7,win,no-go,ngw,rune_01_yr,yellow,0,0,,1,0.0,+10,0
0ubclurpshlgyru3cwo3stun,1,2,203,21,5,lose,no-go,ngal,rune_01_ingwaz,blue,0,0,,1,0.0,-1,0
0ubclurpshlgyru3cwo3stun,1,2,204,21,8,win,go,gw,rune_01_ger,yellow,1,1,0.325,1,0.0,+10,1
0ubclurpshlgyru3cwo3stun,1,2,205,22,7,win,no-go,ngw,rune_01_yr,yellow,0,0,,1,0.0,+10,0
0ubclurpshlgyru3cwo3stun,1,2,206,22,8,win,go,gw,rune_01_ger,yellow,1,1,0.429,1,0.0,+10,1
0ubclurpshlgyru3cwo3stun,1,2,207,22,5,lose,no-go,ngal,rune_01_ingwaz,blue,0,0,,1,0.0,-1,0
0ubclurpshlgyru3cwo3stun,1,2,208,22,6,lose,go,gal,rune_01_ear,blue,1,1,0.594,1,0.0,-1,1
0ubclurpshlgyru3cwo3stun,1,2,209,23,7,win,no-go,ngw,rune_01_yr,yellow,0,0,,1,0.0,+10,0
0ubclurpshlgyru3cwo3stun,1,2,210,23,8,win,go,gw,rune_01_ger,yellow,1,1,0.301,1,0.0,+10,1
0ubclurpshlgyru3cwo3stun,1,2,211,23,6,lose,go,gal,rune_01_ear,blue,1,1,0.394,1,0.0,-1,1
0ubclurpshlgyru3cwo3stun,1,2,212,23,5,lose,no-go,ngal,rune_01_ingwaz,blue,0,0,,1,0.0,-1,0
0ubclurpshlgyru3cwo3stun,1,2,213,24,8,win,go,gw,rune_01_ger,yellow,1,1,0.329,1,1.0,+1,1
0ubclurpshlgyru3cwo3stun,1,2,214,24,5,lose,no-go,ngal,rune_01_ingwaz,blue,0,0,,1,0.0,-1,0
0ubclurpshlgyru3cwo3stun,1,2,215,24,6,lose,go,gal,rune_01_ear,blue,1,1,0.414,1,0.0,-1,1
0ubclurpshlgyru3cwo3stun,1,2,216,24,7,win,no-go,ngw,rune_01_yr,yellow,0,0,,1,0.0,+10,0
0ubclurpshlgyru3cwo3stun,1,2,217,25,5,lose,no-go,ngal,rune_01_ingwaz,blue,0,0,,1,1.0,-10,0
0ubclurpshlgyru3cwo3stun,1,2,218,25,8,win,go,gw,rune_01_ger,yellow,1,1,0.508,1,0.0,+10,1
0ubclurpshlgyru3cwo3stun,1,2,219,25,6,lose,go,gal,rune_01_ear,blue,1,1,0.458,1,1.0,-10,1
0ubclurpshlgyru3cwo3stun,1,2,220,25,7,win,no-go,ngw,rune_01_yr,yellow,0,0,,1,1.0,+1,0
0ubclurpshlgyru3cwo3stun,1,2,221,26,6,lose,go,gal,rune_01_ear,blue,1,1,0.497,1,1.0,-10,1
0ubclurpshlgyru3cwo3stun,1,2,222,26,5,lose,no-go,ngal,rune_01_ingwaz,blue,0,0,,1,1.0,-10,0
0ubclurpshlgyru3cwo3stun,1,2,223,26,8,win,go,gw,rune_01_ger,yellow,1,1,0.38,1,1.0,+1,1
0ubclurpshlgyru3cwo3stun,1,2,224,26,7,win,no-go,ngw,rune_01_yr,yellow,0,0,,1,0.0,+10,0
0ubclurpshlgyru3cwo3stun,1,2,225,27,6,lose,go,gal,rune_01_ear,blue,1,1,0.476,1,0.0,-1,1
0ubclurpshlgyru3cwo3stun,1,2,226,27,5,lose,no-go,ngal,rune_01_ingwaz,blue,0,0,,1,0.0,-1,0
0ubclurpshlgyru3cwo3stun,1,2,227,27,7,win,no-go,ngw,rune_01_yr,yellow,0,0,,1,0.0,+10,0
0ubclurpshlgyru3cwo3stun,1,2,228,27,8,win,go,gw,rune_01_ger,yellow,1,1,0.285,1,0.0,+10,1
0ubclurpshlgyru3cwo3stun,1,2,229,28,5,lose,no-go,ngal,rune_01_ingwaz,blue,0,0,,1,0.0,-1,0
0ubclurpshlgyru3cwo3stun,1,2,230,28,7,win,no-go,ngw,rune_01_yr,yellow,0,0,,1,0.0,+10,0
0ubclurpshlgyru3cwo3stun,1,2,231,28,8,win,go,gw,rune_01_ger,yellow,1,1,0.3,1,0.0,+10,1
0ubclurpshlgyru3cwo3stun,1,2,232,28,6,lose,go,gal,rune_01_ear,blue,1,1,0.438,1,0.0,-1,1
0ubclurpshlgyru3cwo3stun,1,2,233,29,5,lose,no-go,ngal,rune_01_ingwaz,blue,0,0,,1,0.0,-1,0
0ubclurpshlgyru3cwo3stun,1,2,234,29,8,win,go,gw,rune_01_ger,yellow,1,1,0.31,1,0.0,+10,1
0ubclurpshlgyru3cwo3stun,1,2,235,29,7,win,no-go,ngw,rune_01_yr,yellow,0,0,,1,1.0,+1,0
0ubclurpshlgyru3cwo3stun,1,2,236,29,6,lose,go,gal,rune_01_ear,blue,1,1,0.455,1,0.0,-1,1
0ubclurpshlgyru3cwo3stun,1,2,237,30,7,win,no-go,ngw,rune_01_yr,yellow,0,0,,1,0.0,+10,0
0ubclurpshlgyru3cwo3stun,1,2,238,30,8,win,go,gw,rune_01_ger,yellow,1,1,0.264,1,0.0,+10,1
0ubclurpshlgyru3cwo3stun,1,2,239,30,5,lose,no-go,ngal,rune_01_ingwaz,blue,0,0,,1,0.0,-1,0
0ubclurpshlgyru3cwo3stun,1,2,240,30,6,lose,go,gal,rune_01_ear,blue,1,1,0.456,1,0.0,-1,1
11tg5yxy1g1hl5rwr7qap82j,1,1,1,1,1,lose,no-go,ngal,rune_01_ingwaz,blue,0,1,0.339,0,1.0,-1,1
11tg5yxy1g1hl5rwr7qap82j,1,1,2,1,2,win,go,gw,rune_01_ear,yellow,1,1,0.018,1,0.0,+10,4
11tg5yxy1g1hl5rwr7qap82j,1,1,3,1,3,win,no-go,ngw,rune_01_ger,yellow,0,1,0.249,0,1.0,+10,3
11tg5yxy1g1hl5rwr7qap82j,1,1,4,1,4,lose,go,gal,rune_01_yr,blue,1,1,0.155,1,0.0,-1,3
11tg5yxy1g1hl5rwr7qap82j,1,1,5,2,2,win,go,gw,rune_01_ear,yellow,1,1,0.134,1,0.0,+10,4
11tg5yxy1g1hl5rwr7qap82j,1,1,6,2,1,lose,no-go,ngal,rune_01_ingwaz,blue,0,1,0.026,0,0.0,-10,7
11tg5yxy1g1hl5rwr7qap82j,1,1,7,2,4,lose,go,gal,rune_01_yr,blue,1,1,0.285,1,0.0,-1,2
11tg5yxy1g1hl5rwr7qap82j,1,1,8,2,3,win,no-go,ngw,rune_01_ger,yellow,0,1,0.858,0,0.0,+1,2
11tg5yxy1g1hl5rwr7qap82j,1,1,9,3,2,win,go,gw,rune_01_ear,yellow,1,1,0.045,1,0.0,+10,8
11tg5yxy1g1hl5rwr7qap82j,1,1,10,3,1,lose,no-go,ngal,rune_01_ingwaz,blue,0,1,0.047,0,0.0,-10,6
11tg5yxy1g1hl5rwr7qap82j,1,1,11,3,3,win,no-go,ngw,rune_01_ger,yellow,0,1,0.2,0,0.0,+1,1
11tg5yxy1g1hl5rwr7qap82j,1,1,12,3,4,lose,go,gal,rune_01_yr,blue,1,1,0.495,1,0.0,-1,1
11tg5yxy1g1hl5rwr7qap82j,1,1,13,4,1,lose,no-go,ngal,rune_01_ingwaz,blue,0,1,0.498,0,0.0,-10,1
11tg5yxy1g1hl5rwr7qap82j,1,1,14,4,4,lose,go,gal,rune_01_yr,blue,1,0,,0,1.0,-1,0
11tg5yxy1g1hl5rwr7qap82j,1,1,15,4,3,win,no-go,ngw,rune_01_ger,yellow,0,1,0.56,0,0.0,+1,2
11tg5yxy1g1hl5rwr7qap82j,1,1,16,4,2,win,go,gw,rune_01_ear,yellow,1,1,0.7,1,1.0,+1,1
11tg5yxy1g1hl5rwr7qap82j,1,1,17,5,2,win,go,gw,rune_01_ear,yellow,1,1,0.47,1,0.0,+10,1
11tg5yxy1g1hl5rwr7qap82j,1,1,18,5,3,win,no-go,ngw,rune_01_ger,yellow,0,1,0.41,0,0.0,+1,1
11tg5yxy1g1hl5rwr7qap82j,1,1,19,5,1,lose,no-go,ngal,rune_01_ingwaz,blue,0,1,0.655,0,0.0,-10,1
11tg5yxy1g1hl5rwr7qap82j,1,1,20,5,4,lose,go,gal,rune_01_yr,blue,1,0,,0,0.0,-10,0
11tg5yxy1g1hl5rwr7qap82j,1,1,21,6,3,win,no-go,ngw,rune_01_ger,yellow,0,1,1.021,0,0.0,+1,1
11tg5yxy1g1hl5rwr7qap82j,1,1,22,6,2,win,go,gw,rune_01_ear,yellow,1,1,0.597,1,0.0,+10,3
11tg5yxy1g1hl5rwr7qap82j,1,1,23,6,1,lose,no-go,ngal,rune_01_ingwaz,blue,0,0,,1,1.0,-10,0
11tg5yxy1g1hl5rwr7qap82j,1,1,24,6,4,lose,go,gal,rune_01_yr,blue,1,1,0.039,1,0.0,-1,8
11tg5yxy1g1hl5rwr7qap82j,1,1,25,7,1,lose,no-go,ngal,rune_01_ingwaz,blue,0,1,0.049,0,0.0,-10,10
11tg5yxy1g1hl5rwr7qap82j,1,1,26,7,4,lose,go,gal,rune_01_yr,blue,1,1,0.008,1,0.0,-1,4
11tg5yxy1g1hl5rwr7qap82j,1,1,27,7,2,win,go,gw,rune_01_ear,yellow,1,1,0.534,1,0.0,+10,1
11tg5yxy1g1hl5rwr7qap82j,1,1,28,7,3,win,no-go,ngw,rune_01_ger,yellow,0,1,0.706,0,1.0,+10,1
11tg5yxy1g1hl5rwr7qap82j,1,1,29,8,1,lose,no-go,ngal,rune_01_ingwaz,blue,0,1,1.173,0,0.0,-10,1
11tg5yxy1g1hl5rwr7qap82j,1,1,30,8,4,lose,go,gal,rune_01_yr,blue,1,1,0.693,1,1.0,-10,4
11tg5yxy1g1hl5rwr7qap82j,1,1,31,8,2,win,go,gw,rune_01_ear,yellow,1,0,,0,0.0,+1,2
11tg5yxy1g1hl5rwr7qap82j,1,1,32,8,3,win,no-go,ngw,rune_01_ger,yellow,0,1,0.279,0,0.0,+1,10
11tg5yxy1g1hl5rwr7qap82j,1,1,33,9,1,lose,no-go,ngal,rune_01_ingwaz,blue,0,1,0.229,0,0.0,-10,6
11tg5yxy1g1hl5rwr7qap82j,1,1,34,9,3,win,no-go,ngw,rune_01_ger,yellow,0,1,0.398,0,0.0,+1,8
11tg5yxy1g1hl5rwr7qap82j,1,1,35,9,4,lose,go,gal,rune_01_yr,blue,1,1,0.023,1,0.0,-1,5
11tg5yxy1g1hl5rwr7qap82j,1,1,36,9,2,win,go,gw,rune_01_ear,yellow,1,1,0.17,1,1.0,+1,8
11tg5yxy1g1hl5rwr7qap82j,1,1,37,10,4,lose,go,gal,rune_01_yr,blue,1,0,,0,0.0,-10,2
11tg5yxy1g1hl5rwr7qap82j,1,1,38,10,2,win,go,gw,rune_01_ear,yellow,1,1,0.554,1,0.0,+10,1
11tg5yxy1g1hl5rwr7qap82j,1,1,39,10,3,win,no-go,ngw,rune_01_ger,yellow,0,1,0.883,0,0.0,+1,1
11tg5yxy1g1hl5rwr7qap82j,1,1,40,10,1,lose,no-go,ngal,rune_01_ingwaz,blue,0,0,,1,0.0,-1,0
11tg5yxy1g1hl5rwr7qap82j,1,1,41,11,4,lose,go,gal,rune_01_yr,blue,1,0,,0,1.0,-1,0
11tg5yxy1g1hl5rwr7qap82j,1,1,42,11,1,lose,no-go,ngal,rune_01_ingwaz,blue,0,0,,1,0.0,-1,0
11tg5yxy1g1hl5rwr7qap82j,1,1,43,11,2,win,go,gw,rune_01_ear,yellow,1,1,0.418,1,0.0,+10,1
11tg5yxy1g1hl5rwr7qap82j,1,1,44,11,3,win,no-go,ngw,rune_01_ger,yellow,0,1,0.437,0,0.0,+1,1
11tg5yxy1g1hl5rwr7qap82j,1,1,45,12,2,win,go,gw,rune_01_ear,yellow,1,1,0.473,1,1.0,+1,1
11tg5yxy1g1hl5rwr7qap82j,1,1,46,12,1,lose,no-go,ngal,rune_01_ingwaz,blue,0,0,,1,1.0,-10,0
11tg5yxy1g1hl5rwr7qap82j,1,1,47,12,4,lose,go,gal,rune_01_yr,blue,1,0,,0,0.0,-10,0
11tg5yxy1g1hl5rwr7qap82j,1,1,48,12,3,win,no-go,ngw,rune_01_ger,yellow,0,1,0.729,0,0.0,+1,1
11tg5yxy1g1hl5rwr7qap82j,1,1,49,13,3,win,no-go,ngw,rune_01_ger,yellow,0,1,0.572,0,0.0,+1,1
11tg5yxy1g1hl5rwr7qap82j,1,1,50,13,1,lose,no-go,ngal,rune_01_ingwaz,blue,0,1,0.801,0,0.0,-10,1
11tg5yxy1g1hl5rwr7qap82j,1,1,51,13,2,win,go,gw,rune_01_ear,yellow,1,1,0.276,1,0.0,+10,5
11tg5yxy1g1hl5rwr7qap82j,1,1,52,13,4,lose,go,gal,rune_01_yr,blue,1,0,,0,0.0,-10,2
11tg5yxy1g1hl5rwr7qap82j,1,1,53,14,1,lose,no-go,ngal,rune_01_ingwaz,blue,0,0,,1,0.0,-1,2
11tg5yxy1g1hl5rwr7qap82j,1,1,54,14,2,win,go,gw,rune_01_ear,yellow,1,1,0.1,1,0.0,+10,5
11tg5yxy1g1hl5rwr7qap82j,1,1,55,14,4,lose,go,gal,rune_01_yr,blue,1,1,0.28,1,0.0,-1,7
11tg5yxy1g1hl5rwr7qap82j,1,1,56,14,3,win,no-go,ngw,rune_01_ger,yellow,0,1,0.199,0,0.0,+1,7
11tg5yxy1g1hl5rwr7qap82j,1,1,57,15,3,win,no-go,ngw,rune_01_ger,yellow,0,1,0.157,0,1.0,+10,5
11tg5yxy1g1hl5rwr7qap82j,1,1,58,15,2,win,go,gw,rune_01_ear,yellow,1,1,0.401,1,0.0,+10,5
11tg5yxy1g1hl5rwr7qap82j,1,1,59,15,4,lose,go,gal,rune_01_yr,blue,1,1,0.303,1,0.0,-1,6
11tg5yxy1g1hl5rwr7qap82j,1,1,60,15,1,lose,no-go,ngal,rune_01_ingwaz,blue,0,1,0.384,0,0.0,-10,5
11tg5yxy1g1hl5rwr7qap82j,1,1,61,16,4,lose,go,gal,rune_01_yr,blue,1,1,0.142,1,0.0,-1,1
11tg5yxy1g1hl5rwr7qap82j,1,1,62,16,3,win,no-go,ngw,rune_01_ger,yellow,0,1,0.448,0,1.0,+10,5
11tg5yxy1g1hl5rwr7qap82j,1,1,63,16,2,win,go,gw,rune_01_ear,yellow,1,1,0.395,1,0.0,+10,5
11tg5yxy1g1hl5rwr7qap82j,1,1,64,16,1,lose,no-go,ngal,rune_01_ingwaz,blue,0,1,0.019,0,0.0,-10,4
11tg5yxy1g1hl5rwr7qap82j,1,1,65,17,1,lose,no-go,ngal,rune_01_ingwaz,blue,0,1,0.578,0,0.0,-10,4
11tg5yxy1g1hl5rwr7qap82j,1,1,66,17,4,lose,go,gal,rune_01_yr,blue,1,1,0.176,1,1.0,-10,4
11tg5yxy1g1hl5rwr7qap82j,1,1,67,17,2,win,go,gw,rune_01_ear,yellow,1,1,0.204,1,0.0,+10,5
11tg5yxy1g1hl5rwr7qap82j,1,1,68,17,3,win,no-go,ngw,rune_01_ger,yellow,0,1,0.383,0,0.0,+1,5
11tg5yxy1g1hl5rwr7qap82j,1,1,69,18,1,lose,no-go,ngal,rune_01_ingwaz,blue,0,1,0.343,0,0.0,-10,5
11tg5yxy1g1hl5rwr7qap82j,1,1,70,18,2,win,go,gw,rune_01_ear,yellow,1,1,0.405,1,1.0,+1,5
11tg5yxy1g1hl5rwr7qap82j,1,1,71,18,3,win,no-go,ngw,rune_01_ger,yellow,0,1,0.479,0,0.0,+1,5
11tg5yxy1g1hl5rwr7qap82j,1,1,72,18,4,lose,go,gal,rune_01_yr,blue,1,1,0.418,1,0.0,-1,5
11tg5yxy1g1hl5rwr7qap82j,1,1,73,19,3,win,no-go,ngw,rune_01_ger,yellow,0,1,0.093,0,0.0,+1,4
11tg5yxy1g1hl5rwr7qap82j,1,1,74,19,1,lose,no-go,ngal,rune_01_ingwaz,blue,0,1,0.305,0,0.0,-10,5
11tg5yxy1g1hl5rwr7qap82j,1,1,75,19,4,lose,go,gal,rune_01_yr,blue,1,1,0.264,1,0.0,-1,5
11tg5yxy1g1hl5rwr7qap82j,1,1,76,19,2,win,go,gw,rune_01_ear,yellow,1,1,0.119,1,0.0,+10,4
11tg5yxy1g1hl5rwr7qap82j,1,1,77,20,2,win,go,gw,rune_01_ear,yellow,1,1,0.184,1,0.0,+10,5
11tg5yxy1g1hl5rwr7qap82j,1,1,78,20,4,lose,go,gal,rune_01_yr,blue,1,1,0.181,1,0.0,-1,5
11tg5yxy1g1hl5rwr7qap82j,1,1,79,20,1,lose,no-go,ngal,rune_01_ingwaz,blue,0,1,0.191,0,1.0,-1,5
11tg5yxy1g1hl5rwr7qap82j,1,1,80,20,3,win,no-go,ngw,rune_01_ger,yellow,0,1,0.191,0,0.0,+1,5
11tg5yxy1g1hl5rwr7qap82j,1,1,81,21,4,lose,go,gal,rune_01_yr,blue,1,1,0.304,1,0.0,-1,6
11tg5yxy1g1hl5rwr7qap82j,1,1,82,21,2,win,go,gw,rune_01_ear,yellow,1,1,0.328,1,0.0,+10,5
11tg5yxy1g1hl5rwr7qap82j,1,1,83,21,3,win,no-go,ngw,rune_01_ger,yellow,0,1,0.262,0,0.0,+1,5
11tg5yxy1g1hl5rwr7qap82j,1,1,84,21,1,lose,no-go,ngal,rune_01_ingwaz,blue,0,1,0.078,0,0.0,-10,5
11tg5yxy1g1hl5rwr7qap82j,1,1,85,22,2,win,go,gw,rune_01_ear,yellow,1,1,0.448,1,0.0,+10,5
11tg5yxy1g1hl5rwr7qap82j,1,1,86,22,1,lose,no-go,ngal,rune_01_ingwaz,blue,0,1,0.261,0,1.0,-1,4
11tg5yxy1g1hl5rwr7qap82j,1,1,87,22,3,win,no-go,ngw,rune_01_ger,yellow,0,1,0.407,0,0.0,+1,5
11tg5yxy1g1hl5rwr7qap82j,1,1,88,22,4,lose,go,gal,rune_01_yr,blue,1,1,0.032,1,0.0,-1,4
11tg5yxy1g1hl5rwr7qap82j,1,1,89,23,3,win,no-go,ngw,rune_01_ger,yellow,0,1,0.329,0,0.0,+1,5
11tg5yxy1g1hl5rwr7qap82j,1,1,90,23,1,lose,no-go,ngal,rune_01_ingwaz,blue,0,1,0.206,0,0.0,-10,4
11tg5yxy1g1hl5rwr7qap82j,1,1,91,23,4,lose,go,gal,rune_01_yr,blue,1,1,0.368,1,0.0,-1,7
11tg5yxy1g1hl5rwr7qap82j,1,1,92,23,2,win,go,gw,rune_01_ear,yellow,1,1,0.299,1,0.0,+10,6
11tg5yxy1g1hl5rwr7qap82j,1,1,93,24,3,win,no-go,ngw,rune_01_ger,yellow,0,1,0.613,0,1.0,+10,5
11tg5yxy1g1hl5rwr7qap82j,1,1,94,24,4,lose,go,gal,rune_01_yr,blue,1,1,0.324,1,1.0,-10,7
11tg5yxy1g1hl5rwr7qap82j,1,1,95,24,2,win,go,gw,rune_01_ear,yellow,1,1,0.031,1,0.0,+10,8
11tg5yxy1g1hl5rwr7qap82j,1,1,96,24,1,lose,no-go,ngal,rune_01_ingwaz,blue,0,1,0.234,0,0.0,-10,8
11tg5yxy1g1hl5rwr7qap82j,1,1,97,25,2,win,go,gw,rune_01_ear,yellow,1,1,0.228,1,1.0,+1,11
11tg5yxy1g1hl5rwr7qap82j,1,1,98,25,4,lose,go,gal,rune_01_yr,blue,1,1,0.261,1,0.0,-1,10
11tg5yxy1g1hl5rwr7qap82j,1,1,99,25,1,lose,no-go,ngal,rune_01_ingwaz,blue,0,1,0.159,0,0.0,-10,10
11tg5yxy1g1hl5rwr7qap82j,1,1,100,25,3,win,no-go,ngw,rune_01_ger,yellow,0,1,0.121,0,0.0,+1,9
11tg5yxy1g1hl5rwr7qap82j,1,1,101,26,4,lose,go,gal,rune_01_yr,blue,1,1,0.316,1,0.0,-1,8
11tg5yxy1g1hl5rwr7qap82j,1,1,102,26,2,win,go,gw,rune_01_ear,yellow,1,1,0.207,1,1.0,+1,6
11tg5yxy1g1hl5rwr7qap82j,1,1,103,26,1,lose,no-go,ngal,rune_01_ingwaz,blue,0,1,0.109,0,0.0,-10,7
11tg5yxy1g1hl5rwr7qap82j,1,1,104,26,3,win,no-go,ngw,rune_01_ger,yellow,0,1,0.29,0,0.0,+1,7
11tg5yxy1g1hl5rwr7qap82j,1,1,105,27,4,lose,go,gal,rune_01_yr,blue,1,1,0.228,1,0.0,-1,6
11tg5yxy1g1hl5rwr7qap82j,1,1,106,27,2,win,go,gw,rune_01_ear,yellow,1,1,0.155,1,0.0,+10,7
11tg5yxy1g1hl5rwr7qap82j,1,1,107,27,3,win,no-go,ngw,rune_01_ger,yellow,0,1,0.674,0,0.0,+1,7
11tg5yxy1g1hl5rwr7qap82j,1,1,108,27,1,lose,no-go,ngal,rune_01_ingwaz,blue,0,1,0.395,0,1.0,-1,6
11tg5yxy1g1hl5rwr7qap82j,1,1,109,28,1,lose,no-go,ngal,rune_01_ingwaz,blue,0,1,0.27,0,0.0,-10,6
11tg5yxy1g1hl5rwr7qap82j,1,1,110,28,2,win,go,gw,rune_01_ear,yellow,1,1,0.149,1,0.0,+10,7
11tg5yxy1g1hl5rwr7qap82j,1,1,111,28,4,lose,go,gal,rune_01_yr,blue,1,1,0.255,1,1.0,-10,4
11tg5yxy1g1hl5rwr7qap82j,1,1,112,28,3,win,no-go,ngw,rune_01_ger,yellow,0,1,0.309,0,0.0,+1,6
11tg5yxy1g1hl5rwr7qap82j,1,1,113,29,2,win,go,gw,rune_01_ear,yellow,1,1,0.247,1,0.0,+10,6
11tg5yxy1g1hl5rwr7qap82j,1,1,114,29,3,win,no-go,ngw,rune_01_ger,yellow,0,1,0.081,0,0.0,+1,6
11tg5yxy1g1hl5rwr7qap82j,1,1,115,29,1,lose,no-go,ngal,rune_01_ingwaz,blue,0,1,0.038,0,0.0,-10,7
11tg5yxy1g1hl5rwr7qap82j,1,1,116,29,4,lose,go,gal,rune_01_yr,blue,1,1,0.096,1,0.0,-1,5
11tg5yxy1g1hl5rwr7qap82j,1,1,117,30,3,win,no-go,ngw,rune_01_ger,yellow,0,1,0.74,0,1.0,+10,7
11tg5yxy1g1hl5rwr7qap82j,1,1,118,30,4,lose,go,gal,rune_01_yr,blue,1,1,0.284,1,0.0,-1,9
11tg5yxy1g1hl5rwr7qap82j,1,1,119,30,2,win,go,gw,rune_01_ear,yellow,1,1,0.469,1,0.0,+10,5
11tg5yxy1g1hl5rwr7qap82j,1,1,120,30,1,lose,no-go,ngal,rune_01_ingwaz,blue,0,1,0.404,0,0.0,-10,6
11tg5yxy1g1hl5rwr7qap82j,1,2,121,1,5,lose,no-go,ngal,rune_02_os,blue,0,1,0.588,0,1.0,-1,3
11tg5yxy1g1hl5rwr7qap82j,1,2,122,1,6,win,go,gw,rune_02_raido,yellow,1,1,0.035,1,0.0,+10,7
11tg5yxy1g1hl5rwr7qap82j,1,2,123,1,7,lose,go,gal,rune_02_haglaz,blue,1,1,0.342,1,0.0,-1,8
11tg5yxy1g1hl5rwr7qap82j,1,2,124,1,8,win,no-go,ngw,rune_02_cen,yellow,0,1,0.074,0,1.0,+10,8
11tg5yxy1g1hl5rwr7qap82j,1,2,125,2,7,lose,go,gal,rune_02_haglaz,blue,1,1,0.055,1,0.0,-1,6
11tg5yxy1g1hl5rwr7qap82j,1,2,126,2,8,win,no-go,ngw,rune_02_cen,yellow,0,1,0.076,0,0.0,+1,8
11tg5yxy1g1hl5rwr7qap82j,1,2,127,2,6,win,go,gw,rune_02_raido,yellow,1,1,0.0,1,0.0,+10,6
11tg5yxy1g1hl5rwr7qap82j,1,2,128,2,5,lose,no-go,ngal,rune_02_os,blue,0,1,0.001,0,0.0,-10,8
11tg5yxy1g1hl5rwr7qap82j,1,2,129,3,8,win,no-go,ngw,rune_02_cen,yellow,0,1,0.002,0,0.0,+1,11
11tg5yxy1g1hl5rwr7qap82j,1,2,130,3,5,lose,no-go,ngal,rune_02_os,blue,0,0,,1,0.0,-1,6
11tg5yxy1g1hl5rwr7qap82j,1,2,131,3,6,win,go,gw,rune_02_raido,yellow,1,0,,0,0.0,+1,0
11tg5yxy1g1hl5rwr7qap82j,1,2,132,3,7,lose,go,gal,rune_02_haglaz,blue,1,1,0.026,1,0.0,-1,3
11tg5yxy1g1hl5rwr7qap82j,1,2,133,4,5,lose,no-go,ngal,rune_02_os,blue,0,1,0.11,0,0.0,-10,7
11tg5yxy1g1hl5rwr7qap82j,1,2,134,4,8,win,no-go,ngw,rune_02_cen,yellow,0,1,0.214,0,0.0,+1,12
11tg5yxy1g1hl5rwr7qap82j,1,2,135,4,7,lose,go,gal,rune_02_haglaz,blue,1,1,0.151,1,1.0,-10,10
11tg5yxy1g1hl5rwr7qap82j,1,2,136,4,6,win,go,gw,rune_02_raido,yellow,1,1,0.011,1,1.0,+1,10
11tg5yxy1g1hl5rwr7qap82j,1,2,137,5,8,win,no-go,ngw,rune_02_cen,yellow,0,1,0.166,0,0.0,+1,11
11tg5yxy1g1hl5rwr7qap82j,1,2,138,5,5,lose,no-go,ngal,rune_02_os,blue,0,1,0.275,0,0.0,-10,6
11tg5yxy1g1hl5rwr7qap82j,1,2,139,5,7,lose,go,gal,rune_02_haglaz,blue,1,1,0.587,1,0.0,-1,10
11tg5yxy1g1hl5rwr7qap82j,1,2,140,5,6,win,go,gw,rune_02_raido,yellow,1,1,0.068,1,0.0,+10,4
11tg5yxy1g1hl5rwr7qap82j,1,2,141,6,8,win,no-go,ngw,rune_02_cen,yellow,0,1,0.43,0,0.0,+1,4
11tg5yxy1g1hl5rwr7qap82j,1,2,142,6,7,lose,go,gal,rune_02_haglaz,blue,1,1,0.788,1,0.0,-1,4
11tg5yxy1g1hl5rwr7qap82j,1,2,143,6,6,win,go,gw,rune_02_raido,yellow,1,1,0.041,1,0.0,+10,8
11tg5yxy1g1hl5rwr7qap82j,1,2,144,6,5,lose,no-go,ngal,rune_02_os,blue,0,1,0.067,0,1.0,-1,6
11tg5yxy1g1hl5rwr7qap82j,1,2,145,7,7,lose,go,gal,rune_02_haglaz,blue,1,1,0.185,1,0.0,-1,7
11tg5yxy1g1hl5rwr7qap82j,1,2,146,7,6,win,go,gw,rune_02_raido,yellow,1,1,0.048,1,0.0,+10,9
11tg5yxy1g1hl5rwr7qap82j,1,2,147,7,5,lose,no-go,ngal,rune_02_os,blue,0,1,0.002,0,0.0,-10,4
11tg5yxy1g1hl5rwr7qap82j,1,2,148,7,8,win,no-go,ngw,rune_02_cen,yellow,0,1,0.147,0,1.0,+10,6
11tg5yxy1g1hl5rwr7qap82j,1,2,149,8,8,win,no-go,ngw,rune_02_cen,yellow,0,1,0.156,0,0.0,+1,4
11tg5yxy1g1hl5rwr7qap82j,1,2,150,8,7,lose,go,gal,rune_02_haglaz,blue,1,1,0.201,1,1.0,-10,3
11tg5yxy1g1hl5rwr7qap82j,1,2,151,8,6,win,go,gw,rune_02_raido,yellow,1,1,0.212,1,0.0,+10,3
11tg5yxy1g1hl5rwr7qap82j,1,2,152,8,5,lose,no-go,ngal,rune_02_os,blue,0,1,0.198,0,0.0,-10,6
11tg5yxy1g1hl5rwr7qap82j,1,2,153,9,8,win,no-go,ngw,rune_02_cen,yellow,0,1,0.408,0,0.0,+1,8
11tg5yxy1g1hl5rwr7qap82j,1,2,154,9,6,win,go,gw,rune_02_raido,yellow,1,1,0.645,1,1.0,+1,8
11tg5yxy1g1hl5rwr7qap82j,1,2,155,9,7,lose,go,gal,rune_02_haglaz,blue,1,1,0.703,1,0.0,-1,8
11tg5yxy1g1hl5rwr7qap82j,1,2,156,9,5,lose,no-go,ngal,rune_02_os,blue,0,1,0.348,0,0.0,-10,6
11tg5yxy1g1hl5rwr7qap82j,1,2,157,10,7,lose,go,gal,rune_02_haglaz,blue,1,1,0.15,1,0.0,-1,5
11tg5yxy1g1hl5rwr7qap82j,1,2,158,10,5,lose,no-go,ngal,rune_02_os,blue,0,1,0.503,0,0.0,-10,6
11tg5yxy1g1hl5rwr7qap82j,1,2,159,10,8,win,no-go,ngw,rune_02_cen,yellow,0,1,0.174,0,0.0,+1,11
11tg5yxy1g1hl5rwr7qap82j,1,2,160,10,6,win,go,gw,rune_02_raido,yellow,1,1,0.345,1,0.0,+10,3
11tg5yxy1g1hl5rwr7qap82j,1,2,161,11,8,win,no-go,ngw,rune_02_cen,yellow,0,1,0.69,0,0.0,+1,8
11tg5yxy1g1hl5rwr7qap82j,1,2,162,11,5,lose,no-go,ngal,rune_02_os,blue,0,1,0.078,0,0.0,-10,5
11tg5yxy1g1hl5rwr7qap82j,1,2,163,11,6,win,go,gw,rune_02_raido,yellow,1,1,0.195,1,0.0,+10,5
11tg5yxy1g1hl5rwr7qap82j,1,2,164,11,7,lose,go,gal,rune_02_haglaz,blue,1,1,0.65,1,1.0,-10,7
11tg5yxy1g1hl5rwr7qap82j,1,2,165,12,5,lose,no-go,ngal,rune_02_os,blue,0,1,0.167,0,1.0,-1,6
11tg5yxy1g1hl5rwr7qap82j,1,2,166,12,6,win,go,gw,rune_02_raido,yellow,1,1,0.087,1,1.0,+1,4
11tg5yxy1g1hl5rwr7qap82j,1,2,167,12,7,lose,go,gal,rune_02_haglaz,blue,1,1,0.424,1,0.0,-1,6
11tg5yxy1g1hl5rwr7qap82j,1,2,168,12,8,win,no-go,ngw,rune_02_cen,yellow,0,1,0.107,0,0.0,+1,5
11tg5yxy1g1hl5rwr7qap82j,1,2,169,13,8,win,no-go,ngw,rune_02_cen,yellow,0,1,0.546,0,0.0,+1,8
11tg5yxy1g1hl5rwr7qap82j,1,2,170,13,7,lose,go,gal,rune_02_haglaz,blue,1,1,0.413,1,0.0,-1,3
11tg5yxy1g1hl5rwr7qap82j,1,2,171,13,5,lose,no-go,ngal,rune_02_os,blue,0,1,1.395,0,0.0,-10,3
11tg5yxy1g1hl5rwr7qap82j,1,2,172,13,6,win,go,gw,rune_02_raido,yellow,1,1,0.689,1,0.0,+10,4
11tg5yxy1g1hl5rwr7qap82j,1,2,173,14,6,win,go,gw,rune_02_raido,yellow,1,1,0.281,1,0.0,+10,6
11tg5yxy1g1hl5rwr7qap82j,1,2,174,14,5,lose,no-go,ngal,rune_02_os,blue,0,1,0.539,0,0.0,-10,6
11tg5yxy1g1hl5rwr7qap82j,1,2,175,14,8,win,no-go,ngw,rune_02_cen,yellow,0,1,0.199,0,0.0,+1,6
11tg5yxy1g1hl5rwr7qap82j,1,2,176,14,7,lose,go,gal,rune_02_haglaz,blue,1,1,0.083,1,0.0,-1,2
11tg5yxy1g1hl5rwr7qap82j,1,2,177,15,8,win,no-go,ngw,rune_02_cen,yellow,0,1,0.05,0,1.0,+10,8
11tg5yxy1g1hl5rwr7qap82j,1,2,178,15,7,lose,go,gal,rune_02_haglaz,blue,1,1,0.709,1,0.0,-1,9
11tg5yxy1g1hl5rwr7qap82j,1,2,179,15,6,win,go,gw,rune_02_raido,yellow,1,1,0.005,1,0.0,+10,11
11tg5yxy1g1hl5rwr7qap82j,1,2,180,15,5,lose,no-go,ngal,rune_02_os,blue,0,1,0.011,0,0.0,-10,6
11tg5yxy1g1hl5rwr7qap82j,1,2,181,16,5,lose,no-go,ngal,rune_02_os,blue,0,1,0.308,0,0.0,-10,4
11tg5yxy1g1hl5rwr7qap82j,1,2,182,16,8,win,no-go,ngw,rune_02_cen,yellow,0,1,0.226,0,1.0,+10,6
11tg5yxy1g1hl5rwr7qap82j,1,2,183,16,6,win,go,gw,rune_02_raido,yellow,1,1,0.632,1,0.0,+10,7
11tg5yxy1g1hl5rwr7qap82j,1,2,184,16,7,lose,go,gal,rune_02_haglaz,blue,1,1,0.192,1,0.0,-1,5
11tg5yxy1g1hl5rwr7qap82j,1,2,185,17,5,lose,no-go,ngal,rune_02_os,blue,0,1,0.342,0,0.0,-10,6
11tg5yxy1g1hl5rwr7qap82j,1,2,186,17,6,win,go,gw,rune_02_raido,yellow,1,1,0.341,1,0.0,+10,6
11tg5yxy1g1hl5rwr7qap82j,1,2,187,17,7,lose,go,gal,rune_02_haglaz,blue,1,1,0.251,1,1.0,-10,9
11tg5yxy1g1hl5rwr7qap82j,1,2,188,17,8,win,no-go,ngw,rune_02_cen,yellow,0,1,0.514,0,0.0,+1,9
11tg5yxy1g1hl5rwr7qap82j,1,2,189,18,8,win,no-go,ngw,rune_02_cen,yellow,0,1,0.269,0,0.0,+1,7
11tg5yxy1g1hl5rwr7qap82j,1,2,190,18,6,win,go,gw,rune_02_raido,yellow,1,1,0.426,1,1.0,+1,5
11tg5yxy1g1hl5rwr7qap82j,1,2,191,18,7,lose,go,gal,rune_02_haglaz,blue,1,1,0.816,1,0.0,-1,3
11tg5yxy1g1hl5rwr7qap82j,1,2,192,18,5,lose,no-go,ngal,rune_02_os,blue,0,1,0.294,0,0.0,-10,9
11tg5yxy1g1hl5rwr7qap82j,1,2,193,19,5,lose,no-go,ngal,rune_02_os,blue,0,1,0.132,0,0.0,-10,7
11tg5yxy1g1hl5rwr7qap82j,1,2,194,19,7,lose,go,gal,rune_02_haglaz,blue,1,1,1.19,1,0.0,-1,5
11tg5yxy1g1hl5rwr7qap82j,1,2,195,19,8,win,no-go,ngw,rune_02_cen,yellow,0,1,0.706,0,0.0,+1,4
11tg5yxy1g1hl5rwr7qap82j,1,2,196,19,6,win,go,gw,rune_02_raido,yellow,1,1,0.491,1,0.0,+10,5
11tg5yxy1g1hl5rwr7qap82j,1,2,197,20,5,lose,no-go,ngal,rune_02_os,blue,0,1,0.496,0,1.0,-1,5
11tg5yxy1g1hl5rwr7qap82j,1,2,198,20,7,lose,go,gal,rune_02_haglaz,blue,1,1,0.149,1,0.0,-1,5
11tg5yxy1g1hl5rwr7qap82j,1,2,199,20,6,win,go,gw,rune_02_raido,yellow,1,1,0.1,1,0.0,+10,6
11tg5yxy1g1hl5rwr7qap82j,1,2,200,20,8,win,no-go,ngw,rune_02_cen,yellow,0,1,0.301,0,0.0,+1,8
11tg5yxy1g1hl5rwr7qap82j,1,2,201,21,6,win,go,gw,rune_02_raido,yellow,1,1,0.056,1,0.0,+10,7
11tg5yxy1g1hl5rwr7qap82j,1,2,202,21,5,lose,no-go,ngal,rune_02_os,blue,0,1,0.638,0,0.0,-10,7
11tg5yxy1g1hl5rwr7qap82j,1,2,203,21,8,win,no-go,ngw,rune_02_cen,yellow,0,1,0.1,0,0.0,+1,8
11tg5yxy1g1hl5rwr7qap82j,1,2,204,21,7,lose,go,gal,rune_02_haglaz,blue,1,1,0.072,1,0.0,-1,8
11tg5yxy1g1hl5rwr7qap82j,1,2,205,22,5,lose,no-go,ngal,rune_02_os,blue,0,1,0.15,0,1.0,-1,7
11tg5yxy1g1hl5rwr7qap82j,1,2,206,22,6,win,go,gw,rune_02_raido,yellow,1,1,0.058,1,0.0,+10,6
11tg5yxy1g1hl5rwr7qap82j,1,2,207,22,7,lose,go,gal,rune_02_haglaz,blue,1,1,0.472,1,0.0,-1,4
11tg5yxy1g1hl5rwr7qap82j,1,2,208,22,8,win,no-go,ngw,rune_02_cen,yellow,0,1,0.364,0,0.0,+1,4
11tg5yxy1g1hl5rwr7qap82j,1,2,209,23,5,lose,no-go,ngal,rune_02_os,blue,0,1,0.126,0,0.0,-10,7
11tg5yxy1g1hl5rwr7qap82j,1,2,210,23,7,lose,go,gal,rune_02_haglaz,blue,1,1,0.282,1,0.0,-1,7
11tg5yxy1g1hl5rwr7qap82j,1,2,211,23,6,win,go,gw,rune_02_raido,yellow,1,1,0.011,1,0.0,+10,5
11tg5yxy1g1hl5rwr7qap82j,1,2,212,23,8,win,no-go,ngw,rune_02_cen,yellow,0,1,0.736,0,0.0,+1,7
11tg5yxy1g1hl5rwr7qap82j,1,2,213,24,8,win,no-go,ngw,rune_02_cen,yellow,0,0,,1,1.0,+1,2
11tg5yxy1g1hl5rwr7qap82j,1,2,214,24,5,lose,no-go,ngal,rune_02_os,blue,0,1,0.334,0,0.0,-10,5
11tg5yxy1g1hl5rwr7qap82j,1,2,215,24,7,lose,go,gal,rune_02_haglaz,blue,1,1,0.201,1,1.0,-10,6
11tg5yxy1g1hl5rwr7qap82j,1,2,216,24,6,win,go,gw,rune_02_raido,yellow,1,1,0.132,1,0.0,+10,10
11tg5yxy1g1hl5rwr7qap82j,1,2,217,25,7,lose,go,gal,rune_02_haglaz,blue,1,1,0.194,1,0.0,-1,7
11tg5yxy1g1hl5rwr7qap82j,1,2,218,25,5,lose,no-go,ngal,rune_02_os,blue,0,1,0.048,0,0.0,-10,8
11tg5yxy1g1hl5rwr7qap82j,1,2,219,25,6,win,go,gw,rune_02_raido,yellow,1,1,0.001,1,1.0,+1,9
11tg5yxy1g1hl5rwr7qap82j,1,2,220,25,8,win,no-go,ngw,rune_02_cen,yellow,0,1,0.231,0,0.0,+1,7
11tg5yxy1g1hl5rwr7qap82j,1,2,221,26,8,win,no-go,ngw,rune_02_cen,yellow,0,1,0.385,0,0.0,+1,8
11tg5yxy1g1hl5rwr7qap82j,1,2,222,26,5,lose,no-go,ngal,rune_02_os,blue,0,0,,1,0.0,-1,1
11tg5yxy1g1hl5rwr7qap82j,1,2,223,26,6,win,go,gw,rune_02_raido,yellow,1,1,0.142,1,1.0,+1,8
11tg5yxy1g1hl5rwr7qap82j,1,2,224,26,7,lose,go,gal,rune_02_haglaz,blue,1,1,0.094,1,0.0,-1,7
11tg5yxy1g1hl5rwr7qap82j,1,2,225,27,8,win,no-go,ngw,rune_02_cen,yellow,0,1,0.097,0,0.0,+1,1
11tg5yxy1g1hl5rwr7qap82j,1,2,226,27,6,win,go,gw,rune_02_raido,yellow,1,0,,0,0.0,+1,2
11tg5yxy1g1hl5rwr7qap82j,1,2,227,27,5,lose,no-go,ngal,rune_02_os,blue,0,1,0.17,0,1.0,-1,8
11tg5yxy1g1hl5rwr7qap82j,1,2,228,27,7,lose,go,gal,rune_02_haglaz,blue,1,1,0.159,1,0.0,-1,4
11tg5yxy1g1hl5rwr7qap82j,1,2,229,28,5,lose,no-go,ngal,rune_02_os,blue,0,1,0.053,0,0.0,-10,4
11tg5yxy1g1hl5rwr7qap82j,1,2,230,28,7,lose,go,gal,rune_02_haglaz,blue,1,1,0.0,1,1.0,-10,7
11tg5yxy1g1hl5rwr7qap82j,1,2,231,28,8,win,no-go,ngw,rune_02_cen,yellow,0,1,0.271,0,0.0,+1,7
11tg5yxy1g1hl5rwr7qap82j,1,2,232,28,6,win,go,gw,rune_02_raido,yellow,1,1,0.296,1,0.0,+10,8
11tg5yxy1g1hl5rwr7qap82j,1,2,233,29,8,win,no-go,ngw,rune_02_cen,yellow,0,1,0.159,0,0.0,+1,5
11tg5yxy1g1hl5rwr7qap82j,1,2,234,29,5,lose,no-go,ngal,rune_02_os,blue,0,1,0.179,0,0.0,-10,8
11tg5yxy1g1hl5rwr7qap82j,1,2,235,29,7,lose,go,gal,rune_02_haglaz,blue,1,1,0.176,1,0.0,-1,9
11tg5yxy1g1hl5rwr7qap82j,1,2,236,29,6,win,go,gw,rune_02_raido,yellow,1,1,0.226,1,0.0,+10,10
11tg5yxy1g1hl5rwr7qap82j,1,2,237,30,8,win,no-go,ngw,rune_02_cen,yellow,0,1,0.029,0,1.0,+10,9
11tg5yxy1g1hl5rwr7qap82j,1,2,238,30,7,lose,go,gal,rune_02_haglaz,blue,1,1,0.076,1,0.0,-1,10
11tg5yxy1g1hl5rwr7qap82j,1,2,239,30,6,win,go,gw,rune_02_raido,yellow,1,1,0.016,1,0.0,+10,9
11tg5yxy1g1hl5rwr7qap82j,1,2,240,30,5,lose,no-go,ngal,rune_02_os,blue,0,1,0.107,0,0.0,-10,10
12ide102xqajrz6cxib9berc,1,1,1,1,1,win,go,gw,rune_02_haglaz,yellow,1,1,1.403,1,0.0,+10,1
12ide102xqajrz6cxib9berc,1,1,2,1,2,lose,go,gal,rune_02_os,blue,1,0,,0,0.0,-10,0
12ide102xqajrz6cxib9berc,1,1,3,1,3,lose,no-go,ngal,rune_02_raido,blue,0,1,0.997,0,0.0,-10,1
12ide102xqajrz6cxib9berc,1,1,4,1,4,win,no-go,ngw,rune_02_cen,yellow,0,0,,1,0.0,+10,0
12ide102xqajrz6cxib9berc,1,1,5,2,1,win,go,gw,rune_02_haglaz,yellow,1,1,1.186,1,0.0,+10,1
12ide102xqajrz6cxib9berc,1,1,6,2,4,win,no-go,ngw,rune_02_cen,yellow,0,1,0.904,0,1.0,+10,1
12ide102xqajrz6cxib9berc,1,1,7,2,3,lose,no-go,ngal,rune_02_raido,blue,0,0,,1,1.0,-10,0
12ide102xqajrz6cxib9berc,1,1,8,2,2,lose,go,gal,rune_02_os,blue,1,0,,0,0.0,-10,0
12ide102xqajrz6cxib9berc,1,1,9,3,4,win,no-go,ngw,rune_02_cen,yellow,0,1,0.702,0,0.0,+1,1
12ide102xqajrz6cxib9berc,1,1,10,3,1,win,go,gw,rune_02_haglaz,yellow,1,1,0.844,1,1.0,+1,1
12ide102xqajrz6cxib9berc,1,1,11,3,3,lose,no-go,ngal,rune_02_raido,blue,0,0,,1,0.0,-1,0
12ide102xqajrz6cxib9berc,1,1,12,3,2,lose,go,gal,rune_02_os,blue,1,0,,0,0.0,-10,0
12ide102xqajrz6cxib9berc,1,1,13,4,4,win,no-go,ngw,rune_02_cen,yellow,0,1,0.584,0,0.0,+1,1
12ide102xqajrz6cxib9berc,1,1,14,4,3,lose,no-go,ngal,rune_02_raido,blue,0,1,0.592,0,0.0,-10,1
12ide102xqajrz6cxib9berc,1,1,15,4,1,win,go,gw,rune_02_haglaz,yellow,1,1,0.531,1,0.0,+10,1
12ide102xqajrz6cxib9berc,1,1,16,4,2,lose,go,gal,rune_02_os,blue,1,1,0.966,1,1.0,-10,1
12ide102xqajrz6cxib9berc,1,1,17,5,1,win,go,gw,rune_02_haglaz,yellow,1,1,0.589,1,0.0,+10,1
12ide102xqajrz6cxib9berc,1,1,18,5,2,lose,go,gal,rune_02_os,blue,1,0,,0,0.0,-10,0
12ide102xqajrz6cxib9berc,1,1,19,5,3,lose,no-go,ngal,rune_02_raido,blue,0,0,,1,0.0,-1,0
12ide102xqajrz6cxib9berc,1,1,20,5,4,win,no-go,ngw,rune_02_cen,yellow,0,1,0.586,0,0.0,+1,1
12ide102xqajrz6cxib9berc,1,1,21,6,2,lose,go,gal,rune_02_os,blue,1,0,,0,0.0,-10,0
12ide102xqajrz6cxib9berc,1,1,22,6,3,lose,no-go,ngal,rune_02_raido,blue,0,1,1.124,0,1.0,-1,1
12ide102xqajrz6cxib9berc,1,1,23,6,4,win,no-go,ngw,rune_02_cen,yellow,0,1,0.65,0,1.0,+10,1
12ide102xqajrz6cxib9berc,1,1,24,6,1,win,go,gw,rune_02_haglaz,yellow,1,1,0.844,1,0.0,+10,1
12ide102xqajrz6cxib9berc,1,1,25,7,2,lose,go,gal,rune_02_os,blue,1,0,,0,1.0,-1,0
12ide102xqajrz6cxib9berc,1,1,26,7,3,lose,no-go,ngal,rune_02_raido,blue,0,1,1.122,0,0.0,-10,1
12ide102xqajrz6cxib9berc,1,1,27,7,1,win,go,gw,rune_02_haglaz,yellow,1,0,,0,1.0,+10,0
12ide102xqajrz6cxib9berc,1,1,28,7,4,win,no-go,ngw,rune_02_cen,yellow,0,0,,1,0.0,+10,1
12ide102xqajrz6cxib9berc,1,1,29,8,1,win,go,gw,rune_02_haglaz,yellow,1,0,,0,0.0,+1,0
12ide102xqajrz6cxib9berc,1,1,30,8,2,lose,go,gal,rune_02_os,blue,1,0,,0,0.0,-10,0
12ide102xqajrz6cxib9berc,1,1,31,8,3,lose,no-go,ngal,rune_02_raido,blue,0,0,,1,0.0,-1,0
12ide102xqajrz6cxib9berc,1,1,32,8,4,win,no-go,ngw,rune_02_cen,yellow,0,1,1.126,0,0.0,+1,1
12ide102xqajrz6cxib9berc,1,1,33,9,2,lose,go,gal,rune_02_os,blue,1,0,,0,0.0,-10,0
12ide102xqajrz6cxib9berc,1,1,34,9,3,lose,no-go,ngal,rune_02_raido,blue,0,1,1.498,0,0.0,-10,1
12ide102xqajrz6cxib9berc,1,1,35,9,4,win,no-go,ngw,rune_02_cen,yellow,0,0,,1,0.0,+10,0
12ide102xqajrz6cxib9berc,1,1,36,9,1,win,go,gw,rune_02_haglaz,yellow,1,0,,0,0.0,+1,0
12ide102xqajrz6cxib9berc,1,1,37,10,1,win,go,gw,rune_02_haglaz,yellow,1,1,0.841,1,0.0,+10,1
12ide102xqajrz6cxib9berc,1,1,38,10,3,lose,no-go,ngal,rune_02_raido,blue,0,0,,1,0.0,-1,0
12ide102xqajrz6cxib9berc,1,1,39,10,2,lose,go,gal,rune_02_os,blue,1,0,,0,0.0,-10,0
12ide102xqajrz6cxib9berc,1,1,40,10,4,win,no-go,ngw,rune_02_cen,yellow,0,1,0.84,0,0.0,+1,1
12ide102xqajrz6cxib9berc,1,1,41,11,1,win,go,gw,rune_02_haglaz,yellow,1,1,0.721,1,0.0,+10,1
12ide102xqajrz6cxib9berc,1,1,42,11,2,lose,go,gal,rune_02_os,blue,1,1,1.466,1,0.0,-1,1
12ide102xqajrz6cxib9berc,1,1,43,11,4,win,no-go,ngw,rune_02_cen,yellow,0,0,,1,0.0,+10,0
12ide102xqajrz6cxib9berc,1,1,44,11,3,lose,no-go,ngal,rune_02_raido,blue,0,0,,1,0.0,-1,1
12ide102xqajrz6cxib9berc,1,1,45,12,4,win,no-go,ngw,rune_02_cen,yellow,0,1,0.841,0,1.0,+10,1
12ide102xqajrz6cxib9berc,1,1,46,12,3,lose,no-go,ngal,rune_02_raido,blue,0,1,1.155,0,0.0,-10,1
12ide102xqajrz6cxib9berc,1,1,47,12,2,lose,go,gal,rune_02_os,blue,1,1,0.902,1,0.0,-1,1
12ide102xqajrz6cxib9berc,1,1,48,12,1,win,go,gw,rune_02_haglaz,yellow,1,1,0.717,1,0.0,+10,1
12ide102xqajrz6cxib9berc,1,1,49,13,2,lose,go,gal,rune_02_os,blue,1,1,1.094,1,0.0,-1,1
12ide102xqajrz6cxib9berc,1,1,50,13,4,win,no-go,ngw,rune_02_cen,yellow,0,0,,1,0.0,+10,0
12ide102xqajrz6cxib9berc,1,1,51,13,3,lose,no-go,ngal,rune_02_raido,blue,0,1,1.17,0,1.0,-1,1
12ide102xqajrz6cxib9berc,1,1,52,13,1,win,go,gw,rune_02_haglaz,yellow,1,1,1.22,1,1.0,+1,1
12ide102xqajrz6cxib9berc,1,1,53,14,1,win,go,gw,rune_02_haglaz,yellow,1,1,1.035,1,0.0,+10,1
12ide102xqajrz6cxib9berc,1,1,54,14,2,lose,go,gal,rune_02_os,blue,1,1,1.206,1,0.0,-1,1
12ide102xqajrz6cxib9berc,1,1,55,14,3,lose,no-go,ngal,rune_02_raido,blue,0,0,,1,0.0,-1,1
12ide102xqajrz6cxib9berc,1,1,56,14,4,win,no-go,ngw,rune_02_cen,yellow,0,0,,1,0.0,+10,0
12ide102xqajrz6cxib9berc,1,1,57,15,1,win,go,gw,rune_02_haglaz,yellow,1,1,1.095,1,0.0,+10,1
12ide102xqajrz6cxib9berc,1,1,58,15,4,win,no-go,ngw,rune_02_cen,yellow,0,0,,1,0.0,+10,0
12ide102xqajrz6cxib9berc,1,1,59,15,3,lose,no-go,ngal,rune_02_raido,blue,0,1,1.178,0,0.0,-10,1
12ide102xqajrz6cxib9berc,1,1,60,15,2,lose,go,gal,rune_02_os,blue,1,0,,0,1.0,-1,1
12ide102xqajrz6cxib9berc,1,1,61,16,1,win,go,gw,rune_02_haglaz,yellow,1,1,0.715,1,1.0,+1,1
12ide102xqajrz6cxib9berc,1,1,62,16,2,lose,go,gal,rune_02_os,blue,1,0,,0,0.0,-10,0
12ide102xqajrz6cxib9berc,1,1,63,16,3,lose,no-go,ngal,rune_02_raido,blue,0,0,,1,0.0,-1,0
12ide102xqajrz6cxib9berc,1,1,64,16,4,win,no-go,ngw,rune_02_cen,yellow,0,1,0.903,0,0.0,+1,1
12ide102xqajrz6cxib9berc,1,1,65,17,3,lose,no-go,ngal,rune_02_raido,blue,0,1,1.464,0,0.0,-10,1
12ide102xqajrz6cxib9berc,1,1,66,17,1,win,go,gw,rune_02_haglaz,yellow,1,1,0.651,1,0.0,+10,1
12ide102xqajrz6cxib9berc,1,1,67,17,4,win,no-go,ngw,rune_02_cen,yellow,0,1,0.968,0,0.0,+1,1
12ide102xqajrz6cxib9berc,1,1,68,17,2,lose,go,gal,rune_02_os,blue,1,1,1.157,1,0.0,-1,1
12ide102xqajrz6cxib9berc,1,1,69,18,2,lose,go,gal,rune_02_os,blue,1,1,1.028,1,0.0,-1,1
12ide102xqajrz6cxib9berc,1,1,70,18,3,lose,no-go,ngal,rune_02_raido,blue,0,0,,1,0.0,-1,1
12ide102xqajrz6cxib9berc,1,1,71,18,1,win,go,gw,rune_02_haglaz,yellow,1,1,1.374,1,0.0,+10,1
12ide102xqajrz6cxib9berc,1,1,72,18,4,win,no-go,ngw,rune_02_cen,yellow,0,0,,1,0.0,+10,0
12ide102xqajrz6cxib9berc,1,1,73,19,4,win,no-go,ngw,rune_02_cen,yellow,0,0,,1,1.0,+1,0
12ide102xqajrz6cxib9berc,1,1,74,19,1,win,go,gw,rune_02_haglaz,yellow,1,0,,0,0.0,+1,1
12ide102xqajrz6cxib9berc,1,1,75,19,3,lose,no-go,ngal,rune_02_raido,blue,0,0,,1,0.0,-1,0
12ide102xqajrz6cxib9berc,1,1,76,19,2,lose,go,gal,rune_02_os,blue,1,1,0.831,1,1.0,-10,1
12ide102xqajrz6cxib9berc,1,1,77,20,3,lose,no-go,ngal,rune_02_raido,blue,0,1,1.092,0,1.0,-1,1
12ide102xqajrz6cxib9berc,1,1,78,20,2,lose,go,gal,rune_02_os,blue,1,0,,0,0.0,-10,0
12ide102xqajrz6cxib9berc,1,1,79,20,1,win,go,gw,rune_02_haglaz,yellow,1,1,1.438,1,0.0,+10,1
12ide102xqajrz6cxib9berc,1,1,80,20,4,win,no-go,ngw,rune_02_cen,yellow,0,0,,1,0.0,+10,0
12ide102xqajrz6cxib9berc,1,1,81,21,3,lose,no-go,ngal,rune_02_raido,blue,0,1,1.245,0,1.0,-1,1
12ide102xqajrz6cxib9berc,1,1,82,21,1,win,go,gw,rune_02_haglaz,yellow,1,1,1.281,1,0.0,+10,1
12ide102xqajrz6cxib9berc,1,1,83,21,4,win,no-go,ngw,rune_02_cen,yellow,0,1,1.387,0,0.0,+1,1
12ide102xqajrz6cxib9berc,1,1,84,21,2,lose,go,gal,rune_02_os,blue,1,0,,0,0.0,-10,0
12ide102xqajrz6cxib9berc,1,1,85,22,1,win,go,gw,rune_02_haglaz,yellow,1,1,1.375,1,1.0,+1,1
12ide102xqajrz6cxib9berc,1,1,86,22,4,win,no-go,ngw,rune_02_cen,yellow,0,0,,1,1.0,+1,1
12ide102xqajrz6cxib9berc,1,1,87,22,2,lose,go,gal,rune_02_os,blue,1,1,0.918,1,0.0,-1,1
12ide102xqajrz6cxib9berc,1,1,88,22,3,lose,no-go,ngal,rune_02_raido,blue,0,1,1.341,0,0.0,-10,1
12ide102xqajrz6cxib9berc,1,1,89,23,3,lose,no-go,ngal,rune_02_raido,blue,0,0,,1,0.0,-1,1
12ide102xqajrz6cxib9berc,1,1,90,23,1,win,go,gw,rune_02_haglaz,yellow,1,1,1.065,1,0.0,+10,1
12ide102xqajrz6cxib9berc,1,1,91,23,2,lose,go,gal,rune_02_os,blue,1,0,,0,1.0,-1,0
12ide102xqajrz6cxib9berc,1,1,92,23,4,win,no-go,ngw,rune_02_cen,yellow,0,0,,1,0.0,+10,0
12ide102xqajrz6cxib9berc,1,1,93,24,1,win,go,gw,rune_02_haglaz,yellow,1,0,,0,0.0,+1,0
12ide102xqajrz6cxib9berc,1,1,94,24,2,lose,go,gal,rune_02_os,blue,1,0,,0,0.0,-10,0
12ide102xqajrz6cxib9berc,1,1,95,24,4,win,no-go,ngw,rune_02_cen,yellow,0,1,0.717,0,0.0,+1,1
12ide102xqajrz6cxib9berc,1,1,96,24,3,lose,no-go,ngal,rune_02_raido,blue,0,0,,1,0.0,-1,0
12ide102xqajrz6cxib9berc,1,1,97,25,4,win,no-go,ngw,rune_02_cen,yellow,0,1,0.675,0,0.0,+1,1
12ide102xqajrz6cxib9berc,1,1,98,25,3,lose,no-go,ngal,rune_02_raido,blue,0,0,,1,0.0,-1,0
12ide102xqajrz6cxib9berc,1,1,99,25,2,lose,go,gal,rune_02_os,blue,1,0,,0,0.0,-10,0
12ide102xqajrz6cxib9berc,1,1,100,25,1,win,go,gw,rune_02_haglaz,yellow,1,1,1.214,1,0.0,+10,1
12ide102xqajrz6cxib9berc,1,1,101,26,3,lose,no-go,ngal,rune_02_raido,blue,0,0,,1,0.0,-1,0
12ide102xqajrz6cxib9berc,1,1,102,26,1,win,go,gw,rune_02_haglaz,yellow,1,1,0.812,1,0.0,+10,1
12ide102xqajrz6cxib9berc,1,1,103,26,4,win,no-go,ngw,rune_02_cen,yellow,0,0,,1,0.0,+10,0
12ide102xqajrz6cxib9berc,1,1,104,26,2,lose,go,gal,rune_02_os,blue,1,1,1.224,1,0.0,-1,1
12ide102xqajrz6cxib9berc,1,1,105,27,4,win,no-go,ngw,rune_02_cen,yellow,0,0,,1,1.0,+1,0
12ide102xqajrz6cxib9berc,1,1,106,27,2,lose,go,gal,rune_02_os,blue,1,0,,0,0.0,-10,1
12ide102xqajrz6cxib9berc,1,1,107,27,1,win,go,gw,rune_02_haglaz,yellow,1,1,1.34,1,0.0,+10,1
12ide102xqajrz6cxib9berc,1,1,108,27,3,lose,no-go,ngal,rune_02_raido,blue,0,0,,1,1.0,-10,0
12ide102xqajrz6cxib9berc,1,1,109,28,1,win,go,gw,rune_02_haglaz,yellow,1,1,0.918,1,1.0,+1,1
12ide102xqajrz6cxib9berc,1,1,110,28,3,lose,no-go,ngal,rune_02_raido,blue,0,0,,1,0.0,-1,0
12ide102xqajrz6cxib9berc,1,1,111,28,4,win,no-go,ngw,rune_02_cen,yellow,0,1,0.874,0,0.0,+1,1
12ide102xqajrz6cxib9berc,1,1,112,28,2,lose,go,gal,rune_02_os,blue,1,1,1.406,1,1.0,-10,1
12ide102xqajrz6cxib9berc,1,1,113,29,1,win,go,gw,rune_02_haglaz,yellow,1,0,,0,0.0,+1,1
12ide102xqajrz6cxib9berc,1,1,114,29,2,lose,go,gal,rune_02_os,blue,1,0,,0,0.0,-10,0
12ide102xqajrz6cxib9berc,1,1,115,29,3,lose,no-go,ngal,rune_02_raido,blue,0,0,,1,0.0,-1,0
12ide102xqajrz6cxib9berc,1,1,116,29,4,win,no-go,ngw,rune_02_cen,yellow,0,0,,1,0.0,+10,0
12ide102xqajrz6cxib9berc,1,1,117,30,1,win,go,gw,rune_02_haglaz,yellow,1,0,,0,0.0,+1,0
12ide102xqajrz6cxib9berc,1,1,118,30,2,lose,go,gal,rune_02_os,blue,1,0,,0,0.0,-10,0
12ide102xqajrz6cxib9berc,1,1,119,30,3,lose,no-go,ngal,rune_02_raido,blue,0,1,1.082,0,0.0,-10,1
12ide102xqajrz6cxib9berc,1,1,120,30,4,win,no-go,ngw,rune_02_cen,yellow,0,0,,1,0.0,+10,0
12ide102xqajrz6cxib9berc,1,2,121,1,5,win,no-go,ngw,rune_01_ingwaz,yellow,0,1,0.62,0,0.0,+1,1
12ide102xqajrz6cxib9berc,1,2,122,1,6,win,go,gw,rune_01_ear,yellow,1,1,0.594,1,0.0,+10,1
12ide102xqajrz6cxib9berc,1,2,123,1,7,lose,go,gal,rune_01_yr,blue,1,1,1.094,1,0.0,-1,1
12ide102xqajrz6cxib9berc,1,2,124,1,8,lose,no-go,ngal,rune_01_ger,blue,0,0,,1,0.0,-1,0
12ide102xqajrz6cxib9berc,1,2,125,2,8,lose,no-go,ngal,rune_01_ger,blue,0,0,,1,1.0,-10,0
12ide102xqajrz6cxib9berc,1,2,126,2,5,win,no-go,ngw,rune_01_ingwaz,yellow,0,1,0.777,0,1.0,+10,1
12ide102xqajrz6cxib9berc,1,2,127,2,6,win,go,gw,rune_01_ear,yellow,1,1,0.658,1,0.0,+10,1
12ide102xqajrz6cxib9berc,1,2,128,2,7,lose,go,gal,rune_01_yr,blue,1,1,1.023,1,0.0,-1,1
12ide102xqajrz6cxib9berc,1,2,129,3,7,lose,go,gal,rune_01_yr,blue,1,1,1.157,1,0.0,-1,1
12ide102xqajrz6cxib9berc,1,2,130,3,5,win,no-go,ngw,rune_01_ingwaz,yellow,0,1,1.08,0,0.0,+1,1
12ide102xqajrz6cxib9berc,1,2,131,3,8,lose,no-go,ngal,rune_01_ger,blue,0,1,1.404,0,0.0,-10,1
12ide102xqajrz6cxib9berc,1,2,132,3,6,win,go,gw,rune_01_ear,yellow,1,1,0.218,1,1.0,+1,1
12ide102xqajrz6cxib9berc,1,2,133,4,8,lose,no-go,ngal,rune_01_ger,blue,0,0,,1,0.0,-1,1
12ide102xqajrz6cxib9berc,1,2,134,4,7,lose,go,gal,rune_01_yr,blue,1,1,1.183,1,1.0,-10,1
12ide102xqajrz6cxib9berc,1,2,135,4,5,win,no-go,ngw,rune_01_ingwaz,yellow,0,1,0.718,0,0.0,+1,1
12ide102xqajrz6cxib9berc,1,2,136,4,6,win,go,gw,rune_01_ear,yellow,1,1,0.778,1,0.0,+10,1
12ide102xqajrz6cxib9berc,1,2,137,5,7,lose,go,gal,rune_01_yr,blue,1,1,0.906,1,0.0,-1,1
12ide102xqajrz6cxib9berc,1,2,138,5,6,win,go,gw,rune_01_ear,yellow,1,0,,0,0.0,+1,1
12ide102xqajrz6cxib9berc,1,2,139,5,5,win,no-go,ngw,rune_01_ingwaz,yellow,0,1,1.184,0,0.0,+1,1
12ide102xqajrz6cxib9berc,1,2,140,5,8,lose,no-go,ngal,rune_01_ger,blue,0,0,,1,0.0,-1,0
12ide102xqajrz6cxib9berc,1,2,141,6,5,win,no-go,ngw,rune_01_ingwaz,yellow,0,1,0.685,0,1.0,+10,1
12ide102xqajrz6cxib9berc,1,2,142,6,6,win,go,gw,rune_01_ear,yellow,1,1,0.842,1,0.0,+10,1
12ide102xqajrz6cxib9berc,1,2,143,6,7,lose,go,gal,rune_01_yr,blue,1,0,,0,0.0,-10,0
12ide102xqajrz6cxib9berc,1,2,144,6,8,lose,no-go,ngal,rune_01_ger,blue,0,0,,1,1.0,-10,0
12ide102xqajrz6cxib9berc,1,2,145,7,5,win,no-go,ngw,rune_01_ingwaz,yellow,0,1,0.781,0,0.0,+1,1
12ide102xqajrz6cxib9berc,1,2,146,7,8,lose,no-go,ngal,rune_01_ger,blue,0,0,,1,0.0,-1,0
12ide102xqajrz6cxib9berc,1,2,147,7,7,lose,go,gal,rune_01_yr,blue,1,1,0.435,1,1.0,-10,1
12ide102xqajrz6cxib9berc,1,2,148,7,6,win,go,gw,rune_01_ear,yellow,1,1,0.842,1,1.0,+1,1
12ide102xqajrz6cxib9berc,1,2,149,8,6,win,go,gw,rune_01_ear,yellow,1,1,0.714,1,0.0,+10,1
12ide102xqajrz6cxib9berc,1,2,150,8,8,lose,no-go,ngal,rune_01_ger,blue,0,1,0.654,0,0.0,-10,1
12ide102xqajrz6cxib9berc,1,2,151,8,7,lose,go,gal,rune_01_yr,blue,1,1,0.656,1,0.0,-1,1
12ide102xqajrz6cxib9berc,1,2,152,8,5,win,no-go,ngw,rune_01_ingwaz,yellow,0,0,,1,0.0,+10,1
12ide102xqajrz6cxib9berc,1,2,153,9,7,lose,go,gal,rune_01_yr,blue,1,1,0.994,1,0.0,-1,1
12ide102xqajrz6cxib9berc,1,2,154,9,5,win,no-go,ngw,rune_01_ingwaz,yellow,0,1,1.219,0,0.0,+1,1
12ide102xqajrz6cxib9berc,1,2,155,9,8,lose,no-go,ngal,rune_01_ger,blue,0,0,,1,0.0,-1,0
12ide102xqajrz6cxib9berc,1,2,156,9,6,win,go,gw,rune_01_ear,yellow,1,1,0.809,1,0.0,+10,1
12ide102xqajrz6cxib9berc,1,2,157,10,8,lose,no-go,ngal,rune_01_ger,blue,0,0,,1,0.0,-1,0
12ide102xqajrz6cxib9berc,1,2,158,10,6,win,go,gw,rune_01_ear,yellow,1,0,,0,0.0,+1,1
12ide102xqajrz6cxib9berc,1,2,159,10,7,lose,go,gal,rune_01_yr,blue,1,0,,0,0.0,-10,1
12ide102xqajrz6cxib9berc,1,2,160,10,5,win,no-go,ngw,rune_01_ingwaz,yellow,0,1,0.75,0,0.0,+1,1
12ide102xqajrz6cxib9berc,1,2,161,11,6,win,go,gw,rune_01_ear,yellow,1,1,1.086,1,0.0,+10,1
12ide102xqajrz6cxib9berc,1,2,162,11,7,lose,go,gal,rune_01_yr,blue,1,0,,0,0.0,-10,1
12ide102xqajrz6cxib9berc,1,2,163,11,8,lose,no-go,ngal,rune_01_ger,blue,0,0,,1,0.0,-1,0
12ide102xqajrz6cxib9berc,1,2,164,11,5,win,no-go,ngw,rune_01_ingwaz,yellow,0,0,,1,0.0,+10,1
12ide102xqajrz6cxib9berc,1,2,165,12,8,lose,no-go,ngal,rune_01_ger,blue,0,0,,1,0.0,-1,0
12ide102xqajrz6cxib9berc,1,2,166,12,6,win,go,gw,rune_01_ear,yellow,1,1,0.967,1,0.0,+10,1
12ide102xqajrz6cxib9berc,1,2,167,12,7,lose,go,gal,rune_01_yr,blue,1,0,,0,0.0,-10,0
12ide102xqajrz6cxib9berc,1,2,168,12,5,win,no-go,ngw,rune_01_ingwaz,yellow,0,1,0.811,0,1.0,+10,1
12ide102xqajrz6cxib9berc,1,2,169,13,6,win,go,gw,rune_01_ear,yellow,1,0,,0,1.0,+10,0
12ide102xqajrz6cxib9berc,1,2,170,13,7,lose,go,gal,rune_01_yr,blue,1,1,0.997,1,0.0,-1,1
12ide102xqajrz6cxib9berc,1,2,171,13,5,win,no-go,ngw,rune_01_ingwaz,yellow,0,1,1.031,0,0.0,+1,1
12ide102xqajrz6cxib9berc,1,2,172,13,8,lose,no-go,ngal,rune_01_ger,blue,0,0,,1,1.0,-10,1
12ide102xqajrz6cxib9berc,1,2,173,14,5,win,no-go,ngw,rune_01_ingwaz,yellow,0,1,0.81,0,0.0,+1,1
12ide102xqajrz6cxib9berc,1,2,174,14,8,lose,no-go,ngal,rune_01_ger,blue,0,0,,1,0.0,-1,0
12ide102xqajrz6cxib9berc,1,2,175,14,6,win,go,gw,rune_01_ear,yellow,1,1,0.873,1,0.0,+10,1
12ide102xqajrz6cxib9berc,1,2,176,14,7,lose,go,gal,rune_01_yr,blue,1,0,,0,0.0,-10,0
12ide102xqajrz6cxib9berc,1,2,177,15,5,win,no-go,ngw,rune_01_ingwaz,yellow,0,1,0.685,0,0.0,+1,1
12ide102xqajrz6cxib9berc,1,2,178,15,7,lose,go,gal,rune_01_yr,blue,1,0,,0,1.0,-1,0
12ide102xqajrz6cxib9berc,1,2,179,15,6,win,go,gw,rune_01_ear,yellow,1,1,0.81,1,0.0,+10,1
12ide102xqajrz6cxib9berc,1,2,180,15,8,lose,no-go,ngal,rune_01_ger,blue,0,0,,1,0.0,-1,0
12ide102xqajrz6cxib9berc,1,2,181,16,7,lose,go,gal,rune_01_yr,blue,1,0,,0,0.0,-10,0
12ide102xqajrz6cxib9berc,1,2,182,16,6,win,go,gw,rune_01_ear,yellow,1,1,0.593,1,1.0,+1,1
12ide102xqajrz6cxib9berc,1,2,183,16,5,win,no-go,ngw,rune_01_ingwaz,yellow,0,0,,1,0.0,+10,0
12ide102xqajrz6cxib9berc,1,2,184,16,8,lose,no-go,ngal,rune_01_ger,blue,0,1,1.061,0,0.0,-10,1
12ide102xqajrz6cxib9berc,1,2,185,17,8,lose,no-go,ngal,rune_01_ger,blue,0,0,,1,0.0,-1,0
12ide102xqajrz6cxib9berc,1,2,186,17,6,win,go,gw,rune_01_ear,yellow,1,1,0.998,1,0.0,+10,1
12ide102xqajrz6cxib9berc,1,2,187,17,5,win,no-go,ngw,rune_01_ingwaz,yellow,0,0,,1,0.0,+10,0
12ide102xqajrz6cxib9berc,1,2,188,17,7,lose,go,gal,rune_01_yr,blue,1,1,0.684,1,0.0,-1,2
12ide102xqajrz6cxib9berc,1,2,189,18,6,win,go,gw,rune_01_ear,yellow,1,1,0.72,1,0.0,+10,1
12ide102xqajrz6cxib9berc,1,2,190,18,8,lose,no-go,ngal,rune_01_ger,blue,0,0,,1,0.0,-1,0
12ide102xqajrz6cxib9berc,1,2,191,18,5,win,no-go,ngw,rune_01_ingwaz,yellow,0,1,0.62,0,0.0,+1,1
12ide102xqajrz6cxib9berc,1,2,192,18,7,lose,go,gal,rune_01_yr,blue,1,1,0.718,1,0.0,-1,1
12ide102xqajrz6cxib9berc,1,2,193,19,6,win,go,gw,rune_01_ear,yellow,1,1,0.657,1,0.0,+10,1
12ide102xqajrz6cxib9berc,1,2,194,19,5,win,no-go,ngw,rune_01_ingwaz,yellow,0,1,0.844,0,1.0,+10,1
12ide102xqajrz6cxib9berc,1,2,195,19,7,lose,go,gal,rune_01_yr,blue,1,1,1.231,1,1.0,-10,1
12ide102xqajrz6cxib9berc,1,2,196,19,8,lose,no-go,ngal,rune_01_ger,blue,0,1,0.632,0,0.0,-10,1
12ide102xqajrz6cxib9berc,1,2,197,20,7,lose,go,gal,rune_01_yr,blue,1,1,0.717,1,0.0,-1,1
12ide102xqajrz6cxib9berc,1,2,198,20,8,lose,no-go,ngal,rune_01_ger,blue,0,1,1.335,0,1.0,-1,1
12ide102xqajrz6cxib9berc,1,2,199,20,6,win,go,gw,rune_01_ear,yellow,1,1,0.781,1,0.0,+10,1
12ide102xqajrz6cxib9berc,1,2,200,20,5,win,no-go,ngw,rune_01_ingwaz,yellow,0,0,,1,0.0,+10,1
12ide102xqajrz6cxib9berc,1,2,201,21,7,lose,go,gal,rune_01_yr,blue,1,1,1.498,1,0.0,-1,1
12ide102xqajrz6cxib9berc,1,2,202,21,8,lose,no-go,ngal,rune_01_ger,blue,0,0,,1,1.0,-10,0
12ide102xqajrz6cxib9berc,1,2,203,21,6,win,go,gw,rune_01_ear,yellow,1,1,0.87,1,0.0,+10,1
12ide102xqajrz6cxib9berc,1,2,204,21,5,win,no-go,ngw,rune_01_ingwaz,yellow,0,0,,1,0.0,+10,1
12ide102xqajrz6cxib9berc,1,2,205,22,6,win,go,gw,rune_01_ear,yellow,1,1,0.937,1,1.0,+1,1
12ide102xqajrz6cxib9berc,1,2,206,22,7,lose,go,gal,rune_01_yr,blue,1,0,,0,0.0,-10,0
12ide102xqajrz6cxib9berc,1,2,207,22,8,lose,no-go,ngal,rune_01_ger,blue,0,0,,1,0.0,-1,0
12ide102xqajrz6cxib9berc,1,2,208,22,5,win,no-go,ngw,rune_01_ingwaz,yellow,0,1,0.649,0,1.0,+10,1
12ide102xqajrz6cxib9berc,1,2,209,23,7,lose,go,gal,rune_01_yr,blue,1,0,,0,1.0,-1,0
12ide102xqajrz6cxib9berc,1,2,210,23,5,win,no-go,ngw,rune_01_ingwaz,yellow,0,1,0.93,0,0.0,+1,1
12ide102xqajrz6cxib9berc,1,2,211,23,6,win,go,gw,rune_01_ear,yellow,1,1,1.093,1,0.0,+10,1
12ide102xqajrz6cxib9berc,1,2,212,23,8,lose,no-go,ngal,rune_01_ger,blue,0,0,,1,0.0,-1,0
12ide102xqajrz6cxib9berc,1,2,213,24,8,lose,no-go,ngal,rune_01_ger,blue,0,0,,1,0.0,-1,0
12ide102xqajrz6cxib9berc,1,2,214,24,5,win,no-go,ngw,rune_01_ingwaz,yellow,0,1,0.901,0,0.0,+1,1
12ide102xqajrz6cxib9berc,1,2,215,24,6,win,go,gw,rune_01_ear,yellow,1,1,0.782,1,0.0,+10,1
12ide102xqajrz6cxib9berc,1,2,216,24,7,lose,go,gal,rune_01_yr,blue,1,1,1.078,1,0.0,-1,1
12ide102xqajrz6cxib9berc,1,2,217,25,5,win,no-go,ngw,rune_01_ingwaz,yellow,0,0,,1,0.0,+10,1
12ide102xqajrz6cxib9berc,1,2,218,25,6,win,go,gw,rune_01_ear,yellow,1,1,0.746,1,0.0,+10,1
12ide102xqajrz6cxib9berc,1,2,219,25,7,lose,go,gal,rune_01_yr,blue,1,1,1.4,1,0.0,-1,1
12ide102xqajrz6cxib9berc,1,2,220,25,8,lose,no-go,ngal,rune_01_ger,blue,0,1,0.905,0,0.0,-10,1
12ide102xqajrz6cxib9berc,1,2,221,26,5,win,no-go,ngw,rune_01_ingwaz,yellow,0,1,1.032,0,0.0,+1,1
12ide102xqajrz6cxib9berc,1,2,222,26,7,lose,go,gal,rune_01_yr,blue,1,1,0.839,1,0.0,-1,1
12ide102xqajrz6cxib9berc,1,2,223,26,6,win,go,gw,rune_01_ear,yellow,1,1,0.659,1,0.0,+10,1
12ide102xqajrz6cxib9berc,1,2,224,26,8,lose,no-go,ngal,rune_01_ger,blue,0,1,1.091,0,0.0,-10,1
12ide102xqajrz6cxib9berc,1,2,225,27,7,lose,go,gal,rune_01_yr,blue,1,0,,0,0.0,-10,1
12ide102xqajrz6cxib9berc,1,2,226,27,6,win,go,gw,rune_01_ear,yellow,1,1,0.814,1,0.0,+10,1
12ide102xqajrz6cxib9berc,1,2,227,27,8,lose,no-go,ngal,rune_01_ger,blue,0,0,,1,1.0,-10,0
12ide102xqajrz6cxib9berc,1,2,228,27,5,win,no-go,ngw,rune_01_ingwaz,yellow,0,1,0.69,0,1.0,+10,1
12ide102xqajrz6cxib9berc,1,2,229,28,6,win,go,gw,rune_01_ear,yellow,1,1,1.091,1,1.0,+1,1
12ide102xqajrz6cxib9berc,1,2,230,28,5,win,no-go,ngw,rune_01_ingwaz,yellow,0,1,0.782,0,0.0,+1,1
12ide102xqajrz6cxib9berc,1,2,231,28,7,lose,go,gal,rune_01_yr,blue,1,1,1.031,1,1.0,-10,1
12ide102xqajrz6cxib9berc,1,2,232,28,8,lose,no-go,ngal,rune_01_ger,blue,0,0,,1,0.0,-1,0
12ide102xqajrz6cxib9berc,1,2,233,29,6,win,go,gw,rune_01_ear,yellow,1,1,0.866,1,0.0,+10,1
12ide102xqajrz6cxib9berc,1,2,234,29,7,lose,go,gal,rune_01_yr,blue,1,0,,0,0.0,-10,0
12ide102xqajrz6cxib9berc,1,2,235,29,8,lose,no-go,ngal,rune_01_ger,blue,0,1,0.799,0,0.0,-10,2
12ide102xqajrz6cxib9berc,1,2,236,29,5,win,no-go,ngw,rune_01_ingwaz,yellow,0,0,,1,0.0,+10,1
12ide102xqajrz6cxib9berc,1,2,237,30,8,lose,no-go,ngal,rune_01_ger,blue,0,0,,1,0.0,-1,0
12ide102xqajrz6cxib9berc,1,2,238,30,5,win,no-go,ngw,rune_01_ingwaz,yellow,0,1,0.995,0,0.0,+1,1
12ide102xqajrz6cxib9berc,1,2,239,30,6,win,go,gw,rune_01_ear,yellow,1,1,0.8,1,0.0,+10,1
12ide102xqajrz6cxib9berc,1,2,240,30,7,lose,go,gal,rune_01_yr,blue,1,0,,0,0.0,-10,0
1dneojj1ydge4lw1zgtzfoj8,1,1,1,1,1,lose,go,gal,rune_02_os,blue,1,1,0.487,1,0.0,-1,1
1dneojj1ydge4lw1zgtzfoj8,1,1,2,1,2,lose,no-go,ngal,rune_02_raido,blue,0,1,0.674,0,0.0,-10,1
1dneojj1ydge4lw1zgtzfoj8,1,1,3,1,3,win,no-go,ngw,rune_02_cen,yellow,0,1,0.51,0,0.0,+1,1
1dneojj1ydge4lw1zgtzfoj8,1,1,4,1,4,win,go,gw,rune_02_haglaz,yellow,1,1,0.539,1,0.0,+10,1
1dneojj1ydge4lw1zgtzfoj8,1,1,5,2,3,win,no-go,ngw,rune_02_cen,yellow,0,1,0.486,0,0.0,+1,1
1dneojj1ydge4lw1zgtzfoj8,1,1,6,2,1,lose,go,gal,rune_02_os,blue,1,0,,0,0.0,-10,0
1dneojj1ydge4lw1zgtzfoj8,1,1,7,2,4,win,go,gw,rune_02_haglaz,yellow,1,1,0.465,1,0.0,+10,1
1dneojj1ydge4lw1zgtzfoj8,1,1,8,2,2,lose,no-go,ngal,rune_02_raido,blue,0,0,,1,1.0,-10,0
1dneojj1ydge4lw1zgtzfoj8,1,1,9,3,1,lose,go,gal,rune_02_os,blue,1,1,0.897,1,1.0,-10,1
1dneojj1ydge4lw1zgtzfoj8,1,1,10,3,2,lose,no-go,ngal,rune_02_raido,blue,0,1,1.149,0,0.0,-10,1
1dneojj1ydge4lw1zgtzfoj8,1,1,11,3,4,win,go,gw,rune_02_haglaz,yellow,1,1,0.605,1,1.0,+1,1
1dneojj1ydge4lw1zgtzfoj8,1,1,12,3,3,win,no-go,ngw,rune_02_cen,yellow,0,1,0.553,0,1.0,+10,1
1dneojj1ydge4lw1zgtzfoj8,1,1,13,4,2,lose,no-go,ngal,rune_02_raido,blue,0,1,0.595,0,0.0,-10,1
1dneojj1ydge4lw1zgtzfoj8,1,1,14,4,1,lose,go,gal,rune_02_os,blue,1,0,,0,0.0,-10,0
1dneojj1ydge4lw1zgtzfoj8,1,1,15,4,3,win,no-go,ngw,rune_02_cen,yellow,0,1,0.454,0,0.0,+1,1
1dneojj1ydge4lw1zgtzfoj8,1,1,16,4,4,win,go,gw,rune_02_haglaz,yellow,1,1,0.441,1,0.0,+10,1
1dneojj1ydge4lw1zgtzfoj8,1,1,17,5,1,lose,go,gal,rune_02_os,blue,1,1,0.622,1,0.0,-1,1
1dneojj1ydge4lw1zgtzfoj8,1,1,18,5,4,win,go,gw,rune_02_haglaz,yellow,1,1,0.448,1,0.0,+10,1
1dneojj1ydge4lw1zgtzfoj8,1,1,19,5,2,lose,no-go,ngal,rune_02_raido,blue,0,1,0.497,0,0.0,-10,1
1dneojj1ydge4lw1zgtzfoj8,1,1,20,5,3,win,no-go,ngw,rune_02_cen,yellow,0,1,0.529,0,0.0,+1,1
1dneojj1ydge4lw1zgtzfoj8,1,1,21,6,2,lose,no-go,ngal,rune_02_raido,blue,0,0,,1,0.0,-1,0
1dneojj1ydge4lw1zgtzfoj8,1,1,22,6,1,lose,go,gal,rune_02_os,blue,1,1,0.933,1,0.0,-1,1
1dneojj1ydge4lw1zgtzfoj8,1,1,23,6,4,win,go,gw,rune_02_haglaz,yellow,1,1,0.544,1,0.0,+10,1
1dneojj1ydge4lw1zgtzfoj8,1,1,24,6,3,win,no-go,ngw,rune_02_cen,yellow,0,1,0.473,0,0.0,+1,1
1dneojj1ydge4lw1zgtzfoj8,1,1,25,7,4,win,go,gw,rune_02_haglaz,yellow,1,1,0.403,1,1.0,+1,1
1dneojj1ydge4lw1zgtzfoj8,1,1,26,7,1,lose,go,gal,rune_02_os,blue,1,0,,0,0.0,-10,0
1dneojj1ydge4lw1zgtzfoj8,1,1,27,7,3,win,no-go,ngw,rune_02_cen,yellow,0,1,0.385,0,0.0,+1,1
1dneojj1ydge4lw1zgtzfoj8,1,1,28,7,2,lose,no-go,ngal,rune_02_raido,blue,0,1,0.93,0,1.0,-1,1
1dneojj1ydge4lw1zgtzfoj8,1,1,29,8,3,win,no-go,ngw,rune_02_cen,yellow,0,1,0.781,0,0.0,+1,1
1dneojj1ydge4lw1zgtzfoj8,1,1,30,8,1,lose,go,gal,rune_02_os,blue,1,0,,0,0.0,-10,0
1dneojj1ydge4lw1zgtzfoj8,1,1,31,8,4,win,go,gw,rune_02_haglaz,yellow,1,1,0.479,1,0.0,+10,1
1dneojj1ydge4lw1zgtzfoj8,1,1,32,8,2,lose,no-go,ngal,rune_02_raido,blue,0,0,,1,0.0,-1,0
1dneojj1ydge4lw1zgtzfoj8,1,1,33,9,2,lose,no-go,ngal,rune_02_raido,blue,0,0,,1,0.0,-1,0
1dneojj1ydge4lw1zgtzfoj8,1,1,34,9,4,win,go,gw,rune_02_haglaz,yellow,1,1,0.395,1,0.0,+10,1
1dneojj1ydge4lw1zgtzfoj8,1,1,35,9,1,lose,go,gal,rune_02_os,blue,1,1,0.876,1,1.0,-10,1
1dneojj1ydge4lw1zgtzfoj8,1,1,36,9,3,win,no-go,ngw,rune_02_cen,yellow,0,1,0.37,0,0.0,+1,1
1dneojj1ydge4lw1zgtzfoj8,1,1,37,10,1,lose,go,gal,rune_02_os,blue,1,1,0.721,1,0.0,-1,1
1dneojj1ydge4lw1zgtzfoj8,1,1,38,10,2,lose,no-go,ngal,rune_02_raido,blue,0,0,,1,0.0,-1,0
1dneojj1ydge4lw1zgtzfoj8,1,1,39,10,3,win,no-go,ngw,rune_02_cen,yellow,0,1,0.478,0,1.0,+10,1
1dneojj1ydge4lw1zgtzfoj8,1,1,40,10,4,win,go,gw,rune_02_haglaz,yellow,1,1,0.527,1,0.0,+10,1
1dneojj1ydge4lw1zgtzfoj8,1,1,41,11,3,win,no-go,ngw,rune_02_cen,yellow,0,0,,1,0.0,+10,0
1dneojj1ydge4lw1zgtzfoj8,1,1,42,11,4,win,go,gw,rune_02_haglaz,yellow,1,1,0.413,1,0.0,+10,1
1dneojj1ydge4lw1zgtzfoj8,1,1,43,11,1,lose,go,gal,rune_02_os,blue,1,0,,0,0.0,-10,0
1dneojj1ydge4lw1zgtzfoj8,1,1,44,11,2,lose,no-go,ngal,rune_02_raido,blue,0,1,0.767,0,0.0,-10,1
1dneojj1ydge4lw1zgtzfoj8,1,1,45,12,2,lose,no-go,ngal,rune_02_raido,blue,0,0,,1,0.0,-1,0
1dneojj1ydge4lw1zgtzfoj8,1,1,46,12,3,win,no-go,ngw,rune_02_cen,yellow,0,1,0.519,0,0.0,+1,1
1dneojj1ydge4lw1zgtzfoj8,1,1,47,12,4,win,go,gw,rune_02_haglaz,yellow,1,0,,0,0.0,+1,0
1dneojj1ydge4lw1zgtzfoj8,1,1,48,12,1,lose,go,gal,rune_02_os,blue,1,0,,0,0.0,-10,0
1dneojj1ydge4lw1zgtzfoj8,1,1,49,13,4,win,go,gw,rune_02_haglaz,yellow,1,1,0.44,1,0.0,+10,1
1dneojj1ydge4lw1zgtzfoj8,1,1,50,13,1,lose,go,gal,rune_02_os,blue,1,0,,0,0.0,-10,0
1dneojj1ydge4lw1zgtzfoj8,1,1,51,13,3,win,no-go,ngw,rune_02_cen,yellow,0,1,0.475,0,1.0,+10,1
1dneojj1ydge4lw1zgtzfoj8,1,1,52,13,2,lose,no-go,ngal,rune_02_raido,blue,0,0,,1,1.0,-10,0
1dneojj1ydge4lw1zgtzfoj8,1,1,53,14,3,win,no-go,ngw,rune_02_cen,yellow,0,1,0.358,0,0.0,+1,1
1dneojj1ydge4lw1zgtzfoj8,1,1,54,14,4,win,go,gw,rune_02_haglaz,yellow,1,1,0.471,1,0.0,+10,1
1dneojj1ydge4lw1zgtzfoj8,1,1,55,14,1,lose,go,gal,rune_02_os,blue,1,0,,0,0.0,-10,0
1dneojj1ydge4lw1zgtzfoj8,1,1,56,14,2,lose,no-go,ngal,rune_02_raido,blue,0,0,,1,0.0,-1,0
1dneojj1ydge4lw1zgtzfoj8,1,1,57,15,3,win,no-go,ngw,rune_02_cen,yellow,0,1,0.436,0,0.0,+1,1
1dneojj1ydge4lw1zgtzfoj8,1,1,58,15,4,win,go,gw,rune_02_haglaz,yellow,1,0,,0,1.0,+10,0
1dneojj1ydge4lw1zgtzfoj8,1,1,59,15,2,lose,no-go,ngal,rune_02_raido,blue,0,0,,1,0.0,-1,0
1dneojj1ydge4lw1zgtzfoj8,1,1,60,15,1,lose,go,gal,rune_02_os,blue,1,1,1.024,1,1.0,-10,1
1dneojj1ydge4lw1zgtzfoj8,1,1,61,16,1,lose,go,gal,rune_02_os,blue,1,0,,0,0.0,-10,0
1dneojj1ydge4lw1zgtzfoj8,1,1,62,16,2,lose,no-go,ngal,rune_02_raido,blue,0,0,,1,0.0,-1,0
1dneojj1ydge4lw1zgtzfoj8,1,1,63,16,3,win,no-go,ngw,rune_02_cen,yellow,0,1,0.416,0,1.0,+10,1
1dneojj1ydge4lw1zgtzfoj8,1,1,64,16,4,win,go,gw,rune_02_haglaz,yellow,1,1,0.513,1,1.0,+1,1
1dneojj1ydge4lw1zgtzfoj8,1,1,65,17,2,lose,no-go,ngal,rune_02_raido,blue,0,0,,1,0.0,-1,0
1dneojj1ydge4lw1zgtzfoj8,1,1,66,17,3,win,no-go,ngw,rune_02_cen,yellow,0,1,0.406,0,0.0,+1,1
1dneojj1ydge4lw1zgtzfoj8,1,1,67,17,4,win,go,gw,rune_02_haglaz,yellow,1,1,0.929,1,0.0,+10,1
1dneojj1ydge4lw1zgtzfoj8,1,1,68,17,1,lose,go,gal,rune_02_os,blue,1,0,,0,0.0,-10,0
1dneojj1ydge4lw1zgtzfoj8,1,1,69,18,4,win,go,gw,rune_02_haglaz,yellow,1,1,0.472,1,0.0,+10,1
1dneojj1ydge4lw1zgtzfoj8,1,1,70,18,2,lose,no-go,ngal,rune_02_raido,blue,0,0,,1,0.0,-1,0
1dneojj1ydge4lw1zgtzfoj8,1,1,71,18,3,win,no-go,ngw,rune_02_cen,yellow,0,1,0.443,0,0.0,+1,1
1dneojj1ydge4lw1zgtzfoj8,1,1,72,18,1,lose,go,gal,rune_02_os,blue,1,0,,0,0.0,-10,0
1dneojj1ydge4lw1zgtzfoj8,1,1,73,19,2,lose,no-go,ngal,rune_02_raido,blue,0,0,,1,1.0,-10,0
1dneojj1ydge4lw1zgtzfoj8,1,1,74,19,3,win,no-go,ngw,rune_02_cen,yellow,0,0,,1,0.0,+10,0
1dneojj1ydge4lw1zgtzfoj8,1,1,75,19,4,win,go,gw,rune_02_haglaz,yellow,1,1,1.302,1,0.0,+10,1
1dneojj1ydge4lw1zgtzfoj8,1,1,76,19,1,lose,go,gal,rune_02_os,blue,1,0,,0,1.0,-1,0
1dneojj1ydge4lw1zgtzfoj8,1,1,77,20,4,win,go,gw,rune_02_haglaz,yellow,1,1,0.44,1,0.0,+10,1
1dneojj1ydge4lw1zgtzfoj8,1,1,78,20,2,lose,no-go,ngal,rune_02_raido,blue,0,0,,1,0.0,-1,0
1dneojj1ydge4lw1zgtzfoj8,1,1,79,20,1,lose,go,gal,rune_02_os,blue,1,1,1.044,1,0.0,-1,1
1dneojj1ydge4lw1zgtzfoj8,1,1,80,20,3,win,no-go,ngw,rune_02_cen,yellow,0,1,0.526,0,0.0,+1,1
1dneojj1ydge4lw1zgtzfoj8,1,1,81,21,1,lose,go,gal,rune_02_os,blue,1,0,,0,1.0,-1,0
1dneojj1ydge4lw1zgtzfoj8,1,1,82,21,3,win,no-go,ngw,rune_02_cen,yellow,0,1,0.448,0,1.0,+10,1
1dneojj1ydge4lw1zgtzfoj8,1,1,83,21,2,lose,no-go,ngal,rune_02_raido,blue,0,0,,1,1.0,-10,0
1dneojj1ydge4lw1zgtzfoj8,1,1,84,21,4,win,go,gw,rune_02_haglaz,yellow,1,1,0.577,1,0.0,+10,1
1dneojj1ydge4lw1zgtzfoj8,1,1,85,22,1,lose,go,gal,rune_02_os,blue,1,0,,0,0.0,-10,0
1dneojj1ydge4lw1zgtzfoj8,1,1,86,22,4,win,go,gw,rune_02_haglaz,yellow,1,0,,0,0.0,+1,1
1dneojj1ydge4lw1zgtzfoj8,1,1,87,22,2,lose,no-go,ngal,rune_02_raido,blue,0,0,,1,0.0,-1,0
1dneojj1ydge4lw1zgtzfoj8,1,1,88,22,3,win,no-go,ngw,rune_02_cen,yellow,0,1,0.467,0,0.0,+1,1
1dneojj1ydge4lw1zgtzfoj8,1,1,89,23,2,lose,no-go,ngal,rune_02_raido,blue,0,0,,1,0.0,-1,0
1dneojj1ydge4lw1zgtzfoj8,1,1,90,23,3,win,no-go,ngw,rune_02_cen,yellow,0,1,0.5,0,0.0,+1,1
1dneojj1ydge4lw1zgtzfoj8,1,1,91,23,1,lose,go,gal,rune_02_os,blue,1,0,,0,0.0,-10,0
1dneojj1ydge4lw1zgtzfoj8,1,1,92,23,4,win,go,gw,rune_02_haglaz,yellow,1,1,0.467,1,0.0,+10,1
1dneojj1ydge4lw1zgtzfoj8,1,1,93,24,3,win,no-go,ngw,rune_02_cen,yellow,0,1,0.476,0,0.0,+1,1
1dneojj1ydge4lw1zgtzfoj8,1,1,94,24,4,win,go,gw,rune_02_haglaz,yellow,1,1,0.652,1,1.0,+1,1
1dneojj1ydge4lw1zgtzfoj8,1,1,95,24,1,lose,go,gal,rune_02_os,blue,1,0,,0,0.0,-10,0
1dneojj1ydge4lw1zgtzfoj8,1,1,96,24,2,lose,no-go,ngal,rune_02_raido,blue,0,0,,1,0.0,-1,0
1dneojj1ydge4lw1zgtzfoj8,1,1,97,25,2,lose,no-go,ngal,rune_02_raido,blue,0,0,,1,0.0,-1,0
1dneojj1ydge4lw1zgtzfoj8,1,1,98,25,1,lose,go,gal,rune_02_os,blue,1,0,,0,0.0,-10,0
1dneojj1ydge4lw1zgtzfoj8,1,1,99,25,4,win,go,gw,rune_02_haglaz,yellow,1,1,0.344,1,0.0,+10,1
1dneojj1ydge4lw1zgtzfoj8,1,1,100,25,3,win,no-go,ngw,rune_02_cen,yellow,0,1,0.4,0,0.0,+1,1
1dneojj1ydge4lw1zgtzfoj8,1,1,101,26,2,lose,no-go,ngal,rune_02_raido,blue,0,0,,1,0.0,-1,0
1dneojj1ydge4lw1zgtzfoj8,1,1,102,26,3,win,no-go,ngw,rune_02_cen,yellow,0,1,0.558,0,0.0,+1,1
1dneojj1ydge4lw1zgtzfoj8,1,1,103,26,4,win,go,gw,rune_02_haglaz,yellow,1,1,0.489,1,1.0,+1,1
1dneojj1ydge4lw1zgtzfoj8,1,1,104,26,1,lose,go,gal,rune_02_os,blue,1,0,,0,1.0,-1,0
1dneojj1ydge4lw1zgtzfoj8,1,1,105,27,1,lose,go,gal,rune_02_os,blue,1,0,,0,0.0,-10,0
1dneojj1ydge4lw1zgtzfoj8,1,1,106,27,4,win,go,gw,rune_02_haglaz,yellow,1,1,0.426,1,0.0,+10,1
1dneojj1ydge4lw1zgtzfoj8,1,1,107,27,3,win,no-go,ngw,rune_02_cen,yellow,0,1,0.585,0,1.0,+10,1
1dneojj1ydge4lw1zgtzfoj8,1,1,108,27,2,lose,no-go,ngal,rune_02_raido,blue,0,0,,1,0.0,-1,0
1dneojj1ydge4lw1zgtzfoj8,1,1,109,28,2,lose,no-go,ngal,rune_02_raido,blue,0,0,,1,0.0,-1,0
1dneojj1ydge4lw1zgtzfoj8,1,1,110,28,4,win,go,gw,rune_02_haglaz,yellow,1,1,0.339,1,0.0,+10,1
1dneojj1ydge4lw1zgtzfoj8,1,1,111,28,1,lose,go,gal,rune_02_os,blue,1,0,,0,0.0,-10,0
1dneojj1ydge4lw1zgtzfoj8,1,1,112,28,3,win,no-go,ngw,rune_02_cen,yellow,0,1,1.064,0,0.0,+1,1
1dneojj1ydge4lw1zgtzfoj8,1,1,113,29,2,lose,no-go,ngal,rune_02_raido,blue,0,0,,1,1.0,-10,0
1dneojj1ydge4lw1zgtzfoj8,1,1,114,29,3,win,no-go,ngw,rune_02_cen,yellow,0,1,0.382,0,0.0,+1,1
1dneojj1ydge4lw1zgtzfoj8,1,1,115,29,1,lose,go,gal,rune_02_os,blue,1,0,,0,0.0,-10,0
1dneojj1ydge4lw1zgtzfoj8,1,1,116,29,4,win,go,gw,rune_02_haglaz,yellow,1,1,0.352,1,0.0,+10,1
1dneojj1ydge4lw1zgtzfoj8,1,1,117,30,1,lose,go,gal,rune_02_os,blue,1,0,,0,0.0,-10,0
1dneojj1ydge4lw1zgtzfoj8,1,1,118,30,4,win,go,gw,rune_02_haglaz,yellow,1,1,0.712,1,0.0,+10,1
1dneojj1ydge4lw1zgtzfoj8,1,1,119,30,2,lose,no-go,ngal,rune_02_raido,blue,0,0,,1,0.0,-1,0
1dneojj1ydge4lw1zgtzfoj8,1,1,120,30,3,win,no-go,ngw,rune_02_cen,yellow,0,1,0.36,0,0.0,+1,1
1dneojj1ydge4lw1zgtzfoj8,1,2,121,1,5,win,go,gw,rune_01_ingwaz,yellow,1,1,0.441,1,0.0,+10,1
1dneojj1ydge4lw1zgtzfoj8,1,2,122,1,6,lose,go,gal,rune_01_yr,blue,1,1,0.559,1,0.0,-1,1
1dneojj1ydge4lw1zgtzfoj8,1,2,123,1,7,win,no-go,ngw,rune_01_ger,yellow,0,1,0.533,0,0.0,+1,1
1dneojj1ydge4lw1zgtzfoj8,1,2,124,1,8,lose,no-go,ngal,rune_01_ear,blue,0,0,,1,0.0,-1,0
1dneojj1ydge4lw1zgtzfoj8,1,2,125,2,7,win,no-go,ngw,rune_01_ger,yellow,0,1,0.424,0,0.0,+1,1
1dneojj1ydge4lw1zgtzfoj8,1,2,126,2,5,win,go,gw,rune_01_ingwaz,yellow,1,1,0.49,1,0.0,+10,1
1dneojj1ydge4lw1zgtzfoj8,1,2,127,2,6,lose,go,gal,rune_01_yr,blue,1,0,,0,0.0,-10,0
1dneojj1ydge4lw1zgtzfoj8,1,2,128,2,8,lose,no-go,ngal,rune_01_ear,blue,0,0,,1,1.0,-10,0
1dneojj1ydge4lw1zgtzfoj8,1,2,129,3,6,lose,go,gal,rune_01_yr,blue,1,0,,0,1.0,-1,0
1dneojj1ydge4lw1zgtzfoj8,1,2,130,3,5,win,go,gw,rune_01_ingwaz,yellow,1,1,0.514,1,1.0,+1,1
1dneojj1ydge4lw1zgtzfoj8,1,2,131,3,7,win,no-go,ngw,rune_01_ger,yellow,0,1,0.477,0,1.0,+10,1
1dneojj1ydge4lw1zgtzfoj8,1,2,132,3,8,lose,no-go,ngal,rune_01_ear,blue,0,0,,1,0.0,-1,0
1dneojj1ydge4lw1zgtzfoj8,1,2,133,4,7,win,no-go,ngw,rune_01_ger,yellow,0,1,0.426,0,0.0,+1,1
1dneojj1ydge4lw1zgtzfoj8,1,2,134,4,5,win,go,gw,rune_01_ingwaz,yellow,1,1,0.486,1,0.0,+10,1
1dneojj1ydge4lw1zgtzfoj8,1,2,135,4,8,lose,no-go,ngal,rune_01_ear,blue,0,0,,1,0.0,-1,0
1dneojj1ydge4lw1zgtzfoj8,1,2,136,4,6,lose,go,gal,rune_01_yr,blue,1,0,,0,0.0,-10,0
1dneojj1ydge4lw1zgtzfoj8,1,2,137,5,8,lose,no-go,ngal,rune_01_ear,blue,0,0,,1,0.0,-1,0
1dneojj1ydge4lw1zgtzfoj8,1,2,138,5,6,lose,go,gal,rune_01_yr,blue,1,0,,0,0.0,-10,0
1dneojj1ydge4lw1zgtzfoj8,1,2,139,5,5,win,go,gw,rune_01_ingwaz,yellow,1,1,0.41,1,0.0,+10,1
1dneojj1ydge4lw1zgtzfoj8,1,2,140,5,7,win,no-go,ngw,rune_01_ger,yellow,0,1,0.668,0,0.0,+1,1
1dneojj1ydge4lw1zgtzfoj8,1,2,141,6,8,lose,no-go,ngal,rune_01_ear,blue,0,0,,1,0.0,-1,0
1dneojj1ydge4lw1zgtzfoj8,1,2,142,6,7,win,no-go,ngw,rune_01_ger,yellow,0,1,0.432,0,0.0,+1,1
1dneojj1ydge4lw1zgtzfoj8,1,2,143,6,6,lose,go,gal,rune_01_yr,blue,1,0,,0,0.0,-10,0
1dneojj1ydge4lw1zgtzfoj8,1,2,144,6,5,win,go,gw,rune_01_ingwaz,yellow,1,1,0.421,1,0.0,+10,1
1dneojj1ydge4lw1zgtzfoj8,1,2,145,7,8,lose,no-go,ngal,rune_01_ear,blue,0,0,,1,1.0,-10,0
1dneojj1ydge4lw1zgtzfoj8,1,2,146,7,7,win,no-go,ngw,rune_01_ger,yellow,0,1,0.886,0,0.0,+1,1
1dneojj1ydge4lw1zgtzfoj8,1,2,147,7,5,win,go,gw,rune_01_ingwaz,yellow,1,1,0.324,1,1.0,+1,1
1dneojj1ydge4lw1zgtzfoj8,1,2,148,7,6,lose,go,gal,rune_01_yr,blue,1,0,,0,0.0,-10,0
1dneojj1ydge4lw1zgtzfoj8,1,2,149,8,7,win,no-go,ngw,rune_01_ger,yellow,0,1,0.489,0,0.0,+1,1
1dneojj1ydge4lw1zgtzfoj8,1,2,150,8,8,lose,no-go,ngal,rune_01_ear,blue,0,0,,1,0.0,-1,0
1dneojj1ydge4lw1zgtzfoj8,1,2,151,8,5,win,go,gw,rune_01_ingwaz,yellow,1,1,0.503,1,0.0,+10,1
1dneojj1ydge4lw1zgtzfoj8,1,2,152,8,6,lose,go,gal,rune_01_yr,blue,1,0,,0,0.0,-10,0
1dneojj1ydge4lw1zgtzfoj8,1,2,153,9,5,win,go,gw,rune_01_ingwaz,yellow,1,1,0.382,1,0.0,+10,1
1dneojj1ydge4lw1zgtzfoj8,1,2,154,9,8,lose,no-go,ngal,rune_01_ear,blue,0,0,,1,0.0,-1,0
1dneojj1ydge4lw1zgtzfoj8,1,2,155,9,7,win,no-go,ngw,rune_01_ger,yellow,0,1,0.682,0,0.0,+1,1
1dneojj1ydge4lw1zgtzfoj8,1,2,156,9,6,lose,go,gal,rune_01_yr,blue,1,0,,0,1.0,-1,0
1dneojj1ydge4lw1zgtzfoj8,1,2,157,10,6,lose,go,gal,rune_01_yr,blue,1,0,,0,0.0,-10,0
1dneojj1ydge4lw1zgtzfoj8,1,2,158,10,5,win,go,gw,rune_01_ingwaz,yellow,1,1,0.558,1,0.0,+10,1
1dneojj1ydge4lw1zgtzfoj8,1,2,159,10,7,win,no-go,ngw,rune_01_ger,yellow,0,1,0.585,0,1.0,+10,1
1dneojj1ydge4lw1zgtzfoj8,1,2,160,10,8,lose,no-go,ngal,rune_01_ear,blue,0,0,,1,0.0,-1,0
1dneojj1ydge4lw1zgtzfoj8,1,2,161,11,7,win,no-go,ngw,rune_01_ger,yellow,0,1,0.391,0,0.0,+1,1
1dneojj1ydge4lw1zgtzfoj8,1,2,162,11,6,lose,go,gal,rune_01_yr,blue,1,0,,0,0.0,-10,0
1dneojj1ydge4lw1zgtzfoj8,1,2,163,11,5,win,go,gw,rune_01_ingwaz,yellow,1,1,0.434,1,0.0,+10,1
1dneojj1ydge4lw1zgtzfoj8,1,2,164,11,8,lose,no-go,ngal,rune_01_ear,blue,0,0,,1,0.0,-1,0
1dneojj1ydge4lw1zgtzfoj8,1,2,165,12,7,win,no-go,ngw,rune_01_ger,yellow,0,1,0.36,0,0.0,+1,1
1dneojj1ydge4lw1zgtzfoj8,1,2,166,12,6,lose,go,gal,rune_01_yr,blue,1,0,,0,0.0,-10,0
1dneojj1ydge4lw1zgtzfoj8,1,2,167,12,8,lose,no-go,ngal,rune_01_ear,blue,0,0,,1,0.0,-1,0
1dneojj1ydge4lw1zgtzfoj8,1,2,168,12,5,win,go,gw,rune_01_ingwaz,yellow,1,1,0.395,1,0.0,+10,1
1dneojj1ydge4lw1zgtzfoj8,1,2,169,13,7,win,no-go,ngw,rune_01_ger,yellow,0,1,0.399,0,1.0,+10,1
1dneojj1ydge4lw1zgtzfoj8,1,2,170,13,6,lose,go,gal,rune_01_yr,blue,1,0,,0,0.0,-10,0
1dneojj1ydge4lw1zgtzfoj8,1,2,171,13,5,win,go,gw,rune_01_ingwaz,yellow,1,1,0.374,1,0.0,+10,1
1dneojj1ydge4lw1zgtzfoj8,1,2,172,13,8,lose,no-go,ngal,rune_01_ear,blue,0,0,,1,1.0,-10,0
1dneojj1ydge4lw1zgtzfoj8,1,2,173,14,5,win,go,gw,rune_01_ingwaz,yellow,1,1,0.451,1,0.0,+10,1
1dneojj1ydge4lw1zgtzfoj8,1,2,174,14,7,win,no-go,ngw,rune_01_ger,yellow,0,1,0.364,0,0.0,+1,1
1dneojj1ydge4lw1zgtzfoj8,1,2,175,14,6,lose,go,gal,rune_01_yr,blue,1,0,,0,0.0,-10,0
1dneojj1ydge4lw1zgtzfoj8,1,2,176,14,8,lose,no-go,ngal,rune_01_ear,blue,0,0,,1,0.0,-1,0
1dneojj1ydge4lw1zgtzfoj8,1,2,177,15,8,lose,no-go,ngal,rune_01_ear,blue,0,0,,1,0.0,-1,0
1dneojj1ydge4lw1zgtzfoj8,1,2,178,15,7,win,no-go,ngw,rune_01_ger,yellow,0,1,0.37,0,0.0,+1,1
1dneojj1ydge4lw1zgtzfoj8,1,2,179,15,6,lose,go,gal,rune_01_yr,blue,1,0,,0,1.0,-1,0
1dneojj1ydge4lw1zgtzfoj8,1,2,180,15,5,win,go,gw,rune_01_ingwaz,yellow,1,1,0.983,1,1.0,+1,1
1dneojj1ydge4lw1zgtzfoj8,1,2,181,16,5,win,go,gw,rune_01_ingwaz,yellow,1,1,0.391,1,1.0,+1,1
1dneojj1ydge4lw1zgtzfoj8,1,2,182,16,6,lose,go,gal,rune_01_yr,blue,1,0,,0,0.0,-10,0
1dneojj1ydge4lw1zgtzfoj8,1,2,183,16,8,lose,no-go,ngal,rune_01_ear,blue,0,0,,1,0.0,-1,0
1dneojj1ydge4lw1zgtzfoj8,1,2,184,16,7,win,no-go,ngw,rune_01_ger,yellow,0,1,0.471,0,1.0,+10,1
1dneojj1ydge4lw1zgtzfoj8,1,2,185,17,5,win,go,gw,rune_01_ingwaz,yellow,1,1,1.186,1,0.0,+10,1
1dneojj1ydge4lw1zgtzfoj8,1,2,186,17,6,lose,go,gal,rune_01_yr,blue,1,0,,0,0.0,-10,0
1dneojj1ydge4lw1zgtzfoj8,1,2,187,17,8,lose,no-go,ngal,rune_01_ear,blue,0,0,,1,0.0,-1,0
1dneojj1ydge4lw1zgtzfoj8,1,2,188,17,7,win,no-go,ngw,rune_01_ger,yellow,0,1,0.345,0,0.0,+1,1
1dneojj1ydge4lw1zgtzfoj8,1,2,189,18,5,win,go,gw,rune_01_ingwaz,yellow,1,1,0.442,1,0.0,+10,1
1dneojj1ydge4lw1zgtzfoj8,1,2,190,18,7,win,no-go,ngw,rune_01_ger,yellow,0,1,0.727,0,0.0,+1,1
1dneojj1ydge4lw1zgtzfoj8,1,2,191,18,6,lose,go,gal,rune_01_yr,blue,1,0,,0,0.0,-10,0
1dneojj1ydge4lw1zgtzfoj8,1,2,192,18,8,lose,no-go,ngal,rune_01_ear,blue,0,0,,1,0.0,-1,0
1dneojj1ydge4lw1zgtzfoj8,1,2,193,19,5,win,go,gw,rune_01_ingwaz,yellow,1,1,0.304,1,0.0,+10,1
1dneojj1ydge4lw1zgtzfoj8,1,2,194,19,8,lose,no-go,ngal,rune_01_ear,blue,0,0,,1,1.0,-10,0
1dneojj1ydge4lw1zgtzfoj8,1,2,195,19,7,win,no-go,ngw,rune_01_ger,yellow,0,1,0.377,0,0.0,+1,1
1dneojj1ydge4lw1zgtzfoj8,1,2,196,19,6,lose,go,gal,rune_01_yr,blue,1,0,,0,1.0,-1,0
1dneojj1ydge4lw1zgtzfoj8,1,2,197,20,5,win,go,gw,rune_01_ingwaz,yellow,1,1,0.462,1,0.0,+10,1
1dneojj1ydge4lw1zgtzfoj8,1,2,198,20,8,lose,no-go,ngal,rune_01_ear,blue,0,0,,1,0.0,-1,0
1dneojj1ydge4lw1zgtzfoj8,1,2,199,20,6,lose,go,gal,rune_01_yr,blue,1,0,,0,0.0,-10,0
1dneojj1ydge4lw1zgtzfoj8,1,2,200,20,7,win,no-go,ngw,rune_01_ger,yellow,0,1,0.491,0,0.0,+1,1
1dneojj1ydge4lw1zgtzfoj8,1,2,201,21,6,lose,go,gal,rune_01_yr,blue,1,0,,0,1.0,-1,0
1dneojj1ydge4lw1zgtzfoj8,1,2,202,21,7,win,no-go,ngw,rune_01_ger,yellow,0,1,1.096,0,1.0,+10,1
1dneojj1ydge4lw1zgtzfoj8,1,2,203,21,5,win,go,gw,rune_01_ingwaz,yellow,1,1,0.661,1,0.0,+10,1
1dneojj1ydge4lw1zgtzfoj8,1,2,204,21,8,lose,no-go,ngal,rune_01_ear,blue,0,0,,1,1.0,-10,0
1dneojj1ydge4lw1zgtzfoj8,1,2,205,22,8,lose,no-go,ngal,rune_01_ear,blue,0,0,,1,0.0,-1,0
1dneojj1ydge4lw1zgtzfoj8,1,2,206,22,5,win,go,gw,rune_01_ingwaz,yellow,1,1,0.617,1,0.0,+10,1
1dneojj1ydge4lw1zgtzfoj8,1,2,207,22,7,win,no-go,ngw,rune_01_ger,yellow,0,0,,1,0.0,+10,0
1dneojj1ydge4lw1zgtzfoj8,1,2,208,22,6,lose,go,gal,rune_01_yr,blue,1,0,,0,0.0,-10,0
1dneojj1ydge4lw1zgtzfoj8,1,2,209,23,8,lose,no-go,ngal,rune_01_ear,blue,0,0,,1,0.0,-1,0
1dneojj1ydge4lw1zgtzfoj8,1,2,210,23,5,win,go,gw,rune_01_ingwaz,yellow,1,1,0.442,1,0.0,+10,1
1dneojj1ydge4lw1zgtzfoj8,1,2,211,23,7,win,no-go,ngw,rune_01_ger,yellow,0,1,0.407,0,0.0,+1,1
1dneojj1ydge4lw1zgtzfoj8,1,2,212,23,6,lose,go,gal,rune_01_yr,blue,1,0,,0,0.0,-10,0
1dneojj1ydge4lw1zgtzfoj8,1,2,213,24,6,lose,go,gal,rune_01_yr,blue,1,0,,0,0.0,-10,0
1dneojj1ydge4lw1zgtzfoj8,1,2,214,24,5,win,go,gw,rune_01_ingwaz,yellow,1,1,0.382,1,1.0,+1,1
1dneojj1ydge4lw1zgtzfoj8,1,2,215,24,8,lose,no-go,ngal,rune_01_ear,blue,0,0,,1,0.0,-1,0
1dneojj1ydge4lw1zgtzfoj8,1,2,216,24,7,win,no-go,ngw,rune_01_ger,yellow,0,1,0.555,0,0.0,+1,1
1dneojj1ydge4lw1zgtzfoj8,1,2,217,25,8,lose,no-go,ngal,rune_01_ear,blue,0,0,,1,0.0,-1,0
1dneojj1ydge4lw1zgtzfoj8,1,2,218,25,5,win,go,gw,rune_01_ingwaz,yellow,1,1,0.627,1,0.0,+10,1
1dneojj1ydge4lw1zgtzfoj8,1,2,219,25,6,lose,go,gal,rune_01_yr,blue,1,0,,0,0.0,-10,0
1dneojj1ydge4lw1zgtzfoj8,1,2,220,25,7,win,no-go,ngw,rune_01_ger,yellow,0,1,0.335,0,0.0,+1,1
1dneojj1ydge4lw1zgtzfoj8,1,2,221,26,6,lose,go,gal,rune_01_yr,blue,1,0,,0,1.0,-1,0
1dneojj1ydge4lw1zgtzfoj8,1,2,222,26,5,win,go,gw,rune_01_ingwaz,yellow,1,1,0.33,1,1.0,+1,1
1dneojj1ydge4lw1zgtzfoj8,1,2,223,26,8,lose,no-go,ngal,rune_01_ear,blue,0,0,,1,0.0,-1,0
1dneojj1ydge4lw1zgtzfoj8,1,2,224,26,7,win,no-go,ngw,rune_01_ger,yellow,0,1,0.555,0,0.0,+1,1
1dneojj1ydge4lw1zgtzfoj8,1,2,225,27,8,lose,no-go,ngal,rune_01_ear,blue,0,0,,1,0.0,-1,0
1dneojj1ydge4lw1zgtzfoj8,1,2,226,27,7,win,no-go,ngw,rune_01_ger,yellow,0,1,0.427,0,1.0,+10,1
1dneojj1ydge4lw1zgtzfoj8,1,2,227,27,6,lose,go,gal,rune_01_yr,blue,1,0,,0,0.0,-10,0
1dneojj1ydge4lw1zgtzfoj8,1,2,228,27,5,win,go,gw,rune_01_ingwaz,yellow,1,1,0.496,1,0.0,+10,1
1dneojj1ydge4lw1zgtzfoj8,1,2,229,28,5,win,go,gw,rune_01_ingwaz,yellow,1,1,1.087,1,0.0,+10,1
1dneojj1ydge4lw1zgtzfoj8,1,2,230,28,7,win,no-go,ngw,rune_01_ger,yellow,0,1,1.111,0,0.0,+1,1
1dneojj1ydge4lw1zgtzfoj8,1,2,231,28,6,lose,go,gal,rune_01_yr,blue,1,0,,0,0.0,-10,0
1dneojj1ydge4lw1zgtzfoj8,1,2,232,28,8,lose,no-go,ngal,rune_01_ear,blue,0,0,,1,0.0,-1,0
1dneojj1ydge4lw1zgtzfoj8,1,2,233,29,7,win,no-go,ngw,rune_01_ger,yellow,0,1,0.501,0,0.0,+1,1
1dneojj1ydge4lw1zgtzfoj8,1,2,234,29,6,lose,go,gal,rune_01_yr,blue,1,0,,0,0.0,-10,0
1dneojj1ydge4lw1zgtzfoj8,1,2,235,29,8,lose,no-go,ngal,rune_01_ear,blue,0,0,,1,1.0,-10,0
1dneojj1ydge4lw1zgtzfoj8,1,2,236,29,5,win,go,gw,rune_01_ingwaz,yellow,1,1,0.7,1,0.0,+10,1
1dneojj1ydge4lw1zgtzfoj8,1,2,237,30,5,win,go,gw,rune_01_ingwaz,yellow,1,1,0.369,1,0.0,+10,1
1dneojj1ydge4lw1zgtzfoj8,1,2,238,30,8,lose,no-go,ngal,rune_01_ear,blue,0,0,,1,0.0,-1,0
1dneojj1ydge4lw1zgtzfoj8,1,2,239,30,6,lose,go,gal,rune_01_yr,blue,1,0,,0,0.0,-10,0
1dneojj1ydge4lw1zgtzfoj8,1,2,240,30,7,win,no-go,ngw,rune_01_ger,yellow,0,1,0.506,0,0.0,+1,1
1e7zni3hs3hxwy7aqhg0bkb0,1,1,1,1,1,win,go,gw,rune_01_ear,blue,1,1,0.467,1,0.0,+10,1
1e7zni3hs3hxwy7aqhg0bkb0,1,1,2,1,2,lose,go,gal,rune_01_ingwaz,yellow,1,0,,0,0.0,-10,0
1e7zni3hs3hxwy7aqhg0bkb0,1,1,3,1,3,win,no-go,ngw,rune_01_yr,blue,0,1,0.659,0,0.0,+1,1
1e7zni3hs3hxwy7aqhg0bkb0,1,1,4,1,4,lose,no-go,ngal,rune_01_ger,yellow,0,1,1.201,0,0.0,-10,1
1e7zni3hs3hxwy7aqhg0bkb0,1,1,5,2,1,win,go,gw,rune_01_ear,blue,1,1,0.654,1,0.0,+10,1
1e7zni3hs3hxwy7aqhg0bkb0,1,1,6,2,3,win,no-go,ngw,rune_01_yr,blue,0,1,0.559,0,1.0,+10,1
1e7zni3hs3hxwy7aqhg0bkb0,1,1,7,2,2,lose,go,gal,rune_01_ingwaz,yellow,1,1,1.259,1,0.0,-1,1
1e7zni3hs3hxwy7aqhg0bkb0,1,1,8,2,4,lose,no-go,ngal,rune_01_ger,yellow,0,0,,1,0.0,-1,0
1e7zni3hs3hxwy7aqhg0bkb0,1,1,9,3,2,lose,go,gal,rune_01_ingwaz,yellow,1,0,,0,1.0,-1,0
1e7zni3hs3hxwy7aqhg0bkb0,1,1,10,3,4,lose,no-go,ngal,rune_01_ger,yellow,0,0,,1,1.0,-10,0
1e7zni3hs3hxwy7aqhg0bkb0,1,1,11,3,1,win,go,gw,rune_01_ear,blue,1,1,0.539,1,0.0,+10,1
1e7zni3hs3hxwy7aqhg0bkb0,1,1,12,3,3,win,no-go,ngw,rune_01_yr,blue,0,1,0.383,0,0.0,+1,1
1e7zni3hs3hxwy7aqhg0bkb0,1,1,13,4,4,lose,no-go,ngal,rune_01_ger,yellow,0,1,0.601,0,0.0,-10,1
1e7zni3hs3hxwy7aqhg0bkb0,1,1,14,4,2,lose,go,gal,rune_01_ingwaz,yellow,1,0,,0,0.0,-10,0
1e7zni3hs3hxwy7aqhg0bkb0,1,1,15,4,3,win,no-go,ngw,rune_01_yr,blue,0,1,0.612,0,0.0,+1,1
1e7zni3hs3hxwy7aqhg0bkb0,1,1,16,4,1,win,go,gw,rune_01_ear,blue,1,1,0.592,1,1.0,+1,1
1e7zni3hs3hxwy7aqhg0bkb0,1,1,17,5,4,lose,no-go,ngal,rune_01_ger,yellow,0,1,0.534,0,0.0,-10,1
1e7zni3hs3hxwy7aqhg0bkb0,1,1,18,5,1,win,go,gw,rune_01_ear,blue,1,1,0.519,1,0.0,+10,1
1e7zni3hs3hxwy7aqhg0bkb0,1,1,19,5,2,lose,go,gal,rune_01_ingwaz,yellow,1,1,0.792,1,0.0,-1,1
1e7zni3hs3hxwy7aqhg0bkb0,1,1,20,5,3,win,no-go,ngw,rune_01_yr,blue,0,1,0.615,0,0.0,+1,1
1e7zni3hs3hxwy7aqhg0bkb0,1,1,21,6,1,win,go,gw,rune_01_ear,blue,1,1,0.6,1,0.0,+10,1
1e7zni3hs3hxwy7aqhg0bkb0,1,1,22,6,3,win,no-go,ngw,rune_01_yr,blue,0,1,0.543,0,0.0,+1,1
1e7zni3hs3hxwy7aqhg0bkb0,1,1,23,6,4,lose,no-go,ngal,rune_01_ger,yellow,0,0,,1,0.0,-1,0
1e7zni3hs3hxwy7aqhg0bkb0,1,1,24,6,2,lose,go,gal,rune_01_ingwaz,yellow,1,1,1.1,1,0.0,-1,1
1e7zni3hs3hxwy7aqhg0bkb0,1,1,25,7,4,lose,no-go,ngal,rune_01_ger,yellow,0,0,,1,0.0,-1,0
1e7zni3hs3hxwy7aqhg0bkb0,1,1,26,7,3,win,no-go,ngw,rune_01_yr,blue,0,1,0.661,0,0.0,+1,1
1e7zni3hs3hxwy7aqhg0bkb0,1,1,27,7,2,lose,go,gal,rune_01_ingwaz,yellow,1,1,0.687,1,0.0,-1,1
1e7zni3hs3hxwy7aqhg0bkb0,1,1,28,7,1,win,go,gw,rune_01_ear,blue,1,1,0.448,1,1.0,+1,1
1e7zni3hs3hxwy7aqhg0bkb0,1,1,29,8,4,lose,no-go,ngal,rune_01_ger,yellow,0,0,,1,0.0,-1,0
1e7zni3hs3hxwy7aqhg0bkb0,1,1,30,8,3,win,no-go,ngw,rune_01_yr,blue,0,1,0.75,0,1.0,+10,1
1e7zni3hs3hxwy7aqhg0bkb0,1,1,31,8,1,win,go,gw,rune_01_ear,blue,1,0,,0,0.0,+1,1
1e7zni3hs3hxwy7aqhg0bkb0,1,1,32,8,2,lose,go,gal,rune_01_ingwaz,yellow,1,0,,0,0.0,-10,1
1e7zni3hs3hxwy7aqhg0bkb0,1,1,33,9,3,win,no-go,ngw,rune_01_yr,blue,0,1,0.494,0,0.0,+1,1
1e7zni3hs3hxwy7aqhg0bkb0,1,1,34,9,1,win,go,gw,rune_01_ear,blue,1,1,0.928,1,0.0,+10,1
1e7zni3hs3hxwy7aqhg0bkb0,1,1,35,9,2,lose,go,gal,rune_01_ingwaz,yellow,1,1,0.816,1,0.0,-1,1
1e7zni3hs3hxwy7aqhg0bkb0,1,1,36,9,4,lose,no-go,ngal,rune_01_ger,yellow,0,0,,1,0.0,-1,0
1e7zni3hs3hxwy7aqhg0bkb0,1,1,37,10,1,win,go,gw,rune_01_ear,blue,1,1,0.444,1,0.0,+10,1
1e7zni3hs3hxwy7aqhg0bkb0,1,1,38,10,3,win,no-go,ngw,rune_01_yr,blue,0,0,,1,0.0,+10,1
1e7zni3hs3hxwy7aqhg0bkb0,1,1,39,10,4,lose,no-go,ngal,rune_01_ger,yellow,0,1,1.106,0,1.0,-1,1
1e7zni3hs3hxwy7aqhg0bkb0,1,1,40,10,2,lose,go,gal,rune_01_ingwaz,yellow,1,1,1.151,1,1.0,-10,1
1e7zni3hs3hxwy7aqhg0bkb0,1,1,41,11,1,win,go,gw,rune_01_ear,blue,1,0,,0,0.0,+1,0
1e7zni3hs3hxwy7aqhg0bkb0,1,1,42,11,2,lose,go,gal,rune_01_ingwaz,yellow,1,1,0.716,1,1.0,-10,2
1e7zni3hs3hxwy7aqhg0bkb0,1,1,43,11,4,lose,no-go,ngal,rune_01_ger,yellow,0,1,0.752,0,0.0,-10,1
1e7zni3hs3hxwy7aqhg0bkb0,1,1,44,11,3,win,no-go,ngw,rune_01_yr,blue,0,0,,1,1.0,+1,0
1e7zni3hs3hxwy7aqhg0bkb0,1,1,45,12,1,win,go,gw,rune_01_ear,blue,1,1,0.42,1,0.0,+10,1
1e7zni3hs3hxwy7aqhg0bkb0,1,1,46,12,3,win,no-go,ngw,rune_01_yr,blue,0,0,,1,0.0,+10,0
1e7zni3hs3hxwy7aqhg0bkb0,1,1,47,12,2,lose,go,gal,rune_01_ingwaz,yellow,1,1,1.459,1,0.0,-1,1
1e7zni3hs3hxwy7aqhg0bkb0,1,1,48,12,4,lose,no-go,ngal,rune_01_ger,yellow,0,0,,1,0.0,-1,0
1e7zni3hs3hxwy7aqhg0bkb0,1,1,49,13,1,win,go,gw,rune_01_ear,blue,1,0,,0,0.0,+1,0
1e7zni3hs3hxwy7aqhg0bkb0,1,1,50,13,2,lose,go,gal,rune_01_ingwaz,yellow,1,1,0.998,1,0.0,-1,1
1e7zni3hs3hxwy7aqhg0bkb0,1,1,51,13,3,win,no-go,ngw,rune_01_yr,blue,0,0,,1,0.0,+10,0
1e7zni3hs3hxwy7aqhg0bkb0,1,1,52,13,4,lose,no-go,ngal,rune_01_ger,yellow,0,0,,1,0.0,-1,1
1e7zni3hs3hxwy7aqhg0bkb0,1,1,53,14,1,win,go,gw,rune_01_ear,blue,1,1,1.056,1,0.0,+10,1
1e7zni3hs3hxwy7aqhg0bkb0,1,1,54,14,4,lose,no-go,ngal,rune_01_ger,yellow,0,0,,1,0.0,-1,0
1e7zni3hs3hxwy7aqhg0bkb0,1,1,55,14,2,lose,go,gal,rune_01_ingwaz,yellow,1,0,,0,0.0,-10,0
1e7zni3hs3hxwy7aqhg0bkb0,1,1,56,14,3,win,no-go,ngw,rune_01_yr,blue,0,0,,1,0.0,+10,0
1e7zni3hs3hxwy7aqhg0bkb0,1,1,57,15,4,lose,no-go,ngal,rune_01_ger,yellow,0,0,,1,1.0,-10,0
1e7zni3hs3hxwy7aqhg0bkb0,1,1,58,15,2,lose,go,gal,rune_01_ingwaz,yellow,1,1,1.0,1,0.0,-1,1
1e7zni3hs3hxwy7aqhg0bkb0,1,1,59,15,1,win,go,gw,rune_01_ear,blue,1,1,0.542,1,1.0,+1,1
1e7zni3hs3hxwy7aqhg0bkb0,1,1,60,15,3,win,no-go,ngw,rune_01_yr,blue,0,0,,1,0.0,+10,0
1e7zni3hs3hxwy7aqhg0bkb0,1,1,61,16,3,win,no-go,ngw,rune_01_yr,blue,0,0,,1,0.0,+10,0
1e7zni3hs3hxwy7aqhg0bkb0,1,1,62,16,1,win,go,gw,rune_01_ear,blue,1,0,,0,0.0,+1,0
1e7zni3hs3hxwy7aqhg0bkb0,1,1,63,16,4,lose,no-go,ngal,rune_01_ger,yellow,0,1,1.355,0,0.0,-10,1
1e7zni3hs3hxwy7aqhg0bkb0,1,1,64,16,2,lose,go,gal,rune_01_ingwaz,yellow,1,1,0.521,1,0.0,-1,1
1e7zni3hs3hxwy7aqhg0bkb0,1,1,65,17,2,lose,go,gal,rune_01_ingwaz,yellow,1,1,0.727,1,0.0,-1,1
1e7zni3hs3hxwy7aqhg0bkb0,1,1,66,17,4,lose,no-go,ngal,rune_01_ger,yellow,0,0,,1,1.0,-10,0
1e7zni3hs3hxwy7aqhg0bkb0,1,1,67,17,3,win,no-go,ngw,rune_01_yr,blue,0,0,,1,0.0,+10,0
1e7zni3hs3hxwy7aqhg0bkb0,1,1,68,17,1,win,go,gw,rune_01_ear,blue,1,1,1.471,1,0.0,+10,1
1e7zni3hs3hxwy7aqhg0bkb0,1,1,69,18,2,lose,go,gal,rune_01_ingwaz,yellow,1,1,0.602,1,1.0,-10,1
1e7zni3hs3hxwy7aqhg0bkb0,1,1,70,18,4,lose,no-go,ngal,rune_01_ger,yellow,0,1,1.391,0,0.0,-10,1
1e7zni3hs3hxwy7aqhg0bkb0,1,1,71,18,1,win,go,gw,rune_01_ear,blue,1,0,,0,0.0,+1,1
1e7zni3hs3hxwy7aqhg0bkb0,1,1,72,18,3,win,no-go,ngw,rune_01_yr,blue,0,1,0.588,0,0.0,+1,1
1e7zni3hs3hxwy7aqhg0bkb0,1,1,73,19,1,win,go,gw,rune_01_ear,blue,1,1,1.206,1,0.0,+10,1
1e7zni3hs3hxwy7aqhg0bkb0,1,1,74,19,2,lose,go,gal,rune_01_ingwaz,yellow,1,0,,0,0.0,-10,1
1e7zni3hs3hxwy7aqhg0bkb0,1,1,75,19,3,win,no-go,ngw,rune_01_yr,blue,0,0,,1,1.0,+1,0
1e7zni3hs3hxwy7aqhg0bkb0,1,1,76,19,4,lose,no-go,ngal,rune_01_ger,yellow,0,0,,1,0.0,-1,1
1e7zni3hs3hxwy7aqhg0bkb0,1,1,77,20,4,lose,no-go,ngal,rune_01_ger,yellow,0,1,1.14,0,0.0,-10,1
1e7zni3hs3hxwy7aqhg0bkb0,1,1,78,20,2,lose,go,gal,rune_01_ingwaz,yellow,1,1,0.696,1,0.0,-1,1
1e7zni3hs3hxwy7aqhg0bkb0,1,1,79,20,1,win,go,gw,rune_01_ear,blue,1,1,0.584,1,1.0,+1,1
1e7zni3hs3hxwy7aqhg0bkb0,1,1,80,20,3,win,no-go,ngw,rune_01_yr,blue,0,0,,1,0.0,+10,0
1e7zni3hs3hxwy7aqhg0bkb0,1,1,81,21,2,lose,go,gal,rune_01_ingwaz,yellow,1,1,1.003,1,0.0,-1,1
1e7zni3hs3hxwy7aqhg0bkb0,1,1,82,21,1,win,go,gw,rune_01_ear,blue,1,1,0.681,1,1.0,+1,1
1e7zni3hs3hxwy7aqhg0bkb0,1,1,83,21,4,lose,no-go,ngal,rune_01_ger,yellow,0,0,,1,0.0,-1,0
1e7zni3hs3hxwy7aqhg0bkb0,1,1,84,21,3,win,no-go,ngw,rune_01_yr,blue,0,0,,1,0.0,+10,0
1e7zni3hs3hxwy7aqhg0bkb0,1,1,85,22,4,lose,no-go,ngal,rune_01_ger,yellow,0,0,,1,0.0,-1,0
1e7zni3hs3hxwy7aqhg0bkb0,1,1,86,22,1,win,go,gw,rune_01_ear,blue,1,1,0.669,1,0.0,+10,1
1e7zni3hs3hxwy7aqhg0bkb0,1,1,87,22,2,lose,go,gal,rune_01_ingwaz,yellow,1,1,1.18,1,1.0,-10,1
1e7zni3hs3hxwy7aqhg0bkb0,1,1,88,22,3,win,no-go,ngw,rune_01_yr,blue,0,0,,1,0.0,+10,0
1e7zni3hs3hxwy7aqhg0bkb0,1,1,89,23,1,win,go,gw,rune_01_ear,blue,1,1,1.0,1,0.0,+10,1
1e7zni3hs3hxwy7aqhg0bkb0,1,1,90,23,4,lose,no-go,ngal,rune_01_ger,yellow,0,0,,1,0.0,-1,0
1e7zni3hs3hxwy7aqhg0bkb0,1,1,91,23,3,win,no-go,ngw,rune_01_yr,blue,0,0,,1,1.0,+1,0
1e7zni3hs3hxwy7aqhg0bkb0,1,1,92,23,2,lose,go,gal,rune_01_ingwaz,yellow,1,1,0.912,1,0.0,-1,1
1e7zni3hs3hxwy7aqhg0bkb0,1,1,93,24,4,lose,no-go,ngal,rune_01_ger,yellow,0,0,,1,0.0,-1,0
1e7zni3hs3hxwy7aqhg0bkb0,1,1,94,24,2,lose,go,gal,rune_01_ingwaz,yellow,1,1,0.732,1,0.0,-1,1
1e7zni3hs3hxwy7aqhg0bkb0,1,1,95,24,3,win,no-go,ngw,rune_01_yr,blue,0,0,,1,0.0,+10,0
1e7zni3hs3hxwy7aqhg0bkb0,1,1,96,24,1,win,go,gw,rune_01_ear,blue,1,1,0.747,1,0.0,+10,1
1e7zni3hs3hxwy7aqhg0bkb0,1,1,97,25,3,win,no-go,ngw,rune_01_yr,blue,0,0,,1,0.0,+10,0
1e7zni3hs3hxwy7aqhg0bkb0,1,1,98,25,2,lose,go,gal,rune_01_ingwaz,yellow,1,1,0.691,1,0.0,-1,1
1e7zni3hs3hxwy7aqhg0bkb0,1,1,99,25,1,win,go,gw,rune_01_ear,blue,1,1,0.639,1,0.0,+10,1
1e7zni3hs3hxwy7aqhg0bkb0,1,1,100,25,4,lose,no-go,ngal,rune_01_ger,yellow,0,0,,1,1.0,-10,0
1e7zni3hs3hxwy7aqhg0bkb0,1,1,101,26,2,lose,go,gal,rune_01_ingwaz,yellow,1,1,0.349,1,0.0,-1,1
1e7zni3hs3hxwy7aqhg0bkb0,1,1,102,26,4,lose,no-go,ngal,rune_01_ger,yellow,0,1,0.913,0,0.0,-10,1
1e7zni3hs3hxwy7aqhg0bkb0,1,1,103,26,1,win,go,gw,rune_01_ear,blue,1,1,0.616,1,0.0,+10,1
1e7zni3hs3hxwy7aqhg0bkb0,1,1,104,26,3,win,no-go,ngw,rune_01_yr,blue,0,0,,1,0.0,+10,0
1e7zni3hs3hxwy7aqhg0bkb0,1,1,105,27,2,lose,go,gal,rune_01_ingwaz,yellow,1,1,0.603,1,0.0,-1,1
1e7zni3hs3hxwy7aqhg0bkb0,1,1,106,27,3,win,no-go,ngw,rune_01_yr,blue,0,0,,1,1.0,+1,0
1e7zni3hs3hxwy7aqhg0bkb0,1,1,107,27,4,lose,no-go,ngal,rune_01_ger,yellow,0,0,,1,0.0,-1,0
1e7zni3hs3hxwy7aqhg0bkb0,1,1,108,27,1,win,go,gw,rune_01_ear,blue,1,1,0.656,1,0.0,+10,1
1e7zni3hs3hxwy7aqhg0bkb0,1,1,109,28,4,lose,no-go,ngal,rune_01_ger,yellow,0,0,,1,0.0,-1,0
1e7zni3hs3hxwy7aqhg0bkb0,1,1,110,28,1,win,go,gw,rune_01_ear,blue,1,1,0.675,1,0.0,+10,1
1e7zni3hs3hxwy7aqhg0bkb0,1,1,111,28,3,win,no-go,ngw,rune_01_yr,blue,0,0,,1,0.0,+10,0
1e7zni3hs3hxwy7aqhg0bkb0,1,1,112,28,2,lose,go,gal,rune_01_ingwaz,yellow,1,1,0.437,1,1.0,-10,1
1e7zni3hs3hxwy7aqhg0bkb0,1,1,113,29,2,lose,go,gal,rune_01_ingwaz,yellow,1,1,0.6,1,0.0,-1,1
1e7zni3hs3hxwy7aqhg0bkb0,1,1,114,29,1,win,go,gw,rune_01_ear,blue,1,1,0.503,1,0.0,+10,1
1e7zni3hs3hxwy7aqhg0bkb0,1,1,115,29,4,lose,no-go,ngal,rune_01_ger,yellow,0,0,,1,1.0,-10,0
1e7zni3hs3hxwy7aqhg0bkb0,1,1,116,29,3,win,no-go,ngw,rune_01_yr,blue,0,0,,1,0.0,+10,0
1e7zni3hs3hxwy7aqhg0bkb0,1,1,117,30,2,lose,go,gal,rune_01_ingwaz,yellow,1,1,0.622,1,0.0,-1,1
1e7zni3hs3hxwy7aqhg0bkb0,1,1,118,30,3,win,no-go,ngw,rune_01_yr,blue,0,0,,1,0.0,+10,0
1e7zni3hs3hxwy7aqhg0bkb0,1,1,119,30,1,win,go,gw,rune_01_ear,blue,1,1,0.69,1,1.0,+1,1
1e7zni3hs3hxwy7aqhg0bkb0,1,1,120,30,4,lose,no-go,ngal,rune_01_ger,yellow,0,0,,1,0.0,-1,0
1e7zni3hs3hxwy7aqhg0bkb0,1,2,121,1,5,win,no-go,ngw,rune_02_cen,blue,0,1,1.044,0,0.0,+1,1
1e7zni3hs3hxwy7aqhg0bkb0,1,2,122,1,6,win,go,gw,rune_02_os,blue,1,1,0.503,1,0.0,+10,1
1e7zni3hs3hxwy7aqhg0bkb0,1,2,123,1,7,lose,go,gal,rune_02_haglaz,yellow,1,0,,0,0.0,-10,0
1e7zni3hs3hxwy7aqhg0bkb0,1,2,124,1,8,lose,no-go,ngal,rune_02_raido,yellow,0,0,,1,0.0,-1,0
1e7zni3hs3hxwy7aqhg0bkb0,1,2,125,2,6,win,go,gw,rune_02_os,blue,1,1,0.649,1,0.0,+10,1
1e7zni3hs3hxwy7aqhg0bkb0,1,2,126,2,8,lose,no-go,ngal,rune_02_raido,yellow,0,0,,1,0.0,-1,0
1e7zni3hs3hxwy7aqhg0bkb0,1,2,127,2,7,lose,go,gal,rune_02_haglaz,yellow,1,1,0.596,1,0.0,-1,1
1e7zni3hs3hxwy7aqhg0bkb0,1,2,128,2,5,win,no-go,ngw,rune_02_cen,blue,0,0,,1,1.0,+1,0
1e7zni3hs3hxwy7aqhg0bkb0,1,2,129,3,5,win,no-go,ngw,rune_02_cen,blue,0,1,0.701,0,0.0,+1,1
1e7zni3hs3hxwy7aqhg0bkb0,1,2,130,3,8,lose,no-go,ngal,rune_02_raido,yellow,0,0,,1,1.0,-10,0
1e7zni3hs3hxwy7aqhg0bkb0,1,2,131,3,6,win,go,gw,rune_02_os,blue,1,1,0.51,1,0.0,+10,1
1e7zni3hs3hxwy7aqhg0bkb0,1,2,132,3,7,lose,go,gal,rune_02_haglaz,yellow,1,1,0.755,1,1.0,-10,1
1e7zni3hs3hxwy7aqhg0bkb0,1,2,133,4,7,lose,go,gal,rune_02_haglaz,yellow,1,1,0.957,1,0.0,-1,1
1e7zni3hs3hxwy7aqhg0bkb0,1,2,134,4,5,win,no-go,ngw,rune_02_cen,blue,0,1,1.376,0,0.0,+1,1
1e7zni3hs3hxwy7aqhg0bkb0,1,2,135,4,6,win,go,gw,rune_02_os,blue,1,1,0.528,1,1.0,+1,1
1e7zni3hs3hxwy7aqhg0bkb0,1,2,136,4,8,lose,no-go,ngal,rune_02_raido,yellow,0,0,,1,0.0,-1,0
1e7zni3hs3hxwy7aqhg0bkb0,1,2,137,5,6,win,go,gw,rune_02_os,blue,1,1,0.645,1,0.0,+10,1
1e7zni3hs3hxwy7aqhg0bkb0,1,2,138,5,5,win,no-go,ngw,rune_02_cen,blue,0,0,,1,0.0,+10,0
1e7zni3hs3hxwy7aqhg0bkb0,1,2,139,5,7,lose,go,gal,rune_02_haglaz,yellow,1,1,0.724,1,0.0,-1,1
1e7zni3hs3hxwy7aqhg0bkb0,1,2,140,5,8,lose,no-go,ngal,rune_02_raido,yellow,0,0,,1,0.0,-1,0
1e7zni3hs3hxwy7aqhg0bkb0,1,2,141,6,5,win,no-go,ngw,rune_02_cen,blue,0,0,,1,0.0,+10,0
1e7zni3hs3hxwy7aqhg0bkb0,1,2,142,6,8,lose,no-go,ngal,rune_02_raido,yellow,0,1,0.559,0,0.0,-10,1
1e7zni3hs3hxwy7aqhg0bkb0,1,2,143,6,6,win,go,gw,rune_02_os,blue,1,1,0.447,1,0.0,+10,1
1e7zni3hs3hxwy7aqhg0bkb0,1,2,144,6,7,lose,go,gal,rune_02_haglaz,yellow,1,1,0.895,1,0.0,-1,1
1e7zni3hs3hxwy7aqhg0bkb0,1,2,145,7,7,lose,go,gal,rune_02_haglaz,yellow,1,1,1.0,1,0.0,-1,1
1e7zni3hs3hxwy7aqhg0bkb0,1,2,146,7,8,lose,no-go,ngal,rune_02_raido,yellow,0,1,0.361,0,0.0,-10,1
1e7zni3hs3hxwy7aqhg0bkb0,1,2,147,7,5,win,no-go,ngw,rune_02_cen,blue,0,0,,1,0.0,+10,0
1e7zni3hs3hxwy7aqhg0bkb0,1,2,148,7,6,win,go,gw,rune_02_os,blue,1,1,0.333,1,1.0,+1,1
1e7zni3hs3hxwy7aqhg0bkb0,1,2,149,8,5,win,no-go,ngw,rune_02_cen,blue,0,0,,1,1.0,+1,0
1e7zni3hs3hxwy7aqhg0bkb0,1,2,150,8,8,lose,no-go,ngal,rune_02_raido,yellow,0,1,1.166,0,0.0,-10,1
1e7zni3hs3hxwy7aqhg0bkb0,1,2,151,8,7,lose,go,gal,rune_02_haglaz,yellow,1,1,0.567,1,0.0,-1,1
1e7zni3hs3hxwy7aqhg0bkb0,1,2,152,8,6,win,go,gw,rune_02_os,blue,1,1,0.479,1,0.0,+10,1
1e7zni3hs3hxwy7aqhg0bkb0,1,2,153,9,5,win,no-go,ngw,rune_02_cen,blue,0,0,,1,0.0,+10,0
1e7zni3hs3hxwy7aqhg0bkb0,1,2,154,9,6,win,go,gw,rune_02_os,blue,1,1,0.533,1,0.0,+10,1
1e7zni3hs3hxwy7aqhg0bkb0,1,2,155,9,7,lose,go,gal,rune_02_haglaz,yellow,1,1,1.119,1,0.0,-1,1
1e7zni3hs3hxwy7aqhg0bkb0,1,2,156,9,8,lose,no-go,ngal,rune_02_raido,yellow,0,0,,1,0.0,-1,0
1e7zni3hs3hxwy7aqhg0bkb0,1,2,157,10,8,lose,no-go,ngal,rune_02_raido,yellow,0,1,0.586,0,1.0,-1,1
1e7zni3hs3hxwy7aqhg0bkb0,1,2,158,10,5,win,no-go,ngw,rune_02_cen,blue,0,1,1.025,0,0.0,+1,1
1e7zni3hs3hxwy7aqhg0bkb0,1,2,159,10,6,win,go,gw,rune_02_os,blue,1,1,0.687,1,0.0,+10,1
1e7zni3hs3hxwy7aqhg0bkb0,1,2,160,10,7,lose,go,gal,rune_02_haglaz,yellow,1,0,,0,1.0,-1,0
1e7zni3hs3hxwy7aqhg0bkb0,1,2,161,11,5,win,no-go,ngw,rune_02_cen,blue,0,1,0.567,0,1.0,+10,1
1e7zni3hs3hxwy7aqhg0bkb0,1,2,162,11,7,lose,go,gal,rune_02_haglaz,yellow,1,0,,0,1.0,-1,0
1e7zni3hs3hxwy7aqhg0bkb0,1,2,163,11,8,lose,no-go,ngal,rune_02_raido,yellow,0,0,,1,0.0,-1,0
1e7zni3hs3hxwy7aqhg0bkb0,1,2,164,11,6,win,go,gw,rune_02_os,blue,1,1,0.478,1,0.0,+10,1
1e7zni3hs3hxwy7aqhg0bkb0,1,2,165,12,7,lose,go,gal,rune_02_haglaz,yellow,1,0,,0,0.0,-10,0
1e7zni3hs3hxwy7aqhg0bkb0,1,2,166,12,5,win,no-go,ngw,rune_02_cen,blue,0,0,,1,0.0,+10,0
1e7zni3hs3hxwy7aqhg0bkb0,1,2,167,12,8,lose,no-go,ngal,rune_02_raido,yellow,0,1,0.748,0,0.0,-10,1
1e7zni3hs3hxwy7aqhg0bkb0,1,2,168,12,6,win,go,gw,rune_02_os,blue,1,1,0.727,1,0.0,+10,1
