[{"slider_type":"valence","raw_loc":661,"loc":0.822,"trial_type":"affective-slider","trial_index":0,"time_elapsed":5930,"internal_node_id":"0.0-0.0","task_version":"test-retest-t3"},{"responses":{"Q08":"0","Q01":"0","Q02":"0","Q03":"0","Q05":"0","Q07":"0","Q06":"0","Q04":"0"},"rt":35287.52500000701,"survey":"gad7","trial_type":"survey-template","trial_index":1,"time_elapsed":41221,"internal_node_id":"0.0-1.0","task_version":"test-retest-t3"},{"view_history":"[{\"page_index\":0,\"viewing_time\":3890.45000000624},{\"page_index\":1,\"viewing_time\":2198.239999997895},{\"page_index\":2,\"viewing_time\":5306.274999995367},{\"page_index\":3,\"viewing_time\":6020.9800000011455},{\"page_index\":4,\"viewing_time\":6269.560000000638},{\"page_index\":5,\"viewing_time\":2222.235000008368}]","rt":25908.439999999246,"trial_type":"pit-instructions","trial_index":2,"time_elapsed":67134,"internal_node_id":"0.0-2.0-0.0","task_version":"test-retest-t3"},{"Rune":"rune_00_ingz","Hex":"#FFFFF080","Correct":32,"Choice":32,"RT":371.9400000118185,"Accuracy":1,"Outcome":"+10","Keys":[1872.220000004745],"TotalKeys":1,"Block":0,"Action":"Go","trial_type":"pit-trial","trial_index":3,"time_elapsed":70009,"internal_node_id":"0.0-2.0-1.0-0.0","task_version":"test-retest-t3"},{"Rune":"rune_00_ingz","Hex":"#FFFFF080","Correct":32,"Choice":32,"RT":465.57499999471474,"Accuracy":1,"Outcome":"+10","Keys":[1966.3000000000466],"TotalKeys":1,"Block":0,"Action":"Go","trial_type":"pit-trial","trial_index":4,"time_elapsed":72977,"internal_node_id":"0.0-2.0-1.0-0.1","task_version":"test-retest-t3"},{"Rune":"rune_00_ingz","Hex":"#FFFFF080","Correct":32,"Choice":32,"RT":179.22999999427702,"Accuracy":1,"Outcome":"+10","Keys":[1679.8949999938486],"TotalKeys":1,"Block":0,"Action":"Go","trial_type":"pit-trial","trial_index":5,"time_elapsed":75660,"internal_node_id":"0.0-2.0-1.0-0.2","task_version":"test-retest-t3"},{"Rune":"rune_00_ingz","Hex":"#FFFFF080","Correct":32,"Choice":32,"RT":379.11999999778345,"Accuracy":1,"Outcome":"+10","Keys":[1879.3600000062725],"TotalKeys":1,"Block":0,"Action":"Go","trial_type":"pit-trial","trial_index":6,"time_elapsed":78542,"internal_node_id":"0.0-2.0-1.0-0.3","task_version":"test-retest-t3"},{"view_history":"[{\"page_index\":0,\"viewing_time\":5139.1399999993155}]","rt":5139.714999997523,"trial_type":"pit-instructions","trial_index":7,"time_elapsed":83684,"internal_node_id":"0.0-2.0-2.0","task_version":"test-retest-t3"},{"Rune":"rune_00_isaz","Hex":"#FFFFF080","Correct":-1,"Choice":-1,"RT":-1,"Accuracy":1,"Outcome":"+10","Keys":[],"TotalKeys":0,"Block":0,"Action":"No-Go","trial_type":"pit-trial","trial_index":8,"time_elapsed":87688,"internal_node_id":"0.0-2.0-3.0-0.0","task_version":"test-retest-t3"},{"Rune":"rune_00_isaz","Hex":"#FFFFF080","Correct":-1,"Choice":-1,"RT":-1,"Accuracy":1,"Outcome":"+10","Keys":[],"TotalKeys":0,"Block":0,"Action":"No-Go","trial_type":"pit-trial","trial_index":9,"time_elapsed":91693,"internal_node_id":"0.0-2.0-3.0-0.1","task_version":"test-retest-t3"},{"Rune":"rune_00_isaz","Hex":"#FFFFF080","Correct":-1,"Choice":-1,"RT":-1,"Accuracy":1,"Outcome":"+10","Keys":[],"TotalKeys":0,"Block":0,"Action":"No-Go","trial_type":"pit-trial","trial_index":10,"time_elapsed":95697,"internal_node_id":"0.0-2.0-3.0-0.2","task_version":"test-retest-t3"},{"Rune":"rune_00_isaz","Hex":"#FFFFF080","Correct":-1,"Choice":-1,"RT":-1,"Accuracy":1,"Outcome":"+10","Keys":[],"TotalKeys":0,"Block":0,"Action":"No-Go","trial_type":"pit-trial","trial_index":11,"time_elapsed":99700,"internal_node_id":"0.0-2.0-3.0-0.3","task_version":"test-retest-t3"},{"view_history":"[{\"page_index\":0,\"viewing_time\":3025.4299999942305},{\"page_index\":1,\"viewing_time\":6817.5500000070315},{\"page_index\":2,\"viewing_time\":4704.044999991311},{\"page_index\":3,\"viewing_time\":6551.384999998845},{\"page_index\":4,\"viewing_time\":5034.165000004577},{\"page_index\":5,\"viewing_time\":16268.955000006827},{\"page_index\":6,\"viewing_time\":1876.3299999991432},{\"page_index\":7,\"viewing_time\":2916.029999993043}]","rt":47194.195000003674,"trial_type":"pit-instructions","trial_index":12,"time_elapsed":146897,"internal_node_id":"0.0-2.0-4.0","task_version":"test-retest-t3"},{"responses":["Do nothing","+10","-1","True","Yes"],"num_errors":0,"rt":21847.84000000218,"trial_type":"pit-comprehension","trial_index":13,"time_elapsed":168747,"internal_node_id":"0.0-2.0-5.0","task_version":"test-retest-t3"},{"trial_type":"call-function","trial_index":14,"time_elapsed":168750,"internal_node_id":"0.0-3.0","task_version":"test-retest-t3"},{"view_history":"[{\"page_index\":0,\"viewing_time\":1206.689999991795},{\"page_index\":1,\"viewing_time\":1728.3549999992829},{\"page_index\":2,\"viewing_time\":4136.754999999539}]","rt":7072.119999997085,"trial_type":"pit-instructions","trial_index":15,"time_elapsed":175823,"internal_node_id":"0.0-4.0","task_version":"test-retest-t3"},{"Rune":"rune_06_berkanan","Hex":"#ffcc3399","Correct":-1,"Choice":32,"RT":296.88500000338536,"Accuracy":0,"Outcome":"-1","Keys":[1797.3950000014156],"TotalKeys":1,"Block":1,"Trial":1,"Robot":4,"Valence":"Lose","Action":"No-Go","Sham":1,"Color":"yellow","trial_type":"pit-trial","trial_index":16,"time_elapsed":178624,"internal_node_id":"0.0-5.0","task_version":"test-retest-t3"},{"Rune":"rune_06_ansuz","Hex":"#3366ff99","Correct":-1,"Choice":32,"RT":309.77000000711996,"Accuracy":0,"Outcome":"+1","Keys":[1810.7949999975972],"TotalKeys":1,"Block":1,"Trial":2,"Robot":2,"Valence":"Win","Action":"No-Go","Sham":0,"Color":"blue","trial_type":"pit-trial","trial_index":17,"time_elapsed":181437,"internal_node_id":"0.0-6.0","task_version":"test-retest-t3"},{"Rune":"rune_06_cweord","Hex":"#ffcc3399","Correct":32,"Choice":32,"RT":375.5600000004051,"Accuracy":1,"Outcome":"-1","Keys":[1877.4799999955576],"TotalKeys":1,"Block":1,"Trial":3,"Robot":3,"Valence":"Lose","Action":"Go","Sham":0,"Color":"yellow","trial_type":"pit-trial","trial_index":18,"time_elapsed":184318,"internal_node_id":"0.0-7.0","task_version":"test-retest-t3"},{"Rune":"rune_06_ehwaz","Hex":"#3366ff99","Correct":32,"Choice":32,"RT":392.7149999944959,"Accuracy":1,"Outcome":"+10","Keys":[1893.4900000022026],"TotalKeys":1,"Block":1,"Trial":4,"Robot":1,"Valence":"Win","Action":"Go","Sham":0,"Color":"blue","trial_type":"pit-trial","trial_index":19,"time_elapsed":187213,"internal_node_id":"0.0-8.0","task_version":"test-retest-t3"},{"Rune":"rune_06_berkanan","Hex":"#ffcc3399","Correct":-1,"Choice":32,"RT":406.31500000017695,"Accuracy":0,"Outcome":"-10","Keys":[1906.4149999903748],"TotalKeys":1,"Block":1,"Trial":5,"Robot":4,"Valence":"Lose","Action":"No-Go","Sham":0,"Color":"yellow","trial_type":"pit-trial","trial_index":20,"time_elapsed":190123,"internal_node_id":"0.0-9.0","task_version":"test-retest-t3"},{"Rune":"rune_06_cweord","Hex":"#ffcc3399","Correct":32,"Choice":32,"RT":485.10499999974854,"Accuracy":1,"Outcome":"-1","Keys":[1986.059999995632],"TotalKeys":1,"Block":1,"Trial":6,"Robot":3,"Valence":"Lose","Action":"Go","Sham":0,"Color":"yellow","trial_type":"pit-trial","trial_index":21,"time_elapsed":193112,"internal_node_id":"0.0-10.0","task_version":"test-retest-t3"},{"Rune":"rune_06_ehwaz","Hex":"#3366ff99","Correct":32,"Choice":32,"RT":582.540000003064,"Accuracy":1,"Outcome":"+10","Keys":[2083.3649999985937],"TotalKeys":1,"Block":1,"Trial":7,"Robot":1,"Valence":"Win","Action":"Go","Sham":0,"Color":"blue","trial_type":"pit-trial","trial_index":22,"time_elapsed":196198,"internal_node_id":"0.0-11.0","task_version":"test-retest-t3"},{"Rune":"rune_06_ansuz","Hex":"#3366ff99","Correct":-1,"Choice":-1,"RT":-1,"Accuracy":1,"Outcome":"+10","Keys":[],"TotalKeys":0,"Block":1,"Trial":8,"Robot":2,"Valence":"Win","Action":"No-Go","Sham":0,"Color":"blue","trial_type":"pit-trial","trial_index":23,"time_elapsed":200201,"internal_node_id":"0.0-12.0","task_version":"test-retest-t3"},{"Rune":"rune_06_ansuz","Hex":"#3366ff99","Correct":-1,"Choice":-1,"RT":-1,"Accuracy":1,"Outcome":"+10","Keys":[],"TotalKeys":0,"Block":1,"Trial":9,"Robot":2,"Valence":"Win","Action":"No-Go","Sham":0,"Color":"blue","trial_type":"pit-trial","trial_index":24,"time_elapsed":204203,"internal_node_id":"0.0-13.0","task_version":"test-retest-t3"},{"Rune":"rune_06_berkanan","Hex":"#ffcc3399","Correct":-1,"Choice":32,"RT":477.88999999465887,"Accuracy":0,"Outcome":"-10","Keys":[1977.9599999892525],"TotalKeys":1,"Block":1,"Trial":10,"Robot":4,"Valence":"Lose","Action":"No-Go","Sham":0,"Color":"yellow","trial_type":"pit-trial","trial_index":25,"time_elapsed":207183,"internal_node_id":"0.0-14.0","task_version":"test-retest-t3"},{"Rune":"rune_06_cweord","Hex":"#ffcc3399","Correct":32,"Choice":32,"RT":1039.5700000080978,"Accuracy":1,"Outcome":"-1","Keys":[2539.86000000441],"TotalKeys":1,"Block":1,"Trial":11,"Robot":3,"Valence":"Lose","Action":"Go","Sham":0,"Color":"yellow","trial_type":"pit-trial","trial_index":26,"time_elapsed":210726,"internal_node_id":"0.0-15.0","task_version":"test-retest-t3"},{"Rune":"rune_06_ehwaz","Hex":"#3366ff99","Correct":32,"Choice":32,"RT":656.7549999890616,"Accuracy":1,"Outcome":"+1","Keys":[2157.3149999894667],"TotalKeys":1,"Block":1,"Trial":12,"Robot":1,"Valence":"Win","Action":"Go","Sham":1,"Color":"blue","trial_type":"pit-trial","trial_index":27,"time_elapsed":213887,"internal_node_id":"0.0-16.0","task_version":"test-retest-t3"},{"Rune":"rune_06_ehwaz","Hex":"#3366ff99","Correct":32,"Choice":32,"RT":271.9900000083726,"Accuracy":1,"Outcome":"+10","Keys":[1772.8900000074646],"TotalKeys":1,"Block":1,"Trial":13,"Robot":1,"Valence":"Win","Action":"Go","Sham":0,"Color":"blue","trial_type":"pit-trial","trial_index":28,"time_elapsed":216662,"internal_node_id":"0.0-17.0","task_version":"test-retest-t3"},{"Rune":"rune_06_cweord","Hex":"#ffcc3399","Correct":32,"Choice":-1,"RT":-1,"Accuracy":0,"Outcome":"-10","Keys":[],"TotalKeys":0,"Block":1,"Trial":14,"Robot":3,"Valence":"Lose","Action":"Go","Sham":0,"Color":"yellow","trial_type":"pit-trial","trial_index":29,"time_elapsed":220665,"internal_node_id":"0.0-18.0","task_version":"test-retest-t3"},{"Rune":"rune_06_ansuz","Hex":"#3366ff99","Correct":-1,"Choice":-1,"RT":-1,"Accuracy":1,"Outcome":"+10","Keys":[],"TotalKeys":0,"Block":1,"Trial":15,"Robot":2,"Valence":"Win","Action":"No-Go","Sham":0,"Color":"blue","trial_type":"pit-trial","trial_index":30,"time_elapsed":224669,"internal_node_id":"0.0-19.0","task_version":"test-retest-t3"},{"Rune":"rune_06_berkanan","Hex":"#ffcc3399","Correct":-1,"Choice":-1,"RT":-1,"Accuracy":1,"Outcome":"-1","Keys":[],"TotalKeys":0,"Block":1,"Trial":16,"Robot":4,"Valence":"Lose","Action":"No-Go","Sham":0,"Color":"yellow","trial_type":"pit-trial","trial_index":31,"time_elapsed":228674,"internal_node_id":"0.0-20.0","task_version":"test-retest-t3"},{"Rune":"rune_06_ansuz","Hex":"#3366ff99","Correct":-1,"Choice":-1,"RT":-1,"Accuracy":1,"Outcome":"+1","Keys":[],"TotalKeys":0,"Block":1,"Trial":17,"Robot":2,"Valence":"Win","Action":"No-Go","Sham":1,"Color":"blue","trial_type":"pit-trial","trial_index":32,"time_elapsed":232677,"internal_node_id":"0.0-21.0","task_version":"test-retest-t3"},{"Rune":"rune_06_berkanan","Hex":"#ffcc3399","Correct":-1,"Choice":32,"RT":342.66500000376254,"Accuracy":0,"Outcome":"-10","Keys":[1843.5949999984587],"TotalKeys":1,"Block":1,"Trial":18,"Robot":4,"Valence":"Lose","Action":"No-Go","Sham":0,"Color":"yellow","trial_type":"pit-trial","trial_index":33,"time_elapsed":235524,"internal_node_id":"0.0-22.0","task_version":"test-retest-t3"},{"Rune":"rune_06_cweord","Hex":"#ffcc3399","Correct":32,"Choice":32,"RT":541.1650000023656,"Accuracy":1,"Outcome":"-10","Keys":[2042.8800000081537],"TotalKeys":1,"Block":1,"Trial":19,"Robot":3,"Valence":"Lose","Action":"Go","Sham":1,"Color":"yellow","trial_type":"pit-trial","trial_index":34,"time_elapsed":238570,"internal_node_id":"0.0-23.0","task_version":"test-retest-t3"},{"Rune":"rune_06_ehwaz","Hex":"#3366ff99","Correct":32,"Choice":32,"RT":453.76499999838416,"Accuracy":1,"Outcome":"+10","Keys":[1954.2400000063935],"TotalKeys":1,"Block":1,"Trial":20,"Robot":1,"Valence":"Win","Action":"Go","Sham":0,"Color":"blue","trial_type":"pit-trial","trial_index":35,"time_elapsed":241527,"internal_node_id":"0.0-24.0","task_version":"test-retest-t3"},{"Rune":"rune_06_ehwaz","Hex":"#3366ff99","Correct":32,"Choice":32,"RT":291.99499999231193,"Accuracy":1,"Outcome":"+10","Keys":[1792.874999999185],"TotalKeys":1,"Block":1,"Trial":21,"Robot":1,"Valence":"Win","Action":"Go","Sham":0,"Color":"blue","trial_type":"pit-trial","trial_index":36,"time_elapsed":244323,"internal_node_id":"0.0-25.0","task_version":"test-retest-t3"},{"Rune":"rune_06_cweord","Hex":"#ffcc3399","Correct":32,"Choice":32,"RT":1074.4199999899138,"Accuracy":1,"Outcome":"-1","Keys":[2575.0699999916833],"TotalKeys":1,"Block":1,"Trial":22,"Robot":3,"Valence":"Lose","Action":"Go","Sham":0,"Color":"yellow","trial_type":"pit-trial","trial_index":37,"time_elapsed":247901,"internal_node_id":"0.0-26.0","task_version":"test-retest-t3"},{"Rune":"rune_06_berkanan","Hex":"#ffcc3399","Correct":-1,"Choice":-1,"RT":-1,"Accuracy":1,"Outcome":"-1","Keys":[],"TotalKeys":0,"Block":1,"Trial":23,"Robot":4,"Valence":"Lose","Action":"No-Go","Sham":0,"Color":"yellow","trial_type":"pit-trial","trial_index":38,"time_elapsed":251905,"internal_node_id":"0.0-27.0","task_version":"test-retest-t3"},{"Rune":"rune_06_ansuz","Hex":"#3366ff99","Correct":-1,"Choice":-1,"RT":-1,"Accuracy":1,"Outcome":"+10","Keys":[],"TotalKeys":0,"Block":1,"Trial":24,"Robot":2,"Valence":"Win","Action":"No-Go","Sham":0,"Color":"blue","trial_type":"pit-trial","trial_index":39,"time_elapsed":255909,"internal_node_id":"0.0-28.0","task_version":"test-retest-t3"},{"Rune":"rune_06_berkanan","Hex":"#ffcc3399","Correct":-1,"Choice":-1,"RT":-1,"Accuracy":1,"Outcome":"-1","Keys":[],"TotalKeys":0,"Block":1,"Trial":25,"Robot":4,"Valence":"Lose","Action":"No-Go","Sham":0,"Color":"yellow","trial_type":"pit-trial","trial_index":40,"time_elapsed":259914,"internal_node_id":"0.0-29.0","task_version":"test-retest-t3"},{"Rune":"rune_06_ansuz","Hex":"#3366ff99","Correct":-1,"Choice":-1,"RT":-1,"Accuracy":1,"Outcome":"+10","Keys":[],"TotalKeys":0,"Block":1,"Trial":26,"Robot":2,"Valence":"Win","Action":"No-Go","Sham":0,"Color":"blue","trial_type":"pit-trial","trial_index":41,"time_elapsed":263918,"internal_node_id":"0.0-30.0","task_version":"test-retest-t3"},{"Rune":"rune_06_cweord","Hex":"#ffcc3399","Correct":32,"Choice":32,"RT":876.0249999904772,"Accuracy":1,"Outcome":"-1","Keys":[2376.155000005383],"TotalKeys":1,"Block":1,"Trial":27,"Robot":3,"Valence":"Lose","Action":"Go","Sham":0,"Color":"yellow","trial_type":"pit-trial","trial_index":42,"time_elapsed":267296,"internal_node_id":"0.0-31.0","task_version":"test-retest-t3"},{"Rune":"rune_06_ehwaz","Hex":"#3366ff99","Correct":32,"Choice":32,"RT":603.4450000006473,"Accuracy":1,"Outcome":"+10","Keys":[2104.3900000076974],"TotalKeys":1,"Block":1,"Trial":28,"Robot":1,"Valence":"Win","Action":"Go","Sham":0,"Color":"blue","trial_type":"pit-trial","trial_index":43,"time_elapsed":270403,"internal_node_id":"0.0-32.0","task_version":"test-retest-t3"},{"Rune":"rune_06_cweord","Hex":"#ffcc3399","Correct":32,"Choice":-1,"RT":-1,"Accuracy":0,"Outcome":"-10","Keys":[],"TotalKeys":0,"Block":1,"Trial":29,"Robot":3,"Valence":"Lose","Action":"Go","Sham":0,"Color":"yellow","trial_type":"pit-trial","trial_index":44,"time_elapsed":274406,"internal_node_id":"0.0-33.0","task_version":"test-retest-t3"},{"Rune":"rune_06_ehwaz","Hex":"#3366ff99","Correct":32,"Choice":32,"RT":481.59000001032837,"Accuracy":1,"Outcome":"+10","Keys":[1982.3900000046706],"TotalKeys":1,"Block":1,"Trial":30,"Robot":1,"Valence":"Win","Action":"Go","Sham":0,"Color":"blue","trial_type":"pit-trial","trial_index":45,"time_elapsed":277392,"internal_node_id":"0.0-34.0","task_version":"test-retest-t3"},{"Rune":"rune_06_berkanan","Hex":"#ffcc3399","Correct":-1,"Choice":-1,"RT":-1,"Accuracy":1,"Outcome":"-1","Keys":[],"TotalKeys":0,"Block":1,"Trial":31,"Robot":4,"Valence":"Lose","Action":"No-Go","Sham":0,"Color":"yellow","trial_type":"pit-trial","trial_index":46,"time_elapsed":281396,"internal_node_id":"0.0-35.0","task_version":"test-retest-t3"},{"Rune":"rune_06_ansuz","Hex":"#3366ff99","Correct":-1,"Choice":32,"RT":567.2749999939697,"Accuracy":0,"Outcome":"+10","Keys":[2067.2900000063237],"TotalKeys":1,"Block":1,"Trial":32,"Robot":2,"Valence":"Win","Action":"No-Go","Sham":1,"Color":"blue","trial_type":"pit-trial","trial_index":47,"time_elapsed":284467,"internal_node_id":"0.0-36.0","task_version":"test-retest-t3"},{"Rune":"rune_06_ansuz","Hex":"#3366ff99","Correct":-1,"Choice":-1,"RT":-1,"Accuracy":1,"Outcome":"+10","Keys":[],"TotalKeys":0,"Block":1,"Trial":33,"Robot":2,"Valence":"Win","Action":"No-Go","Sham":0,"Color":"blue","trial_type":"pit-trial","trial_index":48,"time_elapsed":288472,"internal_node_id":"0.0-37.0","task_version":"test-retest-t3"},{"Rune":"rune_06_ehwaz","Hex":"#3366ff99","Correct":32,"Choice":32,"RT":416.6949999926146,"Accuracy":1,"Outcome":"+1","Keys":[1917.5099999993108],"TotalKeys":1,"Block":1,"Trial":34,"Robot":1,"Valence":"Win","Action":"Go","Sham":1,"Color":"blue","trial_type":"pit-trial","trial_index":49,"time_elapsed":291393,"internal_node_id":"0.0-38.0","task_version":"test-retest-t3"},{"Rune":"rune_06_berkanan","Hex":"#ffcc3399","Correct":-1,"Choice":-1,"RT":-1,"Accuracy":1,"Outcome":"-10","Keys":[],"TotalKeys":0,"Block":1,"Trial":35,"Robot":4,"Valence":"Lose","Action":"No-Go","Sham":1,"Color":"yellow","trial_type":"pit-trial","trial_index":50,"time_elapsed":295396,"internal_node_id":"0.0-39.0","task_version":"test-retest-t3"},{"Rune":"rune_06_cweord","Hex":"#ffcc3399","Correct":32,"Choice":32,"RT":578.3300000039162,"Accuracy":1,"Outcome":"-1","Keys":[2079.1150000004563],"TotalKeys":1,"Block":1,"Trial":36,"Robot":3,"Valence":"Lose","Action":"Go","Sham":0,"Color":"yellow","trial_type":"pit-trial","trial_index":51,"time_elapsed":298479,"internal_node_id":"0.0-40.0","task_version":"test-retest-t3"},{"Rune":"rune_06_ehwaz","Hex":"#3366ff99","Correct":32,"Choice":32,"RT":419.16499999933876,"Accuracy":1,"Outcome":"+10","Keys":[1920.0350000028266],"TotalKeys":1,"Block":1,"Trial":37,"Robot":1,"Valence":"Win","Action":"Go","Sham":0,"Color":"blue","trial_type":"pit-trial","trial_index":52,"time_elapsed":301404,"internal_node_id":"0.0-41.0","task_version":"test-retest-t3"},{"Rune":"rune_06_berkanan","Hex":"#ffcc3399","Correct":-1,"Choice":-1,"RT":-1,"Accuracy":1,"Outcome":"-1","Keys":[],"TotalKeys":0,"Block":1,"Trial":38,"Robot":4,"Valence":"Lose","Action":"No-Go","Sham":0,"Color":"yellow","trial_type":"pit-trial","trial_index":53,"time_elapsed":305410,"internal_node_id":"0.0-42.0","task_version":"test-retest-t3"},{"Rune":"rune_06_ansuz","Hex":"#3366ff99","Correct":-1,"Choice":32,"RT":620.5550000013318,"Accuracy":0,"Outcome":"+1","Keys":[2120.7050000084564],"TotalKeys":1,"Block":1,"Trial":39,"Robot":2,"Valence":"Win","Action":"No-Go","Sham":0,"Color":"blue","trial_type":"pit-trial","trial_index":54,"time_elapsed":308535,"internal_node_id":"0.0-43.0","task_version":"test-retest-t3"},{"Rune":"rune_06_cweord","Hex":"#ffcc3399","Correct":32,"Choice":32,"RT":578.3999999985099,"Accuracy":1,"Outcome":"-10","Keys":[2079.315000009956],"TotalKeys":1,"Block":1,"Trial":40,"Robot":3,"Valence":"Lose","Action":"Go","Sham":1,"Color":"yellow","trial_type":"pit-trial","trial_index":55,"time_elapsed":311617,"internal_node_id":"0.0-44.0","task_version":"test-retest-t3"},{"Rune":"rune_06_berkanan","Hex":"#ffcc3399","Correct":-1,"Choice":32,"RT":924.5799999916926,"Accuracy":0,"Outcome":"-10","Keys":[2425.470000001951],"TotalKeys":1,"Block":1,"Trial":41,"Robot":4,"Valence":"Lose","Action":"No-Go","Sham":0,"Color":"yellow","trial_type":"pit-trial","trial_index":56,"time_elapsed":315046,"internal_node_id":"0.0-45.0","task_version":"test-retest-t3"},{"Rune":"rune_06_cweord","Hex":"#ffcc3399","Correct":32,"Choice":32,"RT":483.4300000075018,"Accuracy":1,"Outcome":"-1","Keys":[1983.8749999908032],"TotalKeys":1,"Block":1,"Trial":42,"Robot":3,"Valence":"Lose","Action":"Go","Sham":0,"Color":"yellow","trial_type":"pit-trial","trial_index":57,"time_elapsed":318032,"internal_node_id":"0.0-46.0","task_version":"test-retest-t3"},{"Rune":"rune_06_ansuz","Hex":"#3366ff99","Correct":-1,"Choice":-1,"RT":-1,"Accuracy":1,"Outcome":"+10","Keys":[],"TotalKeys":0,"Block":1,"Trial":43,"Robot":2,"Valence":"Win","Action":"No-Go","Sham":0,"Color":"blue","trial_type":"pit-trial","trial_index":58,"time_elapsed":322036,"internal_node_id":"0.0-47.0","task_version":"test-retest-t3"},{"Rune":"rune_06_ehwaz","Hex":"#3366ff99","Correct":32,"Choice":32,"RT":479.64000000501983,"Accuracy":1,"Outcome":"+10","Keys":[1979.655000002822],"TotalKeys":1,"Block":1,"Trial":44,"Robot":1,"Valence":"Win","Action":"Go","Sham":0,"Color":"blue","trial_type":"pit-trial","trial_index":59,"time_elapsed":325020,"internal_node_id":"0.0-48.0","task_version":"test-retest-t3"},{"Rune":"rune_06_ansuz","Hex":"#3366ff99","Correct":-1,"Choice":-1,"RT":-1,"Accuracy":1,"Outcome":"+10","Keys":[],"TotalKeys":0,"Block":1,"Trial":45,"Robot":2,"Valence":"Win","Action":"No-Go","Sham":0,"Color":"blue","trial_type":"pit-trial","trial_index":60,"time_elapsed":329024,"internal_node_id":"0.0-49.0","task_version":"test-retest-t3"},{"Rune":"rune_06_ehwaz","Hex":"#3366ff99","Correct":32,"Choice":32,"RT":502.33999999181833,"Accuracy":1,"Outcome":"+10","Keys":[2003.1750000052853],"TotalKeys":1,"Block":1,"Trial":46,"Robot":1,"Valence":"Win","Action":"Go","Sham":0,"Color":"blue","trial_type":"pit-trial","trial_index":61,"time_elapsed":332031,"internal_node_id":"0.0-50.0","task_version":"test-retest-t3"},{"Rune":"rune_06_cweord","Hex":"#ffcc3399","Correct":32,"Choice":32,"RT":784.574999997858,"Accuracy":1,"Outcome":"-1","Keys":[2286.5050000109477],"TotalKeys":1,"Block":1,"Trial":47,"Robot":3,"Valence":"Lose","Action":"Go","Sham":0,"Color":"yellow","trial_type":"pit-trial","trial_index":62,"time_elapsed":335320,"internal_node_id":"0.0-51.0","task_version":"test-retest-t3"},{"Rune":"rune_06_berkanan","Hex":"#ffcc3399","Correct":-1,"Choice":-1,"RT":-1,"Accuracy":1,"Outcome":"-1","Keys":[],"TotalKeys":0,"Block":1,"Trial":48,"Robot":4,"Valence":"Lose","Action":"No-Go","Sham":0,"Color":"yellow","trial_type":"pit-trial","trial_index":63,"time_elapsed":339324,"internal_node_id":"0.0-52.0","task_version":"test-retest-t3"},{"Rune":"rune_06_cweord","Hex":"#ffcc3399","Correct":32,"Choice":32,"RT":515.3949999948964,"Accuracy":1,"Outcome":"-1","Keys":[2016.284999990603],"TotalKeys":1,"Block":1,"Trial":49,"Robot":3,"Valence":"Lose","Action":"Go","Sham":0,"Color":"yellow","trial_type":"pit-trial","trial_index":64,"time_elapsed":342343,"internal_node_id":"0.0-53.0","task_version":"test-retest-t3"},{"Rune":"rune_06_berkanan","Hex":"#ffcc3399","Correct":-1,"Choice":-1,"RT":-1,"Accuracy":1,"Outcome":"-10","Keys":[],"TotalKeys":0,"Block":1,"Trial":50,"Robot":4,"Valence":"Lose","Action":"No-Go","Sham":1,"Color":"yellow","trial_type":"pit-trial","trial_index":65,"time_elapsed":346347,"internal_node_id":"0.0-54.0","task_version":"test-retest-t3"},{"Rune":"rune_06_ansuz","Hex":"#3366ff99","Correct":-1,"Choice":32,"RT":370.27000001398847,"Accuracy":0,"Outcome":"+1","Keys":[1871.0950000095181],"TotalKeys":1,"Block":1,"Trial":51,"Robot":2,"Valence":"Win","Action":"No-Go","Sham":0,"Color":"blue","trial_type":"pit-trial","trial_index":66,"time_elapsed":349221,"internal_node_id":"0.0-55.0","task_version":"test-retest-t3"},{"Rune":"rune_06_ehwaz","Hex":"#3366ff99","Correct":32,"Choice":32,"RT":384.76999998965766,"Accuracy":1,"Outcome":"+10","Keys":[1885.4100000025937],"TotalKeys":1,"Block":1,"Trial":52,"Robot":1,"Valence":"Win","Action":"Go","Sham":0,"Color":"blue","trial_type":"pit-trial","trial_index":67,"time_elapsed":352109,"internal_node_id":"0.0-56.0","task_version":"test-retest-t3"},{"Rune":"rune_06_berkanan","Hex":"#ffcc3399","Correct":-1,"Choice":-1,"RT":-1,"Accuracy":1,"Outcome":"-1","Keys":[],"TotalKeys":0,"Block":1,"Trial":53,"Robot":4,"Valence":"Lose","Action":"No-Go","Sham":0,"Color":"yellow","trial_type":"pit-trial","trial_index":68,"time_elapsed":356112,"internal_node_id":"0.0-57.0","task_version":"test-retest-t3"},{"Rune":"rune_06_ehwaz","Hex":"#3366ff99","Correct":32,"Choice":32,"RT":481.79000000527594,"Accuracy":1,"Outcome":"+10","Keys":[1982.7099999965867],"TotalKeys":1,"Block":1,"Trial":54,"Robot":1,"Valence":"Win","Action":"Go","Sham":0,"Color":"blue","trial_type":"pit-trial","trial_index":69,"time_elapsed":359098,"internal_node_id":"0.0-58.0","task_version":"test-retest-t3"},{"Rune":"rune_06_ansuz","Hex":"#3366ff99","Correct":-1,"Choice":-1,"RT":-1,"Accuracy":1,"Outcome":"+10","Keys":[],"TotalKeys":0,"Block":1,"Trial":55,"Robot":2,"Valence":"Win","Action":"No-Go","Sham":0,"Color":"blue","trial_type":"pit-trial","trial_index":70,"time_elapsed":363102,"internal_node_id":"0.0-59.0","task_version":"test-retest-t3"},{"Rune":"rune_06_cweord","Hex":"#ffcc3399","Correct":32,"Choice":32,"RT":627.3650000075577,"Accuracy":1,"Outcome":"-1","Keys":[2127.9300000023795],"TotalKeys":1,"Block":1,"Trial":56,"Robot":3,"Valence":"Lose","Action":"Go","Sham":0,"Color":"yellow","trial_type":"pit-trial","trial_index":71,"time_elapsed":366234,"internal_node_id":"0.0-60.0","task_version":"test-retest-t3"},{"Rune":"rune_06_cweord","Hex":"#ffcc3399","Correct":32,"Choice":32,"RT":643.6299999913899,"Accuracy":1,"Outcome":"-10","Keys":[2143.6650000105146],"TotalKeys":1,"Block":1,"Trial":57,"Robot":3,"Valence":"Lose","Action":"Go","Sham":1,"Color":"yellow","trial_type":"pit-trial","trial_index":72,"time_elapsed":369381,"internal_node_id":"0.0-61.0","task_version":"test-retest-t3"},{"Rune":"rune_06_berkanan","Hex":"#ffcc3399","Correct":-1,"Choice":-1,"RT":-1,"Accuracy":1,"Outcome":"-1","Keys":[],"TotalKeys":0,"Block":1,"Trial":58,"Robot":4,"Valence":"Lose","Action":"No-Go","Sham":0,"Color":"yellow","trial_type":"pit-trial","trial_index":73,"time_elapsed":373385,"internal_node_id":"0.0-62.0","task_version":"test-retest-t3"},{"Rune":"rune_06_ansuz","Hex":"#3366ff99","Correct":-1,"Choice":-1,"RT":-1,"Accuracy":1,"Outcome":"+1","Keys":[],"TotalKeys":0,"Block":1,"Trial":59,"Robot":2,"Valence":"Win","Action":"No-Go","Sham":1,"Color":"blue","trial_type":"pit-trial","trial_index":74,"time_elapsed":377389,"internal_node_id":"0.0-63.0","task_version":"test-retest-t3"},{"Rune":"rune_06_ehwaz","Hex":"#3366ff99","Correct":32,"Choice":32,"RT":289.23500000382774,"Accuracy":1,"Outcome":"+1","Keys":[1789.9099999922328],"TotalKeys":1,"Block":1,"Trial":60,"Robot":1,"Valence":"Win","Action":"Go","Sham":1,"Color":"blue","trial_type":"pit-trial","trial_index":75,"time_elapsed":380182,"internal_node_id":"0.0-64.0","task_version":"test-retest-t3"},{"value":false,"trial_type":"call-function","trial_index":76,"time_elapsed":380184,"internal_node_id":"0.0-65.0","task_version":"test-retest-t3"},{"view_history":"[{\"page_index\":0,\"viewing_time\":6559.545000010985},{\"page_index\":1,\"viewing_time\":2175.984999994398}]","rt":8735.855000006268,"trial_type":"pit-instructions","trial_index":77,"time_elapsed":388921,"internal_node_id":"0.0-66.0","task_version":"test-retest-t3"},{"Rune":"rune_06_ansuz","Hex":"#3366ff99","Correct":-1,"Choice":-1,"RT":-1,"Accuracy":1,"Outcome":"+10","Keys":[],"TotalKeys":0,"Block":1,"Trial":61,"Robot":2,"Valence":"Win","Action":"No-Go","Sham":0,"Color":"blue","trial_type":"pit-trial","trial_index":78,"time_elapsed":392925,"internal_node_id":"0.0-67.0","task_version":"test-retest-t3"},{"Rune":"rune_06_berkanan","Hex":"#ffcc3399","Correct":-1,"Choice":-1,"RT":-1,"Accuracy":1,"Outcome":"-10","Keys":[],"TotalKeys":0,"Block":1,"Trial":62,"Robot":4,"Valence":"Lose","Action":"No-Go","Sham":1,"Color":"yellow","trial_type":"pit-trial","trial_index":79,"time_elapsed":396929,"internal_node_id":"0.0-68.0","task_version":"test-retest-t3"},{"Rune":"rune_06_ehwaz","Hex":"#3366ff99","Correct":32,"Choice":32,"RT":458.65000000048894,"Accuracy":1,"Outcome":"+10","Keys":[1959.5100000005914],"TotalKeys":1,"Block":1,"Trial":63,"Robot":1,"Valence":"Win","Action":"Go","Sham":0,"Color":"blue","trial_type":"pit-trial","trial_index":80,"time_elapsed":399891,"internal_node_id":"0.0-69.0","task_version":"test-retest-t3"},{"Rune":"rune_06_cweord","Hex":"#ffcc3399","Correct":32,"Choice":-1,"RT":-1,"Accuracy":0,"Outcome":"-10","Keys":[],"TotalKeys":0,"Block":1,"Trial":64,"Robot":3,"Valence":"Lose","Action":"Go","Sham":0,"Color":"yellow","trial_type":"pit-trial","trial_index":81,"time_elapsed":403895,"internal_node_id":"0.0-70.0","task_version":"test-retest-t3"},{"Rune":"rune_06_berkanan","Hex":"#ffcc3399","Correct":-1,"Choice":32,"RT":565.6900000030873,"Accuracy":0,"Outcome":"-10","Keys":[2066.3950000016484],"TotalKeys":1,"Block":1,"Trial":65,"Robot":4,"Valence":"Lose","Action":"No-Go","Sham":0,"Color":"yellow","trial_type":"pit-trial","trial_index":82,"time_elapsed":406964,"internal_node_id":"0.0-71.0","task_version":"test-retest-t3"},{"Rune":"rune_06_ansuz","Hex":"#3366ff99","Correct":-1,"Choice":32,"RT":639.6050000039395,"Accuracy":0,"Outcome":"+10","Keys":[2140.3950000094483],"TotalKeys":1,"Block":1,"Trial":66,"Robot":2,"Valence":"Win","Action":"No-Go","Sham":1,"Color":"blue","trial_type":"pit-trial","trial_index":83,"time_elapsed":410108,"internal_node_id":"0.0-72.0","task_version":"test-retest-t3"},{"Rune":"rune_06_cweord","Hex":"#ffcc3399","Correct":32,"Choice":32,"RT":602.2599999996601,"Accuracy":1,"Outcome":"-1","Keys":[2103.960000007646],"TotalKeys":1,"Block":1,"Trial":67,"Robot":3,"Valence":"Lose","Action":"Go","Sham":0,"Color":"yellow","trial_type":"pit-trial","trial_index":84,"time_elapsed":413215,"internal_node_id":"0.0-73.0","task_version":"test-retest-t3"},{"Rune":"rune_06_ehwaz","Hex":"#3366ff99","Correct":32,"Choice":32,"RT":402.2700000059558,"Accuracy":1,"Outcome":"+1","Keys":[1902.3749999905704],"TotalKeys":1,"Block":1,"Trial":68,"Robot":1,"Valence":"Win","Action":"Go","Sham":1,"Color":"blue","trial_type":"pit-trial","trial_index":85,"time_elapsed":416121,"internal_node_id":"0.0-74.0","task_version":"test-retest-t3"},{"Rune":"rune_06_ehwaz","Hex":"#3366ff99","Correct":32,"Choice":32,"RT":374.06499999633525,"Accuracy":1,"Outcome":"+10","Keys":[1875.0049999944167],"TotalKeys":1,"Block":1,"Trial":69,"Robot":1,"Valence":"Win","Action":"Go","Sham":0,"Color":"blue","trial_type":"pit-trial","trial_index":86,"time_elapsed":418998,"internal_node_id":"0.0-75.0","task_version":"test-retest-t3"},{"Rune":"rune_06_ansuz","Hex":"#3366ff99","Correct":-1,"Choice":32,"RT":888.2549999980256,"Accuracy":0,"Outcome":"+1","Keys":[2388.3700000005774],"TotalKeys":1,"Block":1,"Trial":70,"Robot":2,"Valence":"Win","Action":"No-Go","Sham":0,"Color":"blue","trial_type":"pit-trial","trial_index":87,"time_elapsed":422390,"internal_node_id":"0.0-76.0","task_version":"test-retest-t3"},{"Rune":"rune_06_berkanan","Hex":"#ffcc3399","Correct":-1,"Choice":32,"RT":573.9800000010291,"Accuracy":0,"Outcome":"-10","Keys":[2074.9999999970896],"TotalKeys":1,"Block":1,"Trial":71,"Robot":4,"Valence":"Lose","Action":"No-Go","Sham":0,"Color":"yellow","trial_type":"pit-trial","trial_index":88,"time_elapsed":425468,"internal_node_id":"0.0-77.0","task_version":"test-retest-t3"},{"Rune":"rune_06_cweord","Hex":"#ffcc3399","Correct":32,"Choice":32,"RT":1002.0499999955064,"Accuracy":1,"Outcome":"-1","Keys":[2502.989999993588],"TotalKeys":1,"Block":1,"Trial":72,"Robot":3,"Valence":"Lose","Action":"Go","Sham":0,"Color":"yellow","trial_type":"pit-trial","trial_index":89,"time_elapsed":428974,"internal_node_id":"0.0-78.0","task_version":"test-retest-t3"},{"Rune":"rune_06_ehwaz","Hex":"#3366ff99","Correct":32,"Choice":32,"RT":502.88000000000466,"Accuracy":1,"Outcome":"+10","Keys":[2003.740000000107],"TotalKeys":1,"Block":1,"Trial":73,"Robot":1,"Valence":"Win","Action":"Go","Sham":0,"Color":"blue","trial_type":"pit-trial","trial_index":90,"time_elapsed":431980,"internal_node_id":"0.0-79.0","task_version":"test-retest-t3"},{"Rune":"rune_06_cweord","Hex":"#ffcc3399","Correct":32,"Choice":32,"RT":1063.544999997248,"Accuracy":1,"Outcome":"-10","Keys":[2564.220000000205],"TotalKeys":1,"Block":1,"Trial":74,"Robot":3,"Valence":"Lose","Action":"Go","Sham":1,"Color":"yellow","trial_type":"pit-trial","trial_index":91,"time_elapsed":435548,"internal_node_id":"0.0-80.0","task_version":"test-retest-t3"},{"Rune":"rune_06_ansuz","Hex":"#3366ff99","Correct":-1,"Choice":-1,"RT":-1,"Accuracy":1,"Outcome":"+10","Keys":[],"TotalKeys":0,"Block":1,"Trial":75,"Robot":2,"Valence":"Win","Action":"No-Go","Sham":0,"Color":"blue","trial_type":"pit-trial","trial_index":92,"time_elapsed":439551,"internal_node_id":"0.0-81.0","task_version":"test-retest-t3"},{"Rune":"rune_06_berkanan","Hex":"#ffcc3399","Correct":-1,"Choice":32,"RT":999.3749999994179,"Accuracy":0,"Outcome":"-10","Keys":[2499.630000005709],"TotalKeys":1,"Block":1,"Trial":76,"Robot":4,"Valence":"Lose","Action":"No-Go","Sham":0,"Color":"yellow","trial_type":"pit-trial","trial_index":93,"time_elapsed":443054,"internal_node_id":"0.0-82.0","task_version":"test-retest-t3"},{"Rune":"rune_06_ehwaz","Hex":"#3366ff99","Correct":32,"Choice":32,"RT":435.8650000067428,"Accuracy":1,"Outcome":"+10","Keys":[1937.6899999915622],"TotalKeys":1,"Block":1,"Trial":77,"Robot":1,"Valence":"Win","Action":"Go","Sham":0,"Color":"blue","trial_type":"pit-trial","trial_index":94,"time_elapsed":445994,"internal_node_id":"0.0-83.0","task_version":"test-retest-t3"},{"Rune":"rune_06_ansuz","Hex":"#3366ff99","Correct":-1,"Choice":32,"RT":648.2299999915995,"Accuracy":0,"Outcome":"+1","Keys":[2148.865000010119],"TotalKeys":1,"Block":1,"Trial":78,"Robot":2,"Valence":"Win","Action":"No-Go","Sham":0,"Color":"blue","trial_type":"pit-trial","trial_index":95,"time_elapsed":449145,"internal_node_id":"0.0-84.0","task_version":"test-retest-t3"},{"Rune":"rune_06_berkanan","Hex":"#ffcc3399","Correct":-1,"Choice":-1,"RT":-1,"Accuracy":1,"Outcome":"-1","Keys":[],"TotalKeys":0,"Block":1,"Trial":79,"Robot":4,"Valence":"Lose","Action":"No-Go","Sham":0,"Color":"yellow","trial_type":"pit-trial","trial_index":96,"time_elapsed":453148,"internal_node_id":"0.0-85.0","task_version":"test-retest-t3"},{"Rune":"rune_06_cweord","Hex":"#ffcc3399","Correct":32,"Choice":32,"RT":752.2799999860581,"Accuracy":1,"Outcome":"-1","Keys":[2253.6899999977322],"TotalKeys":1,"Block":1,"Trial":80,"Robot":3,"Valence":"Lose","Action":"Go","Sham":0,"Color":"yellow","trial_type":"pit-trial","trial_index":97,"time_elapsed":456407,"internal_node_id":"0.0-86.0","task_version":"test-retest-t3"},{"Rune":"rune_06_ehwaz","Hex":"#3366ff99","Correct":32,"Choice":32,"RT":441.2449999945238,"Accuracy":1,"Outcome":"+1","Keys":[1942.2300000005635],"TotalKeys":1,"Block":1,"Trial":81,"Robot":1,"Valence":"Win","Action":"Go","Sham":1,"Color":"blue","trial_type":"pit-trial","trial_index":98,"time_elapsed":459352,"internal_node_id":"0.0-87.0","task_version":"test-retest-t3"},{"Rune":"rune_06_berkanan","Hex":"#ffcc3399","Correct":-1,"Choice":32,"RT":696.1500000033993,"Accuracy":0,"Outcome":"-10","Keys":[2196.3699999905657],"TotalKeys":1,"Block":1,"Trial":82,"Robot":4,"Valence":"Lose","Action":"No-Go","Sham":0,"Color":"yellow","trial_type":"pit-trial","trial_index":99,"time_elapsed":462552,"internal_node_id":"0.0-88.0","task_version":"test-retest-t3"},{"Rune":"rune_06_ansuz","Hex":"#3366ff99","Correct":-1,"Choice":-1,"RT":-1,"Accuracy":1,"Outcome":"+1","Keys":[],"TotalKeys":0,"Block":1,"Trial":83,"Robot":2,"Valence":"Win","Action":"No-Go","Sham":1,"Color":"blue","trial_type":"pit-trial","trial_index":100,"time_elapsed":466555,"internal_node_id":"0.0-89.0","task_version":"test-retest-t3"},{"Rune":"rune_06_cweord","Hex":"#ffcc3399","Correct":32,"Choice":32,"RT":587.5050000031479,"Accuracy":1,"Outcome":"-1","Keys":[2089.219999994384],"TotalKeys":1,"Block":1,"Trial":84,"Robot":3,"Valence":"Lose","Action":"Go","Sham":0,"Color":"yellow","trial_type":"pit-trial","trial_index":101,"time_elapsed":469647,"internal_node_id":"0.0-90.0","task_version":"test-retest-t3"},{"Rune":"rune_06_berkanan","Hex":"#ffcc3399","Correct":-1,"Choice":-1,"RT":-1,"Accuracy":1,"Outcome":"-1","Keys":[],"TotalKeys":0,"Block":1,"Trial":85,"Robot":4,"Valence":"Lose","Action":"No-Go","Sham":0,"Color":"yellow","trial_type":"pit-trial","trial_index":102,"time_elapsed":473651,"internal_node_id":"0.0-91.0","task_version":"test-retest-t3"},{"Rune":"rune_06_cweord","Hex":"#ffcc3399","Correct":32,"Choice":32,"RT":724.1800000047078,"Accuracy":1,"Outcome":"-1","Keys":[2224.9250000022585],"TotalKeys":1,"Block":1,"Trial":86,"Robot":3,"Valence":"Lose","Action":"Go","Sham":0,"Color":"yellow","trial_type":"pit-trial","trial_index":103,"time_elapsed":476878,"internal_node_id":"0.0-92.0","task_version":"test-retest-t3"},{"Rune":"rune_06_ehwaz","Hex":"#3366ff99","Correct":32,"Choice":32,"RT":465.7650000008289,"Accuracy":1,"Outcome":"+10","Keys":[1966.6900000011083],"TotalKeys":1,"Block":1,"Trial":87,"Robot":1,"Valence":"Win","Action":"Go","Sham":0,"Color":"blue","trial_type":"pit-trial","trial_index":104,"time_elapsed":479848,"internal_node_id":"0.0-93.0","task_version":"test-retest-t3"},{"Rune":"rune_06_ansuz","Hex":"#3366ff99","Correct":-1,"Choice":-1,"RT":-1,"Accuracy":1,"Outcome":"+10","Keys":[],"TotalKeys":0,"Block":1,"Trial":88,"Robot":2,"Valence":"Win","Action":"No-Go","Sham":0,"Color":"blue","trial_type":"pit-trial","trial_index":105,"time_elapsed":483854,"internal_node_id":"0.0-94.0","task_version":"test-retest-t3"},{"Rune":"rune_06_ansuz","Hex":"#3366ff99","Correct":-1,"Choice":-1,"RT":-1,"Accuracy":1,"Outcome":"+10","Keys":[],"TotalKeys":0,"Block":1,"Trial":89,"Robot":2,"Valence":"Win","Action":"No-Go","Sham":0,"Color":"blue","trial_type":"pit-trial","trial_index":106,"time_elapsed":487859,"internal_node_id":"0.0-95.0","task_version":"test-retest-t3"},{"Rune":"rune_06_berkanan","Hex":"#ffcc3399","Correct":-1,"Choice":32,"RT":614.8450000036974,"Accuracy":0,"Outcome":"-10","Keys":[2115.5849999922793],"TotalKeys":1,"Block":1,"Trial":90,"Robot":4,"Valence":"Lose","Action":"No-Go","Sham":0,"Color":"yellow","trial_type":"pit-trial","trial_index":107,"time_elapsed":490978,"internal_node_id":"0.0-96.0","task_version":"test-retest-t3"},{"Rune":"rune_06_cweord","Hex":"#ffcc3399","Correct":32,"Choice":32,"RT":601.8250000051921,"Accuracy":1,"Outcome":"-1","Keys":[2102.5749999971595],"TotalKeys":1,"Block":1,"Trial":91,"Robot":3,"Valence":"Lose","Action":"Go","Sham":0,"Color":"yellow","trial_type":"pit-trial","trial_index":108,"time_elapsed":494083,"internal_node_id":"0.0-97.0","task_version":"test-retest-t3"},{"Rune":"rune_06_ehwaz","Hex":"#3366ff99","Correct":32,"Choice":32,"RT":490.1300000055926,"Accuracy":1,"Outcome":"+10","Keys":[1990.9349999943515],"TotalKeys":1,"Block":1,"Trial":92,"Robot":1,"Valence":"Win","Action":"Go","Sham":0,"Color":"blue","trial_type":"pit-trial","trial_index":109,"time_elapsed":497076,"internal_node_id":"0.0-98.0","task_version":"test-retest-t3"},{"Rune":"rune_06_berkanan","Hex":"#ffcc3399","Correct":-1,"Choice":-1,"RT":-1,"Accuracy":1,"Outcome":"-1","Keys":[],"TotalKeys":0,"Block":1,"Trial":93,"Robot":4,"Valence":"Lose","Action":"No-Go","Sham":0,"Color":"yellow","trial_type":"pit-trial","trial_index":110,"time_elapsed":501078,"internal_node_id":"0.0-99.0","task_version":"test-retest-t3"},{"Rune":"rune_06_ansuz","Hex":"#3366ff99","Correct":-1,"Choice":-1,"RT":-1,"Accuracy":1,"Outcome":"+10","Keys":[],"TotalKeys":0,"Block":1,"Trial":94,"Robot":2,"Valence":"Win","Action":"No-Go","Sham":0,"Color":"blue","trial_type":"pit-trial","trial_index":111,"time_elapsed":505081,"internal_node_id":"0.0-100.0","task_version":"test-retest-t3"},{"Rune":"rune_06_cweord","Hex":"#ffcc3399","Correct":32,"Choice":32,"RT":586.3399999943795,"Accuracy":1,"Outcome":"-1","Keys":[2087.2400000080233],"TotalKeys":1,"Block":1,"Trial":95,"Robot":3,"Valence":"Lose","Action":"Go","Sham":0,"Color":"yellow","trial_type":"pit-trial","trial_index":112,"time_elapsed":508170,"internal_node_id":"0.0-101.0","task_version":"test-retest-t3"},{"Rune":"rune_06_ehwaz","Hex":"#3366ff99","Correct":32,"Choice":32,"RT":922.9749999940395,"Accuracy":1,"Outcome":"+10","Keys":[2423.675000012736],"TotalKeys":1,"Block":1,"Trial":96,"Robot":1,"Valence":"Win","Action":"Go","Sham":0,"Color":"blue","trial_type":"pit-trial","trial_index":113,"time_elapsed":511596,"internal_node_id":"0.0-102.0","task_version":"test-retest-t3"},{"Rune":"rune_06_cweord","Hex":"#ffcc3399","Correct":32,"Choice":32,"RT":540.8650000026682,"Accuracy":1,"Outcome":"-10","Keys":[2041.8099999951664],"TotalKeys":1,"Block":1,"Trial":97,"Robot":3,"Valence":"Lose","Action":"Go","Sham":1,"Color":"yellow","trial_type":"pit-trial","trial_index":114,"time_elapsed":514642,"internal_node_id":"0.0-103.0","task_version":"test-retest-t3"},{"Rune":"rune_06_berkanan","Hex":"#ffcc3399","Correct":-1,"Choice":-1,"RT":-1,"Accuracy":1,"Outcome":"-10","Keys":[],"TotalKeys":0,"Block":1,"Trial":98,"Robot":4,"Valence":"Lose","Action":"No-Go","Sham":1,"Color":"yellow","trial_type":"pit-trial","trial_index":115,"time_elapsed":518647,"internal_node_id":"0.0-104.0","task_version":"test-retest-t3"},{"Rune":"rune_06_ansuz","Hex":"#3366ff99","Correct":-1,"Choice":-1,"RT":-1,"Accuracy":1,"Outcome":"+10","Keys":[],"TotalKeys":0,"Block":1,"Trial":99,"Robot":2,"Valence":"Win","Action":"No-Go","Sham":0,"Color":"blue","trial_type":"pit-trial","trial_index":116,"time_elapsed":522651,"internal_node_id":"0.0-105.0","task_version":"test-retest-t3"},{"Rune":"rune_06_ehwaz","Hex":"#3366ff99","Correct":32,"Choice":32,"RT":550.4199999995762,"Accuracy":1,"Outcome":"+10","Keys":[2051.3950000022305],"TotalKeys":1,"Block":1,"Trial":100,"Robot":1,"Valence":"Win","Action":"Go","Sham":0,"Color":"blue","trial_type":"pit-trial","trial_index":117,"time_elapsed":525705,"internal_node_id":"0.0-106.0","task_version":"test-retest-t3"},{"Rune":"rune_06_ansuz","Hex":"#3366ff99","Correct":-1,"Choice":-1,"RT":-1,"Accuracy":1,"Outcome":"+1","Keys":[],"TotalKeys":0,"Block":1,"Trial":101,"Robot":2,"Valence":"Win","Action":"No-Go","Sham":1,"Color":"blue","trial_type":"pit-trial","trial_index":118,"time_elapsed":529709,"internal_node_id":"0.0-107.0","task_version":"test-retest-t3"},{"Rune":"rune_06_ehwaz","Hex":"#3366ff99","Correct":32,"Choice":32,"RT":370.45999999099877,"Accuracy":1,"Outcome":"+10","Keys":[1871.3950000092154],"TotalKeys":1,"Block":1,"Trial":102,"Robot":1,"Valence":"Win","Action":"Go","Sham":0,"Color":"blue","trial_type":"pit-trial","trial_index":119,"time_elapsed":532583,"internal_node_id":"0.0-108.0","task_version":"test-retest-t3"},{"Rune":"rune_06_berkanan","Hex":"#ffcc3399","Correct":-1,"Choice":-1,"RT":-1,"Accuracy":1,"Outcome":"-10","Keys":[],"TotalKeys":0,"Block":1,"Trial":103,"Robot":4,"Valence":"Lose","Action":"No-Go","Sham":1,"Color":"yellow","trial_type":"pit-trial","trial_index":120,"time_elapsed":536587,"internal_node_id":"0.0-109.0","task_version":"test-retest-t3"},{"Rune":"rune_06_cweord","Hex":"#ffcc3399","Correct":32,"Choice":32,"RT":573.7349999981234,"Accuracy":1,"Outcome":"-10","Keys":[2073.83999999729],"TotalKeys":1,"Block":1,"Trial":104,"Robot":3,"Valence":"Lose","Action":"Go","Sham":1,"Color":"yellow","trial_type":"pit-trial","trial_index":121,"time_elapsed":539663,"internal_node_id":"0.0-110.0","task_version":"test-retest-t3"},{"Rune":"rune_06_berkanan","Hex":"#ffcc3399","Correct":-1,"Choice":32,"RT":656.4599999983329,"Accuracy":0,"Outcome":"-10","Keys":[2158.195000010892],"TotalKeys":1,"Block":1,"Trial":105,"Robot":4,"Valence":"Lose","Action":"No-Go","Sham":0,"Color":"yellow","trial_type":"pit-trial","trial_index":122,"time_elapsed":542825,"internal_node_id":"0.0-111.0","task_version":"test-retest-t3"},{"Rune":"rune_06_cweord","Hex":"#ffcc3399","Correct":32,"Choice":-1,"RT":-1,"Accuracy":0,"Outcome":"-10","Keys":[],"TotalKeys":0,"Block":1,"Trial":106,"Robot":3,"Valence":"Lose","Action":"Go","Sham":0,"Color":"yellow","trial_type":"pit-trial","trial_index":123,"time_elapsed":546829,"internal_node_id":"0.0-112.0","task_version":"test-retest-t3"},{"Rune":"rune_06_ansuz","Hex":"#3366ff99","Correct":-1,"Choice":-1,"RT":-1,"Accuracy":1,"Outcome":"+10","Keys":[],"TotalKeys":0,"Block":1,"Trial":107,"Robot":2,"Valence":"Win","Action":"No-Go","Sham":0,"Color":"blue","trial_type":"pit-trial","trial_index":124,"time_elapsed":550833,"internal_node_id":"0.0-113.0","task_version":"test-retest-t3"},{"Rune":"rune_06_ehwaz","Hex":"#3366ff99","Correct":32,"Choice":32,"RT":230.60500000428874,"Accuracy":1,"Outcome":"+1","Keys":[1731.48499999661],"TotalKeys":1,"Block":1,"Trial":108,"Robot":1,"Valence":"Win","Action":"Go","Sham":1,"Color":"blue","trial_type":"pit-trial","trial_index":125,"time_elapsed":553567,"internal_node_id":"0.0-114.0","task_version":"test-retest-t3"},{"Rune":"rune_06_berkanan","Hex":"#ffcc3399","Correct":-1,"Choice":32,"RT":567.1100000035949,"Accuracy":0,"Outcome":"-10","Keys":[2067.4350000044797],"TotalKeys":1,"Block":1,"Trial":109,"Robot":4,"Valence":"Lose","Action":"No-Go","Sham":0,"Color":"yellow","trial_type":"pit-trial","trial_index":126,"time_elapsed":556637,"internal_node_id":"0.0-115.0","task_version":"test-retest-t3"},{"Rune":"rune_06_ansuz","Hex":"#3366ff99","Correct":-1,"Choice":-1,"RT":-1,"Accuracy":1,"Outcome":"+10","Keys":[],"TotalKeys":0,"Block":1,"Trial":110,"Robot":2,"Valence":"Win","Action":"No-Go","Sham":0,"Color":"blue","trial_type":"pit-trial","trial_index":127,"time_elapsed":560641,"internal_node_id":"0.0-116.0","task_version":"test-retest-t3"},{"Rune":"rune_06_ehwaz","Hex":"#3366ff99","Correct":32,"Choice":32,"RT":345.58999999717344,"Accuracy":1,"Outcome":"+10","Keys":[1846.430000005057],"TotalKeys":1,"Block":1,"Trial":111,"Robot":1,"Valence":"Win","Action":"Go","Sham":0,"Color":"blue","trial_type":"pit-trial","trial_index":128,"time_elapsed":563490,"internal_node_id":"0.0-117.0","task_version":"test-retest-t3"},{"Rune":"rune_06_cweord","Hex":"#ffcc3399","Correct":32,"Choice":-1,"RT":-1,"Accuracy":0,"Outcome":"-10","Keys":[],"TotalKeys":0,"Block":1,"Trial":112,"Robot":3,"Valence":"Lose","Action":"Go","Sham":0,"Color":"yellow","trial_type":"pit-trial","trial_index":129,"time_elapsed":567494,"internal_node_id":"0.0-118.0","task_version":"test-retest-t3"},{"Rune":"rune_06_cweord","Hex":"#ffcc3399","Correct":32,"Choice":32,"RT":382.65499999397434,"Accuracy":1,"Outcome":"-1","Keys":[1883.3949999971082],"TotalKeys":1,"Block":1,"Trial":113,"Robot":3,"Valence":"Lose","Action":"Go","Sham":0,"Color":"yellow","trial_type":"pit-trial","trial_index":130,"time_elapsed":570381,"internal_node_id":"0.0-119.0","task_version":"test-retest-t3"},{"Rune":"rune_06_ansuz","Hex":"#3366ff99","Correct":-1,"Choice":-1,"RT":-1,"Accuracy":1,"Outcome":"+10","Keys":[],"TotalKeys":0,"Block":1,"Trial":114,"Robot":2,"Valence":"Win","Action":"No-Go","Sham":0,"Color":"blue","trial_type":"pit-trial","trial_index":131,"time_elapsed":574383,"internal_node_id":"0.0-120.0","task_version":"test-retest-t3"},{"Rune":"rune_06_ehwaz","Hex":"#3366ff99","Correct":32,"Choice":32,"RT":413.31499999796506,"Accuracy":1,"Outcome":"+10","Keys":[1913.4150000027148],"TotalKeys":1,"Block":1,"Trial":115,"Robot":1,"Valence":"Win","Action":"Go","Sham":0,"Color":"blue","trial_type":"pit-trial","trial_index":132,"time_elapsed":577299,"internal_node_id":"0.0-121.0","task_version":"test-retest-t3"},{"Rune":"rune_06_berkanan","Hex":"#ffcc3399","Correct":-1,"Choice":-1,"RT":-1,"Accuracy":1,"Outcome":"-1","Keys":[],"TotalKeys":0,"Block":1,"Trial":116,"Robot":4,"Valence":"Lose","Action":"No-Go","Sham":0,"Color":"yellow","trial_type":"pit-trial","trial_index":133,"time_elapsed":581304,"internal_node_id":"0.0-122.0","task_version":"test-retest-t3"},{"Rune":"rune_06_ansuz","Hex":"#3366ff99","Correct":-1,"Choice":-1,"RT":-1,"Accuracy":1,"Outcome":"+10","Keys":[],"TotalKeys":0,"Block":1,"Trial":117,"Robot":2,"Valence":"Win","Action":"No-Go","Sham":0,"Color":"blue","trial_type":"pit-trial","trial_index":134,"time_elapsed":585306,"internal_node_id":"0.0-123.0","task_version":"test-retest-t3"},{"Rune":"rune_06_berkanan","Hex":"#ffcc3399","Correct":-1,"Choice":-1,"RT":-1,"Accuracy":1,"Outcome":"-1","Keys":[],"TotalKeys":0,"Block":1,"Trial":118,"Robot":4,"Valence":"Lose","Action":"No-Go","Sham":0,"Color":"yellow","trial_type":"pit-trial","trial_index":135,"time_elapsed":589311,"internal_node_id":"0.0-124.0","task_version":"test-retest-t3"},{"Rune":"rune_06_ehwaz","Hex":"#3366ff99","Correct":32,"Choice":32,"RT":418.7999999994645,"Accuracy":1,"Outcome":"+10","Keys":[1918.8900000008289],"TotalKeys":1,"Block":1,"Trial":119,"Robot":1,"Valence":"Win","Action":"Go","Sham":0,"Color":"blue","trial_type":"pit-trial","trial_index":136,"time_elapsed":592233,"internal_node_id":"0.0-125.0","task_version":"test-retest-t3"},{"Rune":"rune_06_cweord","Hex":"#ffcc3399","Correct":32,"Choice":32,"RT":797.3199999978533,"Accuracy":1,"Outcome":"-1","Keys":[2297.4450000037905],"TotalKeys":1,"Block":1,"Trial":120,"Robot":3,"Valence":"Lose","Action":"Go","Sham":0,"Color":"yellow","trial_type":"pit-trial","trial_index":137,"time_elapsed":595533,"internal_node_id":"0.0-126.0","task_version":"test-retest-t3"},{"view_history":"[{\"page_index\":0,\"viewing_time\":6392.2549999988405},{\"page_index\":1,\"viewing_time\":2707.7750000025844},{\"page_index\":2,\"viewing_time\":1946.6799999936484}]","rt":11047.039999990375,"trial_type":"pit-instructions","trial_index":138,"time_elapsed":606582,"internal_node_id":"0.0-127.0","task_version":"test-retest-t3"},{"Rune":"rune_05_tiwaz","Hex":"#3366ff99","Correct":-1,"Choice":32,"RT":763.3099999948172,"Accuracy":0,"Outcome":"+1","Keys":[2263.5799999989104],"TotalKeys":1,"Block":2,"Trial":121,"Robot":2,"Valence":"Win","Action":"No-Go","Sham":0,"Color":"blue","trial_type":"pit-trial","trial_index":139,"time_elapsed":609849,"internal_node_id":"0.0-128.0","task_version":"test-retest-t3"},{"Rune":"rune_05_gebo","Hex":"#3366ff99","Correct":32,"Choice":32,"RT":560.2700000017649,"Accuracy":1,"Outcome":"+10","Keys":[2060.7900000031805],"TotalKeys":1,"Block":2,"Trial":122,"Robot":1,"Valence":"Win","Action":"Go","Sham":0,"Color":"blue","trial_type":"pit-trial","trial_index":140,"time_elapsed":612913,"internal_node_id":"0.0-129.0","task_version":"test-retest-t3"},{"Rune":"rune_05_ior","Hex":"#ffcc3399","Correct":32,"Choice":32,"RT":845.4599999968195,"Accuracy":1,"Outcome":"-1","Keys":[2346.2600000057137],"TotalKeys":1,"Block":2,"Trial":123,"Robot":3,"Valence":"Lose","Action":"Go","Sham":0,"Color":"yellow","trial_type":"pit-trial","trial_index":141,"time_elapsed":616262,"internal_node_id":"0.0-130.0","task_version":"test-retest-t3"},{"Rune":"rune_05_jeran","Hex":"#ffcc3399","Correct":-1,"Choice":32,"RT":472.5599999947008,"Accuracy":0,"Outcome":"-1","Keys":[1974.4449999998324],"TotalKeys":1,"Block":2,"Trial":124,"Robot":4,"Valence":"Lose","Action":"No-Go","Sham":1,"Color":"yellow","trial_type":"pit-trial","trial_index":142,"time_elapsed":619239,"internal_node_id":"0.0-131.0","task_version":"test-retest-t3"},{"Rune":"rune_05_gebo","Hex":"#3366ff99","Correct":32,"Choice":32,"RT":514.3799999932526,"Accuracy":1,"Outcome":"+10","Keys":[2015.544999987469],"TotalKeys":1,"Block":2,"Trial":125,"Robot":1,"Valence":"Win","Action":"Go","Sham":0,"Color":"blue","trial_type":"pit-trial","trial_index":143,"time_elapsed":622258,"internal_node_id":"0.0-132.0","task_version":"test-retest-t3"},{"Rune":"rune_05_jeran","Hex":"#ffcc3399","Correct":-1,"Choice":32,"RT":764.324999996461,"Accuracy":0,"Outcome":"-10","Keys":[2265.095000009751],"TotalKeys":1,"Block":2,"Trial":126,"Robot":4,"Valence":"Lose","Action":"No-Go","Sham":0,"Color":"yellow","trial_type":"pit-trial","trial_index":144,"time_elapsed":625526,"internal_node_id":"0.0-133.0","task_version":"test-retest-t3"},{"Rune":"rune_05_ior","Hex":"#ffcc3399","Correct":32,"Choice":32,"RT":524.3850000115344,"Accuracy":1,"Outcome":"-1","Keys":[2025.339999992866],"TotalKeys":1,"Block":2,"Trial":127,"Robot":3,"Valence":"Lose","Action":"Go","Sham":0,"Color":"yellow","trial_type":"pit-trial","trial_index":145,"time_elapsed":628555,"internal_node_id":"0.0-134.0","task_version":"test-retest-t3"},{"Rune":"rune_05_tiwaz","Hex":"#3366ff99","Correct":-1,"Choice":32,"RT":871.4949999994133,"Accuracy":0,"Outcome":"+1","Keys":[2372.3600000084843],"TotalKeys":1,"Block":2,"Trial":128,"Robot":2,"Valence":"Win","Action":"No-Go","Sham":0,"Color":"blue","trial_type":"pit-trial","trial_index":146,"time_elapsed":631930,"internal_node_id":"0.0-135.0","task_version":"test-retest-t3"},{"Rune":"rune_05_ior","Hex":"#ffcc3399","Correct":32,"Choice":32,"RT":719.6049999911338,"Accuracy":1,"Outcome":"-1","Keys":[2219.7349999914877],"TotalKeys":1,"Block":2,"Trial":129,"Robot":3,"Valence":"Lose","Action":"Go","Sham":0,"Color":"yellow","trial_type":"pit-trial","trial_index":147,"time_elapsed":635151,"internal_node_id":"0.0-136.0","task_version":"test-retest-t3"},{"Rune":"rune_05_gebo","Hex":"#3366ff99","Correct":32,"Choice":32,"RT":767.680000004475,"Accuracy":1,"Outcome":"+1","Keys":[2269.430000000284],"TotalKeys":1,"Block":2,"Trial":130,"Robot":1,"Valence":"Win","Action":"Go","Sham":1,"Color":"blue","trial_type":"pit-trial","trial_index":148,"time_elapsed":638424,"internal_node_id":"0.0-137.0","task_version":"test-retest-t3"},{"Rune":"rune_05_tiwaz","Hex":"#3366ff99","Correct":-1,"Choice":-1,"RT":-1,"Accuracy":1,"Outcome":"+10","Keys":[],"TotalKeys":0,"Block":2,"Trial":131,"Robot":2,"Valence":"Win","Action":"No-Go","Sham":0,"Color":"blue","trial_type":"pit-trial","trial_index":149,"time_elapsed":642428,"internal_node_id":"0.0-138.0","task_version":"test-retest-t3"},{"Rune":"rune_05_jeran","Hex":"#ffcc3399","Correct":-1,"Choice":32,"RT":730.0499999983003,"Accuracy":0,"Outcome":"-10","Keys":[2230.8800000027986],"TotalKeys":1,"Block":2,"Trial":132,"Robot":4,"Valence":"Lose","Action":"No-Go","Sham":0,"Color":"yellow","trial_type":"pit-trial","trial_index":150,"time_elapsed":645662,"internal_node_id":"0.0-139.0","task_version":"test-retest-t3"},{"Rune":"rune_05_ior","Hex":"#ffcc3399","Correct":32,"Choice":32,"RT":535.9650000027614,"Accuracy":1,"Outcome":"-1","Keys":[2036.8500000040513],"TotalKeys":1,"Block":2,"Trial":133,"Robot":3,"Valence":"Lose","Action":"Go","Sham":0,"Color":"yellow","trial_type":"pit-trial","trial_index":151,"time_elapsed":648702,"internal_node_id":"0.0-140.0","task_version":"test-retest-t3"},{"Rune":"rune_05_tiwaz","Hex":"#3366ff99","Correct":-1,"Choice":-1,"RT":-1,"Accuracy":1,"Outcome":"+10","Keys":[],"TotalKeys":0,"Block":2,"Trial":134,"Robot":2,"Valence":"Win","Action":"No-Go","Sham":0,"Color":"blue","trial_type":"pit-trial","trial_index":152,"time_elapsed":652705,"internal_node_id":"0.0-141.0","task_version":"test-retest-t3"},{"Rune":"rune_05_jeran","Hex":"#ffcc3399","Correct":-1,"Choice":-1,"RT":-1,"Accuracy":1,"Outcome":"-1","Keys":[],"TotalKeys":0,"Block":2,"Trial":135,"Robot":4,"Valence":"Lose","Action":"No-Go","Sham":0,"Color":"yellow","trial_type":"pit-trial","trial_index":153,"time_elapsed":656709,"internal_node_id":"0.0-142.0","task_version":"test-retest-t3"},{"Rune":"rune_05_gebo","Hex":"#3366ff99","Correct":32,"Choice":32,"RT":597.4850000056904,"Accuracy":1,"Outcome":"+10","Keys":[2097.555000000284],"TotalKeys":1,"Block":2,"Trial":136,"Robot":1,"Valence":"Win","Action":"Go","Sham":0,"Color":"blue","trial_type":"pit-trial","trial_index":154,"time_elapsed":659810,"internal_node_id":"0.0-143.0","task_version":"test-retest-t3"},{"Rune":"rune_05_tiwaz","Hex":"#3366ff99","Correct":-1,"Choice":-1,"RT":-1,"Accuracy":1,"Outcome":"+1","Keys":[],"TotalKeys":0,"Block":2,"Trial":137,"Robot":2,"Valence":"Win","Action":"No-Go","Sham":1,"Color":"blue","trial_type":"pit-trial","trial_index":155,"time_elapsed":663814,"internal_node_id":"0.0-144.0","task_version":"test-retest-t3"},{"Rune":"rune_05_jeran","Hex":"#ffcc3399","Correct":-1,"Choice":-1,"RT":-1,"Accuracy":1,"Outcome":"-1","Keys":[],"TotalKeys":0,"Block":2,"Trial":138,"Robot":4,"Valence":"Lose","Action":"No-Go","Sham":0,"Color":"yellow","trial_type":"pit-trial","trial_index":156,"time_elapsed":667817,"internal_node_id":"0.0-145.0","task_version":"test-retest-t3"},{"Rune":"rune_05_ior","Hex":"#ffcc3399","Correct":32,"Choice":32,"RT":764.9400000082096,"Accuracy":1,"Outcome":"-10","Keys":[2265.6450000067707],"TotalKeys":1,"Block":2,"Trial":139,"Robot":3,"Valence":"Lose","Action":"Go","Sham":1,"Color":"yellow","trial_type":"pit-trial","trial_index":157,"time_elapsed":671085,"internal_node_id":"0.0-146.0","task_version":"test-retest-t3"},{"Rune":"rune_05_gebo","Hex":"#3366ff99","Correct":32,"Choice":-1,"RT":-1,"Accuracy":0,"Outcome":"+1","Keys":[3139.1700000094716],"TotalKeys":1,"Block":2,"Trial":140,"Robot":1,"Valence":"Win","Action":"Go","Sham":0,"Color":"blue","trial_type":"pit-trial","trial_index":158,"time_elapsed":675088,"internal_node_id":"0.0-147.0","task_version":"test-retest-t3"},{"Rune":"rune_05_ior","Hex":"#ffcc3399","Correct":32,"Choice":-1,"RT":-1,"Accuracy":0,"Outcome":"-10","Keys":[],"TotalKeys":0,"Block":2,"Trial":141,"Robot":3,"Valence":"Lose","Action":"Go","Sham":0,"Color":"yellow","trial_type":"pit-trial","trial_index":159,"time_elapsed":679091,"internal_node_id":"0.0-148.0","task_version":"test-retest-t3"},{"Rune":"rune_05_tiwaz","Hex":"#3366ff99","Correct":-1,"Choice":-1,"RT":-1,"Accuracy":1,"Outcome":"+10","Keys":[],"TotalKeys":0,"Block":2,"Trial":142,"Robot":2,"Valence":"Win","Action":"No-Go","Sham":0,"Color":"blue","trial_type":"pit-trial","trial_index":160,"time_elapsed":683095,"internal_node_id":"0.0-149.0","task_version":"test-retest-t3"},{"Rune":"rune_05_gebo","Hex":"#3366ff99","Correct":32,"Choice":32,"RT":688.1799999973737,"Accuracy":1,"Outcome":"+10","Keys":[2190.134999997099],"TotalKeys":1,"Block":2,"Trial":143,"Robot":1,"Valence":"Win","Action":"Go","Sham":0,"Color":"blue","trial_type":"pit-trial","trial_index":161,"time_elapsed":686287,"internal_node_id":"0.0-150.0","task_version":"test-retest-t3"},{"Rune":"rune_05_jeran","Hex":"#ffcc3399","Correct":-1,"Choice":32,"RT":913.4150000027148,"Accuracy":0,"Outcome":"-10","Keys":[2413.4400000039022],"TotalKeys":1,"Block":2,"Trial":144,"Robot":4,"Valence":"Lose","Action":"No-Go","Sham":0,"Color":"yellow","trial_type":"pit-trial","trial_index":162,"time_elapsed":689704,"internal_node_id":"0.0-151.0","task_version":"test-retest-t3"},{"Rune":"rune_05_tiwaz","Hex":"#3366ff99","Correct":-1,"Choice":-1,"RT":-1,"Accuracy":1,"Outcome":"+10","Keys":[],"TotalKeys":0,"Block":2,"Trial":145,"Robot":2,"Valence":"Win","Action":"No-Go","Sham":0,"Color":"blue","trial_type":"pit-trial","trial_index":163,"time_elapsed":693708,"internal_node_id":"0.0-152.0","task_version":"test-retest-t3"},{"Rune":"rune_05_ior","Hex":"#ffcc3399","Correct":32,"Choice":32,"RT":623.4149999945657,"Accuracy":1,"Outcome":"-1","Keys":[2124.3850000028033],"TotalKeys":1,"Block":2,"Trial":146,"Robot":3,"Valence":"Lose","Action":"Go","Sham":0,"Color":"yellow","trial_type":"pit-trial","trial_index":164,"time_elapsed":696836,"internal_node_id":"0.0-153.0","task_version":"test-retest-t3"},{"Rune":"rune_05_gebo","Hex":"#3366ff99","Correct":32,"Choice":32,"RT":471.81000000273343,"Accuracy":1,"Outcome":"+10","Keys":[1972.634999998263],"TotalKeys":1,"Block":2,"Trial":147,"Robot":1,"Valence":"Win","Action":"Go","Sham":0,"Color":"blue","trial_type":"pit-trial","trial_index":165,"time_elapsed":699812,"internal_node_id":"0.0-154.0","task_version":"test-retest-t3"},{"Rune":"rune_05_jeran","Hex":"#ffcc3399","Correct":-1,"Choice":-1,"RT":-1,"Accuracy":1,"Outcome":"-1","Keys":[],"TotalKeys":0,"Block":2,"Trial":148,"Robot":4,"Valence":"Lose","Action":"No-Go","Sham":0,"Color":"yellow","trial_type":"pit-trial","trial_index":166,"time_elapsed":703816,"internal_node_id":"0.0-155.0","task_version":"test-retest-t3"},{"Rune":"rune_05_gebo","Hex":"#3366ff99","Correct":32,"Choice":32,"RT":573.9200000098208,"Accuracy":1,"Outcome":"+10","Keys":[2074.045000001206],"TotalKeys":1,"Block":2,"Trial":149,"Robot":1,"Valence":"Win","Action":"Go","Sham":0,"Color":"blue","trial_type":"pit-trial","trial_index":167,"time_elapsed":706892,"internal_node_id":"0.0-156.0","task_version":"test-retest-t3"},{"Rune":"rune_05_jeran","Hex":"#ffcc3399","Correct":-1,"Choice":-1,"RT":-1,"Accuracy":1,"Outcome":"-1","Keys":[],"TotalKeys":0,"Block":2,"Trial":150,"Robot":4,"Valence":"Lose","Action":"No-Go","Sham":0,"Color":"yellow","trial_type":"pit-trial","trial_index":168,"time_elapsed":710896,"internal_node_id":"0.0-157.0","task_version":"test-retest-t3"},{"Rune":"rune_05_ior","Hex":"#ffcc3399","Correct":32,"Choice":32,"RT":573.869999992894,"Accuracy":1,"Outcome":"-1","Keys":[2074.7750000009546],"TotalKeys":1,"Block":2,"Trial":151,"Robot":3,"Valence":"Lose","Action":"Go","Sham":0,"Color":"yellow","trial_type":"pit-trial","trial_index":169,"time_elapsed":713974,"internal_node_id":"0.0-158.0","task_version":"test-retest-t3"},{"Rune":"rune_05_tiwaz","Hex":"#3366ff99","Correct":-1,"Choice":-1,"RT":-1,"Accuracy":1,"Outcome":"+1","Keys":[],"TotalKeys":0,"Block":2,"Trial":152,"Robot":2,"Valence":"Win","Action":"No-Go","Sham":1,"Color":"blue","trial_type":"pit-trial","trial_index":170,"time_elapsed":717979,"internal_node_id":"0.0-159.0","task_version":"test-retest-t3"},{"Rune":"rune_05_tiwaz","Hex":"#3366ff99","Correct":-1,"Choice":-1,"RT":-1,"Accuracy":1,"Outcome":"+10","Keys":[],"TotalKeys":0,"Block":2,"Trial":153,"Robot":2,"Valence":"Win","Action":"No-Go","Sham":0,"Color":"blue","trial_type":"pit-trial","trial_index":171,"time_elapsed":721984,"internal_node_id":"0.0-160.0","task_version":"test-retest-t3"},{"Rune":"rune_05_gebo","Hex":"#3366ff99","Correct":32,"Choice":32,"RT":512.6750000054017,"Accuracy":1,"Outcome":"+1","Keys":[2013.4499999985565],"TotalKeys":1,"Block":2,"Trial":154,"Robot":1,"Valence":"Win","Action":"Go","Sham":1,"Color":"blue","trial_type":"pit-trial","trial_index":172,"time_elapsed":725000,"internal_node_id":"0.0-161.0","task_version":"test-retest-t3"},{"Rune":"rune_05_jeran","Hex":"#ffcc3399","Correct":-1,"Choice":-1,"RT":-1,"Accuracy":1,"Outcome":"-10","Keys":[],"TotalKeys":0,"Block":2,"Trial":155,"Robot":4,"Valence":"Lose","Action":"No-Go","Sham":1,"Color":"yellow","trial_type":"pit-trial","trial_index":173,"time_elapsed":729004,"internal_node_id":"0.0-162.0","task_version":"test-retest-t3"},{"Rune":"rune_05_ior","Hex":"#ffcc3399","Correct":32,"Choice":32,"RT":414.5100000023376,"Accuracy":1,"Outcome":"-1","Keys":[1915.2999999932945],"TotalKeys":1,"Block":2,"Trial":156,"Robot":3,"Valence":"Lose","Action":"Go","Sham":0,"Color":"yellow","trial_type":"pit-trial","trial_index":174,"time_elapsed":731922,"internal_node_id":"0.0-163.0","task_version":"test-retest-t3"},{"Rune":"rune_05_ior","Hex":"#ffcc3399","Correct":32,"Choice":32,"RT":838.3250000042608,"Accuracy":1,"Outcome":"-10","Keys":[2338.354999999865],"TotalKeys":1,"Block":2,"Trial":157,"Robot":3,"Valence":"Lose","Action":"Go","Sham":1,"Color":"yellow","trial_type":"pit-trial","trial_index":175,"time_elapsed":735263,"internal_node_id":"0.0-164.0","task_version":"test-retest-t3"},{"Rune":"rune_05_gebo","Hex":"#3366ff99","Correct":32,"Choice":32,"RT":563.3600000001024,"Accuracy":1,"Outcome":"+10","Keys":[2064.1149999864865],"TotalKeys":1,"Block":2,"Trial":158,"Robot":1,"Valence":"Win","Action":"Go","Sham":0,"Color":"blue","trial_type":"pit-trial","trial_index":176,"time_elapsed":738330,"internal_node_id":"0.0-165.0","task_version":"test-retest-t3"},{"Rune":"rune_05_tiwaz","Hex":"#3366ff99","Correct":-1,"Choice":-1,"RT":-1,"Accuracy":1,"Outcome":"+10","Keys":[],"TotalKeys":0,"Block":2,"Trial":159,"Robot":2,"Valence":"Win","Action":"No-Go","Sham":0,"Color":"blue","trial_type":"pit-trial","trial_index":177,"time_elapsed":742333,"internal_node_id":"0.0-166.0","task_version":"test-retest-t3"},{"Rune":"rune_05_jeran","Hex":"#ffcc3399","Correct":-1,"Choice":-1,"RT":-1,"Accuracy":1,"Outcome":"-1","Keys":[],"TotalKeys":0,"Block":2,"Trial":160,"Robot":4,"Valence":"Lose","Action":"No-Go","Sham":0,"Color":"yellow","trial_type":"pit-trial","trial_index":178,"time_elapsed":746337,"internal_node_id":"0.0-167.0","task_version":"test-retest-t3"},{"Rune":"rune_05_ior","Hex":"#ffcc3399","Correct":32,"Choice":32,"RT":612.7649999980349,"Accuracy":1,"Outcome":"-1","Keys":[2113.6200000037206],"TotalKeys":1,"Block":2,"Trial":161,"Robot":3,"Valence":"Lose","Action":"Go","Sham":0,"Color":"yellow","trial_type":"pit-trial","trial_index":179,"time_elapsed":749454,"internal_node_id":"0.0-168.0","task_version":"test-retest-t3"},{"Rune":"rune_05_gebo","Hex":"#3366ff99","Correct":32,"Choice":32,"RT":543.9899999910267,"Accuracy":1,"Outcome":"+10","Keys":[2045.7750000059605],"TotalKeys":1,"Block":2,"Trial":162,"Robot":1,"Valence":"Win","Action":"Go","Sham":0,"Color":"blue","trial_type":"pit-trial","trial_index":180,"time_elapsed":752502,"internal_node_id":"0.0-169.0","task_version":"test-retest-t3"},{"Rune":"rune_05_tiwaz","Hex":"#3366ff99","Correct":-1,"Choice":-1,"RT":-1,"Accuracy":1,"Outcome":"+10","Keys":[],"TotalKeys":0,"Block":2,"Trial":163,"Robot":2,"Valence":"Win","Action":"No-Go","Sham":0,"Color":"blue","trial_type":"pit-trial","trial_index":181,"time_elapsed":756506,"internal_node_id":"0.0-170.0","task_version":"test-retest-t3"},{"Rune":"rune_05_jeran","Hex":"#ffcc3399","Correct":-1,"Choice":-1,"RT":-1,"Accuracy":1,"Outcome":"-1","Keys":[],"TotalKeys":0,"Block":2,"Trial":164,"Robot":4,"Valence":"Lose","Action":"No-Go","Sham":0,"Color":"yellow","trial_type":"pit-trial","trial_index":182,"time_elapsed":760511,"internal_node_id":"0.0-171.0","task_version":"test-retest-t3"},{"Rune":"rune_05_jeran","Hex":"#ffcc3399","Correct":-1,"Choice":-1,"RT":-1,"Accuracy":1,"Outcome":"-1","Keys":[],"TotalKeys":0,"Block":2,"Trial":165,"Robot":4,"Valence":"Lose","Action":"No-Go","Sham":0,"Color":"yellow","trial_type":"pit-trial","trial_index":183,"time_elapsed":764516,"internal_node_id":"0.0-172.0","task_version":"test-retest-t3"},{"Rune":"rune_05_gebo","Hex":"#3366ff99","Correct":32,"Choice":32,"RT":712.1150000020862,"Accuracy":1,"Outcome":"+10","Keys":[2212.86999998847],"TotalKeys":1,"Block":2,"Trial":166,"Robot":1,"Valence":"Win","Action":"Go","Sham":0,"Color":"blue","trial_type":"pit-trial","trial_index":184,"time_elapsed":767732,"internal_node_id":"0.0-173.0","task_version":"test-retest-t3"},{"Rune":"rune_05_ior","Hex":"#ffcc3399","Correct":32,"Choice":32,"RT":729.0500000090105,"Accuracy":1,"Outcome":"-1","Keys":[2229.380000004312],"TotalKeys":1,"Block":2,"Trial":167,"Robot":3,"Valence":"Lose","Action":"Go","Sham":0,"Color":"yellow","trial_type":"pit-trial","trial_index":185,"time_elapsed":770964,"internal_node_id":"0.0-174.0","task_version":"test-retest-t3"},{"Rune":"rune_05_tiwaz","Hex":"#3366ff99","Correct":-1,"Choice":-1,"RT":-1,"Accuracy":1,"Outcome":"+10","Keys":[],"TotalKeys":0,"Block":2,"Trial":168,"Robot":2,"Valence":"Win","Action":"No-Go","Sham":0,"Color":"blue","trial_type":"pit-trial","trial_index":186,"time_elapsed":774970,"internal_node_id":"0.0-175.0","task_version":"test-retest-t3"},{"Rune":"rune_05_jeran","Hex":"#ffcc3399","Correct":-1,"Choice":-1,"RT":-1,"Accuracy":1,"Outcome":"-10","Keys":[],"TotalKeys":0,"Block":2,"Trial":169,"Robot":4,"Valence":"Lose","Action":"No-Go","Sham":1,"Color":"yellow","trial_type":"pit-trial","trial_index":187,"time_elapsed":778973,"internal_node_id":"0.0-176.0","task_version":"test-retest-t3"},{"Rune":"rune_05_gebo","Hex":"#3366ff99","Correct":32,"Choice":32,"RT":580.7600000116508,"Accuracy":1,"Outcome":"+10","Keys":[2080.820000002859],"TotalKeys":1,"Block":2,"Trial":170,"Robot":1,"Valence":"Win","Action":"Go","Sham":0,"Color":"blue","trial_type":"pit-trial","trial_index":188,"time_elapsed":782056,"internal_node_id":"0.0-177.0","task_version":"test-retest-t3"},{"Rune":"rune_05_tiwaz","Hex":"#3366ff99","Correct":-1,"Choice":-1,"RT":-1,"Accuracy":1,"Outcome":"+10","Keys":[],"TotalKeys":0,"Block":2,"Trial":171,"Robot":2,"Valence":"Win","Action":"No-Go","Sham":0,"Color":"blue","trial_type":"pit-trial","trial_index":189,"time_elapsed":786060,"internal_node_id":"0.0-178.0","task_version":"test-retest-t3"},{"Rune":"rune_05_ior","Hex":"#ffcc3399","Correct":32,"Choice":-1,"RT":-1,"Accuracy":0,"Outcome":"-10","Keys":[],"TotalKeys":0,"Block":2,"Trial":172,"Robot":3,"Valence":"Lose","Action":"Go","Sham":0,"Color":"yellow","trial_type":"pit-trial","trial_index":190,"time_elapsed":790065,"internal_node_id":"0.0-179.0","task_version":"test-retest-t3"},{"Rune":"rune_05_tiwaz","Hex":"#3366ff99","Correct":-1,"Choice":-1,"RT":-1,"Accuracy":1,"Outcome":"+10","Keys":[],"TotalKeys":0,"Block":2,"Trial":173,"Robot":2,"Valence":"Win","Action":"No-Go","Sham":0,"Color":"blue","trial_type":"pit-trial","trial_index":191,"time_elapsed":794067,"internal_node_id":"0.0-180.0","task_version":"test-retest-t3"},{"Rune":"rune_05_jeran","Hex":"#ffcc3399","Correct":-1,"Choice":-1,"RT":-1,"Accuracy":1,"Outcome":"-1","Keys":[],"TotalKeys":0,"Block":2,"Trial":174,"Robot":4,"Valence":"Lose","Action":"No-Go","Sham":0,"Color":"yellow","trial_type":"pit-trial","trial_index":192,"time_elapsed":798071,"internal_node_id":"0.0-181.0","task_version":"test-retest-t3"},{"Rune":"rune_05_gebo","Hex":"#3366ff99","Correct":32,"Choice":32,"RT":395.48500000091735,"Accuracy":1,"Outcome":"+10","Keys":[1895.5449999921257],"TotalKeys":1,"Block":2,"Trial":175,"Robot":1,"Valence":"Win","Action":"Go","Sham":0,"Color":"blue","trial_type":"pit-trial","trial_index":193,"time_elapsed":800971,"internal_node_id":"0.0-182.0","task_version":"test-retest-t3"},{"Rune":"rune_05_ior","Hex":"#ffcc3399","Correct":32,"Choice":32,"RT":512.1149999904446,"Accuracy":1,"Outcome":"-1","Keys":[2012.8100000001723],"TotalKeys":1,"Block":2,"Trial":176,"Robot":3,"Valence":"Lose","Action":"Go","Sham":0,"Color":"yellow","trial_type":"pit-trial","trial_index":194,"time_elapsed":803987,"internal_node_id":"0.0-183.0","task_version":"test-retest-t3"},{"Rune":"rune_05_ior","Hex":"#ffcc3399","Correct":32,"Choice":32,"RT":528.7150000076508,"Accuracy":1,"Outcome":"-10","Keys":[2030.414999986533],"TotalKeys":1,"Block":2,"Trial":177,"Robot":3,"Valence":"Lose","Action":"Go","Sham":1,"Color":"yellow","trial_type":"pit-trial","trial_index":195,"time_elapsed":807020,"internal_node_id":"0.0-184.0","task_version":"test-retest-t3"},{"Rune":"rune_05_gebo","Hex":"#3366ff99","Correct":32,"Choice":32,"RT":494.2449999944074,"Accuracy":1,"Outcome":"+1","Keys":[1995.0749999989057],"TotalKeys":1,"Block":2,"Trial":178,"Robot":1,"Valence":"Win","Action":"Go","Sham":1,"Color":"blue","trial_type":"pit-trial","trial_index":196,"time_elapsed":810018,"internal_node_id":"0.0-185.0","task_version":"test-retest-t3"},{"Rune":"rune_05_jeran","Hex":"#ffcc3399","Correct":-1,"Choice":-1,"RT":-1,"Accuracy":1,"Outcome":"-1","Keys":[],"TotalKeys":0,"Block":2,"Trial":179,"Robot":4,"Valence":"Lose","Action":"No-Go","Sham":0,"Color":"yellow","trial_type":"pit-trial","trial_index":197,"time_elapsed":814022,"internal_node_id":"0.0-186.0","task_version":"test-retest-t3"},{"Rune":"rune_05_tiwaz","Hex":"#3366ff99","Correct":-1,"Choice":32,"RT":363.0199999897741,"Accuracy":0,"Outcome":"+10","Keys":[1863.8449999998556],"TotalKeys":1,"Block":2,"Trial":180,"Robot":2,"Valence":"Win","Action":"No-Go","Sham":1,"Color":"blue","trial_type":"pit-trial","trial_index":198,"time_elapsed":816890,"internal_node_id":"0.0-187.0","task_version":"test-retest-t3"},{"view_history":"[{\"page_index\":0,\"viewing_time\":12339.875000005122},{\"page_index\":1,\"viewing_time\":2482.560000004014}]","rt":14822.755000001052,"trial_type":"pit-instructions","trial_index":199,"time_elapsed":831714,"internal_node_id":"0.0-188.0","task_version":"test-retest-t3"},{"Rune":"rune_05_ior","Hex":"#ffcc3399","Correct":32,"Choice":32,"RT":513.8200000073994,"Accuracy":1,"Outcome":"-1","Keys":[2014.2699999996694],"TotalKeys":1,"Block":2,"Trial":181,"Robot":3,"Valence":"Lose","Action":"Go","Sham":0,"Color":"yellow","trial_type":"pit-trial","trial_index":200,"time_elapsed":834732,"internal_node_id":"0.0-189.0","task_version":"test-retest-t3"},{"Rune":"rune_05_jeran","Hex":"#ffcc3399","Correct":-1,"Choice":-1,"RT":-1,"Accuracy":1,"Outcome":"-10","Keys":[],"TotalKeys":0,"Block":2,"Trial":182,"Robot":4,"Valence":"Lose","Action":"No-Go","Sham":1,"Color":"yellow","trial_type":"pit-trial","trial_index":201,"time_elapsed":838735,"internal_node_id":"0.0-190.0","task_version":"test-retest-t3"},{"Rune":"rune_05_tiwaz","Hex":"#3366ff99","Correct":-1,"Choice":-1,"RT":-1,"Accuracy":1,"Outcome":"+10","Keys":[],"TotalKeys":0,"Block":2,"Trial":183,"Robot":2,"Valence":"Win","Action":"No-Go","Sham":0,"Color":"blue","trial_type":"pit-trial","trial_index":202,"time_elapsed":842737,"internal_node_id":"0.0-191.0","task_version":"test-retest-t3"},{"Rune":"rune_05_gebo","Hex":"#3366ff99","Correct":32,"Choice":32,"RT":437.29000000166707,"Accuracy":1,"Outcome":"+10","Keys":[1939.1449999966426],"TotalKeys":1,"Block":2,"Trial":184,"Robot":1,"Valence":"Win","Action":"Go","Sham":0,"Color":"blue","trial_type":"pit-trial","trial_index":203,"time_elapsed":845680,"internal_node_id":"0.0-192.0","task_version":"test-retest-t3"},{"Rune":"rune_05_ior","Hex":"#ffcc3399","Correct":32,"Choice":32,"RT":607.8200000047218,"Accuracy":1,"Outcome":"-1","Keys":[2108.6900000082096],"TotalKeys":1,"Block":2,"Trial":185,"Robot":3,"Valence":"Lose","Action":"Go","Sham":0,"Color":"yellow","trial_type":"pit-trial","trial_index":204,"time_elapsed":848791,"internal_node_id":"0.0-193.0","task_version":"test-retest-t3"},{"Rune":"rune_05_gebo","Hex":"#3366ff99","Correct":32,"Choice":32,"RT":440.8700000058161,"Accuracy":1,"Outcome":"+1","Keys":[1941.644999998971],"TotalKeys":1,"Block":2,"Trial":186,"Robot":1,"Valence":"Win","Action":"Go","Sham":1,"Color":"blue","trial_type":"pit-trial","trial_index":205,"time_elapsed":851736,"internal_node_id":"0.0-194.0","task_version":"test-retest-t3"},{"Rune":"rune_05_jeran","Hex":"#ffcc3399","Correct":-1,"Choice":-1,"RT":-1,"Accuracy":1,"Outcome":"-1","Keys":[],"TotalKeys":0,"Block":2,"Trial":187,"Robot":4,"Valence":"Lose","Action":"No-Go","Sham":0,"Color":"yellow","trial_type":"pit-trial","trial_index":206,"time_elapsed":855740,"internal_node_id":"0.0-195.0","task_version":"test-retest-t3"},{"Rune":"rune_05_tiwaz","Hex":"#3366ff99","Correct":-1,"Choice":-1,"RT":-1,"Accuracy":1,"Outcome":"+1","Keys":[],"TotalKeys":0,"Block":2,"Trial":188,"Robot":2,"Valence":"Win","Action":"No-Go","Sham":1,"Color":"blue","trial_type":"pit-trial","trial_index":207,"time_elapsed":859743,"internal_node_id":"0.0-196.0","task_version":"test-retest-t3"},{"Rune":"rune_05_jeran","Hex":"#ffcc3399","Correct":-1,"Choice":-1,"RT":-1,"Accuracy":1,"Outcome":"-1","Keys":[],"TotalKeys":0,"Block":2,"Trial":189,"Robot":4,"Valence":"Lose","Action":"No-Go","Sham":0,"Color":"yellow","trial_type":"pit-trial","trial_index":208,"time_elapsed":863746,"internal_node_id":"0.0-197.0","task_version":"test-retest-t3"},{"Rune":"rune_05_ior","Hex":"#ffcc3399","Correct":32,"Choice":32,"RT":522.8499999939231,"Accuracy":1,"Outcome":"-1","Keys":[2023.5050000046613],"TotalKeys":1,"Block":2,"Trial":190,"Robot":3,"Valence":"Lose","Action":"Go","Sham":0,"Color":"yellow","trial_type":"pit-trial","trial_index":209,"time_elapsed":866772,"internal_node_id":"0.0-198.0","task_version":"test-retest-t3"},{"Rune":"rune_05_tiwaz","Hex":"#3366ff99","Correct":-1,"Choice":-1,"RT":-1,"Accuracy":1,"Outcome":"+10","Keys":[],"TotalKeys":0,"Block":2,"Trial":191,"Robot":2,"Valence":"Win","Action":"No-Go","Sham":0,"Color":"blue","trial_type":"pit-trial","trial_index":210,"time_elapsed":870775,"internal_node_id":"0.0-199.0","task_version":"test-retest-t3"},{"Rune":"rune_05_gebo","Hex":"#3366ff99","Correct":32,"Choice":32,"RT":475.2650000009453,"Accuracy":1,"Outcome":"+10","Keys":[1976.089999996475],"TotalKeys":1,"Block":2,"Trial":192,"Robot":1,"Valence":"Win","Action":"Go","Sham":0,"Color":"blue","trial_type":"pit-trial","trial_index":211,"time_elapsed":873754,"internal_node_id":"0.0-200.0","task_version":"test-retest-t3"},{"Rune":"rune_05_tiwaz","Hex":"#3366ff99","Correct":-1,"Choice":-1,"RT":-1,"Accuracy":1,"Outcome":"+10","Keys":[],"TotalKeys":0,"Block":2,"Trial":193,"Robot":2,"Valence":"Win","Action":"No-Go","Sham":0,"Color":"blue","trial_type":"pit-trial","trial_index":212,"time_elapsed":877759,"internal_node_id":"0.0-201.0","task_version":"test-retest-t3"},{"Rune":"rune_05_gebo","Hex":"#3366ff99","Correct":32,"Choice":32,"RT":450.5849999986822,"Accuracy":1,"Outcome":"+10","Keys":[1951.5649999957532],"TotalKeys":1,"Block":2,"Trial":194,"Robot":1,"Valence":"Win","Action":"Go","Sham":0,"Color":"blue","trial_type":"pit-trial","trial_index":213,"time_elapsed":880713,"internal_node_id":"0.0-202.0","task_version":"test-retest-t3"},{"Rune":"rune_05_ior","Hex":"#ffcc3399","Correct":32,"Choice":32,"RT":597.5000000034925,"Accuracy":1,"Outcome":"-10","Keys":[2098.4299999981886],"TotalKeys":1,"Block":2,"Trial":195,"Robot":3,"Valence":"Lose","Action":"Go","Sham":1,"Color":"yellow","trial_type":"pit-trial","trial_index":214,"time_elapsed":883814,"internal_node_id":"0.0-203.0","task_version":"test-retest-t3"},{"Rune":"rune_05_jeran","Hex":"#ffcc3399","Correct":-1,"Choice":-1,"RT":-1,"Accuracy":1,"Outcome":"-1","Keys":[],"TotalKeys":0,"Block":2,"Trial":196,"Robot":4,"Valence":"Lose","Action":"No-Go","Sham":0,"Color":"yellow","trial_type":"pit-trial","trial_index":215,"time_elapsed":887818,"internal_node_id":"0.0-204.0","task_version":"test-retest-t3"},{"Rune":"rune_05_ior","Hex":"#ffcc3399","Correct":32,"Choice":32,"RT":562.7850000018952,"Accuracy":1,"Outcome":"-1","Keys":[2063.235000008717],"TotalKeys":1,"Block":2,"Trial":197,"Robot":3,"Valence":"Lose","Action":"Go","Sham":0,"Color":"yellow","trial_type":"pit-trial","trial_index":216,"time_elapsed":890885,"internal_node_id":"0.0-205.0","task_version":"test-retest-t3"},{"Rune":"rune_05_gebo","Hex":"#3366ff99","Correct":32,"Choice":32,"RT":560.7350000063889,"Accuracy":1,"Outcome":"+10","Keys":[2061.7050000000745],"TotalKeys":1,"Block":2,"Trial":198,"Robot":1,"Valence":"Win","Action":"Go","Sham":0,"Color":"blue","trial_type":"pit-trial","trial_index":217,"time_elapsed":893950,"internal_node_id":"0.0-206.0","task_version":"test-retest-t3"},{"Rune":"rune_05_jeran","Hex":"#ffcc3399","Correct":-1,"Choice":-1,"RT":-1,"Accuracy":1,"Outcome":"-1","Keys":[],"TotalKeys":0,"Block":2,"Trial":199,"Robot":4,"Valence":"Lose","Action":"No-Go","Sham":0,"Color":"yellow","trial_type":"pit-trial","trial_index":218,"time_elapsed":897953,"internal_node_id":"0.0-207.0","task_version":"test-retest-t3"},{"Rune":"rune_05_tiwaz","Hex":"#3366ff99","Correct":-1,"Choice":32,"RT":347.3999999987427,"Accuracy":0,"Outcome":"+1","Keys":[1847.795000008773],"TotalKeys":1,"Block":2,"Trial":200,"Robot":2,"Valence":"Win","Action":"No-Go","Sham":0,"Color":"blue","trial_type":"pit-trial","trial_index":219,"time_elapsed":900806,"internal_node_id":"0.0-208.0","task_version":"test-retest-t3"},{"Rune":"rune_05_tiwaz","Hex":"#3366ff99","Correct":-1,"Choice":-1,"RT":-1,"Accuracy":1,"Outcome":"+1","Keys":[],"TotalKeys":0,"Block":2,"Trial":201,"Robot":2,"Valence":"Win","Action":"No-Go","Sham":1,"Color":"blue","trial_type":"pit-trial","trial_index":220,"time_elapsed":904809,"internal_node_id":"0.0-209.0","task_version":"test-retest-t3"},{"Rune":"rune_05_jeran","Hex":"#ffcc3399","Correct":-1,"Choice":-1,"RT":-1,"Accuracy":1,"Outcome":"-1","Keys":[],"TotalKeys":0,"Block":2,"Trial":202,"Robot":4,"Valence":"Lose","Action":"No-Go","Sham":0,"Color":"yellow","trial_type":"pit-trial","trial_index":221,"time_elapsed":908814,"internal_node_id":"0.0-210.0","task_version":"test-retest-t3"},{"Rune":"rune_05_gebo","Hex":"#3366ff99","Correct":32,"Choice":32,"RT":666.3750000006985,"Accuracy":1,"Outcome":"+1","Keys":[2167.1150000038324],"TotalKeys":1,"Block":2,"Trial":203,"Robot":1,"Valence":"Win","Action":"Go","Sham":1,"Color":"blue","trial_type":"pit-trial","trial_index":222,"time_elapsed":911983,"internal_node_id":"0.0-211.0","task_version":"test-retest-t3"},{"Rune":"rune_05_ior","Hex":"#ffcc3399","Correct":32,"Choice":32,"RT":574.4399999966845,"Accuracy":1,"Outcome":"-1","Keys":[2074.8250000033295],"TotalKeys":1,"Block":2,"Trial":204,"Robot":3,"Valence":"Lose","Action":"Go","Sham":0,"Color":"yellow","trial_type":"pit-trial","trial_index":223,"time_elapsed":915060,"internal_node_id":"0.0-212.0","task_version":"test-retest-t3"},{"Rune":"rune_05_ior","Hex":"#ffcc3399","Correct":32,"Choice":32,"RT":668.4699999896111,"Accuracy":1,"Outcome":"-1","Keys":[2169.3649999942863],"TotalKeys":1,"Block":2,"Trial":205,"Robot":3,"Valence":"Lose","Action":"Go","Sham":0,"Color":"yellow","trial_type":"pit-trial","trial_index":224,"time_elapsed":918232,"internal_node_id":"0.0-213.0","task_version":"test-retest-t3"},{"Rune":"rune_05_jeran","Hex":"#ffcc3399","Correct":-1,"Choice":-1,"RT":-1,"Accuracy":1,"Outcome":"-1","Keys":[],"TotalKeys":0,"Block":2,"Trial":206,"Robot":4,"Valence":"Lose","Action":"No-Go","Sham":0,"Color":"yellow","trial_type":"pit-trial","trial_index":225,"time_elapsed":922235,"internal_node_id":"0.0-214.0","task_version":"test-retest-t3"},{"Rune":"rune_05_tiwaz","Hex":"#3366ff99","Correct":-1,"Choice":-1,"RT":-1,"Accuracy":1,"Outcome":"+10","Keys":[],"TotalKeys":0,"Block":2,"Trial":207,"Robot":2,"Valence":"Win","Action":"No-Go","Sham":0,"Color":"blue","trial_type":"pit-trial","trial_index":226,"time_elapsed":926240,"internal_node_id":"0.0-215.0","task_version":"test-retest-t3"},{"Rune":"rune_05_gebo","Hex":"#3366ff99","Correct":32,"Choice":32,"RT":1063.1700000085402,"Accuracy":1,"Outcome":"+10","Keys":[2563.9050000027055],"TotalKeys":1,"Block":2,"Trial":208,"Robot":1,"Valence":"Win","Action":"Go","Sham":0,"Color":"blue","trial_type":"pit-trial","trial_index":227,"time_elapsed":929808,"internal_node_id":"0.0-216.0","task_version":"test-retest-t3"},{"Rune":"rune_05_ior","Hex":"#ffcc3399","Correct":32,"Choice":32,"RT":974.2950000072597,"Accuracy":1,"Outcome":"-1","Keys":[2474.965000001248],"TotalKeys":1,"Block":2,"Trial":209,"Robot":3,"Valence":"Lose","Action":"Go","Sham":0,"Color":"yellow","trial_type":"pit-trial","trial_index":228,"time_elapsed":933285,"internal_node_id":"0.0-217.0","task_version":"test-retest-t3"},{"Rune":"rune_05_jeran","Hex":"#ffcc3399","Correct":-1,"Choice":-1,"RT":-1,"Accuracy":1,"Outcome":"-1","Keys":[],"TotalKeys":0,"Block":2,"Trial":210,"Robot":4,"Valence":"Lose","Action":"No-Go","Sham":0,"Color":"yellow","trial_type":"pit-trial","trial_index":229,"time_elapsed":937288,"internal_node_id":"0.0-218.0","task_version":"test-retest-t3"},{"Rune":"rune_05_gebo","Hex":"#3366ff99","Correct":32,"Choice":32,"RT":473.20000000763685,"Accuracy":1,"Outcome":"+10","Keys":[1973.5250000085216],"TotalKeys":1,"Block":2,"Trial":211,"Robot":1,"Valence":"Win","Action":"Go","Sham":0,"Color":"blue","trial_type":"pit-trial","trial_index":230,"time_elapsed":940264,"internal_node_id":"0.0-219.0","task_version":"test-retest-t3"},{"Rune":"rune_05_tiwaz","Hex":"#3366ff99","Correct":-1,"Choice":-1,"RT":-1,"Accuracy":1,"Outcome":"+10","Keys":[],"TotalKeys":0,"Block":2,"Trial":212,"Robot":2,"Valence":"Win","Action":"No-Go","Sham":0,"Color":"blue","trial_type":"pit-trial","trial_index":231,"time_elapsed":944269,"internal_node_id":"0.0-220.0","task_version":"test-retest-t3"},{"Rune":"rune_05_gebo","Hex":"#3366ff99","Correct":32,"Choice":32,"RT":487.5049999973271,"Accuracy":1,"Outcome":"+10","Keys":[1988.4450000099605],"TotalKeys":1,"Block":2,"Trial":213,"Robot":1,"Valence":"Win","Action":"Go","Sham":0,"Color":"blue","trial_type":"pit-trial","trial_index":232,"time_elapsed":947262,"internal_node_id":"0.0-221.0","task_version":"test-retest-t3"},{"Rune":"rune_05_jeran","Hex":"#ffcc3399","Correct":-1,"Choice":-1,"RT":-1,"Accuracy":1,"Outcome":"-1","Keys":[],"TotalKeys":0,"Block":2,"Trial":214,"Robot":4,"Valence":"Lose","Action":"No-Go","Sham":0,"Color":"yellow","trial_type":"pit-trial","trial_index":233,"time_elapsed":951266,"internal_node_id":"0.0-222.0","task_version":"test-retest-t3"},{"Rune":"rune_05_tiwaz","Hex":"#3366ff99","Correct":-1,"Choice":32,"RT":388.93000000098255,"Accuracy":0,"Outcome":"+1","Keys":[1889.9399999936577],"TotalKeys":1,"Block":2,"Trial":215,"Robot":2,"Valence":"Win","Action":"No-Go","Sham":0,"Color":"blue","trial_type":"pit-trial","trial_index":234,"time_elapsed":954158,"internal_node_id":"0.0-223.0","task_version":"test-retest-t3"},{"Rune":"rune_05_ior","Hex":"#ffcc3399","Correct":32,"Choice":-1,"RT":-1,"Accuracy":0,"Outcome":"-10","Keys":[],"TotalKeys":0,"Block":2,"Trial":216,"Robot":3,"Valence":"Lose","Action":"Go","Sham":0,"Color":"yellow","trial_type":"pit-trial","trial_index":235,"time_elapsed":958162,"internal_node_id":"0.0-224.0","task_version":"test-retest-t3"},{"Rune":"rune_05_gebo","Hex":"#3366ff99","Correct":32,"Choice":32,"RT":372.91999999433756,"Accuracy":1,"Outcome":"+10","Keys":[1873.9150000037625],"TotalKeys":1,"Block":2,"Trial":217,"Robot":1,"Valence":"Win","Action":"Go","Sham":0,"Color":"blue","trial_type":"pit-trial","trial_index":236,"time_elapsed":961039,"internal_node_id":"0.0-225.0","task_version":"test-retest-t3"},{"Rune":"rune_05_jeran","Hex":"#ffcc3399","Correct":-1,"Choice":-1,"RT":-1,"Accuracy":1,"Outcome":"-10","Keys":[],"TotalKeys":0,"Block":2,"Trial":218,"Robot":4,"Valence":"Lose","Action":"No-Go","Sham":1,"Color":"yellow","trial_type":"pit-trial","trial_index":237,"time_elapsed":965043,"internal_node_id":"0.0-226.0","task_version":"test-retest-t3"},{"Rune":"rune_05_tiwaz","Hex":"#3366ff99","Correct":-1,"Choice":32,"RT":400.2899999904912,"Accuracy":0,"Outcome":"+1","Keys":[1901.2149999907706],"TotalKeys":1,"Block":2,"Trial":219,"Robot":2,"Valence":"Win","Action":"No-Go","Sham":0,"Color":"blue","trial_type":"pit-trial","trial_index":238,"time_elapsed":967946,"internal_node_id":"0.0-227.0","task_version":"test-retest-t3"},{"Rune":"rune_05_ior","Hex":"#ffcc3399","Correct":32,"Choice":32,"RT":651.2599999987287,"Accuracy":1,"Outcome":"-10","Keys":[2151.289999994333],"TotalKeys":1,"Block":2,"Trial":220,"Robot":3,"Valence":"Lose","Action":"Go","Sham":1,"Color":"yellow","trial_type":"pit-trial","trial_index":239,"time_elapsed":971099,"internal_node_id":"0.0-228.0","task_version":"test-retest-t3"},{"Rune":"rune_05_jeran","Hex":"#ffcc3399","Correct":-1,"Choice":-1,"RT":-1,"Accuracy":1,"Outcome":"-10","Keys":[],"TotalKeys":0,"Block":2,"Trial":221,"Robot":4,"Valence":"Lose","Action":"No-Go","Sham":1,"Color":"yellow","trial_type":"pit-trial","trial_index":240,"time_elapsed":975101,"internal_node_id":"0.0-229.0","task_version":"test-retest-t3"},{"Rune":"rune_05_gebo","Hex":"#3366ff99","Correct":32,"Choice":32,"RT":446.589999992284,"Accuracy":1,"Outcome":"+10","Keys":[1947.294999990845],"TotalKeys":1,"Block":2,"Trial":222,"Robot":1,"Valence":"Win","Action":"Go","Sham":0,"Color":"blue","trial_type":"pit-trial","trial_index":241,"time_elapsed":978052,"internal_node_id":"0.0-230.0","task_version":"test-retest-t3"},{"Rune":"rune_05_ior","Hex":"#ffcc3399","Correct":32,"Choice":32,"RT":501.56499999866355,"Accuracy":1,"Outcome":"-10","Keys":[2002.4149999953806],"TotalKeys":1,"Block":2,"Trial":223,"Robot":3,"Valence":"Lose","Action":"Go","Sham":1,"Color":"yellow","trial_type":"pit-trial","trial_index":242,"time_elapsed":981057,"internal_node_id":"0.0-231.0","task_version":"test-retest-t3"},{"Rune":"rune_05_tiwaz","Hex":"#3366ff99","Correct":-1,"Choice":-1,"RT":-1,"Accuracy":1,"Outcome":"+1","Keys":[],"TotalKeys":0,"Block":2,"Trial":224,"Robot":2,"Valence":"Win","Action":"No-Go","Sham":1,"Color":"blue","trial_type":"pit-trial","trial_index":243,"time_elapsed":985060,"internal_node_id":"0.0-232.0","task_version":"test-retest-t3"},{"Rune":"rune_05_gebo","Hex":"#3366ff99","Correct":32,"Choice":32,"RT":410.7800000056159,"Accuracy":1,"Outcome":"+1","Keys":[1911.7700000060722],"TotalKeys":1,"Block":2,"Trial":225,"Robot":1,"Valence":"Win","Action":"Go","Sham":1,"Color":"blue","trial_type":"pit-trial","trial_index":244,"time_elapsed":987974,"internal_node_id":"0.0-233.0","task_version":"test-retest-t3"},{"Rune":"rune_05_tiwaz","Hex":"#3366ff99","Correct":-1,"Choice":-1,"RT":-1,"Accuracy":1,"Outcome":"+10","Keys":[],"TotalKeys":0,"Block":2,"Trial":226,"Robot":2,"Valence":"Win","Action":"No-Go","Sham":0,"Color":"blue","trial_type":"pit-trial","trial_index":245,"time_elapsed":991977,"internal_node_id":"0.0-234.0","task_version":"test-retest-t3"},{"Rune":"rune_05_jeran","Hex":"#ffcc3399","Correct":-1,"Choice":32,"RT":949.0999999979977,"Accuracy":0,"Outcome":"-10","Keys":[2450.155000013183],"TotalKeys":1,"Block":2,"Trial":227,"Robot":4,"Valence":"Lose","Action":"No-Go","Sham":0,"Color":"yellow","trial_type":"pit-trial","trial_index":246,"time_elapsed":995430,"internal_node_id":"0.0-235.0","task_version":"test-retest-t3"},{"Rune":"rune_05_ior","Hex":"#ffcc3399","Correct":32,"Choice":32,"RT":478.9699999964796,"Accuracy":1,"Outcome":"-1","Keys":[1979.8650000011548],"TotalKeys":1,"Block":2,"Trial":228,"Robot":3,"Valence":"Lose","Action":"Go","Sham":0,"Color":"yellow","trial_type":"pit-trial","trial_index":247,"time_elapsed":998412,"internal_node_id":"0.0-236.0","task_version":"test-retest-t3"},{"Rune":"rune_05_ior","Hex":"#ffcc3399","Correct":32,"Choice":32,"RT":423.20000000472646,"Accuracy":1,"Outcome":"-1","Keys":[1923.865000004298],"TotalKeys":1,"Block":2,"Trial":229,"Robot":3,"Valence":"Lose","Action":"Go","Sham":0,"Color":"yellow","trial_type":"pit-trial","trial_index":248,"time_elapsed":1001338,"internal_node_id":"0.0-237.0","task_version":"test-retest-t3"},{"Rune":"rune_05_tiwaz","Hex":"#3366ff99","Correct":-1,"Choice":-1,"RT":-1,"Accuracy":1,"Outcome":"+10","Keys":[],"TotalKeys":0,"Block":2,"Trial":230,"Robot":2,"Valence":"Win","Action":"No-Go","Sham":0,"Color":"blue","trial_type":"pit-trial","trial_index":249,"time_elapsed":1005341,"internal_node_id":"0.0-238.0","task_version":"test-retest-t3"},{"Rune":"rune_05_jeran","Hex":"#ffcc3399","Correct":-1,"Choice":-1,"RT":-1,"Accuracy":1,"Outcome":"-1","Keys":[],"TotalKeys":0,"Block":2,"Trial":231,"Robot":4,"Valence":"Lose","Action":"No-Go","Sham":0,"Color":"yellow","trial_type":"pit-trial","trial_index":250,"time_elapsed":1009344,"internal_node_id":"0.0-239.0","task_version":"test-retest-t3"},{"Rune":"rune_05_gebo","Hex":"#3366ff99","Correct":32,"Choice":32,"RT":450.1450000097975,"Accuracy":1,"Outcome":"+10","Keys":[1950.314999994589],"TotalKeys":1,"Block":2,"Trial":232,"Robot":1,"Valence":"Win","Action":"Go","Sham":0,"Color":"blue","trial_type":"pit-trial","trial_index":251,"time_elapsed":1012296,"internal_node_id":"0.0-240.0","task_version":"test-retest-t3"},{"Rune":"rune_05_ior","Hex":"#ffcc3399","Correct":32,"Choice":32,"RT":572.5899999961257,"Accuracy":1,"Outcome":"-1","Keys":[2073.420000000624],"TotalKeys":1,"Block":2,"Trial":233,"Robot":3,"Valence":"Lose","Action":"Go","Sham":0,"Color":"yellow","trial_type":"pit-trial","trial_index":252,"time_elapsed":1015373,"internal_node_id":"0.0-241.0","task_version":"test-retest-t3"},{"Rune":"rune_05_gebo","Hex":"#3366ff99","Correct":32,"Choice":32,"RT":500.35500001104083,"Accuracy":1,"Outcome":"+10","Keys":[2000.930000009248],"TotalKeys":1,"Block":2,"Trial":234,"Robot":1,"Valence":"Win","Action":"Go","Sham":0,"Color":"blue","trial_type":"pit-trial","trial_index":253,"time_elapsed":1018377,"internal_node_id":"0.0-242.0","task_version":"test-retest-t3"},{"Rune":"rune_05_jeran","Hex":"#ffcc3399","Correct":-1,"Choice":-1,"RT":-1,"Accuracy":1,"Outcome":"-1","Keys":[],"TotalKeys":0,"Block":2,"Trial":235,"Robot":4,"Valence":"Lose","Action":"No-Go","Sham":0,"Color":"yellow","trial_type":"pit-trial","trial_index":254,"time_elapsed":1022379,"internal_node_id":"0.0-243.0","task_version":"test-retest-t3"},{"Rune":"rune_05_tiwaz","Hex":"#3366ff99","Correct":-1,"Choice":-1,"RT":-1,"Accuracy":1,"Outcome":"+10","Keys":[],"TotalKeys":0,"Block":2,"Trial":236,"Robot":2,"Valence":"Win","Action":"No-Go","Sham":0,"Color":"blue","trial_type":"pit-trial","trial_index":255,"time_elapsed":1026383,"internal_node_id":"0.0-244.0","task_version":"test-retest-t3"},{"Rune":"rune_05_gebo","Hex":"#3366ff99","Correct":32,"Choice":32,"RT":419.25999999511987,"Accuracy":1,"Outcome":"+10","Keys":[1920.8599999983562],"TotalKeys":1,"Block":2,"Trial":237,"Robot":1,"Valence":"Win","Action":"Go","Sham":0,"Color":"blue","trial_type":"pit-trial","trial_index":256,"time_elapsed":1029306,"internal_node_id":"0.0-245.0","task_version":"test-retest-t3"},{"Rune":"rune_05_tiwaz","Hex":"#3366ff99","Correct":-1,"Choice":-1,"RT":-1,"Accuracy":1,"Outcome":"+10","Keys":[],"TotalKeys":0,"Block":2,"Trial":238,"Robot":2,"Valence":"Win","Action":"No-Go","Sham":0,"Color":"blue","trial_type":"pit-trial","trial_index":257,"time_elapsed":1033308,"internal_node_id":"0.0-246.0","task_version":"test-retest-t3"},{"Rune":"rune_05_ior","Hex":"#ffcc3399","Correct":32,"Choice":32,"RT":414.3600000097649,"Accuracy":1,"Outcome":"-1","Keys":[1915.1100000017323],"TotalKeys":1,"Block":2,"Trial":239,"Robot":3,"Valence":"Lose","Action":"Go","Sham":0,"Color":"yellow","trial_type":"pit-trial","trial_index":258,"time_elapsed":1036225,"internal_node_id":"0.0-247.0","task_version":"test-retest-t3"},{"Rune":"rune_05_jeran","Hex":"#ffcc3399","Correct":-1,"Choice":-1,"RT":-1,"Accuracy":1,"Outcome":"-1","Keys":[],"TotalKeys":0,"Block":2,"Trial":240,"Robot":4,"Valence":"Lose","Action":"No-Go","Sham":0,"Color":"yellow","trial_type":"pit-trial","trial_index":259,"time_elapsed":1040231,"internal_node_id":"0.0-248.0","task_version":"test-retest-t3"},{"view_history":"[{\"page_index\":0,\"viewing_time\":3047.884999992675}]","rt":3048.190000001341,"trial_type":"pit-instructions","trial_index":260,"time_elapsed":1043280,"internal_node_id":"0.0-249.0","task_version":"test-retest-t3"},{"rt":14780.440000002389,"responses":{"difficulty":"4","fun":"4","clarity":"5","strategy":"I just tried to memorize which symbols were good, and which were bad.","feedback":""},"survey":"debrief","trial_type":"survey-debrief","trial_index":261,"time_elapsed":1058063,"internal_node_id":"0.0-250.0","task_version":"test-retest-t3"},{"rt":2162.155000012601,"stimulus":"You earned a bonus of $1.26 out of $1.5.<br><br>Press any key to complete the experiment.","key_press":74,"trial_type":"html-keyboard-response","trial_index":262,"time_elapsed":1060228,"internal_node_id":"0.0-251.0","task_version":"test-retest-t3","accuracy":0.8375,"bonus":1.26,"interactions":"[]"}]