[{"slider_type":"valence","raw_loc":580,"loc":0.66,"trial_type":"affective-slider","trial_index":0,"time_elapsed":7787,"internal_node_id":"0.0-0.0","task_version":"test-retest-t3"},{"responses":{"Q01":"1","Q03":"0","Q08":"0","Q02":"0","Q05":"0","Q07":"0","Q06":"1","Q04":"1"},"rt":44428.29499999789,"survey":"gad7","trial_type":"survey-template","trial_index":1,"time_elapsed":52224,"internal_node_id":"0.0-1.0","task_version":"test-retest-t3"},{"view_history":"[{\"page_index\":0,\"viewing_time\":4443.6100000020815},{\"page_index\":1,\"viewing_time\":1519.894999997632},{\"page_index\":2,\"viewing_time\":4989.945000001171},{\"page_index\":3,\"viewing_time\":5204.21499999793},{\"page_index\":4,\"viewing_time\":2912.4550000051386},{\"page_index\":5,\"viewing_time\":2696.9949999984237}]","rt":21767.695000002277,"trial_type":"pit-instructions","trial_index":2,"time_elapsed":73996,"internal_node_id":"0.0-2.0-0.0","task_version":"test-retest-t3"},{"Rune":"rune_00_ingz","Hex":"#FFFFF080","Correct":32,"Choice":32,"RT":327.40999999805354,"Accuracy":1,"Outcome":"+10","Keys":[1829.3249999987893],"TotalKeys":1,"Block":0,"Action":"Go","trial_type":"pit-trial","trial_index":3,"time_elapsed":76829,"internal_node_id":"0.0-2.0-1.0-0.0","task_version":"test-retest-t3"},{"Rune":"rune_00_ingz","Hex":"#FFFFF080","Correct":32,"Choice":32,"RT":261.7900000041118,"Accuracy":1,"Outcome":"+10","Keys":[1762.6149999996414],"TotalKeys":1,"Block":0,"Action":"Go","trial_type":"pit-trial","trial_index":4,"time_elapsed":79597,"internal_node_id":"0.0-2.0-1.0-0.1","task_version":"test-retest-t3"},{"Rune":"rune_00_ingz","Hex":"#FFFFF080","Correct":32,"Choice":32,"RT":254.8300000053132,"Accuracy":1,"Outcome":"+10","Keys":[1755.5499999944004],"TotalKeys":1,"Block":0,"Action":"Go","trial_type":"pit-trial","trial_index":5,"time_elapsed":82359,"internal_node_id":"0.0-2.0-1.0-0.2","task_version":"test-retest-t3"},{"Rune":"rune_00_ingz","Hex":"#FFFFF080","Correct":32,"Choice":32,"RT":268.33999999507796,"Accuracy":1,"Outcome":"+10","Keys":[1768.5050000000047],"TotalKeys":1,"Block":0,"Action":"Go","trial_type":"pit-trial","trial_index":6,"time_elapsed":85132,"internal_node_id":"0.0-2.0-1.0-0.3","task_version":"test-retest-t3"},{"view_history":"[{\"page_index\":0,\"viewing_time\":2482.70500000217}]","rt":2482.965000002878,"trial_type":"pit-instructions","trial_index":7,"time_elapsed":87616,"internal_node_id":"0.0-2.0-2.0","task_version":"test-retest-t3"},{"Rune":"rune_00_isaz","Hex":"#FFFFF080","Correct":-1,"Choice":-1,"RT":-1,"Accuracy":1,"Outcome":"+10","Keys":[],"TotalKeys":0,"Block":0,"Action":"No-Go","trial_type":"pit-trial","trial_index":8,"time_elapsed":91620,"internal_node_id":"0.0-2.0-3.0-0.0","task_version":"test-retest-t3"},{"Rune":"rune_00_isaz","Hex":"#FFFFF080","Correct":-1,"Choice":-1,"RT":-1,"Accuracy":1,"Outcome":"+10","Keys":[],"TotalKeys":0,"Block":0,"Action":"No-Go","trial_type":"pit-trial","trial_index":9,"time_elapsed":95626,"internal_node_id":"0.0-2.0-3.0-0.1","task_version":"test-retest-t3"},{"Rune":"rune_00_isaz","Hex":"#FFFFF080","Correct":-1,"Choice":-1,"RT":-1,"Accuracy":1,"Outcome":"+10","Keys":[],"TotalKeys":0,"Block":0,"Action":"No-Go","trial_type":"pit-trial","trial_index":10,"time_elapsed":99630,"internal_node_id":"0.0-2.0-3.0-0.2","task_version":"test-retest-t3"},{"Rune":"rune_00_isaz","Hex":"#FFFFF080","Correct":-1,"Choice":-1,"RT":-1,"Accuracy":1,"Outcome":"+10","Keys":[],"TotalKeys":0,"Block":0,"Action":"No-Go","trial_type":"pit-trial","trial_index":11,"time_elapsed":103635,"internal_node_id":"0.0-2.0-3.0-0.3","task_version":"test-retest-t3"},{"view_history":"[{\"page_index\":0,\"viewing_time\":2251.5950000015437},{\"page_index\":1,\"viewing_time\":10675.475000003644},{\"page_index\":2,\"viewing_time\":3924.574999997276},{\"page_index\":3,\"viewing_time\":3388.0449999996927},{\"page_index\":4,\"viewing_time\":3604.8200000004726},{\"page_index\":5,\"viewing_time\":4446.940000001632},{\"page_index\":6,\"viewing_time\":4170.364999998128},{\"page_index\":7,\"viewing_time\":2880.64999999915}]","rt":35342.88500000548,"trial_type":"pit-instructions","trial_index":12,"time_elapsed":138981,"internal_node_id":"0.0-2.0-4.0","task_version":"test-retest-t3"},{"responses":["Do nothing","+10","-1","True","Yes"],"num_errors":0,"rt":17510.034999999334,"trial_type":"pit-comprehension","trial_index":13,"time_elapsed":156494,"internal_node_id":"0.0-2.0-5.0","task_version":"test-retest-t3"},{"trial_type":"call-function","trial_index":14,"time_elapsed":156496,"internal_node_id":"0.0-3.0","task_version":"test-retest-t3"},{"view_history":"[{\"page_index\":0,\"viewing_time\":2201.5400000018417},{\"page_index\":1,\"viewing_time\":2000.4049999988638},{\"page_index\":2,\"viewing_time\":10730.630000005476}]","rt":14933.01000000065,"trial_type":"pit-instructions","trial_index":15,"time_elapsed":171429,"internal_node_id":"0.0-4.0","task_version":"test-retest-t3"},{"Rune":"rune_05_ior","Hex":"#3366ff99","Correct":32,"Choice":32,"RT":675.1749999966705,"Accuracy":1,"Outcome":"-1","Keys":[2176.5099999975064],"TotalKeys":1,"Block":1,"Trial":1,"Robot":3,"Valence":"Lose","Action":"Go","Sham":0,"Color":"blue","trial_type":"pit-trial","trial_index":16,"time_elapsed":174611,"internal_node_id":"0.0-5.0","task_version":"test-retest-t3"},{"Rune":"rune_05_jeran","Hex":"#ffcc3399","Correct":32,"Choice":32,"RT":793.1000000025961,"Accuracy":1,"Outcome":"+1","Keys":[2293.470000004163],"TotalKeys":1,"Block":1,"Trial":2,"Robot":1,"Valence":"Win","Action":"Go","Sham":1,"Color":"yellow","trial_type":"pit-trial","trial_index":17,"time_elapsed":177909,"internal_node_id":"0.0-6.0","task_version":"test-retest-t3"},{"Rune":"rune_05_gebo","Hex":"#3366ff99","Correct":-1,"Choice":-1,"RT":-1,"Accuracy":1,"Outcome":"-1","Keys":[],"TotalKeys":0,"Block":1,"Trial":3,"Robot":4,"Valence":"Lose","Action":"No-Go","Sham":0,"Color":"blue","trial_type":"pit-trial","trial_index":18,"time_elapsed":181915,"internal_node_id":"0.0-7.0","task_version":"test-retest-t3"},{"Rune":"rune_05_tiwaz","Hex":"#ffcc3399","Correct":-1,"Choice":32,"RT":874.1200000004028,"Accuracy":0,"Outcome":"+10","Keys":[2375.4600000029313],"TotalKeys":1,"Block":1,"Trial":4,"Robot":2,"Valence":"Win","Action":"No-Go","Sham":1,"Color":"yellow","trial_type":"pit-trial","trial_index":19,"time_elapsed":185293,"internal_node_id":"0.0-8.0","task_version":"test-retest-t3"},{"Rune":"rune_05_gebo","Hex":"#3366ff99","Correct":-1,"Choice":32,"RT":797.6499999931548,"Accuracy":0,"Outcome":"-1","Keys":[2297.8949999960605],"TotalKeys":1,"Block":1,"Trial":5,"Robot":4,"Valence":"Lose","Action":"No-Go","Sham":1,"Color":"blue","trial_type":"pit-trial","trial_index":20,"time_elapsed":188596,"internal_node_id":"0.0-9.0","task_version":"test-retest-t3"},{"Rune":"rune_05_tiwaz","Hex":"#ffcc3399","Correct":-1,"Choice":32,"RT":839.3099999957485,"Accuracy":0,"Outcome":"+1","Keys":[2340.3850000031525],"TotalKeys":1,"Block":1,"Trial":6,"Robot":2,"Valence":"Win","Action":"No-Go","Sham":0,"Color":"yellow","trial_type":"pit-trial","trial_index":21,"time_elapsed":191941,"internal_node_id":"0.0-10.0","task_version":"test-retest-t3"},{"Rune":"rune_05_ior","Hex":"#3366ff99","Correct":32,"Choice":-1,"RT":-1,"Accuracy":0,"Outcome":"-10","Keys":[],"TotalKeys":0,"Block":1,"Trial":7,"Robot":3,"Valence":"Lose","Action":"Go","Sham":0,"Color":"blue","trial_type":"pit-trial","trial_index":22,"time_elapsed":195946,"internal_node_id":"0.0-11.0","task_version":"test-retest-t3"},{"Rune":"rune_05_jeran","Hex":"#ffcc3399","Correct":32,"Choice":-1,"RT":-1,"Accuracy":0,"Outcome":"+1","Keys":[],"TotalKeys":0,"Block":1,"Trial":8,"Robot":1,"Valence":"Win","Action":"Go","Sham":0,"Color":"yellow","trial_type":"pit-trial","trial_index":23,"time_elapsed":199950,"internal_node_id":"0.0-12.0","task_version":"test-retest-t3"},{"Rune":"rune_05_tiwaz","Hex":"#ffcc3399","Correct":-1,"Choice":32,"RT":894.1049999993993,"Accuracy":0,"Outcome":"+1","Keys":[2394.525000003341],"TotalKeys":1,"Block":1,"Trial":9,"Robot":2,"Valence":"Win","Action":"No-Go","Sham":0,"Color":"yellow","trial_type":"pit-trial","trial_index":24,"time_elapsed":203347,"internal_node_id":"0.0-13.0","task_version":"test-retest-t3"},{"Rune":"rune_05_ior","Hex":"#3366ff99","Correct":32,"Choice":32,"RT":856.0799999977462,"Accuracy":1,"Outcome":"-10","Keys":[2356.3999999969383],"TotalKeys":1,"Block":1,"Trial":10,"Robot":3,"Valence":"Lose","Action":"Go","Sham":1,"Color":"blue","trial_type":"pit-trial","trial_index":25,"time_elapsed":206708,"internal_node_id":"0.0-14.0","task_version":"test-retest-t3"},{"Rune":"rune_05_jeran","Hex":"#ffcc3399","Correct":32,"Choice":32,"RT":1047.48500000278,"Accuracy":1,"Outcome":"+10","Keys":[2548.195000003034],"TotalKeys":1,"Block":1,"Trial":11,"Robot":1,"Valence":"Win","Action":"Go","Sham":0,"Color":"yellow","trial_type":"pit-trial","trial_index":26,"time_elapsed":210261,"internal_node_id":"0.0-15.0","task_version":"test-retest-t3"},{"Rune":"rune_05_gebo","Hex":"#3366ff99","Correct":-1,"Choice":-1,"RT":-1,"Accuracy":1,"Outcome":"-1","Keys":[],"TotalKeys":0,"Block":1,"Trial":12,"Robot":4,"Valence":"Lose","Action":"No-Go","Sham":0,"Color":"blue","trial_type":"pit-trial","trial_index":27,"time_elapsed":214269,"internal_node_id":"0.0-16.0","task_version":"test-retest-t3"},{"Rune":"rune_05_ior","Hex":"#3366ff99","Correct":32,"Choice":32,"RT":855.1850000003469,"Accuracy":1,"Outcome":"-1","Keys":[2355.8150000026217],"TotalKeys":1,"Block":1,"Trial":13,"Robot":3,"Valence":"Lose","Action":"Go","Sham":0,"Color":"blue","trial_type":"pit-trial","trial_index":28,"time_elapsed":217629,"internal_node_id":"0.0-17.0","task_version":"test-retest-t3"},{"Rune":"rune_05_jeran","Hex":"#ffcc3399","Correct":32,"Choice":32,"RT":533.2199999975273,"Accuracy":1,"Outcome":"+10","Keys":[2034.4650000042748],"TotalKeys":1,"Block":1,"Trial":14,"Robot":1,"Valence":"Win","Action":"Go","Sham":0,"Color":"yellow","trial_type":"pit-trial","trial_index":29,"time_elapsed":220669,"internal_node_id":"0.0-18.0","task_version":"test-retest-t3"},{"Rune":"rune_05_tiwaz","Hex":"#ffcc3399","Correct":-1,"Choice":-1,"RT":-1,"Accuracy":1,"Outcome":"+10","Keys":[],"TotalKeys":0,"Block":1,"Trial":15,"Robot":2,"Valence":"Win","Action":"No-Go","Sham":0,"Color":"yellow","trial_type":"pit-trial","trial_index":30,"time_elapsed":224674,"internal_node_id":"0.0-19.0","task_version":"test-retest-t3"},{"Rune":"rune_05_gebo","Hex":"#3366ff99","Correct":-1,"Choice":-1,"RT":-1,"Accuracy":1,"Outcome":"-1","Keys":[],"TotalKeys":0,"Block":1,"Trial":16,"Robot":4,"Valence":"Lose","Action":"No-Go","Sham":0,"Color":"blue","trial_type":"pit-trial","trial_index":31,"time_elapsed":228682,"internal_node_id":"0.0-20.0","task_version":"test-retest-t3"},{"Rune":"rune_05_ior","Hex":"#3366ff99","Correct":32,"Choice":32,"RT":569.6249999964493,"Accuracy":1,"Outcome":"-1","Keys":[2070.8949999971082],"TotalKeys":1,"Block":1,"Trial":17,"Robot":3,"Valence":"Lose","Action":"Go","Sham":0,"Color":"blue","trial_type":"pit-trial","trial_index":32,"time_elapsed":231758,"internal_node_id":"0.0-21.0","task_version":"test-retest-t3"},{"Rune":"rune_05_tiwaz","Hex":"#ffcc3399","Correct":-1,"Choice":-1,"RT":-1,"Accuracy":1,"Outcome":"+10","Keys":[],"TotalKeys":0,"Block":1,"Trial":18,"Robot":2,"Valence":"Win","Action":"No-Go","Sham":0,"Color":"yellow","trial_type":"pit-trial","trial_index":33,"time_elapsed":235764,"internal_node_id":"0.0-22.0","task_version":"test-retest-t3"},{"Rune":"rune_05_gebo","Hex":"#3366ff99","Correct":-1,"Choice":-1,"RT":-1,"Accuracy":1,"Outcome":"-1","Keys":[],"TotalKeys":0,"Block":1,"Trial":19,"Robot":4,"Valence":"Lose","Action":"No-Go","Sham":0,"Color":"blue","trial_type":"pit-trial","trial_index":34,"time_elapsed":239768,"internal_node_id":"0.0-23.0","task_version":"test-retest-t3"},{"Rune":"rune_05_jeran","Hex":"#ffcc3399","Correct":32,"Choice":32,"RT":466.65999999822816,"Accuracy":1,"Outcome":"+10","Keys":[1967.5800000040908],"TotalKeys":1,"Block":1,"Trial":20,"Robot":1,"Valence":"Win","Action":"Go","Sham":0,"Color":"yellow","trial_type":"pit-trial","trial_index":35,"time_elapsed":242739,"internal_node_id":"0.0-24.0","task_version":"test-retest-t3"},{"Rune":"rune_05_gebo","Hex":"#3366ff99","Correct":-1,"Choice":-1,"RT":-1,"Accuracy":1,"Outcome":"-1","Keys":[],"TotalKeys":0,"Block":1,"Trial":21,"Robot":4,"Valence":"Lose","Action":"No-Go","Sham":0,"Color":"blue","trial_type":"pit-trial","trial_index":36,"time_elapsed":246743,"internal_node_id":"0.0-25.0","task_version":"test-retest-t3"},{"Rune":"rune_05_ior","Hex":"#3366ff99","Correct":32,"Choice":32,"RT":357.3649999962072,"Accuracy":1,"Outcome":"-1","Keys":[1857.8850000048988],"TotalKeys":1,"Block":1,"Trial":22,"Robot":3,"Valence":"Lose","Action":"Go","Sham":0,"Color":"blue","trial_type":"pit-trial","trial_index":37,"time_elapsed":249606,"internal_node_id":"0.0-26.0","task_version":"test-retest-t3"},{"Rune":"rune_05_tiwaz","Hex":"#ffcc3399","Correct":-1,"Choice":-1,"RT":-1,"Accuracy":1,"Outcome":"+10","Keys":[],"TotalKeys":0,"Block":1,"Trial":23,"Robot":2,"Valence":"Win","Action":"No-Go","Sham":0,"Color":"yellow","trial_type":"pit-trial","trial_index":38,"time_elapsed":253611,"internal_node_id":"0.0-27.0","task_version":"test-retest-t3"},{"Rune":"rune_05_jeran","Hex":"#ffcc3399","Correct":32,"Choice":32,"RT":369.29500000405824,"Accuracy":1,"Outcome":"+10","Keys":[1870.535000001837],"TotalKeys":1,"Block":1,"Trial":24,"Robot":1,"Valence":"Win","Action":"Go","Sham":0,"Color":"yellow","trial_type":"pit-trial","trial_index":39,"time_elapsed":256487,"internal_node_id":"0.0-28.0","task_version":"test-retest-t3"},{"Rune":"rune_05_gebo","Hex":"#3366ff99","Correct":-1,"Choice":-1,"RT":-1,"Accuracy":1,"Outcome":"-1","Keys":[],"TotalKeys":0,"Block":1,"Trial":25,"Robot":4,"Valence":"Lose","Action":"No-Go","Sham":0,"Color":"blue","trial_type":"pit-trial","trial_index":40,"time_elapsed":260490,"internal_node_id":"0.0-29.0","task_version":"test-retest-t3"},{"Rune":"rune_05_tiwaz","Hex":"#ffcc3399","Correct":-1,"Choice":-1,"RT":-1,"Accuracy":1,"Outcome":"+1","Keys":[],"TotalKeys":0,"Block":1,"Trial":26,"Robot":2,"Valence":"Win","Action":"No-Go","Sham":1,"Color":"yellow","trial_type":"pit-trial","trial_index":41,"time_elapsed":264497,"internal_node_id":"0.0-30.0","task_version":"test-retest-t3"},{"Rune":"rune_05_ior","Hex":"#3366ff99","Correct":32,"Choice":32,"RT":457.5699999986682,"Accuracy":1,"Outcome":"-1","Keys":[1958.7499999979627],"TotalKeys":1,"Block":1,"Trial":27,"Robot":3,"Valence":"Lose","Action":"Go","Sham":0,"Color":"blue","trial_type":"pit-trial","trial_index":42,"time_elapsed":267461,"internal_node_id":"0.0-31.0","task_version":"test-retest-t3"},{"Rune":"rune_05_jeran","Hex":"#ffcc3399","Correct":32,"Choice":32,"RT":350.7800000006682,"Accuracy":1,"Outcome":"+10","Keys":[1851.425000000745],"TotalKeys":1,"Block":1,"Trial":28,"Robot":1,"Valence":"Win","Action":"Go","Sham":0,"Color":"yellow","trial_type":"pit-trial","trial_index":43,"time_elapsed":270318,"internal_node_id":"0.0-32.0","task_version":"test-retest-t3"},{"Rune":"rune_05_tiwaz","Hex":"#ffcc3399","Correct":-1,"Choice":-1,"RT":-1,"Accuracy":1,"Outcome":"+10","Keys":[],"TotalKeys":0,"Block":1,"Trial":29,"Robot":2,"Valence":"Win","Action":"No-Go","Sham":0,"Color":"yellow","trial_type":"pit-trial","trial_index":44,"time_elapsed":274321,"internal_node_id":"0.0-33.0","task_version":"test-retest-t3"},{"Rune":"rune_05_gebo","Hex":"#3366ff99","Correct":-1,"Choice":-1,"RT":-1,"Accuracy":1,"Outcome":"-1","Keys":[],"TotalKeys":0,"Block":1,"Trial":30,"Robot":4,"Valence":"Lose","Action":"No-Go","Sham":0,"Color":"blue","trial_type":"pit-trial","trial_index":45,"time_elapsed":278326,"internal_node_id":"0.0-34.0","task_version":"test-retest-t3"},{"Rune":"rune_05_ior","Hex":"#3366ff99","Correct":32,"Choice":32,"RT":472.0450000022538,"Accuracy":1,"Outcome":"-1","Keys":[1972.2000000037951],"TotalKeys":1,"Block":1,"Trial":31,"Robot":3,"Valence":"Lose","Action":"Go","Sham":0,"Color":"blue","trial_type":"pit-trial","trial_index":46,"time_elapsed":281302,"internal_node_id":"0.0-35.0","task_version":"test-retest-t3"},{"Rune":"rune_05_jeran","Hex":"#ffcc3399","Correct":32,"Choice":32,"RT":380.909999999858,"Accuracy":1,"Outcome":"+1","Keys":[1881.5099999992526],"TotalKeys":1,"Block":1,"Trial":32,"Robot":1,"Valence":"Win","Action":"Go","Sham":1,"Color":"yellow","trial_type":"pit-trial","trial_index":47,"time_elapsed":284187,"internal_node_id":"0.0-36.0","task_version":"test-retest-t3"},{"Rune":"rune_05_gebo","Hex":"#3366ff99","Correct":-1,"Choice":-1,"RT":-1,"Accuracy":1,"Outcome":"-1","Keys":[],"TotalKeys":0,"Block":1,"Trial":33,"Robot":4,"Valence":"Lose","Action":"No-Go","Sham":0,"Color":"blue","trial_type":"pit-trial","trial_index":48,"time_elapsed":288192,"internal_node_id":"0.0-37.0","task_version":"test-retest-t3"},{"Rune":"rune_05_jeran","Hex":"#ffcc3399","Correct":32,"Choice":32,"RT":300.5300000004354,"Accuracy":1,"Outcome":"+10","Keys":[1801.019999998971],"TotalKeys":1,"Block":1,"Trial":34,"Robot":1,"Valence":"Win","Action":"Go","Sham":0,"Color":"yellow","trial_type":"pit-trial","trial_index":49,"time_elapsed":290996,"internal_node_id":"0.0-38.0","task_version":"test-retest-t3"},{"Rune":"rune_05_tiwaz","Hex":"#ffcc3399","Correct":-1,"Choice":-1,"RT":-1,"Accuracy":1,"Outcome":"+10","Keys":[],"TotalKeys":0,"Block":1,"Trial":35,"Robot":2,"Valence":"Win","Action":"No-Go","Sham":0,"Color":"yellow","trial_type":"pit-trial","trial_index":50,"time_elapsed":294999,"internal_node_id":"0.0-39.0","task_version":"test-retest-t3"},{"Rune":"rune_05_ior","Hex":"#3366ff99","Correct":32,"Choice":32,"RT":407.24499999487307,"Accuracy":1,"Outcome":"-10","Keys":[1908.210000001418],"TotalKeys":1,"Block":1,"Trial":36,"Robot":3,"Valence":"Lose","Action":"Go","Sham":1,"Color":"blue","trial_type":"pit-trial","trial_index":51,"time_elapsed":297910,"internal_node_id":"0.0-40.0","task_version":"test-retest-t3"},{"Rune":"rune_05_gebo","Hex":"#3366ff99","Correct":-1,"Choice":-1,"RT":-1,"Accuracy":1,"Outcome":"-10","Keys":[],"TotalKeys":0,"Block":1,"Trial":37,"Robot":4,"Valence":"Lose","Action":"No-Go","Sham":1,"Color":"blue","trial_type":"pit-trial","trial_index":52,"time_elapsed":301916,"internal_node_id":"0.0-41.0","task_version":"test-retest-t3"},{"Rune":"rune_05_jeran","Hex":"#ffcc3399","Correct":32,"Choice":32,"RT":455.56999999826076,"Accuracy":1,"Outcome":"+10","Keys":[1957.1050000013201],"TotalKeys":1,"Block":1,"Trial":38,"Robot":1,"Valence":"Win","Action":"Go","Sham":0,"Color":"yellow","trial_type":"pit-trial","trial_index":53,"time_elapsed":304877,"internal_node_id":"0.0-42.0","task_version":"test-retest-t3"},{"Rune":"rune_05_ior","Hex":"#3366ff99","Correct":32,"Choice":32,"RT":479.68499999842606,"Accuracy":1,"Outcome":"-1","Keys":[1980.280000003404],"TotalKeys":1,"Block":1,"Trial":39,"Robot":3,"Valence":"Lose","Action":"Go","Sham":0,"Color":"blue","trial_type":"pit-trial","trial_index":54,"time_elapsed":307860,"internal_node_id":"0.0-43.0","task_version":"test-retest-t3"},{"Rune":"rune_05_tiwaz","Hex":"#ffcc3399","Correct":-1,"Choice":-1,"RT":-1,"Accuracy":1,"Outcome":"+10","Keys":[],"TotalKeys":0,"Block":1,"Trial":40,"Robot":2,"Valence":"Win","Action":"No-Go","Sham":0,"Color":"yellow","trial_type":"pit-trial","trial_index":55,"time_elapsed":311863,"internal_node_id":"0.0-44.0","task_version":"test-retest-t3"},{"Rune":"rune_05_ior","Hex":"#3366ff99","Correct":32,"Choice":32,"RT":436.7950000014389,"Accuracy":1,"Outcome":"-1","Keys":[1936.825000004319],"TotalKeys":1,"Block":1,"Trial":41,"Robot":3,"Valence":"Lose","Action":"Go","Sham":0,"Color":"blue","trial_type":"pit-trial","trial_index":56,"time_elapsed":314803,"internal_node_id":"0.0-45.0","task_version":"test-retest-t3"},{"Rune":"rune_05_gebo","Hex":"#3366ff99","Correct":-1,"Choice":-1,"RT":-1,"Accuracy":1,"Outcome":"-1","Keys":[],"TotalKeys":0,"Block":1,"Trial":42,"Robot":4,"Valence":"Lose","Action":"No-Go","Sham":0,"Color":"blue","trial_type":"pit-trial","trial_index":57,"time_elapsed":318807,"internal_node_id":"0.0-46.0","task_version":"test-retest-t3"},{"Rune":"rune_05_jeran","Hex":"#ffcc3399","Correct":32,"Choice":32,"RT":404.3299999975716,"Accuracy":1,"Outcome":"+10","Keys":[1905.4050000049756],"TotalKeys":1,"Block":1,"Trial":43,"Robot":1,"Valence":"Win","Action":"Go","Sham":0,"Color":"yellow","trial_type":"pit-trial","trial_index":58,"time_elapsed":321717,"internal_node_id":"0.0-47.0","task_version":"test-retest-t3"},{"Rune":"rune_05_tiwaz","Hex":"#ffcc3399","Correct":-1,"Choice":-1,"RT":-1,"Accuracy":1,"Outcome":"+10","Keys":[],"TotalKeys":0,"Block":1,"Trial":44,"Robot":2,"Valence":"Win","Action":"No-Go","Sham":0,"Color":"yellow","trial_type":"pit-trial","trial_index":59,"time_elapsed":325721,"internal_node_id":"0.0-48.0","task_version":"test-retest-t3"},{"Rune":"rune_05_tiwaz","Hex":"#ffcc3399","Correct":-1,"Choice":-1,"RT":-1,"Accuracy":1,"Outcome":"+10","Keys":[],"TotalKeys":0,"Block":1,"Trial":45,"Robot":2,"Valence":"Win","Action":"No-Go","Sham":0,"Color":"yellow","trial_type":"pit-trial","trial_index":60,"time_elapsed":329726,"internal_node_id":"0.0-49.0","task_version":"test-retest-t3"},{"Rune":"rune_05_jeran","Hex":"#ffcc3399","Correct":32,"Choice":32,"RT":440.15999999828637,"Accuracy":1,"Outcome":"+10","Keys":[1941.1550000004354],"TotalKeys":1,"Block":1,"Trial":46,"Robot":1,"Valence":"Win","Action":"Go","Sham":0,"Color":"yellow","trial_type":"pit-trial","trial_index":61,"time_elapsed":332671,"internal_node_id":"0.0-50.0","task_version":"test-retest-t3"},{"Rune":"rune_05_ior","Hex":"#3366ff99","Correct":32,"Choice":32,"RT":309.3349999981001,"Accuracy":1,"Outcome":"-1","Keys":[1810.2899999939837],"TotalKeys":1,"Block":1,"Trial":47,"Robot":3,"Valence":"Lose","Action":"Go","Sham":0,"Color":"blue","trial_type":"pit-trial","trial_index":62,"time_elapsed":335487,"internal_node_id":"0.0-51.0","task_version":"test-retest-t3"},{"Rune":"rune_05_gebo","Hex":"#3366ff99","Correct":-1,"Choice":-1,"RT":-1,"Accuracy":1,"Outcome":"-10","Keys":[],"TotalKeys":0,"Block":1,"Trial":48,"Robot":4,"Valence":"Lose","Action":"No-Go","Sham":1,"Color":"blue","trial_type":"pit-trial","trial_index":63,"time_elapsed":339492,"internal_node_id":"0.0-52.0","task_version":"test-retest-t3"},{"Rune":"rune_05_tiwaz","Hex":"#ffcc3399","Correct":-1,"Choice":-1,"RT":-1,"Accuracy":1,"Outcome":"+10","Keys":[],"TotalKeys":0,"Block":1,"Trial":49,"Robot":2,"Valence":"Win","Action":"No-Go","Sham":0,"Color":"yellow","trial_type":"pit-trial","trial_index":64,"time_elapsed":343495,"internal_node_id":"0.0-53.0","task_version":"test-retest-t3"},{"Rune":"rune_05_jeran","Hex":"#ffcc3399","Correct":32,"Choice":32,"RT":420.7299999980023,"Accuracy":1,"Outcome":"+10","Keys":[1922.4099999992177],"TotalKeys":1,"Block":1,"Trial":50,"Robot":1,"Valence":"Win","Action":"Go","Sham":0,"Color":"yellow","trial_type":"pit-trial","trial_index":65,"time_elapsed":346421,"internal_node_id":"0.0-54.0","task_version":"test-retest-t3"},{"Rune":"rune_05_gebo","Hex":"#3366ff99","Correct":-1,"Choice":-1,"RT":-1,"Accuracy":1,"Outcome":"-1","Keys":[],"TotalKeys":0,"Block":1,"Trial":51,"Robot":4,"Valence":"Lose","Action":"No-Go","Sham":0,"Color":"blue","trial_type":"pit-trial","trial_index":66,"time_elapsed":350428,"internal_node_id":"0.0-55.0","task_version":"test-retest-t3"},{"Rune":"rune_05_ior","Hex":"#3366ff99","Correct":32,"Choice":32,"RT":374.5100000014645,"Accuracy":1,"Outcome":"-1","Keys":[1875.3300000025774],"TotalKeys":1,"Block":1,"Trial":52,"Robot":3,"Valence":"Lose","Action":"Go","Sham":0,"Color":"blue","trial_type":"pit-trial","trial_index":67,"time_elapsed":353309,"internal_node_id":"0.0-56.0","task_version":"test-retest-t3"},{"Rune":"rune_05_jeran","Hex":"#ffcc3399","Correct":32,"Choice":32,"RT":375.4750000007334,"Accuracy":1,"Outcome":"+1","Keys":[1876.3250000047265],"TotalKeys":1,"Block":1,"Trial":53,"Robot":1,"Valence":"Win","Action":"Go","Sham":1,"Color":"yellow","trial_type":"pit-trial","trial_index":68,"time_elapsed":356188,"internal_node_id":"0.0-57.0","task_version":"test-retest-t3"},{"Rune":"rune_05_ior","Hex":"#3366ff99","Correct":32,"Choice":32,"RT":356.1600000030012,"Accuracy":1,"Outcome":"-1","Keys":[1856.855000005453],"TotalKeys":1,"Block":1,"Trial":54,"Robot":3,"Valence":"Lose","Action":"Go","Sham":0,"Color":"blue","trial_type":"pit-trial","trial_index":69,"time_elapsed":359053,"internal_node_id":"0.0-58.0","task_version":"test-retest-t3"},{"Rune":"rune_05_tiwaz","Hex":"#ffcc3399","Correct":-1,"Choice":-1,"RT":-1,"Accuracy":1,"Outcome":"+10","Keys":[],"TotalKeys":0,"Block":1,"Trial":55,"Robot":2,"Valence":"Win","Action":"No-Go","Sham":0,"Color":"yellow","trial_type":"pit-trial","trial_index":70,"time_elapsed":363060,"internal_node_id":"0.0-59.0","task_version":"test-retest-t3"},{"Rune":"rune_05_gebo","Hex":"#3366ff99","Correct":-1,"Choice":-1,"RT":-1,"Accuracy":1,"Outcome":"-1","Keys":[],"TotalKeys":0,"Block":1,"Trial":56,"Robot":4,"Valence":"Lose","Action":"No-Go","Sham":0,"Color":"blue","trial_type":"pit-trial","trial_index":71,"time_elapsed":367063,"internal_node_id":"0.0-60.0","task_version":"test-retest-t3"},{"Rune":"rune_05_ior","Hex":"#3366ff99","Correct":32,"Choice":32,"RT":388.96999999997206,"Accuracy":1,"Outcome":"-10","Keys":[1889.3600000010338],"TotalKeys":1,"Block":1,"Trial":57,"Robot":3,"Valence":"Lose","Action":"Go","Sham":1,"Color":"blue","trial_type":"pit-trial","trial_index":72,"time_elapsed":369957,"internal_node_id":"0.0-61.0","task_version":"test-retest-t3"},{"Rune":"rune_05_tiwaz","Hex":"#ffcc3399","Correct":-1,"Choice":-1,"RT":-1,"Accuracy":1,"Outcome":"+1","Keys":[],"TotalKeys":0,"Block":1,"Trial":58,"Robot":2,"Valence":"Win","Action":"No-Go","Sham":1,"Color":"yellow","trial_type":"pit-trial","trial_index":73,"time_elapsed":373961,"internal_node_id":"0.0-62.0","task_version":"test-retest-t3"},{"Rune":"rune_05_jeran","Hex":"#ffcc3399","Correct":32,"Choice":32,"RT":420.7049999968149,"Accuracy":1,"Outcome":"+10","Keys":[1921.6449999948964],"TotalKeys":1,"Block":1,"Trial":59,"Robot":1,"Valence":"Win","Action":"Go","Sham":0,"Color":"yellow","trial_type":"pit-trial","trial_index":74,"time_elapsed":376886,"internal_node_id":"0.0-63.0","task_version":"test-retest-t3"},{"Rune":"rune_05_gebo","Hex":"#3366ff99","Correct":-1,"Choice":-1,"RT":-1,"Accuracy":1,"Outcome":"-1","Keys":[],"TotalKeys":0,"Block":1,"Trial":60,"Robot":4,"Valence":"Lose","Action":"No-Go","Sham":0,"Color":"blue","trial_type":"pit-trial","trial_index":75,"time_elapsed":380889,"internal_node_id":"0.0-64.0","task_version":"test-retest-t3"},{"value":false,"trial_type":"call-function","trial_index":76,"time_elapsed":380894,"internal_node_id":"0.0-65.0","task_version":"test-retest-t3"},{"view_history":"[{\"page_index\":0,\"viewing_time\":8795.124999996915},{\"page_index\":1,\"viewing_time\":1684.625000001688}]","rt":10480.029999998806,"trial_type":"pit-instructions","trial_index":77,"time_elapsed":391375,"internal_node_id":"0.0-66.0","task_version":"test-retest-t3"},{"Rune":"rune_05_tiwaz","Hex":"#ffcc3399","Correct":-1,"Choice":-1,"RT":-1,"Accuracy":1,"Outcome":"+10","Keys":[],"TotalKeys":0,"Block":1,"Trial":61,"Robot":2,"Valence":"Win","Action":"No-Go","Sham":0,"Color":"yellow","trial_type":"pit-trial","trial_index":78,"time_elapsed":395380,"internal_node_id":"0.0-67.0","task_version":"test-retest-t3"},{"Rune":"rune_05_ior","Hex":"#3366ff99","Correct":32,"Choice":32,"RT":430.2499999976135,"Accuracy":1,"Outcome":"-1","Keys":[1931.0049999985495],"TotalKeys":1,"Block":1,"Trial":62,"Robot":3,"Valence":"Lose","Action":"Go","Sham":0,"Color":"blue","trial_type":"pit-trial","trial_index":79,"time_elapsed":398315,"internal_node_id":"0.0-68.0","task_version":"test-retest-t3"},{"Rune":"rune_05_gebo","Hex":"#3366ff99","Correct":-1,"Choice":-1,"RT":-1,"Accuracy":1,"Outcome":"-1","Keys":[],"TotalKeys":0,"Block":1,"Trial":63,"Robot":4,"Valence":"Lose","Action":"No-Go","Sham":0,"Color":"blue","trial_type":"pit-trial","trial_index":80,"time_elapsed":402321,"internal_node_id":"0.0-69.0","task_version":"test-retest-t3"},{"Rune":"rune_05_jeran","Hex":"#ffcc3399","Correct":32,"Choice":32,"RT":355.4999999978463,"Accuracy":1,"Outcome":"+10","Keys":[1856.100000004517],"TotalKeys":1,"Block":1,"Trial":64,"Robot":1,"Valence":"Win","Action":"Go","Sham":0,"Color":"yellow","trial_type":"pit-trial","trial_index":81,"time_elapsed":405180,"internal_node_id":"0.0-70.0","task_version":"test-retest-t3"},{"Rune":"rune_05_gebo","Hex":"#3366ff99","Correct":-1,"Choice":-1,"RT":-1,"Accuracy":1,"Outcome":"-1","Keys":[],"TotalKeys":0,"Block":1,"Trial":65,"Robot":4,"Valence":"Lose","Action":"No-Go","Sham":0,"Color":"blue","trial_type":"pit-trial","trial_index":82,"time_elapsed":409183,"internal_node_id":"0.0-71.0","task_version":"test-retest-t3"},{"Rune":"rune_05_tiwaz","Hex":"#ffcc3399","Correct":-1,"Choice":-1,"RT":-1,"Accuracy":1,"Outcome":"+10","Keys":[],"TotalKeys":0,"Block":1,"Trial":66,"Robot":2,"Valence":"Win","Action":"No-Go","Sham":0,"Color":"yellow","trial_type":"pit-trial","trial_index":83,"time_elapsed":413189,"internal_node_id":"0.0-72.0","task_version":"test-retest-t3"},{"Rune":"rune_05_jeran","Hex":"#ffcc3399","Correct":32,"Choice":32,"RT":366.22499999793945,"Accuracy":1,"Outcome":"+10","Keys":[1866.809999999532],"TotalKeys":1,"Block":1,"Trial":67,"Robot":1,"Valence":"Win","Action":"Go","Sham":0,"Color":"yellow","trial_type":"pit-trial","trial_index":84,"time_elapsed":416061,"internal_node_id":"0.0-73.0","task_version":"test-retest-t3"},{"Rune":"rune_05_ior","Hex":"#3366ff99","Correct":32,"Choice":32,"RT":380.7050000032177,"Accuracy":1,"Outcome":"-1","Keys":[1880.9649999966496],"TotalKeys":1,"Block":1,"Trial":68,"Robot":3,"Valence":"Lose","Action":"Go","Sham":0,"Color":"blue","trial_type":"pit-trial","trial_index":85,"time_elapsed":418947,"internal_node_id":"0.0-74.0","task_version":"test-retest-t3"},{"Rune":"rune_05_gebo","Hex":"#3366ff99","Correct":-1,"Choice":-1,"RT":-1,"Accuracy":1,"Outcome":"-1","Keys":[],"TotalKeys":0,"Block":1,"Trial":69,"Robot":4,"Valence":"Lose","Action":"No-Go","Sham":0,"Color":"blue","trial_type":"pit-trial","trial_index":86,"time_elapsed":422950,"internal_node_id":"0.0-75.0","task_version":"test-retest-t3"},{"Rune":"rune_05_ior","Hex":"#3366ff99","Correct":32,"Choice":32,"RT":372.89000000600936,"Accuracy":1,"Outcome":"-1","Keys":[1873.5149999993155],"TotalKeys":1,"Block":1,"Trial":70,"Robot":3,"Valence":"Lose","Action":"Go","Sham":0,"Color":"blue","trial_type":"pit-trial","trial_index":87,"time_elapsed":425829,"internal_node_id":"0.0-76.0","task_version":"test-retest-t3"},{"Rune":"rune_05_tiwaz","Hex":"#ffcc3399","Correct":-1,"Choice":-1,"RT":-1,"Accuracy":1,"Outcome":"+1","Keys":[],"TotalKeys":0,"Block":1,"Trial":71,"Robot":2,"Valence":"Win","Action":"No-Go","Sham":1,"Color":"yellow","trial_type":"pit-trial","trial_index":88,"time_elapsed":429834,"internal_node_id":"0.0-77.0","task_version":"test-retest-t3"},{"Rune":"rune_05_jeran","Hex":"#ffcc3399","Correct":32,"Choice":32,"RT":364.4800000038231,"Accuracy":1,"Outcome":"+10","Keys":[1864.6050000024843],"TotalKeys":1,"Block":1,"Trial":72,"Robot":1,"Valence":"Win","Action":"Go","Sham":0,"Color":"yellow","trial_type":"pit-trial","trial_index":89,"time_elapsed":432702,"internal_node_id":"0.0-78.0","task_version":"test-retest-t3"},{"Rune":"rune_05_jeran","Hex":"#ffcc3399","Correct":32,"Choice":32,"RT":348.599999997532,"Accuracy":1,"Outcome":"+1","Keys":[1850.445000003674],"TotalKeys":1,"Block":1,"Trial":73,"Robot":1,"Valence":"Win","Action":"Go","Sham":1,"Color":"yellow","trial_type":"pit-trial","trial_index":90,"time_elapsed":435557,"internal_node_id":"0.0-79.0","task_version":"test-retest-t3"},{"Rune":"rune_05_ior","Hex":"#3366ff99","Correct":32,"Choice":32,"RT":359.2400000052294,"Accuracy":1,"Outcome":"-1","Keys":[1859.3199999959324],"TotalKeys":1,"Block":1,"Trial":74,"Robot":3,"Valence":"Lose","Action":"Go","Sham":0,"Color":"blue","trial_type":"pit-trial","trial_index":91,"time_elapsed":438421,"internal_node_id":"0.0-80.0","task_version":"test-retest-t3"},{"Rune":"rune_05_gebo","Hex":"#3366ff99","Correct":-1,"Choice":-1,"RT":-1,"Accuracy":1,"Outcome":"-1","Keys":[],"TotalKeys":0,"Block":1,"Trial":75,"Robot":4,"Valence":"Lose","Action":"No-Go","Sham":0,"Color":"blue","trial_type":"pit-trial","trial_index":92,"time_elapsed":442427,"internal_node_id":"0.0-81.0","task_version":"test-retest-t3"},{"Rune":"rune_05_tiwaz","Hex":"#ffcc3399","Correct":-1,"Choice":-1,"RT":-1,"Accuracy":1,"Outcome":"+10","Keys":[],"TotalKeys":0,"Block":1,"Trial":76,"Robot":2,"Valence":"Win","Action":"No-Go","Sham":0,"Color":"yellow","trial_type":"pit-trial","trial_index":93,"time_elapsed":446433,"internal_node_id":"0.0-82.0","task_version":"test-retest-t3"},{"Rune":"rune_05_tiwaz","Hex":"#ffcc3399","Correct":-1,"Choice":-1,"RT":-1,"Accuracy":1,"Outcome":"+10","Keys":[],"TotalKeys":0,"Block":1,"Trial":77,"Robot":2,"Valence":"Win","Action":"No-Go","Sham":0,"Color":"yellow","trial_type":"pit-trial","trial_index":94,"time_elapsed":450438,"internal_node_id":"0.0-83.0","task_version":"test-retest-t3"},{"Rune":"rune_05_gebo","Hex":"#3366ff99","Correct":-1,"Choice":-1,"RT":-1,"Accuracy":1,"Outcome":"-10","Keys":[],"TotalKeys":0,"Block":1,"Trial":78,"Robot":4,"Valence":"Lose","Action":"No-Go","Sham":1,"Color":"blue","trial_type":"pit-trial","trial_index":95,"time_elapsed":454445,"internal_node_id":"0.0-84.0","task_version":"test-retest-t3"},{"Rune":"rune_05_ior","Hex":"#3366ff99","Correct":32,"Choice":32,"RT":343.894999998156,"Accuracy":1,"Outcome":"-10","Keys":[1844.3400000032852],"TotalKeys":1,"Block":1,"Trial":79,"Robot":3,"Valence":"Lose","Action":"Go","Sham":1,"Color":"blue","trial_type":"pit-trial","trial_index":96,"time_elapsed":457295,"internal_node_id":"0.0-85.0","task_version":"test-retest-t3"},{"Rune":"rune_05_jeran","Hex":"#ffcc3399","Correct":32,"Choice":32,"RT":320.88999999541556,"Accuracy":1,"Outcome":"+10","Keys":[1822.3099999959231],"TotalKeys":1,"Block":1,"Trial":80,"Robot":1,"Valence":"Win","Action":"Go","Sham":0,"Color":"yellow","trial_type":"pit-trial","trial_index":97,"time_elapsed":460126,"internal_node_id":"0.0-86.0","task_version":"test-retest-t3"},{"Rune":"rune_05_ior","Hex":"#3366ff99","Correct":32,"Choice":32,"RT":397.0499999995809,"Accuracy":1,"Outcome":"-1","Keys":[1897.819999998319],"TotalKeys":1,"Block":1,"Trial":81,"Robot":3,"Valence":"Lose","Action":"Go","Sham":0,"Color":"blue","trial_type":"pit-trial","trial_index":98,"time_elapsed":463028,"internal_node_id":"0.0-87.0","task_version":"test-retest-t3"},{"Rune":"rune_05_tiwaz","Hex":"#ffcc3399","Correct":-1,"Choice":-1,"RT":-1,"Accuracy":1,"Outcome":"+10","Keys":[],"TotalKeys":0,"Block":1,"Trial":82,"Robot":2,"Valence":"Win","Action":"No-Go","Sham":0,"Color":"yellow","trial_type":"pit-trial","trial_index":99,"time_elapsed":467032,"internal_node_id":"0.0-88.0","task_version":"test-retest-t3"},{"Rune":"rune_05_jeran","Hex":"#ffcc3399","Correct":32,"Choice":32,"RT":363.2050000014715,"Accuracy":1,"Outcome":"+1","Keys":[1864.6600000065519],"TotalKeys":1,"Block":1,"Trial":83,"Robot":1,"Valence":"Win","Action":"Go","Sham":1,"Color":"yellow","trial_type":"pit-trial","trial_index":100,"time_elapsed":469901,"internal_node_id":"0.0-89.0","task_version":"test-retest-t3"},{"Rune":"rune_05_gebo","Hex":"#3366ff99","Correct":-1,"Choice":-1,"RT":-1,"Accuracy":1,"Outcome":"-10","Keys":[],"TotalKeys":0,"Block":1,"Trial":84,"Robot":4,"Valence":"Lose","Action":"No-Go","Sham":1,"Color":"blue","trial_type":"pit-trial","trial_index":101,"time_elapsed":473905,"internal_node_id":"0.0-90.0","task_version":"test-retest-t3"},{"Rune":"rune_05_tiwaz","Hex":"#ffcc3399","Correct":-1,"Choice":-1,"RT":-1,"Accuracy":1,"Outcome":"+1","Keys":[],"TotalKeys":0,"Block":1,"Trial":85,"Robot":2,"Valence":"Win","Action":"No-Go","Sham":1,"Color":"yellow","trial_type":"pit-trial","trial_index":102,"time_elapsed":477914,"internal_node_id":"0.0-91.0","task_version":"test-retest-t3"},{"Rune":"rune_05_gebo","Hex":"#3366ff99","Correct":-1,"Choice":-1,"RT":-1,"Accuracy":1,"Outcome":"-1","Keys":[],"TotalKeys":0,"Block":1,"Trial":86,"Robot":4,"Valence":"Lose","Action":"No-Go","Sham":0,"Color":"blue","trial_type":"pit-trial","trial_index":103,"time_elapsed":481921,"internal_node_id":"0.0-92.0","task_version":"test-retest-t3"},{"Rune":"rune_05_ior","Hex":"#3366ff99","Correct":32,"Choice":32,"RT":378.7800000063726,"Accuracy":1,"Outcome":"-1","Keys":[1879.9849999995786],"TotalKeys":1,"Block":1,"Trial":87,"Robot":3,"Valence":"Lose","Action":"Go","Sham":0,"Color":"blue","trial_type":"pit-trial","trial_index":104,"time_elapsed":484806,"internal_node_id":"0.0-93.0","task_version":"test-retest-t3"},{"Rune":"rune_05_jeran","Hex":"#ffcc3399","Correct":32,"Choice":32,"RT":326.51500000065425,"Accuracy":1,"Outcome":"+10","Keys":[1827.0550000015646],"TotalKeys":1,"Block":1,"Trial":88,"Robot":1,"Valence":"Win","Action":"Go","Sham":0,"Color":"yellow","trial_type":"pit-trial","trial_index":105,"time_elapsed":487637,"internal_node_id":"0.0-94.0","task_version":"test-retest-t3"},{"Rune":"rune_05_tiwaz","Hex":"#ffcc3399","Correct":-1,"Choice":-1,"RT":-1,"Accuracy":1,"Outcome":"+10","Keys":[],"TotalKeys":0,"Block":1,"Trial":89,"Robot":2,"Valence":"Win","Action":"No-Go","Sham":0,"Color":"yellow","trial_type":"pit-trial","trial_index":106,"time_elapsed":491643,"internal_node_id":"0.0-95.0","task_version":"test-retest-t3"},{"Rune":"rune_05_ior","Hex":"#3366ff99","Correct":32,"Choice":32,"RT":353.1199999997625,"Accuracy":1,"Outcome":"-1","Keys":[1853.5999999949127],"TotalKeys":1,"Block":1,"Trial":90,"Robot":3,"Valence":"Lose","Action":"Go","Sham":0,"Color":"blue","trial_type":"pit-trial","trial_index":107,"time_elapsed":494500,"internal_node_id":"0.0-96.0","task_version":"test-retest-t3"},{"Rune":"rune_05_jeran","Hex":"#ffcc3399","Correct":32,"Choice":32,"RT":410.1050000026589,"Accuracy":1,"Outcome":"+10","Keys":[1911.1750000010943],"TotalKeys":1,"Block":1,"Trial":91,"Robot":1,"Valence":"Win","Action":"Go","Sham":0,"Color":"yellow","trial_type":"pit-trial","trial_index":108,"time_elapsed":497414,"internal_node_id":"0.0-97.0","task_version":"test-retest-t3"},{"Rune":"rune_05_gebo","Hex":"#3366ff99","Correct":-1,"Choice":-1,"RT":-1,"Accuracy":1,"Outcome":"-1","Keys":[],"TotalKeys":0,"Block":1,"Trial":92,"Robot":4,"Valence":"Lose","Action":"No-Go","Sham":0,"Color":"blue","trial_type":"pit-trial","trial_index":109,"time_elapsed":501419,"internal_node_id":"0.0-98.0","task_version":"test-retest-t3"},{"Rune":"rune_05_tiwaz","Hex":"#ffcc3399","Correct":-1,"Choice":-1,"RT":-1,"Accuracy":1,"Outcome":"+10","Keys":[],"TotalKeys":0,"Block":1,"Trial":93,"Robot":2,"Valence":"Win","Action":"No-Go","Sham":0,"Color":"yellow","trial_type":"pit-trial","trial_index":110,"time_elapsed":505423,"internal_node_id":"0.0-99.0","task_version":"test-retest-t3"},{"Rune":"rune_05_gebo","Hex":"#3366ff99","Correct":-1,"Choice":-1,"RT":-1,"Accuracy":1,"Outcome":"-1","Keys":[],"TotalKeys":0,"Block":1,"Trial":94,"Robot":4,"Valence":"Lose","Action":"No-Go","Sham":0,"Color":"blue","trial_type":"pit-trial","trial_index":111,"time_elapsed":509429,"internal_node_id":"0.0-100.0","task_version":"test-retest-t3"},{"Rune":"rune_05_jeran","Hex":"#ffcc3399","Correct":32,"Choice":32,"RT":463.40000000054715,"Accuracy":1,"Outcome":"+10","Keys":[1963.835000002291],"TotalKeys":1,"Block":1,"Trial":95,"Robot":1,"Valence":"Win","Action":"Go","Sham":0,"Color":"yellow","trial_type":"pit-trial","trial_index":112,"time_elapsed":512398,"internal_node_id":"0.0-101.0","task_version":"test-retest-t3"},{"Rune":"rune_05_ior","Hex":"#3366ff99","Correct":32,"Choice":32,"RT":316.6099999943981,"Accuracy":1,"Outcome":"-1","Keys":[1817.5150000024587],"TotalKeys":1,"Block":1,"Trial":96,"Robot":3,"Valence":"Lose","Action":"Go","Sham":0,"Color":"blue","trial_type":"pit-trial","trial_index":113,"time_elapsed":515220,"internal_node_id":"0.0-102.0","task_version":"test-retest-t3"},{"Rune":"rune_05_jeran","Hex":"#ffcc3399","Correct":32,"Choice":32,"RT":368.45999999786727,"Accuracy":1,"Outcome":"+10","Keys":[1869.4399999949383],"TotalKeys":1,"Block":1,"Trial":97,"Robot":1,"Valence":"Win","Action":"Go","Sham":0,"Color":"yellow","trial_type":"pit-trial","trial_index":114,"time_elapsed":518092,"internal_node_id":"0.0-103.0","task_version":"test-retest-t3"},{"Rune":"rune_05_gebo","Hex":"#3366ff99","Correct":-1,"Choice":-1,"RT":-1,"Accuracy":1,"Outcome":"-1","Keys":[],"TotalKeys":0,"Block":1,"Trial":98,"Robot":4,"Valence":"Lose","Action":"No-Go","Sham":0,"Color":"blue","trial_type":"pit-trial","trial_index":115,"time_elapsed":522095,"internal_node_id":"0.0-104.0","task_version":"test-retest-t3"},{"Rune":"rune_05_tiwaz","Hex":"#ffcc3399","Correct":-1,"Choice":-1,"RT":-1,"Accuracy":1,"Outcome":"+10","Keys":[],"TotalKeys":0,"Block":1,"Trial":99,"Robot":2,"Valence":"Win","Action":"No-Go","Sham":0,"Color":"yellow","trial_type":"pit-trial","trial_index":116,"time_elapsed":526098,"internal_node_id":"0.0-105.0","task_version":"test-retest-t3"},{"Rune":"rune_05_ior","Hex":"#3366ff99","Correct":32,"Choice":32,"RT":307.75500000163447,"Accuracy":1,"Outcome":"-10","Keys":[1808.3699999988312],"TotalKeys":1,"Block":1,"Trial":100,"Robot":3,"Valence":"Lose","Action":"Go","Sham":1,"Color":"blue","trial_type":"pit-trial","trial_index":117,"time_elapsed":528909,"internal_node_id":"0.0-106.0","task_version":"test-retest-t3"},{"Rune":"rune_05_jeran","Hex":"#ffcc3399","Correct":32,"Choice":32,"RT":319.2449999988312,"Accuracy":1,"Outcome":"+10","Keys":[1820.0149999975692],"TotalKeys":1,"Block":1,"Trial":101,"Robot":1,"Valence":"Win","Action":"Go","Sham":0,"Color":"yellow","trial_type":"pit-trial","trial_index":118,"time_elapsed":531732,"internal_node_id":"0.0-107.0","task_version":"test-retest-t3"},{"Rune":"rune_05_tiwaz","Hex":"#ffcc3399","Correct":-1,"Choice":-1,"RT":-1,"Accuracy":1,"Outcome":"+1","Keys":[],"TotalKeys":0,"Block":1,"Trial":102,"Robot":2,"Valence":"Win","Action":"No-Go","Sham":1,"Color":"yellow","trial_type":"pit-trial","trial_index":119,"time_elapsed":535737,"internal_node_id":"0.0-108.0","task_version":"test-retest-t3"},{"Rune":"rune_05_ior","Hex":"#3366ff99","Correct":32,"Choice":32,"RT":339.94499999971595,"Accuracy":1,"Outcome":"-10","Keys":[1841.4549999943702],"TotalKeys":1,"Block":1,"Trial":103,"Robot":3,"Valence":"Lose","Action":"Go","Sham":1,"Color":"blue","trial_type":"pit-trial","trial_index":120,"time_elapsed":538581,"internal_node_id":"0.0-109.0","task_version":"test-retest-t3"},{"Rune":"rune_05_gebo","Hex":"#3366ff99","Correct":-1,"Choice":-1,"RT":-1,"Accuracy":1,"Outcome":"-10","Keys":[],"TotalKeys":0,"Block":1,"Trial":104,"Robot":4,"Valence":"Lose","Action":"No-Go","Sham":1,"Color":"blue","trial_type":"pit-trial","trial_index":121,"time_elapsed":542586,"internal_node_id":"0.0-110.0","task_version":"test-retest-t3"},{"Rune":"rune_05_tiwaz","Hex":"#ffcc3399","Correct":-1,"Choice":-1,"RT":-1,"Accuracy":1,"Outcome":"+10","Keys":[],"TotalKeys":0,"Block":1,"Trial":105,"Robot":2,"Valence":"Win","Action":"No-Go","Sham":0,"Color":"yellow","trial_type":"pit-trial","trial_index":122,"time_elapsed":546592,"internal_node_id":"0.0-111.0","task_version":"test-retest-t3"},{"Rune":"rune_05_jeran","Hex":"#ffcc3399","Correct":32,"Choice":32,"RT":379.3000000005122,"Accuracy":1,"Outcome":"+1","Keys":[1879.6350000048988],"TotalKeys":1,"Block":1,"Trial":106,"Robot":1,"Valence":"Win","Action":"Go","Sham":1,"Color":"yellow","trial_type":"pit-trial","trial_index":123,"time_elapsed":549476,"internal_node_id":"0.0-112.0","task_version":"test-retest-t3"},{"Rune":"rune_05_ior","Hex":"#3366ff99","Correct":32,"Choice":32,"RT":328.84000000194646,"Accuracy":1,"Outcome":"-1","Keys":[1828.8850000025705],"TotalKeys":1,"Block":1,"Trial":107,"Robot":3,"Valence":"Lose","Action":"Go","Sham":0,"Color":"blue","trial_type":"pit-trial","trial_index":124,"time_elapsed":552310,"internal_node_id":"0.0-113.0","task_version":"test-retest-t3"},{"Rune":"rune_05_gebo","Hex":"#3366ff99","Correct":-1,"Choice":-1,"RT":-1,"Accuracy":1,"Outcome":"-1","Keys":[],"TotalKeys":0,"Block":1,"Trial":108,"Robot":4,"Valence":"Lose","Action":"No-Go","Sham":0,"Color":"blue","trial_type":"pit-trial","trial_index":125,"time_elapsed":556315,"internal_node_id":"0.0-114.0","task_version":"test-retest-t3"},{"Rune":"rune_05_tiwaz","Hex":"#ffcc3399","Correct":-1,"Choice":-1,"RT":-1,"Accuracy":1,"Outcome":"+10","Keys":[],"TotalKeys":0,"Block":1,"Trial":109,"Robot":2,"Valence":"Win","Action":"No-Go","Sham":0,"Color":"yellow","trial_type":"pit-trial","trial_index":126,"time_elapsed":560320,"internal_node_id":"0.0-115.0","task_version":"test-retest-t3"},{"Rune":"rune_05_jeran","Hex":"#ffcc3399","Correct":32,"Choice":32,"RT":380.4999999993015,"Accuracy":1,"Outcome":"+10","Keys":[1880.8300000019372],"TotalKeys":1,"Block":1,"Trial":110,"Robot":1,"Valence":"Win","Action":"Go","Sham":0,"Color":"yellow","trial_type":"pit-trial","trial_index":127,"time_elapsed":563205,"internal_node_id":"0.0-116.0","task_version":"test-retest-t3"},{"Rune":"rune_05_gebo","Hex":"#3366ff99","Correct":-1,"Choice":-1,"RT":-1,"Accuracy":1,"Outcome":"-1","Keys":[],"TotalKeys":0,"Block":1,"Trial":111,"Robot":4,"Valence":"Lose","Action":"No-Go","Sham":0,"Color":"blue","trial_type":"pit-trial","trial_index":128,"time_elapsed":567211,"internal_node_id":"0.0-117.0","task_version":"test-retest-t3"},{"Rune":"rune_05_ior","Hex":"#3366ff99","Correct":32,"Choice":32,"RT":425.81000000052154,"Accuracy":1,"Outcome":"-1","Keys":[1927.289999999688],"TotalKeys":1,"Block":1,"Trial":112,"Robot":3,"Valence":"Lose","Action":"Go","Sham":0,"Color":"blue","trial_type":"pit-trial","trial_index":129,"time_elapsed":570142,"internal_node_id":"0.0-118.0","task_version":"test-retest-t3"},{"Rune":"rune_05_tiwaz","Hex":"#ffcc3399","Correct":-1,"Choice":-1,"RT":-1,"Accuracy":1,"Outcome":"+10","Keys":[],"TotalKeys":0,"Block":1,"Trial":113,"Robot":2,"Valence":"Win","Action":"No-Go","Sham":0,"Color":"yellow","trial_type":"pit-trial","trial_index":130,"time_elapsed":574147,"internal_node_id":"0.0-119.0","task_version":"test-retest-t3"},{"Rune":"rune_05_gebo","Hex":"#3366ff99","Correct":-1,"Choice":-1,"RT":-1,"Accuracy":1,"Outcome":"-1","Keys":[],"TotalKeys":0,"Block":1,"Trial":114,"Robot":4,"Valence":"Lose","Action":"No-Go","Sham":0,"Color":"blue","trial_type":"pit-trial","trial_index":131,"time_elapsed":578154,"internal_node_id":"0.0-120.0","task_version":"test-retest-t3"},{"Rune":"rune_05_ior","Hex":"#3366ff99","Correct":32,"Choice":32,"RT":353.75000000197906,"Accuracy":1,"Outcome":"-1","Keys":[1854.715000001248],"TotalKeys":1,"Block":1,"Trial":115,"Robot":3,"Valence":"Lose","Action":"Go","Sham":0,"Color":"blue","trial_type":"pit-trial","trial_index":132,"time_elapsed":581012,"internal_node_id":"0.0-121.0","task_version":"test-retest-t3"},{"Rune":"rune_05_jeran","Hex":"#ffcc3399","Correct":32,"Choice":32,"RT":375.4999999946449,"Accuracy":1,"Outcome":"+10","Keys":[1875.6700000013225],"TotalKeys":1,"Block":1,"Trial":116,"Robot":1,"Valence":"Win","Action":"Go","Sham":0,"Color":"yellow","trial_type":"pit-trial","trial_index":133,"time_elapsed":583893,"internal_node_id":"0.0-122.0","task_version":"test-retest-t3"},{"Rune":"rune_05_gebo","Hex":"#3366ff99","Correct":-1,"Choice":-1,"RT":-1,"Accuracy":1,"Outcome":"-1","Keys":[],"TotalKeys":0,"Block":1,"Trial":117,"Robot":4,"Valence":"Lose","Action":"No-Go","Sham":0,"Color":"blue","trial_type":"pit-trial","trial_index":134,"time_elapsed":587899,"internal_node_id":"0.0-123.0","task_version":"test-retest-t3"},{"Rune":"rune_05_ior","Hex":"#3366ff99","Correct":32,"Choice":32,"RT":294.7050000001909,"Accuracy":1,"Outcome":"-1","Keys":[1796.8050000055227],"TotalKeys":1,"Block":1,"Trial":118,"Robot":3,"Valence":"Lose","Action":"Go","Sham":0,"Color":"blue","trial_type":"pit-trial","trial_index":135,"time_elapsed":590700,"internal_node_id":"0.0-124.0","task_version":"test-retest-t3"},{"Rune":"rune_05_jeran","Hex":"#ffcc3399","Correct":32,"Choice":32,"RT":327.8649999992922,"Accuracy":1,"Outcome":"+10","Keys":[1828.7749999944353],"TotalKeys":1,"Block":1,"Trial":119,"Robot":1,"Valence":"Win","Action":"Go","Sham":0,"Color":"yellow","trial_type":"pit-trial","trial_index":136,"time_elapsed":593533,"internal_node_id":"0.0-125.0","task_version":"test-retest-t3"},{"Rune":"rune_05_tiwaz","Hex":"#ffcc3399","Correct":-1,"Choice":-1,"RT":-1,"Accuracy":1,"Outcome":"+10","Keys":[],"TotalKeys":0,"Block":1,"Trial":120,"Robot":2,"Valence":"Win","Action":"No-Go","Sham":0,"Color":"yellow","trial_type":"pit-trial","trial_index":137,"time_elapsed":597539,"internal_node_id":"0.0-126.0","task_version":"test-retest-t3"},{"view_history":"[{\"page_index\":0,\"viewing_time\":63261.37000000011},{\"page_index\":1,\"viewing_time\":1370.905000003404},{\"page_index\":2,\"viewing_time\":1466.2899999966612}]","rt":66099.00000000186,"trial_type":"pit-instructions","trial_index":138,"time_elapsed":663639,"internal_node_id":"0.0-127.0","task_version":"test-retest-t3"},{"Rune":"rune_06_ehwaz","Hex":"#ffcc3399","Correct":32,"Choice":32,"RT":524.1700000042329,"Accuracy":1,"Outcome":"+1","Keys":[2024.8949999951292],"TotalKeys":1,"Block":2,"Trial":121,"Robot":1,"Valence":"Win","Action":"Go","Sham":1,"Color":"yellow","trial_type":"pit-trial","trial_index":139,"time_elapsed":666669,"internal_node_id":"0.0-128.0","task_version":"test-retest-t3"},{"Rune":"rune_06_cweord","Hex":"#3366ff99","Correct":-1,"Choice":32,"RT":549.6400000046706,"Accuracy":0,"Outcome":"-10","Keys":[2049.995000001276],"TotalKeys":1,"Block":2,"Trial":122,"Robot":4,"Valence":"Lose","Action":"No-Go","Sham":0,"Color":"blue","trial_type":"pit-trial","trial_index":140,"time_elapsed":669723,"internal_node_id":"0.0-129.0","task_version":"test-retest-t3"},{"Rune":"rune_06_berkanan","Hex":"#3366ff99","Correct":32,"Choice":32,"RT":626.0699999984354,"Accuracy":1,"Outcome":"-1","Keys":[2127.034999997588],"TotalKeys":1,"Block":2,"Trial":123,"Robot":3,"Valence":"Lose","Action":"Go","Sham":0,"Color":"blue","trial_type":"pit-trial","trial_index":141,"time_elapsed":672853,"internal_node_id":"0.0-130.0","task_version":"test-retest-t3"},{"Rune":"rune_06_ansuz","Hex":"#ffcc3399","Correct":-1,"Choice":-1,"RT":-1,"Accuracy":1,"Outcome":"+1","Keys":[],"TotalKeys":0,"Block":2,"Trial":124,"Robot":2,"Valence":"Win","Action":"No-Go","Sham":1,"Color":"yellow","trial_type":"pit-trial","trial_index":142,"time_elapsed":676858,"internal_node_id":"0.0-131.0","task_version":"test-retest-t3"},{"Rune":"rune_06_ansuz","Hex":"#ffcc3399","Correct":-1,"Choice":32,"RT":521.6949999957578,"Accuracy":0,"Outcome":"+1","Keys":[2023.4599999967031],"TotalKeys":1,"Block":2,"Trial":125,"Robot":2,"Valence":"Win","Action":"No-Go","Sham":0,"Color":"yellow","trial_type":"pit-trial","trial_index":143,"time_elapsed":679885,"internal_node_id":"0.0-132.0","task_version":"test-retest-t3"},{"Rune":"rune_06_cweord","Hex":"#3366ff99","Correct":-1,"Choice":-1,"RT":-1,"Accuracy":1,"Outcome":"-10","Keys":[],"TotalKeys":0,"Block":2,"Trial":126,"Robot":4,"Valence":"Lose","Action":"No-Go","Sham":1,"Color":"blue","trial_type":"pit-trial","trial_index":144,"time_elapsed":683888,"internal_node_id":"0.0-133.0","task_version":"test-retest-t3"},{"Rune":"rune_06_berkanan","Hex":"#3366ff99","Correct":32,"Choice":32,"RT":507.7449999952223,"Accuracy":1,"Outcome":"-1","Keys":[2008.430000001681],"TotalKeys":1,"Block":2,"Trial":127,"Robot":3,"Valence":"Lose","Action":"Go","Sham":0,"Color":"blue","trial_type":"pit-trial","trial_index":145,"time_elapsed":686902,"internal_node_id":"0.0-134.0","task_version":"test-retest-t3"},{"Rune":"rune_06_ehwaz","Hex":"#ffcc3399","Correct":32,"Choice":-1,"RT":-1,"Accuracy":0,"Outcome":"+1","Keys":[],"TotalKeys":0,"Block":2,"Trial":128,"Robot":1,"Valence":"Win","Action":"Go","Sham":0,"Color":"yellow","trial_type":"pit-trial","trial_index":146,"time_elapsed":690907,"internal_node_id":"0.0-135.0","task_version":"test-retest-t3"},{"Rune":"rune_06_ehwaz","Hex":"#ffcc3399","Correct":32,"Choice":32,"RT":480.85499999439344,"Accuracy":1,"Outcome":"+10","Keys":[1981.5799999996088],"TotalKeys":1,"Block":2,"Trial":129,"Robot":1,"Valence":"Win","Action":"Go","Sham":0,"Color":"yellow","trial_type":"pit-trial","trial_index":147,"time_elapsed":693893,"internal_node_id":"0.0-136.0","task_version":"test-retest-t3"},{"Rune":"rune_06_cweord","Hex":"#3366ff99","Correct":-1,"Choice":-1,"RT":-1,"Accuracy":1,"Outcome":"-1","Keys":[],"TotalKeys":0,"Block":2,"Trial":130,"Robot":4,"Valence":"Lose","Action":"No-Go","Sham":0,"Color":"blue","trial_type":"pit-trial","trial_index":148,"time_elapsed":697899,"internal_node_id":"0.0-137.0","task_version":"test-retest-t3"},{"Rune":"rune_06_ansuz","Hex":"#ffcc3399","Correct":-1,"Choice":-1,"RT":-1,"Accuracy":1,"Outcome":"+10","Keys":[],"TotalKeys":0,"Block":2,"Trial":131,"Robot":2,"Valence":"Win","Action":"No-Go","Sham":0,"Color":"yellow","trial_type":"pit-trial","trial_index":149,"time_elapsed":701903,"internal_node_id":"0.0-138.0","task_version":"test-retest-t3"},{"Rune":"rune_06_berkanan","Hex":"#3366ff99","Correct":32,"Choice":32,"RT":379.37999999849126,"Accuracy":1,"Outcome":"-10","Keys":[1880.3049999987707],"TotalKeys":1,"Block":2,"Trial":132,"Robot":3,"Valence":"Lose","Action":"Go","Sham":1,"Color":"blue","trial_type":"pit-trial","trial_index":150,"time_elapsed":704788,"internal_node_id":"0.0-139.0","task_version":"test-retest-t3"},{"Rune":"rune_06_cweord","Hex":"#3366ff99","Correct":-1,"Choice":-1,"RT":-1,"Accuracy":1,"Outcome":"-1","Keys":[],"TotalKeys":0,"Block":2,"Trial":133,"Robot":4,"Valence":"Lose","Action":"No-Go","Sham":0,"Color":"blue","trial_type":"pit-trial","trial_index":151,"time_elapsed":708793,"internal_node_id":"0.0-140.0","task_version":"test-retest-t3"},{"Rune":"rune_06_ansuz","Hex":"#ffcc3399","Correct":-1,"Choice":-1,"RT":-1,"Accuracy":1,"Outcome":"+10","Keys":[],"TotalKeys":0,"Block":2,"Trial":134,"Robot":2,"Valence":"Win","Action":"No-Go","Sham":0,"Color":"yellow","trial_type":"pit-trial","trial_index":152,"time_elapsed":712800,"internal_node_id":"0.0-141.0","task_version":"test-retest-t3"},{"Rune":"rune_06_berkanan","Hex":"#3366ff99","Correct":32,"Choice":32,"RT":395.9550000000745,"Accuracy":1,"Outcome":"-1","Keys":[1896.0699999951757],"TotalKeys":1,"Block":2,"Trial":135,"Robot":3,"Valence":"Lose","Action":"Go","Sham":0,"Color":"blue","trial_type":"pit-trial","trial_index":153,"time_elapsed":715700,"internal_node_id":"0.0-142.0","task_version":"test-retest-t3"},{"Rune":"rune_06_ehwaz","Hex":"#ffcc3399","Correct":32,"Choice":32,"RT":341.43000000040047,"Accuracy":1,"Outcome":"+10","Keys":[1842.344999997411],"TotalKeys":1,"Block":2,"Trial":136,"Robot":1,"Valence":"Win","Action":"Go","Sham":0,"Color":"yellow","trial_type":"pit-trial","trial_index":154,"time_elapsed":718548,"internal_node_id":"0.0-143.0","task_version":"test-retest-t3"},{"Rune":"rune_06_ehwaz","Hex":"#ffcc3399","Correct":32,"Choice":32,"RT":613.7999999992317,"Accuracy":1,"Outcome":"+10","Keys":[2114.699999998207],"TotalKeys":1,"Block":2,"Trial":137,"Robot":1,"Valence":"Win","Action":"Go","Sham":0,"Color":"yellow","trial_type":"pit-trial","trial_index":155,"time_elapsed":721668,"internal_node_id":"0.0-144.0","task_version":"test-retest-t3"},{"Rune":"rune_06_ansuz","Hex":"#ffcc3399","Correct":-1,"Choice":-1,"RT":-1,"Accuracy":1,"Outcome":"+10","Keys":[],"TotalKeys":0,"Block":2,"Trial":138,"Robot":2,"Valence":"Win","Action":"No-Go","Sham":0,"Color":"yellow","trial_type":"pit-trial","trial_index":156,"time_elapsed":725674,"internal_node_id":"0.0-145.0","task_version":"test-retest-t3"},{"Rune":"rune_06_berkanan","Hex":"#3366ff99","Correct":32,"Choice":32,"RT":249.48000000591855,"Accuracy":1,"Outcome":"-1","Keys":[1750.9849999988219],"TotalKeys":1,"Block":2,"Trial":139,"Robot":3,"Valence":"Lose","Action":"Go","Sham":0,"Color":"blue","trial_type":"pit-trial","trial_index":157,"time_elapsed":728430,"internal_node_id":"0.0-146.0","task_version":"test-retest-t3"},{"Rune":"rune_06_cweord","Hex":"#3366ff99","Correct":-1,"Choice":-1,"RT":-1,"Accuracy":1,"Outcome":"-1","Keys":[],"TotalKeys":0,"Block":2,"Trial":140,"Robot":4,"Valence":"Lose","Action":"No-Go","Sham":0,"Color":"blue","trial_type":"pit-trial","trial_index":158,"time_elapsed":732433,"internal_node_id":"0.0-147.0","task_version":"test-retest-t3"},{"Rune":"rune_06_cweord","Hex":"#3366ff99","Correct":-1,"Choice":-1,"RT":-1,"Accuracy":1,"Outcome":"-1","Keys":[],"TotalKeys":0,"Block":2,"Trial":141,"Robot":4,"Valence":"Lose","Action":"No-Go","Sham":0,"Color":"blue","trial_type":"pit-trial","trial_index":159,"time_elapsed":736438,"internal_node_id":"0.0-148.0","task_version":"test-retest-t3"},{"Rune":"rune_06_ansuz","Hex":"#ffcc3399","Correct":-1,"Choice":-1,"RT":-1,"Accuracy":1,"Outcome":"+10","Keys":[],"TotalKeys":0,"Block":2,"Trial":142,"Robot":2,"Valence":"Win","Action":"No-Go","Sham":0,"Color":"yellow","trial_type":"pit-trial","trial_index":160,"time_elapsed":740444,"internal_node_id":"0.0-149.0","task_version":"test-retest-t3"},{"Rune":"rune_06_berkanan","Hex":"#3366ff99","Correct":32,"Choice":32,"RT":423.95000000402797,"Accuracy":1,"Outcome":"-1","Keys":[1924.2749999975786],"TotalKeys":1,"Block":2,"Trial":143,"Robot":3,"Valence":"Lose","Action":"Go","Sham":0,"Color":"blue","trial_type":"pit-trial","trial_index":161,"time_elapsed":743374,"internal_node_id":"0.0-150.0","task_version":"test-retest-t3"},{"Rune":"rune_06_ehwaz","Hex":"#ffcc3399","Correct":32,"Choice":32,"RT":437.3849999974482,"Accuracy":1,"Outcome":"+10","Keys":[1938.9099999971222],"TotalKeys":1,"Block":2,"Trial":144,"Robot":1,"Valence":"Win","Action":"Go","Sham":0,"Color":"yellow","trial_type":"pit-trial","trial_index":162,"time_elapsed":746317,"internal_node_id":"0.0-151.0","task_version":"test-retest-t3"},{"Rune":"rune_06_berkanan","Hex":"#3366ff99","Correct":32,"Choice":32,"RT":343.25999999418855,"Accuracy":1,"Outcome":"-1","Keys":[1843.4100000013132],"TotalKeys":1,"Block":2,"Trial":145,"Robot":3,"Valence":"Lose","Action":"Go","Sham":0,"Color":"blue","trial_type":"pit-trial","trial_index":163,"time_elapsed":749165,"internal_node_id":"0.0-152.0","task_version":"test-retest-t3"},{"Rune":"rune_06_cweord","Hex":"#3366ff99","Correct":-1,"Choice":-1,"RT":-1,"Accuracy":1,"Outcome":"-1","Keys":[],"TotalKeys":0,"Block":2,"Trial":146,"Robot":4,"Valence":"Lose","Action":"No-Go","Sham":0,"Color":"blue","trial_type":"pit-trial","trial_index":164,"time_elapsed":753170,"internal_node_id":"0.0-153.0","task_version":"test-retest-t3"},{"Rune":"rune_06_ansuz","Hex":"#ffcc3399","Correct":-1,"Choice":-1,"RT":-1,"Accuracy":1,"Outcome":"+1","Keys":[],"TotalKeys":0,"Block":2,"Trial":147,"Robot":2,"Valence":"Win","Action":"No-Go","Sham":1,"Color":"yellow","trial_type":"pit-trial","trial_index":165,"time_elapsed":757176,"internal_node_id":"0.0-154.0","task_version":"test-retest-t3"},{"Rune":"rune_06_ehwaz","Hex":"#ffcc3399","Correct":32,"Choice":32,"RT":339.63500000396743,"Accuracy":1,"Outcome":"+10","Keys":[1840.4799999988172],"TotalKeys":1,"Block":2,"Trial":148,"Robot":1,"Valence":"Win","Action":"Go","Sham":0,"Color":"yellow","trial_type":"pit-trial","trial_index":166,"time_elapsed":760021,"internal_node_id":"0.0-155.0","task_version":"test-retest-t3"},{"Rune":"rune_06_ansuz","Hex":"#ffcc3399","Correct":-1,"Choice":-1,"RT":-1,"Accuracy":1,"Outcome":"+10","Keys":[],"TotalKeys":0,"Block":2,"Trial":149,"Robot":2,"Valence":"Win","Action":"No-Go","Sham":0,"Color":"yellow","trial_type":"pit-trial","trial_index":167,"time_elapsed":764024,"internal_node_id":"0.0-156.0","task_version":"test-retest-t3"},{"Rune":"rune_06_berkanan","Hex":"#3366ff99","Correct":32,"Choice":32,"RT":389.5949999933364,"Accuracy":1,"Outcome":"-1","Keys":[1890.8949999968754],"TotalKeys":1,"Block":2,"Trial":150,"Robot":3,"Valence":"Lose","Action":"Go","Sham":0,"Color":"blue","trial_type":"pit-trial","trial_index":168,"time_elapsed":766918,"internal_node_id":"0.0-157.0","task_version":"test-retest-t3"},{"Rune":"rune_06_ehwaz","Hex":"#ffcc3399","Correct":32,"Choice":32,"RT":406.84999999939464,"Accuracy":1,"Outcome":"+1","Keys":[1907.2799999994459],"TotalKeys":1,"Block":2,"Trial":151,"Robot":1,"Valence":"Win","Action":"Go","Sham":1,"Color":"yellow","trial_type":"pit-trial","trial_index":169,"time_elapsed":769829,"internal_node_id":"0.0-158.0","task_version":"test-retest-t3"},{"Rune":"rune_06_cweord","Hex":"#3366ff99","Correct":-1,"Choice":-1,"RT":-1,"Accuracy":1,"Outcome":"-1","Keys":[],"TotalKeys":0,"Block":2,"Trial":152,"Robot":4,"Valence":"Lose","Action":"No-Go","Sham":0,"Color":"blue","trial_type":"pit-trial","trial_index":170,"time_elapsed":773834,"internal_node_id":"0.0-159.0","task_version":"test-retest-t3"},{"Rune":"rune_06_cweord","Hex":"#3366ff99","Correct":-1,"Choice":-1,"RT":-1,"Accuracy":1,"Outcome":"-1","Keys":[],"TotalKeys":0,"Block":2,"Trial":153,"Robot":4,"Valence":"Lose","Action":"No-Go","Sham":0,"Color":"blue","trial_type":"pit-trial","trial_index":171,"time_elapsed":777839,"internal_node_id":"0.0-160.0","task_version":"test-retest-t3"},{"Rune":"rune_06_ansuz","Hex":"#ffcc3399","Correct":-1,"Choice":-1,"RT":-1,"Accuracy":1,"Outcome":"+10","Keys":[],"TotalKeys":0,"Block":2,"Trial":154,"Robot":2,"Valence":"Win","Action":"No-Go","Sham":0,"Color":"yellow","trial_type":"pit-trial","trial_index":172,"time_elapsed":781845,"internal_node_id":"0.0-161.0","task_version":"test-retest-t3"},{"Rune":"rune_06_berkanan","Hex":"#3366ff99","Correct":32,"Choice":32,"RT":382.9399999958696,"Accuracy":1,"Outcome":"-10","Keys":[1883.0049999960465],"TotalKeys":1,"Block":2,"Trial":155,"Robot":3,"Valence":"Lose","Action":"Go","Sham":1,"Color":"blue","trial_type":"pit-trial","trial_index":173,"time_elapsed":784733,"internal_node_id":"0.0-162.0","task_version":"test-retest-t3"},{"Rune":"rune_06_ehwaz","Hex":"#ffcc3399","Correct":32,"Choice":32,"RT":257.0400000039954,"Accuracy":1,"Outcome":"+10","Keys":[1757.1649999953806],"TotalKeys":1,"Block":2,"Trial":156,"Robot":1,"Valence":"Win","Action":"Go","Sham":0,"Color":"yellow","trial_type":"pit-trial","trial_index":174,"time_elapsed":787494,"internal_node_id":"0.0-163.0","task_version":"test-retest-t3"},{"Rune":"rune_06_cweord","Hex":"#3366ff99","Correct":-1,"Choice":-1,"RT":-1,"Accuracy":1,"Outcome":"-10","Keys":[],"TotalKeys":0,"Block":2,"Trial":157,"Robot":4,"Valence":"Lose","Action":"No-Go","Sham":1,"Color":"blue","trial_type":"pit-trial","trial_index":175,"time_elapsed":791499,"internal_node_id":"0.0-164.0","task_version":"test-retest-t3"},{"Rune":"rune_06_ansuz","Hex":"#ffcc3399","Correct":-1,"Choice":-1,"RT":-1,"Accuracy":1,"Outcome":"+10","Keys":[],"TotalKeys":0,"Block":2,"Trial":158,"Robot":2,"Valence":"Win","Action":"No-Go","Sham":0,"Color":"yellow","trial_type":"pit-trial","trial_index":176,"time_elapsed":795504,"internal_node_id":"0.0-165.0","task_version":"test-retest-t3"},{"Rune":"rune_06_berkanan","Hex":"#3366ff99","Correct":32,"Choice":32,"RT":322.8400000007823,"Accuracy":1,"Outcome":"-1","Keys":[1824.459999996121],"TotalKeys":1,"Block":2,"Trial":159,"Robot":3,"Valence":"Lose","Action":"Go","Sham":0,"Color":"blue","trial_type":"pit-trial","trial_index":177,"time_elapsed":798334,"internal_node_id":"0.0-166.0","task_version":"test-retest-t3"},{"Rune":"rune_06_ehwaz","Hex":"#ffcc3399","Correct":32,"Choice":32,"RT":349.8600000020815,"Accuracy":1,"Outcome":"+10","Keys":[1850.7449999960372],"TotalKeys":1,"Block":2,"Trial":160,"Robot":1,"Valence":"Win","Action":"Go","Sham":0,"Color":"yellow","trial_type":"pit-trial","trial_index":178,"time_elapsed":801190,"internal_node_id":"0.0-167.0","task_version":"test-retest-t3"},{"Rune":"rune_06_cweord","Hex":"#3366ff99","Correct":-1,"Choice":-1,"RT":-1,"Accuracy":1,"Outcome":"-1","Keys":[],"TotalKeys":0,"Block":2,"Trial":161,"Robot":4,"Valence":"Lose","Action":"No-Go","Sham":0,"Color":"blue","trial_type":"pit-trial","trial_index":179,"time_elapsed":805196,"internal_node_id":"0.0-168.0","task_version":"test-retest-t3"},{"Rune":"rune_06_ehwaz","Hex":"#ffcc3399","Correct":32,"Choice":32,"RT":351.4299999951618,"Accuracy":1,"Outcome":"+10","Keys":[1851.7849999989849],"TotalKeys":1,"Block":2,"Trial":162,"Robot":1,"Valence":"Win","Action":"Go","Sham":0,"Color":"yellow","trial_type":"pit-trial","trial_index":180,"time_elapsed":808052,"internal_node_id":"0.0-169.0","task_version":"test-retest-t3"},{"Rune":"rune_06_ansuz","Hex":"#ffcc3399","Correct":-1,"Choice":-1,"RT":-1,"Accuracy":1,"Outcome":"+10","Keys":[],"TotalKeys":0,"Block":2,"Trial":163,"Robot":2,"Valence":"Win","Action":"No-Go","Sham":0,"Color":"yellow","trial_type":"pit-trial","trial_index":181,"time_elapsed":812056,"internal_node_id":"0.0-170.0","task_version":"test-retest-t3"},{"Rune":"rune_06_berkanan","Hex":"#3366ff99","Correct":32,"Choice":32,"RT":412.9949999987148,"Accuracy":1,"Outcome":"-1","Keys":[1913.0949999962468],"TotalKeys":1,"Block":2,"Trial":164,"Robot":3,"Valence":"Lose","Action":"Go","Sham":0,"Color":"blue","trial_type":"pit-trial","trial_index":182,"time_elapsed":814972,"internal_node_id":"0.0-171.0","task_version":"test-retest-t3"},{"Rune":"rune_06_ehwaz","Hex":"#ffcc3399","Correct":32,"Choice":32,"RT":375.9650000066031,"Accuracy":1,"Outcome":"+10","Keys":[1876.9949999987148],"TotalKeys":1,"Block":2,"Trial":165,"Robot":1,"Valence":"Win","Action":"Go","Sham":0,"Color":"yellow","trial_type":"pit-trial","trial_index":183,"time_elapsed":817853,"internal_node_id":"0.0-172.0","task_version":"test-retest-t3"},{"Rune":"rune_06_berkanan","Hex":"#3366ff99","Correct":32,"Choice":32,"RT":293.7750000054948,"Accuracy":1,"Outcome":"-1","Keys":[1795.350000000326],"TotalKeys":1,"Block":2,"Trial":166,"Robot":3,"Valence":"Lose","Action":"Go","Sham":0,"Color":"blue","trial_type":"pit-trial","trial_index":184,"time_elapsed":820654,"internal_node_id":"0.0-173.0","task_version":"test-retest-t3"},{"Rune":"rune_06_cweord","Hex":"#3366ff99","Correct":-1,"Choice":-1,"RT":-1,"Accuracy":1,"Outcome":"-10","Keys":[],"TotalKeys":0,"Block":2,"Trial":167,"Robot":4,"Valence":"Lose","Action":"No-Go","Sham":1,"Color":"blue","trial_type":"pit-trial","trial_index":185,"time_elapsed":824659,"internal_node_id":"0.0-174.0","task_version":"test-retest-t3"},{"Rune":"rune_06_ansuz","Hex":"#ffcc3399","Correct":-1,"Choice":-1,"RT":-1,"Accuracy":1,"Outcome":"+10","Keys":[],"TotalKeys":0,"Block":2,"Trial":168,"Robot":2,"Valence":"Win","Action":"No-Go","Sham":0,"Color":"yellow","trial_type":"pit-trial","trial_index":186,"time_elapsed":828663,"internal_node_id":"0.0-175.0","task_version":"test-retest-t3"},{"Rune":"rune_06_ansuz","Hex":"#ffcc3399","Correct":-1,"Choice":-1,"RT":-1,"Accuracy":1,"Outcome":"+10","Keys":[],"TotalKeys":0,"Block":2,"Trial":169,"Robot":2,"Valence":"Win","Action":"No-Go","Sham":0,"Color":"yellow","trial_type":"pit-trial","trial_index":187,"time_elapsed":832667,"internal_node_id":"0.0-176.0","task_version":"test-retest-t3"},{"Rune":"rune_06_ehwaz","Hex":"#ffcc3399","Correct":32,"Choice":32,"RT":289.54499999969266,"Accuracy":1,"Outcome":"+10","Keys":[1791.554999996093],"TotalKeys":1,"Block":2,"Trial":170,"Robot":1,"Valence":"Win","Action":"Go","Sham":0,"Color":"yellow","trial_type":"pit-trial","trial_index":188,"time_elapsed":835462,"internal_node_id":"0.0-177.0","task_version":"test-retest-t3"},{"Rune":"rune_06_cweord","Hex":"#3366ff99","Correct":-1,"Choice":-1,"RT":-1,"Accuracy":1,"Outcome":"-1","Keys":[],"TotalKeys":0,"Block":2,"Trial":171,"Robot":4,"Valence":"Lose","Action":"No-Go","Sham":0,"Color":"blue","trial_type":"pit-trial","trial_index":189,"time_elapsed":839468,"internal_node_id":"0.0-178.0","task_version":"test-retest-t3"},{"Rune":"rune_06_berkanan","Hex":"#3366ff99","Correct":32,"Choice":32,"RT":415.99000000127126,"Accuracy":1,"Outcome":"-1","Keys":[1916.5199999988545],"TotalKeys":1,"Block":2,"Trial":172,"Robot":3,"Valence":"Lose","Action":"Go","Sham":0,"Color":"blue","trial_type":"pit-trial","trial_index":190,"time_elapsed":842389,"internal_node_id":"0.0-179.0","task_version":"test-retest-t3"},{"Rune":"rune_06_ehwaz","Hex":"#ffcc3399","Correct":32,"Choice":32,"RT":278.71999999473337,"Accuracy":1,"Outcome":"+1","Keys":[1778.8150000051828],"TotalKeys":1,"Block":2,"Trial":173,"Robot":1,"Valence":"Win","Action":"Go","Sham":1,"Color":"yellow","trial_type":"pit-trial","trial_index":191,"time_elapsed":845173,"internal_node_id":"0.0-180.0","task_version":"test-retest-t3"},{"Rune":"rune_06_berkanan","Hex":"#3366ff99","Correct":32,"Choice":32,"RT":334.2300000003306,"Accuracy":1,"Outcome":"-1","Keys":[1835.6350000031525],"TotalKeys":1,"Block":2,"Trial":174,"Robot":3,"Valence":"Lose","Action":"Go","Sham":0,"Color":"blue","trial_type":"pit-trial","trial_index":192,"time_elapsed":848013,"internal_node_id":"0.0-181.0","task_version":"test-retest-t3"},{"Rune":"rune_06_ansuz","Hex":"#ffcc3399","Correct":-1,"Choice":-1,"RT":-1,"Accuracy":1,"Outcome":"+10","Keys":[],"TotalKeys":0,"Block":2,"Trial":175,"Robot":2,"Valence":"Win","Action":"No-Go","Sham":0,"Color":"yellow","trial_type":"pit-trial","trial_index":193,"time_elapsed":852017,"internal_node_id":"0.0-182.0","task_version":"test-retest-t3"},{"Rune":"rune_06_cweord","Hex":"#3366ff99","Correct":-1,"Choice":-1,"RT":-1,"Accuracy":1,"Outcome":"-1","Keys":[],"TotalKeys":0,"Block":2,"Trial":176,"Robot":4,"Valence":"Lose","Action":"No-Go","Sham":0,"Color":"blue","trial_type":"pit-trial","trial_index":194,"time_elapsed":856021,"internal_node_id":"0.0-183.0","task_version":"test-retest-t3"},{"Rune":"rune_06_ehwaz","Hex":"#ffcc3399","Correct":32,"Choice":32,"RT":317.0299999982817,"Accuracy":1,"Outcome":"+10","Keys":[1818.2349999987055],"TotalKeys":1,"Block":2,"Trial":177,"Robot":1,"Valence":"Win","Action":"Go","Sham":0,"Color":"yellow","trial_type":"pit-trial","trial_index":195,"time_elapsed":858844,"internal_node_id":"0.0-184.0","task_version":"test-retest-t3"},{"Rune":"rune_06_berkanan","Hex":"#3366ff99","Correct":32,"Choice":32,"RT":350.63000000081956,"Accuracy":1,"Outcome":"-10","Keys":[1851.620000001276],"TotalKeys":1,"Block":2,"Trial":178,"Robot":3,"Valence":"Lose","Action":"Go","Sham":1,"Color":"blue","trial_type":"pit-trial","trial_index":196,"time_elapsed":861700,"internal_node_id":"0.0-185.0","task_version":"test-retest-t3"},{"Rune":"rune_06_cweord","Hex":"#3366ff99","Correct":-1,"Choice":-1,"RT":-1,"Accuracy":1,"Outcome":"-1","Keys":[],"TotalKeys":0,"Block":2,"Trial":179,"Robot":4,"Valence":"Lose","Action":"No-Go","Sham":0,"Color":"blue","trial_type":"pit-trial","trial_index":197,"time_elapsed":865705,"internal_node_id":"0.0-186.0","task_version":"test-retest-t3"},{"Rune":"rune_06_ansuz","Hex":"#ffcc3399","Correct":-1,"Choice":-1,"RT":-1,"Accuracy":1,"Outcome":"+1","Keys":[],"TotalKeys":0,"Block":2,"Trial":180,"Robot":2,"Valence":"Win","Action":"No-Go","Sham":1,"Color":"yellow","trial_type":"pit-trial","trial_index":198,"time_elapsed":869713,"internal_node_id":"0.0-187.0","task_version":"test-retest-t3"},{"view_history":"[{\"page_index\":0,\"viewing_time\":70522.00000000454},{\"page_index\":1,\"viewing_time\":1218.1449999988545}]","rt":71740.56500000006,"trial_type":"pit-instructions","trial_index":199,"time_elapsed":941457,"internal_node_id":"0.0-188.0","task_version":"test-retest-t3"},{"Rune":"rune_06_berkanan","Hex":"#3366ff99","Correct":32,"Choice":32,"RT":386.8349999974016,"Accuracy":1,"Outcome":"-1","Keys":[1887.3749999984866],"TotalKeys":1,"Block":2,"Trial":181,"Robot":3,"Valence":"Lose","Action":"Go","Sham":0,"Color":"blue","trial_type":"pit-trial","trial_index":200,"time_elapsed":944349,"internal_node_id":"0.0-189.0","task_version":"test-retest-t3"},{"Rune":"rune_06_ansuz","Hex":"#ffcc3399","Correct":-1,"Choice":-1,"RT":-1,"Accuracy":1,"Outcome":"+10","Keys":[],"TotalKeys":0,"Block":2,"Trial":182,"Robot":2,"Valence":"Win","Action":"No-Go","Sham":0,"Color":"yellow","trial_type":"pit-trial","trial_index":201,"time_elapsed":948355,"internal_node_id":"0.0-190.0","task_version":"test-retest-t3"},{"Rune":"rune_06_cweord","Hex":"#3366ff99","Correct":-1,"Choice":-1,"RT":-1,"Accuracy":1,"Outcome":"-1","Keys":[],"TotalKeys":0,"Block":2,"Trial":183,"Robot":4,"Valence":"Lose","Action":"No-Go","Sham":0,"Color":"blue","trial_type":"pit-trial","trial_index":202,"time_elapsed":952361,"internal_node_id":"0.0-191.0","task_version":"test-retest-t3"},{"Rune":"rune_06_ehwaz","Hex":"#ffcc3399","Correct":32,"Choice":32,"RT":379.8800000004703,"Accuracy":1,"Outcome":"+10","Keys":[1880.2100000029895],"TotalKeys":1,"Block":2,"Trial":184,"Robot":1,"Valence":"Win","Action":"Go","Sham":0,"Color":"yellow","trial_type":"pit-trial","trial_index":203,"time_elapsed":955246,"internal_node_id":"0.0-192.0","task_version":"test-retest-t3"},{"Rune":"rune_06_cweord","Hex":"#3366ff99","Correct":-1,"Choice":-1,"RT":-1,"Accuracy":1,"Outcome":"-1","Keys":[],"TotalKeys":0,"Block":2,"Trial":185,"Robot":4,"Valence":"Lose","Action":"No-Go","Sham":0,"Color":"blue","trial_type":"pit-trial","trial_index":204,"time_elapsed":959251,"internal_node_id":"0.0-193.0","task_version":"test-retest-t3"},{"Rune":"rune_06_ansuz","Hex":"#ffcc3399","Correct":-1,"Choice":-1,"RT":-1,"Accuracy":1,"Outcome":"+10","Keys":[],"TotalKeys":0,"Block":2,"Trial":186,"Robot":2,"Valence":"Win","Action":"No-Go","Sham":0,"Color":"yellow","trial_type":"pit-trial","trial_index":205,"time_elapsed":963257,"internal_node_id":"0.0-194.0","task_version":"test-retest-t3"},{"Rune":"rune_06_ehwaz","Hex":"#ffcc3399","Correct":32,"Choice":32,"RT":258.8099999993574,"Accuracy":1,"Outcome":"+10","Keys":[1760.0699999965727],"TotalKeys":1,"Block":2,"Trial":187,"Robot":1,"Valence":"Win","Action":"Go","Sham":0,"Color":"yellow","trial_type":"pit-trial","trial_index":206,"time_elapsed":966021,"internal_node_id":"0.0-195.0","task_version":"test-retest-t3"},{"Rune":"rune_06_berkanan","Hex":"#3366ff99","Correct":32,"Choice":32,"RT":361.3000000041211,"Accuracy":1,"Outcome":"-1","Keys":[1861.9949999992969],"TotalKeys":1,"Block":2,"Trial":188,"Robot":3,"Valence":"Lose","Action":"Go","Sham":0,"Color":"blue","trial_type":"pit-trial","trial_index":207,"time_elapsed":968886,"internal_node_id":"0.0-196.0","task_version":"test-retest-t3"},{"Rune":"rune_06_cweord","Hex":"#3366ff99","Correct":-1,"Choice":-1,"RT":-1,"Accuracy":1,"Outcome":"-1","Keys":[],"TotalKeys":0,"Block":2,"Trial":189,"Robot":4,"Valence":"Lose","Action":"No-Go","Sham":0,"Color":"blue","trial_type":"pit-trial","trial_index":208,"time_elapsed":972890,"internal_node_id":"0.0-197.0","task_version":"test-retest-t3"},{"Rune":"rune_06_ehwaz","Hex":"#ffcc3399","Correct":32,"Choice":32,"RT":314.66000000364147,"Accuracy":1,"Outcome":"+10","Keys":[1815.280000002589],"TotalKeys":1,"Block":2,"Trial":190,"Robot":1,"Valence":"Win","Action":"Go","Sham":0,"Color":"yellow","trial_type":"pit-trial","trial_index":209,"time_elapsed":975707,"internal_node_id":"0.0-198.0","task_version":"test-retest-t3"},{"Rune":"rune_06_ansuz","Hex":"#ffcc3399","Correct":-1,"Choice":-1,"RT":-1,"Accuracy":1,"Outcome":"+1","Keys":[],"TotalKeys":0,"Block":2,"Trial":191,"Robot":2,"Valence":"Win","Action":"No-Go","Sham":1,"Color":"yellow","trial_type":"pit-trial","trial_index":210,"time_elapsed":979712,"internal_node_id":"0.0-199.0","task_version":"test-retest-t3"},{"Rune":"rune_06_berkanan","Hex":"#3366ff99","Correct":32,"Choice":32,"RT":410.88000000303145,"Accuracy":1,"Outcome":"-1","Keys":[1911.9449999998324],"TotalKeys":1,"Block":2,"Trial":192,"Robot":3,"Valence":"Lose","Action":"Go","Sham":0,"Color":"blue","trial_type":"pit-trial","trial_index":211,"time_elapsed":982628,"internal_node_id":"0.0-200.0","task_version":"test-retest-t3"},{"Rune":"rune_06_ehwaz","Hex":"#ffcc3399","Correct":32,"Choice":32,"RT":297.24500000150874,"Accuracy":1,"Outcome":"+1","Keys":[1798.4699999941513],"TotalKeys":1,"Block":2,"Trial":193,"Robot":1,"Valence":"Win","Action":"Go","Sham":1,"Color":"yellow","trial_type":"pit-trial","trial_index":212,"time_elapsed":985430,"internal_node_id":"0.0-201.0","task_version":"test-retest-t3"},{"Rune":"rune_06_ansuz","Hex":"#ffcc3399","Correct":-1,"Choice":-1,"RT":-1,"Accuracy":1,"Outcome":"+10","Keys":[],"TotalKeys":0,"Block":2,"Trial":194,"Robot":2,"Valence":"Win","Action":"No-Go","Sham":0,"Color":"yellow","trial_type":"pit-trial","trial_index":213,"time_elapsed":989437,"internal_node_id":"0.0-202.0","task_version":"test-retest-t3"},{"Rune":"rune_06_cweord","Hex":"#3366ff99","Correct":-1,"Choice":-1,"RT":-1,"Accuracy":1,"Outcome":"-1","Keys":[],"TotalKeys":0,"Block":2,"Trial":195,"Robot":4,"Valence":"Lose","Action":"No-Go","Sham":0,"Color":"blue","trial_type":"pit-trial","trial_index":214,"time_elapsed":993443,"internal_node_id":"0.0-203.0","task_version":"test-retest-t3"},{"Rune":"rune_06_berkanan","Hex":"#3366ff99","Correct":32,"Choice":32,"RT":394.42000000411645,"Accuracy":1,"Outcome":"-1","Keys":[1895.7200000004377],"TotalKeys":1,"Block":2,"Trial":196,"Robot":3,"Valence":"Lose","Action":"Go","Sham":0,"Color":"blue","trial_type":"pit-trial","trial_index":215,"time_elapsed":996342,"internal_node_id":"0.0-204.0","task_version":"test-retest-t3"},{"Rune":"rune_06_berkanan","Hex":"#3366ff99","Correct":32,"Choice":32,"RT":398.2199999955483,"Accuracy":1,"Outcome":"-10","Keys":[1898.600000000326],"TotalKeys":1,"Block":2,"Trial":197,"Robot":3,"Valence":"Lose","Action":"Go","Sham":1,"Color":"blue","trial_type":"pit-trial","trial_index":216,"time_elapsed":999245,"internal_node_id":"0.0-205.0","task_version":"test-retest-t3"},{"Rune":"rune_06_cweord","Hex":"#3366ff99","Correct":-1,"Choice":-1,"RT":-1,"Accuracy":1,"Outcome":"-10","Keys":[],"TotalKeys":0,"Block":2,"Trial":198,"Robot":4,"Valence":"Lose","Action":"No-Go","Sham":1,"Color":"blue","trial_type":"pit-trial","trial_index":217,"time_elapsed":1003252,"internal_node_id":"0.0-206.0","task_version":"test-retest-t3"},{"Rune":"rune_06_ehwaz","Hex":"#ffcc3399","Correct":32,"Choice":32,"RT":304.08499999623746,"Accuracy":1,"Outcome":"+10","Keys":[1804.759999999078],"TotalKeys":1,"Block":2,"Trial":199,"Robot":1,"Valence":"Win","Action":"Go","Sham":0,"Color":"yellow","trial_type":"pit-trial","trial_index":218,"time_elapsed":1006062,"internal_node_id":"0.0-207.0","task_version":"test-retest-t3"},{"Rune":"rune_06_ansuz","Hex":"#ffcc3399","Correct":-1,"Choice":-1,"RT":-1,"Accuracy":1,"Outcome":"+10","Keys":[],"TotalKeys":0,"Block":2,"Trial":200,"Robot":2,"Valence":"Win","Action":"No-Go","Sham":0,"Color":"yellow","trial_type":"pit-trial","trial_index":219,"time_elapsed":1010067,"internal_node_id":"0.0-208.0","task_version":"test-retest-t3"},{"Rune":"rune_06_ansuz","Hex":"#ffcc3399","Correct":-1,"Choice":-1,"RT":-1,"Accuracy":1,"Outcome":"+10","Keys":[],"TotalKeys":0,"Block":2,"Trial":201,"Robot":2,"Valence":"Win","Action":"No-Go","Sham":0,"Color":"yellow","trial_type":"pit-trial","trial_index":220,"time_elapsed":1014073,"internal_node_id":"0.0-209.0","task_version":"test-retest-t3"},{"Rune":"rune_06_ehwaz","Hex":"#ffcc3399","Correct":32,"Choice":32,"RT":340.2750000022352,"Accuracy":1,"Outcome":"+1","Keys":[1840.6050000048708],"TotalKeys":1,"Block":2,"Trial":202,"Robot":1,"Valence":"Win","Action":"Go","Sham":1,"Color":"yellow","trial_type":"pit-trial","trial_index":221,"time_elapsed":1016918,"internal_node_id":"0.0-210.0","task_version":"test-retest-t3"},{"Rune":"rune_06_berkanan","Hex":"#3366ff99","Correct":32,"Choice":32,"RT":310.6049999988172,"Accuracy":1,"Outcome":"-1","Keys":[1810.7850000014296],"TotalKeys":1,"Block":2,"Trial":203,"Robot":3,"Valence":"Lose","Action":"Go","Sham":0,"Color":"blue","trial_type":"pit-trial","trial_index":222,"time_elapsed":1019734,"internal_node_id":"0.0-211.0","task_version":"test-retest-t3"},{"Rune":"rune_06_cweord","Hex":"#3366ff99","Correct":-1,"Choice":-1,"RT":-1,"Accuracy":1,"Outcome":"-10","Keys":[],"TotalKeys":0,"Block":2,"Trial":204,"Robot":4,"Valence":"Lose","Action":"No-Go","Sham":1,"Color":"blue","trial_type":"pit-trial","trial_index":223,"time_elapsed":1023740,"internal_node_id":"0.0-212.0","task_version":"test-retest-t3"},{"Rune":"rune_06_berkanan","Hex":"#3366ff99","Correct":32,"Choice":32,"RT":376.6599999945611,"Accuracy":1,"Outcome":"-1","Keys":[1877.4300000004005],"TotalKeys":1,"Block":2,"Trial":205,"Robot":3,"Valence":"Lose","Action":"Go","Sham":0,"Color":"blue","trial_type":"pit-trial","trial_index":224,"time_elapsed":1026621,"internal_node_id":"0.0-213.0","task_version":"test-retest-t3"},{"Rune":"rune_06_cweord","Hex":"#3366ff99","Correct":-1,"Choice":-1,"RT":-1,"Accuracy":1,"Outcome":"-1","Keys":[],"TotalKeys":0,"Block":2,"Trial":206,"Robot":4,"Valence":"Lose","Action":"No-Go","Sham":0,"Color":"blue","trial_type":"pit-trial","trial_index":225,"time_elapsed":1030626,"internal_node_id":"0.0-214.0","task_version":"test-retest-t3"},{"Rune":"rune_06_ehwaz","Hex":"#ffcc3399","Correct":32,"Choice":32,"RT":241.48499999870546,"Accuracy":1,"Outcome":"+10","Keys":[1742.614999995567],"TotalKeys":1,"Block":2,"Trial":207,"Robot":1,"Valence":"Win","Action":"Go","Sham":0,"Color":"yellow","trial_type":"pit-trial","trial_index":226,"time_elapsed":1033373,"internal_node_id":"0.0-215.0","task_version":"test-retest-t3"},{"Rune":"rune_06_ansuz","Hex":"#ffcc3399","Correct":-1,"Choice":-1,"RT":-1,"Accuracy":1,"Outcome":"+1","Keys":[],"TotalKeys":0,"Block":2,"Trial":208,"Robot":2,"Valence":"Win","Action":"No-Go","Sham":1,"Color":"yellow","trial_type":"pit-trial","trial_index":227,"time_elapsed":1037377,"internal_node_id":"0.0-216.0","task_version":"test-retest-t3"},{"Rune":"rune_06_ansuz","Hex":"#ffcc3399","Correct":-1,"Choice":-1,"RT":-1,"Accuracy":1,"Outcome":"+10","Keys":[],"TotalKeys":0,"Block":2,"Trial":209,"Robot":2,"Valence":"Win","Action":"No-Go","Sham":0,"Color":"yellow","trial_type":"pit-trial","trial_index":228,"time_elapsed":1041382,"internal_node_id":"0.0-217.0","task_version":"test-retest-t3"},{"Rune":"rune_06_ehwaz","Hex":"#ffcc3399","Correct":32,"Choice":32,"RT":302.09499999915715,"Accuracy":1,"Outcome":"+10","Keys":[1803.4100000004983],"TotalKeys":1,"Block":2,"Trial":210,"Robot":1,"Valence":"Win","Action":"Go","Sham":0,"Color":"yellow","trial_type":"pit-trial","trial_index":229,"time_elapsed":1044190,"internal_node_id":"0.0-218.0","task_version":"test-retest-t3"},{"Rune":"rune_06_cweord","Hex":"#3366ff99","Correct":-1,"Choice":-1,"RT":-1,"Accuracy":1,"Outcome":"-1","Keys":[],"TotalKeys":0,"Block":2,"Trial":211,"Robot":4,"Valence":"Lose","Action":"No-Go","Sham":0,"Color":"blue","trial_type":"pit-trial","trial_index":230,"time_elapsed":1048197,"internal_node_id":"0.0-219.0","task_version":"test-retest-t3"},{"Rune":"rune_06_berkanan","Hex":"#3366ff99","Correct":32,"Choice":32,"RT":332.80999999982305,"Accuracy":1,"Outcome":"-1","Keys":[1833.87000000244],"TotalKeys":1,"Block":2,"Trial":212,"Robot":3,"Valence":"Lose","Action":"Go","Sham":0,"Color":"blue","trial_type":"pit-trial","trial_index":231,"time_elapsed":1051037,"internal_node_id":"0.0-220.0","task_version":"test-retest-t3"},{"Rune":"rune_06_ehwaz","Hex":"#ffcc3399","Correct":32,"Choice":32,"RT":303.76999999862164,"Accuracy":1,"Outcome":"+10","Keys":[1803.8900000026915],"TotalKeys":1,"Block":2,"Trial":213,"Robot":1,"Valence":"Win","Action":"Go","Sham":0,"Color":"yellow","trial_type":"pit-trial","trial_index":232,"time_elapsed":1053845,"internal_node_id":"0.0-221.0","task_version":"test-retest-t3"},{"Rune":"rune_06_cweord","Hex":"#3366ff99","Correct":-1,"Choice":-1,"RT":-1,"Accuracy":1,"Outcome":"-1","Keys":[],"TotalKeys":0,"Block":2,"Trial":214,"Robot":4,"Valence":"Lose","Action":"No-Go","Sham":0,"Color":"blue","trial_type":"pit-trial","trial_index":233,"time_elapsed":1057851,"internal_node_id":"0.0-222.0","task_version":"test-retest-t3"},{"Rune":"rune_06_ansuz","Hex":"#ffcc3399","Correct":-1,"Choice":-1,"RT":-1,"Accuracy":1,"Outcome":"+10","Keys":[],"TotalKeys":0,"Block":2,"Trial":215,"Robot":2,"Valence":"Win","Action":"No-Go","Sham":0,"Color":"yellow","trial_type":"pit-trial","trial_index":234,"time_elapsed":1061856,"internal_node_id":"0.0-223.0","task_version":"test-retest-t3"},{"Rune":"rune_06_berkanan","Hex":"#3366ff99","Correct":32,"Choice":32,"RT":369.83499999763444,"Accuracy":1,"Outcome":"-1","Keys":[1871.4249999977183],"TotalKeys":1,"Block":2,"Trial":216,"Robot":3,"Valence":"Lose","Action":"Go","Sham":0,"Color":"blue","trial_type":"pit-trial","trial_index":235,"time_elapsed":1064732,"internal_node_id":"0.0-224.0","task_version":"test-retest-t3"},{"Rune":"rune_06_ehwaz","Hex":"#ffcc3399","Correct":32,"Choice":32,"RT":376.3550000002142,"Accuracy":1,"Outcome":"+10","Keys":[1877.3600000059232],"TotalKeys":1,"Block":2,"Trial":217,"Robot":1,"Valence":"Win","Action":"Go","Sham":0,"Color":"yellow","trial_type":"pit-trial","trial_index":236,"time_elapsed":1067614,"internal_node_id":"0.0-225.0","task_version":"test-retest-t3"},{"Rune":"rune_06_berkanan","Hex":"#3366ff99","Correct":32,"Choice":32,"RT":301.579999999376,"Accuracy":1,"Outcome":"-10","Keys":[1802.5799999961164],"TotalKeys":1,"Block":2,"Trial":218,"Robot":3,"Valence":"Lose","Action":"Go","Sham":1,"Color":"blue","trial_type":"pit-trial","trial_index":237,"time_elapsed":1070422,"internal_node_id":"0.0-226.0","task_version":"test-retest-t3"},{"Rune":"rune_06_ansuz","Hex":"#ffcc3399","Correct":-1,"Choice":-1,"RT":-1,"Accuracy":1,"Outcome":"+10","Keys":[],"TotalKeys":0,"Block":2,"Trial":219,"Robot":2,"Valence":"Win","Action":"No-Go","Sham":0,"Color":"yellow","trial_type":"pit-trial","trial_index":238,"time_elapsed":1074427,"internal_node_id":"0.0-227.0","task_version":"test-retest-t3"},{"Rune":"rune_06_cweord","Hex":"#3366ff99","Correct":-1,"Choice":-1,"RT":-1,"Accuracy":1,"Outcome":"-1","Keys":[],"TotalKeys":0,"Block":2,"Trial":220,"Robot":4,"Valence":"Lose","Action":"No-Go","Sham":0,"Color":"blue","trial_type":"pit-trial","trial_index":239,"time_elapsed":1078430,"internal_node_id":"0.0-228.0","task_version":"test-retest-t3"},{"Rune":"rune_06_berkanan","Hex":"#3366ff99","Correct":32,"Choice":32,"RT":238.80500000086613,"Accuracy":1,"Outcome":"-10","Keys":[1738.825000000419],"TotalKeys":1,"Block":2,"Trial":221,"Robot":3,"Valence":"Lose","Action":"Go","Sham":1,"Color":"blue","trial_type":"pit-trial","trial_index":240,"time_elapsed":1081174,"internal_node_id":"0.0-229.0","task_version":"test-retest-t3"},{"Rune":"rune_06_ansuz","Hex":"#ffcc3399","Correct":-1,"Choice":-1,"RT":-1,"Accuracy":1,"Outcome":"+1","Keys":[],"TotalKeys":0,"Block":2,"Trial":222,"Robot":2,"Valence":"Win","Action":"No-Go","Sham":1,"Color":"yellow","trial_type":"pit-trial","trial_index":241,"time_elapsed":1085179,"internal_node_id":"0.0-230.0","task_version":"test-retest-t3"},{"Rune":"rune_06_ehwaz","Hex":"#ffcc3399","Correct":32,"Choice":32,"RT":266.36000000149943,"Accuracy":1,"Outcome":"+10","Keys":[1766.5900000063702],"TotalKeys":1,"Block":2,"Trial":223,"Robot":1,"Valence":"Win","Action":"Go","Sham":0,"Color":"yellow","trial_type":"pit-trial","trial_index":242,"time_elapsed":1087949,"internal_node_id":"0.0-231.0","task_version":"test-retest-t3"},{"Rune":"rune_06_cweord","Hex":"#3366ff99","Correct":-1,"Choice":-1,"RT":-1,"Accuracy":1,"Outcome":"-10","Keys":[],"TotalKeys":0,"Block":2,"Trial":224,"Robot":4,"Valence":"Lose","Action":"No-Go","Sham":1,"Color":"blue","trial_type":"pit-trial","trial_index":243,"time_elapsed":1091952,"internal_node_id":"0.0-232.0","task_version":"test-retest-t3"},{"Rune":"rune_06_cweord","Hex":"#3366ff99","Correct":-1,"Choice":-1,"RT":-1,"Accuracy":1,"Outcome":"-1","Keys":[],"TotalKeys":0,"Block":2,"Trial":225,"Robot":4,"Valence":"Lose","Action":"No-Go","Sham":0,"Color":"blue","trial_type":"pit-trial","trial_index":244,"time_elapsed":1095955,"internal_node_id":"0.0-233.0","task_version":"test-retest-t3"},{"Rune":"rune_06_ansuz","Hex":"#ffcc3399","Correct":-1,"Choice":-1,"RT":-1,"Accuracy":1,"Outcome":"+10","Keys":[],"TotalKeys":0,"Block":2,"Trial":226,"Robot":2,"Valence":"Win","Action":"No-Go","Sham":0,"Color":"yellow","trial_type":"pit-trial","trial_index":245,"time_elapsed":1099959,"internal_node_id":"0.0-234.0","task_version":"test-retest-t3"},{"Rune":"rune_06_berkanan","Hex":"#3366ff99","Correct":32,"Choice":32,"RT":365.8800000050105,"Accuracy":1,"Outcome":"-1","Keys":[1866.3699999959208],"TotalKeys":1,"Block":2,"Trial":227,"Robot":3,"Valence":"Lose","Action":"Go","Sham":0,"Color":"blue","trial_type":"pit-trial","trial_index":246,"time_elapsed":1102829,"internal_node_id":"0.0-235.0","task_version":"test-retest-t3"},{"Rune":"rune_06_ehwaz","Hex":"#ffcc3399","Correct":32,"Choice":32,"RT":310.864999999525,"Accuracy":1,"Outcome":"+1","Keys":[1810.9049999983981],"TotalKeys":1,"Block":2,"Trial":228,"Robot":1,"Valence":"Win","Action":"Go","Sham":1,"Color":"yellow","trial_type":"pit-trial","trial_index":247,"time_elapsed":1105646,"internal_node_id":"0.0-236.0","task_version":"test-retest-t3"},{"Rune":"rune_06_ehwaz","Hex":"#ffcc3399","Correct":32,"Choice":32,"RT":245.07499999878928,"Accuracy":1,"Outcome":"+10","Keys":[1745.2199999969453],"TotalKeys":1,"Block":2,"Trial":229,"Robot":1,"Valence":"Win","Action":"Go","Sham":0,"Color":"yellow","trial_type":"pit-trial","trial_index":248,"time_elapsed":1108395,"internal_node_id":"0.0-237.0","task_version":"test-retest-t3"},{"Rune":"rune_06_berkanan","Hex":"#3366ff99","Correct":32,"Choice":32,"RT":329.9299999999348,"Accuracy":1,"Outcome":"-1","Keys":[1831.8700000019744],"TotalKeys":1,"Block":2,"Trial":230,"Robot":3,"Valence":"Lose","Action":"Go","Sham":0,"Color":"blue","trial_type":"pit-trial","trial_index":249,"time_elapsed":1111230,"internal_node_id":"0.0-238.0","task_version":"test-retest-t3"},{"Rune":"rune_06_cweord","Hex":"#3366ff99","Correct":-1,"Choice":-1,"RT":-1,"Accuracy":1,"Outcome":"-1","Keys":[],"TotalKeys":0,"Block":2,"Trial":231,"Robot":4,"Valence":"Lose","Action":"No-Go","Sham":0,"Color":"blue","trial_type":"pit-trial","trial_index":250,"time_elapsed":1115235,"internal_node_id":"0.0-239.0","task_version":"test-retest-t3"},{"Rune":"rune_06_ansuz","Hex":"#ffcc3399","Correct":-1,"Choice":-1,"RT":-1,"Accuracy":1,"Outcome":"+10","Keys":[],"TotalKeys":0,"Block":2,"Trial":232,"Robot":2,"Valence":"Win","Action":"No-Go","Sham":0,"Color":"yellow","trial_type":"pit-trial","trial_index":251,"time_elapsed":1119240,"internal_node_id":"0.0-240.0","task_version":"test-retest-t3"},{"Rune":"rune_06_ehwaz","Hex":"#ffcc3399","Correct":32,"Choice":32,"RT":284.5149999994319,"Accuracy":1,"Outcome":"+10","Keys":[1785.3400000021793],"TotalKeys":1,"Block":2,"Trial":233,"Robot":1,"Valence":"Win","Action":"Go","Sham":0,"Color":"yellow","trial_type":"pit-trial","trial_index":252,"time_elapsed":1122030,"internal_node_id":"0.0-241.0","task_version":"test-retest-t3"},{"Rune":"rune_06_berkanan","Hex":"#3366ff99","Correct":32,"Choice":32,"RT":414.0049999987241,"Accuracy":1,"Outcome":"-1","Keys":[1914.5700000009965],"TotalKeys":1,"Block":2,"Trial":234,"Robot":3,"Valence":"Lose","Action":"Go","Sham":0,"Color":"blue","trial_type":"pit-trial","trial_index":253,"time_elapsed":1124947,"internal_node_id":"0.0-242.0","task_version":"test-retest-t3"},{"Rune":"rune_06_ansuz","Hex":"#ffcc3399","Correct":-1,"Choice":-1,"RT":-1,"Accuracy":1,"Outcome":"+10","Keys":[],"TotalKeys":0,"Block":2,"Trial":235,"Robot":2,"Valence":"Win","Action":"No-Go","Sham":0,"Color":"yellow","trial_type":"pit-trial","trial_index":254,"time_elapsed":1128954,"internal_node_id":"0.0-243.0","task_version":"test-retest-t3"},{"Rune":"rune_06_cweord","Hex":"#3366ff99","Correct":-1,"Choice":-1,"RT":-1,"Accuracy":1,"Outcome":"-1","Keys":[],"TotalKeys":0,"Block":2,"Trial":236,"Robot":4,"Valence":"Lose","Action":"No-Go","Sham":0,"Color":"blue","trial_type":"pit-trial","trial_index":255,"time_elapsed":1132961,"internal_node_id":"0.0-244.0","task_version":"test-retest-t3"},{"Rune":"rune_06_cweord","Hex":"#3366ff99","Correct":-1,"Choice":-1,"RT":-1,"Accuracy":1,"Outcome":"-1","Keys":[],"TotalKeys":0,"Block":2,"Trial":237,"Robot":4,"Valence":"Lose","Action":"No-Go","Sham":0,"Color":"blue","trial_type":"pit-trial","trial_index":256,"time_elapsed":1136967,"internal_node_id":"0.0-245.0","task_version":"test-retest-t3"},{"Rune":"rune_06_ehwaz","Hex":"#ffcc3399","Correct":32,"Choice":32,"RT":348.83999999891967,"Accuracy":1,"Outcome":"+10","Keys":[1850.0600000042468],"TotalKeys":1,"Block":2,"Trial":238,"Robot":1,"Valence":"Win","Action":"Go","Sham":0,"Color":"yellow","trial_type":"pit-trial","trial_index":257,"time_elapsed":1139821,"internal_node_id":"0.0-246.0","task_version":"test-retest-t3"},{"Rune":"rune_06_ansuz","Hex":"#ffcc3399","Correct":-1,"Choice":-1,"RT":-1,"Accuracy":1,"Outcome":"+10","Keys":[],"TotalKeys":0,"Block":2,"Trial":239,"Robot":2,"Valence":"Win","Action":"No-Go","Sham":0,"Color":"yellow","trial_type":"pit-trial","trial_index":258,"time_elapsed":1143828,"internal_node_id":"0.0-247.0","task_version":"test-retest-t3"},{"Rune":"rune_06_berkanan","Hex":"#3366ff99","Correct":32,"Choice":32,"RT":432.81500000017695,"Accuracy":1,"Outcome":"-1","Keys":[1932.919999999227],"TotalKeys":1,"Block":2,"Trial":240,"Robot":3,"Valence":"Lose","Action":"Go","Sham":0,"Color":"blue","trial_type":"pit-trial","trial_index":259,"time_elapsed":1146766,"internal_node_id":"0.0-248.0","task_version":"test-retest-t3"},{"view_history":"[{\"page_index\":0,\"viewing_time\":3196.4699999950826}]","rt":3196.7349999975413,"trial_type":"pit-instructions","trial_index":260,"time_elapsed":1149965,"internal_node_id":"0.0-249.0","task_version":"test-retest-t3"},{"rt":35208.669999999925,"responses":{"difficulty":"5","fun":"4","clarity":"5","strategy":"No.","feedback":"No."},"survey":"debrief","trial_type":"survey-debrief","trial_index":261,"time_elapsed":1185175,"internal_node_id":"0.0-250.0","task_version":"test-retest-t3"},{"rt":6177.009999999544,"stimulus":"You earned a bonus of $1.45 out of $1.5.<br><br>Press any key to complete the experiment.","key_press":32,"trial_type":"html-keyboard-response","trial_index":262,"time_elapsed":1191356,"internal_node_id":"0.0-251.0","task_version":"test-retest-t3","accuracy":0.9625,"bonus":1.45,"interactions":"[{\"event\":\"blur\",\"trial\":111,\"time\":506393},{\"event\":\"focus\",\"trial\":111,\"time\":507167},{\"event\":\"blur\",\"trial\":111,\"time\":509169},{\"event\":\"focus\",\"trial\":112,\"time\":510270},{\"event\":\"blur\",\"trial\":138,\"time\":606936},{\"event\":\"focus\",\"trial\":138,\"time\":608179}]"}]