[{"slider_type":"valence","raw_loc":429,"loc":0.358,"trial_type":"affective-slider","trial_index":0,"time_elapsed":7130,"internal_node_id":"0.0-0.0","task_version":"test-retest-t3"},{"responses":{"Q02":"0","Q07":"1","Q03":"1","Q06":"1","Q05":"0","Q04":"0","Q01":"1","Q08":"0"},"rt":21305.924999993294,"survey":"gad7","trial_type":"survey-template","trial_index":1,"time_elapsed":28446,"internal_node_id":"0.0-1.0","task_version":"test-retest-t3"},{"view_history":"[{\"page_index\":0,\"viewing_time\":3252.989999993588},{\"page_index\":1,\"viewing_time\":1464.0500000095926},{\"page_index\":2,\"viewing_time\":3215.634999985923},{\"page_index\":3,\"viewing_time\":5424.100000003818},{\"page_index\":4,\"viewing_time\":4743.784999998752},{\"page_index\":5,\"viewing_time\":2736.140000008163}]","rt":20837.619999991148,"trial_type":"pit-instructions","trial_index":2,"time_elapsed":49292,"internal_node_id":"0.0-2.0-0.0","task_version":"test-retest-t3"},{"Rune":"rune_00_ingz","Hex":"#FFFFF080","Correct":32,"Choice":32,"RT":429.2249999998603,"Accuracy":1,"Outcome":"+10","Keys":[1929.5850000053179],"TotalKeys":1,"Block":0,"Action":"Go","trial_type":"pit-trial","trial_index":3,"time_elapsed":52231,"internal_node_id":"0.0-2.0-1.0-0.0","task_version":"test-retest-t3"},{"Rune":"rune_00_ingz","Hex":"#FFFFF080","Correct":32,"Choice":32,"RT":642.5000000017462,"Accuracy":1,"Outcome":"+10","Keys":[2143.739999999525],"TotalKeys":1,"Block":0,"Action":"Go","trial_type":"pit-trial","trial_index":4,"time_elapsed":55390,"internal_node_id":"0.0-2.0-1.0-0.1","task_version":"test-retest-t3"},{"Rune":"rune_00_ingz","Hex":"#FFFFF080","Correct":32,"Choice":32,"RT":315.45499998901505,"Accuracy":1,"Outcome":"+10","Keys":[1816.0199999983888],"TotalKeys":1,"Block":0,"Action":"Go","trial_type":"pit-trial","trial_index":5,"time_elapsed":58221,"internal_node_id":"0.0-2.0-1.0-0.2","task_version":"test-retest-t3"},{"Rune":"rune_00_ingz","Hex":"#FFFFF080","Correct":32,"Choice":32,"RT":383.5350000008475,"Accuracy":1,"Outcome":"+10","Keys":[1884.8900000011781],"TotalKeys":1,"Block":0,"Action":"Go","trial_type":"pit-trial","trial_index":6,"time_elapsed":61124,"internal_node_id":"0.0-2.0-1.0-0.3","task_version":"test-retest-t3"},{"view_history":"[{\"page_index\":0,\"viewing_time\":2762.8899999981513}]","rt":2763.3050000004005,"trial_type":"pit-instructions","trial_index":7,"time_elapsed":63900,"internal_node_id":"0.0-2.0-2.0","task_version":"test-retest-t3"},{"Rune":"rune_00_isaz","Hex":"#FFFFF080","Correct":-1,"Choice":-1,"RT":-1,"Accuracy":1,"Outcome":"+10","Keys":[],"TotalKeys":0,"Block":0,"Action":"No-Go","trial_type":"pit-trial","trial_index":8,"time_elapsed":67907,"internal_node_id":"0.0-2.0-3.0-0.0","task_version":"test-retest-t3"},{"Rune":"rune_00_isaz","Hex":"#FFFFF080","Correct":-1,"Choice":-1,"RT":-1,"Accuracy":1,"Outcome":"+10","Keys":[],"TotalKeys":0,"Block":0,"Action":"No-Go","trial_type":"pit-trial","trial_index":9,"time_elapsed":71923,"internal_node_id":"0.0-2.0-3.0-0.1","task_version":"test-retest-t3"},{"Rune":"rune_00_isaz","Hex":"#FFFFF080","Correct":-1,"Choice":-1,"RT":-1,"Accuracy":1,"Outcome":"+10","Keys":[],"TotalKeys":0,"Block":0,"Action":"No-Go","trial_type":"pit-trial","trial_index":10,"time_elapsed":75938,"internal_node_id":"0.0-2.0-3.0-0.2","task_version":"test-retest-t3"},{"Rune":"rune_00_isaz","Hex":"#FFFFF080","Correct":-1,"Choice":-1,"RT":-1,"Accuracy":1,"Outcome":"+10","Keys":[],"TotalKeys":0,"Block":0,"Action":"No-Go","trial_type":"pit-trial","trial_index":11,"time_elapsed":79954,"internal_node_id":"0.0-2.0-3.0-0.3","task_version":"test-retest-t3"},{"view_history":"[{\"page_index\":0,\"viewing_time\":2444.949999990058},{\"page_index\":1,\"viewing_time\":4479.665000006207},{\"page_index\":2,\"viewing_time\":2399.74500000244},{\"page_index\":3,\"viewing_time\":3744.21999999322},{\"page_index\":4,\"viewing_time\":3887.864999996964},{\"page_index\":5,\"viewing_time\":2351.81000000739},{\"page_index\":6,\"viewing_time\":2520.2299999946263},{\"page_index\":7,\"viewing_time\":3488.225000008242}]","rt":25317.089999996824,"trial_type":"pit-instructions","trial_index":12,"time_elapsed":105284,"internal_node_id":"0.0-2.0-4.0","task_version":"test-retest-t3"},{"responses":["Do nothing","+10","-1","True","Yes"],"num_errors":0,"rt":18522.88000000408,"trial_type":"pit-comprehension","trial_index":13,"time_elapsed":123813,"internal_node_id":"0.0-2.0-5.0","task_version":"test-retest-t3"},{"trial_type":"call-function","trial_index":14,"time_elapsed":123820,"internal_node_id":"0.0-3.0","task_version":"test-retest-t3"},{"view_history":"[{\"page_index\":0,\"viewing_time\":1933.6750000074971},{\"page_index\":1,\"viewing_time\":2407.729999991716},{\"page_index\":2,\"viewing_time\":2632.3450000054436}]","rt":6974.165000006906,"trial_type":"pit-instructions","trial_index":15,"time_elapsed":130796,"internal_node_id":"0.0-4.0","task_version":"test-retest-t3"},{"Rune":"rune_05_gebo","Hex":"#ffcc3399","Correct":-1,"Choice":-1,"RT":-1,"Accuracy":1,"Outcome":"-1","Keys":[],"TotalKeys":0,"Block":1,"Trial":1,"Robot":4,"Valence":"Lose","Action":"No-Go","Sham":0,"Color":"yellow","trial_type":"pit-trial","trial_index":16,"time_elapsed":134807,"internal_node_id":"0.0-5.0","task_version":"test-retest-t3"},{"Rune":"rune_05_ior","Hex":"#3366ff99","Correct":-1,"Choice":-1,"RT":-1,"Accuracy":1,"Outcome":"+10","Keys":[],"TotalKeys":0,"Block":1,"Trial":2,"Robot":2,"Valence":"Win","Action":"No-Go","Sham":0,"Color":"blue","trial_type":"pit-trial","trial_index":17,"time_elapsed":138821,"internal_node_id":"0.0-6.0","task_version":"test-retest-t3"},{"Rune":"rune_05_jeran","Hex":"#ffcc3399","Correct":32,"Choice":-1,"RT":-1,"Accuracy":0,"Outcome":"-10","Keys":[],"TotalKeys":0,"Block":1,"Trial":3,"Robot":3,"Valence":"Lose","Action":"Go","Sham":0,"Color":"yellow","trial_type":"pit-trial","trial_index":18,"time_elapsed":142837,"internal_node_id":"0.0-7.0","task_version":"test-retest-t3"},{"Rune":"rune_05_tiwaz","Hex":"#3366ff99","Correct":32,"Choice":-1,"RT":-1,"Accuracy":0,"Outcome":"+1","Keys":[],"TotalKeys":0,"Block":1,"Trial":4,"Robot":1,"Valence":"Win","Action":"Go","Sham":0,"Color":"blue","trial_type":"pit-trial","trial_index":19,"time_elapsed":146852,"internal_node_id":"0.0-8.0","task_version":"test-retest-t3"},{"Rune":"rune_05_jeran","Hex":"#ffcc3399","Correct":32,"Choice":-1,"RT":-1,"Accuracy":0,"Outcome":"-1","Keys":[],"TotalKeys":0,"Block":1,"Trial":5,"Robot":3,"Valence":"Lose","Action":"Go","Sham":1,"Color":"yellow","trial_type":"pit-trial","trial_index":20,"time_elapsed":150868,"internal_node_id":"0.0-9.0","task_version":"test-retest-t3"},{"Rune":"rune_05_ior","Hex":"#3366ff99","Correct":-1,"Choice":32,"RT":659.4699999986915,"Accuracy":0,"Outcome":"+1","Keys":[2160.100000008242],"TotalKeys":1,"Block":1,"Trial":6,"Robot":2,"Valence":"Win","Action":"No-Go","Sham":0,"Color":"blue","trial_type":"pit-trial","trial_index":21,"time_elapsed":154043,"internal_node_id":"0.0-10.0","task_version":"test-retest-t3"},{"Rune":"rune_05_gebo","Hex":"#ffcc3399","Correct":-1,"Choice":32,"RT":769.4099999935133,"Accuracy":0,"Outcome":"-10","Keys":[2270.440000007511],"TotalKeys":1,"Block":1,"Trial":7,"Robot":4,"Valence":"Lose","Action":"No-Go","Sham":0,"Color":"yellow","trial_type":"pit-trial","trial_index":22,"time_elapsed":157328,"internal_node_id":"0.0-11.0","task_version":"test-retest-t3"},{"Rune":"rune_05_tiwaz","Hex":"#3366ff99","Correct":32,"Choice":32,"RT":685.2650000073481,"Accuracy":1,"Outcome":"+10","Keys":[2186.260000002221],"TotalKeys":1,"Block":1,"Trial":8,"Robot":1,"Valence":"Win","Action":"Go","Sham":0,"Color":"blue","trial_type":"pit-trial","trial_index":23,"time_elapsed":160529,"internal_node_id":"0.0-12.0","task_version":"test-retest-t3"},{"Rune":"rune_05_jeran","Hex":"#ffcc3399","Correct":32,"Choice":-1,"RT":-1,"Accuracy":0,"Outcome":"-10","Keys":[],"TotalKeys":0,"Block":1,"Trial":9,"Robot":3,"Valence":"Lose","Action":"Go","Sham":0,"Color":"yellow","trial_type":"pit-trial","trial_index":24,"time_elapsed":164544,"internal_node_id":"0.0-13.0","task_version":"test-retest-t3"},{"Rune":"rune_05_gebo","Hex":"#ffcc3399","Correct":-1,"Choice":-1,"RT":-1,"Accuracy":1,"Outcome":"-1","Keys":[],"TotalKeys":0,"Block":1,"Trial":10,"Robot":4,"Valence":"Lose","Action":"No-Go","Sham":0,"Color":"yellow","trial_type":"pit-trial","trial_index":25,"time_elapsed":168559,"internal_node_id":"0.0-14.0","task_version":"test-retest-t3"},{"Rune":"rune_05_tiwaz","Hex":"#3366ff99","Correct":32,"Choice":32,"RT":549.589999995078,"Accuracy":1,"Outcome":"+10","Keys":[2051.2049999961164],"TotalKeys":1,"Block":1,"Trial":11,"Robot":1,"Valence":"Win","Action":"Go","Sham":0,"Color":"blue","trial_type":"pit-trial","trial_index":26,"time_elapsed":171623,"internal_node_id":"0.0-15.0","task_version":"test-retest-t3"},{"Rune":"rune_05_ior","Hex":"#3366ff99","Correct":-1,"Choice":-1,"RT":-1,"Accuracy":1,"Outcome":"+10","Keys":[],"TotalKeys":0,"Block":1,"Trial":12,"Robot":2,"Valence":"Win","Action":"No-Go","Sham":0,"Color":"blue","trial_type":"pit-trial","trial_index":27,"time_elapsed":175639,"internal_node_id":"0.0-16.0","task_version":"test-retest-t3"},{"Rune":"rune_05_tiwaz","Hex":"#3366ff99","Correct":32,"Choice":32,"RT":661.9499999942491,"Accuracy":1,"Outcome":"+1","Keys":[2162.0399999956135],"TotalKeys":1,"Block":1,"Trial":13,"Robot":1,"Valence":"Win","Action":"Go","Sham":1,"Color":"blue","trial_type":"pit-trial","trial_index":28,"time_elapsed":178816,"internal_node_id":"0.0-17.0","task_version":"test-retest-t3"},{"Rune":"rune_05_ior","Hex":"#3366ff99","Correct":-1,"Choice":-1,"RT":-1,"Accuracy":1,"Outcome":"+10","Keys":[],"TotalKeys":0,"Block":1,"Trial":14,"Robot":2,"Valence":"Win","Action":"No-Go","Sham":0,"Color":"blue","trial_type":"pit-trial","trial_index":29,"time_elapsed":182832,"internal_node_id":"0.0-18.0","task_version":"test-retest-t3"},{"Rune":"rune_05_gebo","Hex":"#ffcc3399","Correct":-1,"Choice":32,"RT":577.6250000053551,"Accuracy":0,"Outcome":"-1","Keys":[2078.3399999927497],"TotalKeys":1,"Block":1,"Trial":15,"Robot":4,"Valence":"Lose","Action":"No-Go","Sham":1,"Color":"yellow","trial_type":"pit-trial","trial_index":30,"time_elapsed":185925,"internal_node_id":"0.0-19.0","task_version":"test-retest-t3"},{"Rune":"rune_05_jeran","Hex":"#ffcc3399","Correct":32,"Choice":-1,"RT":-1,"Accuracy":0,"Outcome":"-10","Keys":[],"TotalKeys":0,"Block":1,"Trial":16,"Robot":3,"Valence":"Lose","Action":"Go","Sham":0,"Color":"yellow","trial_type":"pit-trial","trial_index":31,"time_elapsed":189941,"internal_node_id":"0.0-20.0","task_version":"test-retest-t3"},{"Rune":"rune_05_jeran","Hex":"#ffcc3399","Correct":32,"Choice":32,"RT":865.814999997383,"Accuracy":1,"Outcome":"-1","Keys":[2366.6899999952875],"TotalKeys":1,"Block":1,"Trial":17,"Robot":3,"Valence":"Lose","Action":"Go","Sham":0,"Color":"yellow","trial_type":"pit-trial","trial_index":32,"time_elapsed":193322,"internal_node_id":"0.0-21.0","task_version":"test-retest-t3"},{"Rune":"rune_05_tiwaz","Hex":"#3366ff99","Correct":32,"Choice":32,"RT":536.1399999965215,"Accuracy":1,"Outcome":"+10","Keys":[2036.485000004177],"TotalKeys":1,"Block":1,"Trial":18,"Robot":1,"Valence":"Win","Action":"Go","Sham":0,"Color":"blue","trial_type":"pit-trial","trial_index":33,"time_elapsed":196373,"internal_node_id":"0.0-22.0","task_version":"test-retest-t3"},{"Rune":"rune_05_ior","Hex":"#3366ff99","Correct":-1,"Choice":-1,"RT":-1,"Accuracy":1,"Outcome":"+1","Keys":[],"TotalKeys":0,"Block":1,"Trial":19,"Robot":2,"Valence":"Win","Action":"No-Go","Sham":1,"Color":"blue","trial_type":"pit-trial","trial_index":34,"time_elapsed":200390,"internal_node_id":"0.0-23.0","task_version":"test-retest-t3"},{"Rune":"rune_05_gebo","Hex":"#ffcc3399","Correct":-1,"Choice":-1,"RT":-1,"Accuracy":1,"Outcome":"-1","Keys":[],"TotalKeys":0,"Block":1,"Trial":20,"Robot":4,"Valence":"Lose","Action":"No-Go","Sham":0,"Color":"yellow","trial_type":"pit-trial","trial_index":35,"time_elapsed":204406,"internal_node_id":"0.0-24.0","task_version":"test-retest-t3"},{"Rune":"rune_05_jeran","Hex":"#ffcc3399","Correct":32,"Choice":32,"RT":461.2000000051921,"Accuracy":1,"Outcome":"-1","Keys":[1962.3199999914505],"TotalKeys":1,"Block":1,"Trial":21,"Robot":3,"Valence":"Lose","Action":"Go","Sham":0,"Color":"yellow","trial_type":"pit-trial","trial_index":36,"time_elapsed":207382,"internal_node_id":"0.0-25.0","task_version":"test-retest-t3"},{"Rune":"rune_05_ior","Hex":"#3366ff99","Correct":-1,"Choice":-1,"RT":-1,"Accuracy":1,"Outcome":"+1","Keys":[],"TotalKeys":0,"Block":1,"Trial":22,"Robot":2,"Valence":"Win","Action":"No-Go","Sham":1,"Color":"blue","trial_type":"pit-trial","trial_index":37,"time_elapsed":211398,"internal_node_id":"0.0-26.0","task_version":"test-retest-t3"},{"Rune":"rune_05_gebo","Hex":"#ffcc3399","Correct":-1,"Choice":-1,"RT":-1,"Accuracy":1,"Outcome":"-1","Keys":[],"TotalKeys":0,"Block":1,"Trial":23,"Robot":4,"Valence":"Lose","Action":"No-Go","Sham":0,"Color":"yellow","trial_type":"pit-trial","trial_index":38,"time_elapsed":215414,"internal_node_id":"0.0-27.0","task_version":"test-retest-t3"},{"Rune":"rune_05_tiwaz","Hex":"#3366ff99","Correct":32,"Choice":32,"RT":268.6649999959627,"Accuracy":1,"Outcome":"+10","Keys":[1769.2799999931594],"TotalKeys":1,"Block":1,"Trial":24,"Robot":1,"Valence":"Win","Action":"Go","Sham":0,"Color":"blue","trial_type":"pit-trial","trial_index":39,"time_elapsed":218199,"internal_node_id":"0.0-28.0","task_version":"test-retest-t3"},{"Rune":"rune_05_ior","Hex":"#3366ff99","Correct":-1,"Choice":-1,"RT":-1,"Accuracy":1,"Outcome":"+10","Keys":[],"TotalKeys":0,"Block":1,"Trial":25,"Robot":2,"Valence":"Win","Action":"No-Go","Sham":0,"Color":"blue","trial_type":"pit-trial","trial_index":40,"time_elapsed":222215,"internal_node_id":"0.0-29.0","task_version":"test-retest-t3"},{"Rune":"rune_05_gebo","Hex":"#ffcc3399","Correct":-1,"Choice":-1,"RT":-1,"Accuracy":1,"Outcome":"-1","Keys":[],"TotalKeys":0,"Block":1,"Trial":26,"Robot":4,"Valence":"Lose","Action":"No-Go","Sham":0,"Color":"yellow","trial_type":"pit-trial","trial_index":41,"time_elapsed":226230,"internal_node_id":"0.0-30.0","task_version":"test-retest-t3"},{"Rune":"rune_05_tiwaz","Hex":"#3366ff99","Correct":32,"Choice":32,"RT":393.2950000016717,"Accuracy":1,"Outcome":"+1","Keys":[1894.590000010794],"TotalKeys":1,"Block":1,"Trial":27,"Robot":1,"Valence":"Win","Action":"Go","Sham":1,"Color":"blue","trial_type":"pit-trial","trial_index":42,"time_elapsed":229140,"internal_node_id":"0.0-31.0","task_version":"test-retest-t3"},{"Rune":"rune_05_jeran","Hex":"#ffcc3399","Correct":32,"Choice":32,"RT":604.284999993979,"Accuracy":1,"Outcome":"-10","Keys":[2105.554999987362],"TotalKeys":1,"Block":1,"Trial":28,"Robot":3,"Valence":"Lose","Action":"Go","Sham":1,"Color":"yellow","trial_type":"pit-trial","trial_index":43,"time_elapsed":232260,"internal_node_id":"0.0-32.0","task_version":"test-retest-t3"},{"Rune":"rune_05_tiwaz","Hex":"#3366ff99","Correct":32,"Choice":32,"RT":444.41000001097564,"Accuracy":1,"Outcome":"+10","Keys":[1945.5400000006193],"TotalKeys":1,"Block":1,"Trial":29,"Robot":1,"Valence":"Win","Action":"Go","Sham":0,"Color":"blue","trial_type":"pit-trial","trial_index":44,"time_elapsed":235221,"internal_node_id":"0.0-33.0","task_version":"test-retest-t3"},{"Rune":"rune_05_ior","Hex":"#3366ff99","Correct":-1,"Choice":-1,"RT":-1,"Accuracy":1,"Outcome":"+10","Keys":[],"TotalKeys":0,"Block":1,"Trial":30,"Robot":2,"Valence":"Win","Action":"No-Go","Sham":0,"Color":"blue","trial_type":"pit-trial","trial_index":45,"time_elapsed":239237,"internal_node_id":"0.0-34.0","task_version":"test-retest-t3"},{"Rune":"rune_05_jeran","Hex":"#ffcc3399","Correct":32,"Choice":32,"RT":521.245000010822,"Accuracy":1,"Outcome":"-1","Keys":[2021.9150000048103],"TotalKeys":1,"Block":1,"Trial":31,"Robot":3,"Valence":"Lose","Action":"Go","Sham":0,"Color":"yellow","trial_type":"pit-trial","trial_index":46,"time_elapsed":242274,"internal_node_id":"0.0-35.0","task_version":"test-retest-t3"},{"Rune":"rune_05_gebo","Hex":"#ffcc3399","Correct":-1,"Choice":-1,"RT":-1,"Accuracy":1,"Outcome":"-1","Keys":[],"TotalKeys":0,"Block":1,"Trial":32,"Robot":4,"Valence":"Lose","Action":"No-Go","Sham":0,"Color":"yellow","trial_type":"pit-trial","trial_index":47,"time_elapsed":246288,"internal_node_id":"0.0-36.0","task_version":"test-retest-t3"},{"Rune":"rune_05_gebo","Hex":"#ffcc3399","Correct":-1,"Choice":-1,"RT":-1,"Accuracy":1,"Outcome":"-1","Keys":[],"TotalKeys":0,"Block":1,"Trial":33,"Robot":4,"Valence":"Lose","Action":"No-Go","Sham":0,"Color":"yellow","trial_type":"pit-trial","trial_index":48,"time_elapsed":250305,"internal_node_id":"0.0-37.0","task_version":"test-retest-t3"},{"Rune":"rune_05_tiwaz","Hex":"#3366ff99","Correct":32,"Choice":32,"RT":321.4750000042841,"Accuracy":1,"Outcome":"+10","Keys":[1823.7500000104774],"TotalKeys":1,"Block":1,"Trial":34,"Robot":1,"Valence":"Win","Action":"Go","Sham":0,"Color":"blue","trial_type":"pit-trial","trial_index":49,"time_elapsed":253144,"internal_node_id":"0.0-38.0","task_version":"test-retest-t3"},{"Rune":"rune_05_ior","Hex":"#3366ff99","Correct":-1,"Choice":-1,"RT":-1,"Accuracy":1,"Outcome":"+10","Keys":[],"TotalKeys":0,"Block":1,"Trial":35,"Robot":2,"Valence":"Win","Action":"No-Go","Sham":0,"Color":"blue","trial_type":"pit-trial","trial_index":50,"time_elapsed":257158,"internal_node_id":"0.0-39.0","task_version":"test-retest-t3"},{"Rune":"rune_05_jeran","Hex":"#ffcc3399","Correct":32,"Choice":32,"RT":456.9800000026589,"Accuracy":1,"Outcome":"-1","Keys":[1957.7600000047823],"TotalKeys":1,"Block":1,"Trial":36,"Robot":3,"Valence":"Lose","Action":"Go","Sham":0,"Color":"yellow","trial_type":"pit-trial","trial_index":51,"time_elapsed":260130,"internal_node_id":"0.0-40.0","task_version":"test-retest-t3"},{"Rune":"rune_05_gebo","Hex":"#ffcc3399","Correct":-1,"Choice":-1,"RT":-1,"Accuracy":1,"Outcome":"-10","Keys":[],"TotalKeys":0,"Block":1,"Trial":37,"Robot":4,"Valence":"Lose","Action":"No-Go","Sham":1,"Color":"yellow","trial_type":"pit-trial","trial_index":52,"time_elapsed":264145,"internal_node_id":"0.0-41.0","task_version":"test-retest-t3"},{"Rune":"rune_05_jeran","Hex":"#ffcc3399","Correct":32,"Choice":32,"RT":535.2050000074087,"Accuracy":1,"Outcome":"-1","Keys":[2036.2400000012713],"TotalKeys":1,"Block":1,"Trial":38,"Robot":3,"Valence":"Lose","Action":"Go","Sham":0,"Color":"yellow","trial_type":"pit-trial","trial_index":53,"time_elapsed":267190,"internal_node_id":"0.0-42.0","task_version":"test-retest-t3"},{"Rune":"rune_05_ior","Hex":"#3366ff99","Correct":-1,"Choice":-1,"RT":-1,"Accuracy":1,"Outcome":"+10","Keys":[],"TotalKeys":0,"Block":1,"Trial":39,"Robot":2,"Valence":"Win","Action":"No-Go","Sham":0,"Color":"blue","trial_type":"pit-trial","trial_index":54,"time_elapsed":271205,"internal_node_id":"0.0-43.0","task_version":"test-retest-t3"},{"Rune":"rune_05_tiwaz","Hex":"#3366ff99","Correct":32,"Choice":32,"RT":304.0550000005169,"Accuracy":1,"Outcome":"+10","Keys":[1804.2599999898812],"TotalKeys":1,"Block":1,"Trial":40,"Robot":1,"Valence":"Win","Action":"Go","Sham":0,"Color":"blue","trial_type":"pit-trial","trial_index":55,"time_elapsed":274025,"internal_node_id":"0.0-44.0","task_version":"test-retest-t3"},{"Rune":"rune_05_ior","Hex":"#3366ff99","Correct":-1,"Choice":-1,"RT":-1,"Accuracy":1,"Outcome":"+10","Keys":[],"TotalKeys":0,"Block":1,"Trial":41,"Robot":2,"Valence":"Win","Action":"No-Go","Sham":0,"Color":"blue","trial_type":"pit-trial","trial_index":56,"time_elapsed":278039,"internal_node_id":"0.0-45.0","task_version":"test-retest-t3"},{"Rune":"rune_05_gebo","Hex":"#ffcc3399","Correct":-1,"Choice":-1,"RT":-1,"Accuracy":1,"Outcome":"-1","Keys":[],"TotalKeys":0,"Block":1,"Trial":42,"Robot":4,"Valence":"Lose","Action":"No-Go","Sham":0,"Color":"yellow","trial_type":"pit-trial","trial_index":57,"time_elapsed":282054,"internal_node_id":"0.0-46.0","task_version":"test-retest-t3"},{"Rune":"rune_05_jeran","Hex":"#ffcc3399","Correct":32,"Choice":32,"RT":346.23999999894295,"Accuracy":1,"Outcome":"-1","Keys":[1846.4199999871198],"TotalKeys":1,"Block":1,"Trial":43,"Robot":3,"Valence":"Lose","Action":"Go","Sham":0,"Color":"yellow","trial_type":"pit-trial","trial_index":58,"time_elapsed":284916,"internal_node_id":"0.0-47.0","task_version":"test-retest-t3"},{"Rune":"rune_05_tiwaz","Hex":"#3366ff99","Correct":32,"Choice":32,"RT":345.6700000097044,"Accuracy":1,"Outcome":"+1","Keys":[1846.9999999942956],"TotalKeys":1,"Block":1,"Trial":44,"Robot":1,"Valence":"Win","Action":"Go","Sham":1,"Color":"blue","trial_type":"pit-trial","trial_index":59,"time_elapsed":287778,"internal_node_id":"0.0-48.0","task_version":"test-retest-t3"},{"Rune":"rune_05_jeran","Hex":"#ffcc3399","Correct":32,"Choice":32,"RT":622.5500000000466,"Accuracy":1,"Outcome":"-10","Keys":[2122.995000012452],"TotalKeys":1,"Block":1,"Trial":45,"Robot":3,"Valence":"Lose","Action":"Go","Sham":1,"Color":"yellow","trial_type":"pit-trial","trial_index":60,"time_elapsed":290917,"internal_node_id":"0.0-49.0","task_version":"test-retest-t3"},{"Rune":"rune_05_gebo","Hex":"#ffcc3399","Correct":-1,"Choice":-1,"RT":-1,"Accuracy":1,"Outcome":"-1","Keys":[],"TotalKeys":0,"Block":1,"Trial":46,"Robot":4,"Valence":"Lose","Action":"No-Go","Sham":0,"Color":"yellow","trial_type":"pit-trial","trial_index":61,"time_elapsed":294933,"internal_node_id":"0.0-50.0","task_version":"test-retest-t3"},{"Rune":"rune_05_tiwaz","Hex":"#3366ff99","Correct":32,"Choice":32,"RT":364.10000000614673,"Accuracy":1,"Outcome":"+10","Keys":[1864.9900000018533],"TotalKeys":1,"Block":1,"Trial":47,"Robot":1,"Valence":"Win","Action":"Go","Sham":0,"Color":"blue","trial_type":"pit-trial","trial_index":62,"time_elapsed":297812,"internal_node_id":"0.0-51.0","task_version":"test-retest-t3"},{"Rune":"rune_05_ior","Hex":"#3366ff99","Correct":-1,"Choice":-1,"RT":-1,"Accuracy":1,"Outcome":"+10","Keys":[],"TotalKeys":0,"Block":1,"Trial":48,"Robot":2,"Valence":"Win","Action":"No-Go","Sham":0,"Color":"blue","trial_type":"pit-trial","trial_index":63,"time_elapsed":301828,"internal_node_id":"0.0-52.0","task_version":"test-retest-t3"},{"Rune":"rune_05_jeran","Hex":"#ffcc3399","Correct":32,"Choice":32,"RT":479.910000009113,"Accuracy":1,"Outcome":"-1","Keys":[1980.3400000091642],"TotalKeys":1,"Block":1,"Trial":49,"Robot":3,"Valence":"Lose","Action":"Go","Sham":0,"Color":"yellow","trial_type":"pit-trial","trial_index":64,"time_elapsed":304823,"internal_node_id":"0.0-53.0","task_version":"test-retest-t3"},{"Rune":"rune_05_ior","Hex":"#3366ff99","Correct":-1,"Choice":-1,"RT":-1,"Accuracy":1,"Outcome":"+10","Keys":[],"TotalKeys":0,"Block":1,"Trial":50,"Robot":2,"Valence":"Win","Action":"No-Go","Sham":0,"Color":"blue","trial_type":"pit-trial","trial_index":65,"time_elapsed":308839,"internal_node_id":"0.0-54.0","task_version":"test-retest-t3"},{"Rune":"rune_05_gebo","Hex":"#ffcc3399","Correct":-1,"Choice":-1,"RT":-1,"Accuracy":1,"Outcome":"-10","Keys":[],"TotalKeys":0,"Block":1,"Trial":51,"Robot":4,"Valence":"Lose","Action":"No-Go","Sham":1,"Color":"yellow","trial_type":"pit-trial","trial_index":66,"time_elapsed":312853,"internal_node_id":"0.0-55.0","task_version":"test-retest-t3"},{"Rune":"rune_05_tiwaz","Hex":"#3366ff99","Correct":32,"Choice":32,"RT":436.01000000489876,"Accuracy":1,"Outcome":"+10","Keys":[1936.375000004773],"TotalKeys":1,"Block":1,"Trial":52,"Robot":1,"Valence":"Win","Action":"Go","Sham":0,"Color":"blue","trial_type":"pit-trial","trial_index":67,"time_elapsed":315804,"internal_node_id":"0.0-56.0","task_version":"test-retest-t3"},{"Rune":"rune_05_jeran","Hex":"#ffcc3399","Correct":32,"Choice":32,"RT":648.6399999994319,"Accuracy":1,"Outcome":"-1","Keys":[2149.3699999991804],"TotalKeys":1,"Block":1,"Trial":53,"Robot":3,"Valence":"Lose","Action":"Go","Sham":0,"Color":"yellow","trial_type":"pit-trial","trial_index":68,"time_elapsed":318968,"internal_node_id":"0.0-57.0","task_version":"test-retest-t3"},{"Rune":"rune_05_tiwaz","Hex":"#3366ff99","Correct":32,"Choice":32,"RT":354.6000000060303,"Accuracy":1,"Outcome":"+10","Keys":[1855.215000003227],"TotalKeys":1,"Block":1,"Trial":54,"Robot":1,"Valence":"Win","Action":"Go","Sham":0,"Color":"blue","trial_type":"pit-trial","trial_index":69,"time_elapsed":321837,"internal_node_id":"0.0-58.0","task_version":"test-retest-t3"},{"Rune":"rune_05_gebo","Hex":"#ffcc3399","Correct":-1,"Choice":-1,"RT":-1,"Accuracy":1,"Outcome":"-1","Keys":[],"TotalKeys":0,"Block":1,"Trial":55,"Robot":4,"Valence":"Lose","Action":"No-Go","Sham":0,"Color":"yellow","trial_type":"pit-trial","trial_index":70,"time_elapsed":325854,"internal_node_id":"0.0-59.0","task_version":"test-retest-t3"},{"Rune":"rune_05_ior","Hex":"#3366ff99","Correct":-1,"Choice":-1,"RT":-1,"Accuracy":1,"Outcome":"+10","Keys":[],"TotalKeys":0,"Block":1,"Trial":56,"Robot":2,"Valence":"Win","Action":"No-Go","Sham":0,"Color":"blue","trial_type":"pit-trial","trial_index":71,"time_elapsed":329870,"internal_node_id":"0.0-60.0","task_version":"test-retest-t3"},{"Rune":"rune_05_gebo","Hex":"#ffcc3399","Correct":-1,"Choice":-1,"RT":-1,"Accuracy":1,"Outcome":"-1","Keys":[],"TotalKeys":0,"Block":1,"Trial":57,"Robot":4,"Valence":"Lose","Action":"No-Go","Sham":0,"Color":"yellow","trial_type":"pit-trial","trial_index":72,"time_elapsed":333887,"internal_node_id":"0.0-61.0","task_version":"test-retest-t3"},{"Rune":"rune_05_jeran","Hex":"#ffcc3399","Correct":32,"Choice":32,"RT":794.0249999955995,"Accuracy":1,"Outcome":"-1","Keys":[2294.8099999921396],"TotalKeys":1,"Block":1,"Trial":58,"Robot":3,"Valence":"Lose","Action":"Go","Sham":0,"Color":"yellow","trial_type":"pit-trial","trial_index":73,"time_elapsed":337196,"internal_node_id":"0.0-62.0","task_version":"test-retest-t3"},{"Rune":"rune_05_tiwaz","Hex":"#3366ff99","Correct":32,"Choice":32,"RT":456.09500000136904,"Accuracy":1,"Outcome":"+10","Keys":[1956.8900000012945],"TotalKeys":1,"Block":1,"Trial":59,"Robot":1,"Valence":"Win","Action":"Go","Sham":0,"Color":"blue","trial_type":"pit-trial","trial_index":74,"time_elapsed":340168,"internal_node_id":"0.0-63.0","task_version":"test-retest-t3"},{"Rune":"rune_05_ior","Hex":"#3366ff99","Correct":-1,"Choice":-1,"RT":-1,"Accuracy":1,"Outcome":"+1","Keys":[],"TotalKeys":0,"Block":1,"Trial":60,"Robot":2,"Valence":"Win","Action":"No-Go","Sham":1,"Color":"blue","trial_type":"pit-trial","trial_index":75,"time_elapsed":344184,"internal_node_id":"0.0-64.0","task_version":"test-retest-t3"},{"value":false,"trial_type":"call-function","trial_index":76,"time_elapsed":344199,"internal_node_id":"0.0-65.0","task_version":"test-retest-t3"},{"view_history":"[{\"page_index\":0,\"viewing_time\":3593.334999997751},{\"page_index\":1,\"viewing_time\":1943.810000011581}]","rt":5537.565000005998,"trial_type":"pit-instructions","trial_index":77,"time_elapsed":349738,"internal_node_id":"0.0-66.0","task_version":"test-retest-t3"},{"Rune":"rune_05_jeran","Hex":"#ffcc3399","Correct":32,"Choice":32,"RT":615.749999997206,"Accuracy":1,"Outcome":"-1","Keys":[2116.6250000096625],"TotalKeys":1,"Block":1,"Trial":61,"Robot":3,"Valence":"Lose","Action":"Go","Sham":0,"Color":"yellow","trial_type":"pit-trial","trial_index":78,"time_elapsed":352863,"internal_node_id":"0.0-67.0","task_version":"test-retest-t3"},{"Rune":"rune_05_tiwaz","Hex":"#3366ff99","Correct":32,"Choice":32,"RT":407.9850000125589,"Accuracy":1,"Outcome":"+10","Keys":[1908.320000002277],"TotalKeys":1,"Block":1,"Trial":62,"Robot":1,"Valence":"Win","Action":"Go","Sham":0,"Color":"blue","trial_type":"pit-trial","trial_index":79,"time_elapsed":355785,"internal_node_id":"0.0-68.0","task_version":"test-retest-t3"},{"Rune":"rune_05_gebo","Hex":"#ffcc3399","Correct":-1,"Choice":-1,"RT":-1,"Accuracy":1,"Outcome":"-1","Keys":[],"TotalKeys":0,"Block":1,"Trial":63,"Robot":4,"Valence":"Lose","Action":"No-Go","Sham":0,"Color":"yellow","trial_type":"pit-trial","trial_index":80,"time_elapsed":359801,"internal_node_id":"0.0-69.0","task_version":"test-retest-t3"},{"Rune":"rune_05_ior","Hex":"#3366ff99","Correct":-1,"Choice":-1,"RT":-1,"Accuracy":1,"Outcome":"+10","Keys":[],"TotalKeys":0,"Block":1,"Trial":64,"Robot":2,"Valence":"Win","Action":"No-Go","Sham":0,"Color":"blue","trial_type":"pit-trial","trial_index":81,"time_elapsed":363819,"internal_node_id":"0.0-70.0","task_version":"test-retest-t3"},{"Rune":"rune_05_ior","Hex":"#3366ff99","Correct":-1,"Choice":-1,"RT":-1,"Accuracy":1,"Outcome":"+10","Keys":[],"TotalKeys":0,"Block":1,"Trial":65,"Robot":2,"Valence":"Win","Action":"No-Go","Sham":0,"Color":"blue","trial_type":"pit-trial","trial_index":82,"time_elapsed":367834,"internal_node_id":"0.0-71.0","task_version":"test-retest-t3"},{"Rune":"rune_05_gebo","Hex":"#ffcc3399","Correct":-1,"Choice":-1,"RT":-1,"Accuracy":1,"Outcome":"-1","Keys":[],"TotalKeys":0,"Block":1,"Trial":66,"Robot":4,"Valence":"Lose","Action":"No-Go","Sham":0,"Color":"yellow","trial_type":"pit-trial","trial_index":83,"time_elapsed":371850,"internal_node_id":"0.0-72.0","task_version":"test-retest-t3"},{"Rune":"rune_05_tiwaz","Hex":"#3366ff99","Correct":32,"Choice":32,"RT":502.17500000144355,"Accuracy":1,"Outcome":"+1","Keys":[2002.345000000787],"TotalKeys":1,"Block":1,"Trial":67,"Robot":1,"Valence":"Win","Action":"Go","Sham":1,"Color":"blue","trial_type":"pit-trial","trial_index":84,"time_elapsed":374867,"internal_node_id":"0.0-73.0","task_version":"test-retest-t3"},{"Rune":"rune_05_jeran","Hex":"#ffcc3399","Correct":32,"Choice":32,"RT":532.4149999942165,"Accuracy":1,"Outcome":"-1","Keys":[2033.0899999971734],"TotalKeys":1,"Block":1,"Trial":68,"Robot":3,"Valence":"Lose","Action":"Go","Sham":0,"Color":"yellow","trial_type":"pit-trial","trial_index":85,"time_elapsed":377915,"internal_node_id":"0.0-74.0","task_version":"test-retest-t3"},{"Rune":"rune_05_jeran","Hex":"#ffcc3399","Correct":32,"Choice":32,"RT":577.4850000016158,"Accuracy":1,"Outcome":"-1","Keys":[2078.2100000069477],"TotalKeys":1,"Block":1,"Trial":69,"Robot":3,"Valence":"Lose","Action":"Go","Sham":0,"Color":"yellow","trial_type":"pit-trial","trial_index":86,"time_elapsed":381008,"internal_node_id":"0.0-75.0","task_version":"test-retest-t3"},{"Rune":"rune_05_tiwaz","Hex":"#3366ff99","Correct":32,"Choice":32,"RT":381.4599999896018,"Accuracy":1,"Outcome":"+10","Keys":[1882.4100000056205],"TotalKeys":1,"Block":1,"Trial":70,"Robot":1,"Valence":"Win","Action":"Go","Sham":0,"Color":"blue","trial_type":"pit-trial","trial_index":87,"time_elapsed":383905,"internal_node_id":"0.0-76.0","task_version":"test-retest-t3"},{"Rune":"rune_05_ior","Hex":"#3366ff99","Correct":-1,"Choice":-1,"RT":-1,"Accuracy":1,"Outcome":"+10","Keys":[],"TotalKeys":0,"Block":1,"Trial":71,"Robot":2,"Valence":"Win","Action":"No-Go","Sham":0,"Color":"blue","trial_type":"pit-trial","trial_index":88,"time_elapsed":387920,"internal_node_id":"0.0-77.0","task_version":"test-retest-t3"},{"Rune":"rune_05_gebo","Hex":"#ffcc3399","Correct":-1,"Choice":-1,"RT":-1,"Accuracy":1,"Outcome":"-1","Keys":[],"TotalKeys":0,"Block":1,"Trial":72,"Robot":4,"Valence":"Lose","Action":"No-Go","Sham":0,"Color":"yellow","trial_type":"pit-trial","trial_index":89,"time_elapsed":391937,"internal_node_id":"0.0-78.0","task_version":"test-retest-t3"},{"Rune":"rune_05_jeran","Hex":"#ffcc3399","Correct":32,"Choice":32,"RT":833.1100000068545,"Accuracy":1,"Outcome":"-10","Keys":[2333.5649999935413],"TotalKeys":1,"Block":1,"Trial":73,"Robot":3,"Valence":"Lose","Action":"Go","Sham":1,"Color":"yellow","trial_type":"pit-trial","trial_index":90,"time_elapsed":395285,"internal_node_id":"0.0-79.0","task_version":"test-retest-t3"},{"Rune":"rune_05_gebo","Hex":"#ffcc3399","Correct":-1,"Choice":-1,"RT":-1,"Accuracy":1,"Outcome":"-1","Keys":[],"TotalKeys":0,"Block":1,"Trial":74,"Robot":4,"Valence":"Lose","Action":"No-Go","Sham":0,"Color":"yellow","trial_type":"pit-trial","trial_index":91,"time_elapsed":399301,"internal_node_id":"0.0-80.0","task_version":"test-retest-t3"},{"Rune":"rune_05_tiwaz","Hex":"#3366ff99","Correct":32,"Choice":32,"RT":276.29999999771826,"Accuracy":1,"Outcome":"+10","Keys":[1777.0999999920605],"TotalKeys":1,"Block":1,"Trial":75,"Robot":1,"Valence":"Win","Action":"Go","Sham":0,"Color":"blue","trial_type":"pit-trial","trial_index":92,"time_elapsed":402093,"internal_node_id":"0.0-81.0","task_version":"test-retest-t3"},{"Rune":"rune_05_ior","Hex":"#3366ff99","Correct":-1,"Choice":-1,"RT":-1,"Accuracy":1,"Outcome":"+1","Keys":[],"TotalKeys":0,"Block":1,"Trial":76,"Robot":2,"Valence":"Win","Action":"No-Go","Sham":1,"Color":"blue","trial_type":"pit-trial","trial_index":93,"time_elapsed":406108,"internal_node_id":"0.0-82.0","task_version":"test-retest-t3"},{"Rune":"rune_05_ior","Hex":"#3366ff99","Correct":-1,"Choice":-1,"RT":-1,"Accuracy":1,"Outcome":"+10","Keys":[],"TotalKeys":0,"Block":1,"Trial":77,"Robot":2,"Valence":"Win","Action":"No-Go","Sham":0,"Color":"blue","trial_type":"pit-trial","trial_index":94,"time_elapsed":410123,"internal_node_id":"0.0-83.0","task_version":"test-retest-t3"},{"Rune":"rune_05_tiwaz","Hex":"#3366ff99","Correct":32,"Choice":32,"RT":289.359999995213,"Accuracy":1,"Outcome":"+10","Keys":[1791.0200000042096],"TotalKeys":1,"Block":1,"Trial":78,"Robot":1,"Valence":"Win","Action":"Go","Sham":0,"Color":"blue","trial_type":"pit-trial","trial_index":95,"time_elapsed":412929,"internal_node_id":"0.0-84.0","task_version":"test-retest-t3"},{"Rune":"rune_05_gebo","Hex":"#ffcc3399","Correct":-1,"Choice":-1,"RT":-1,"Accuracy":1,"Outcome":"-10","Keys":[],"TotalKeys":0,"Block":1,"Trial":79,"Robot":4,"Valence":"Lose","Action":"No-Go","Sham":1,"Color":"yellow","trial_type":"pit-trial","trial_index":96,"time_elapsed":416944,"internal_node_id":"0.0-85.0","task_version":"test-retest-t3"},{"Rune":"rune_05_jeran","Hex":"#ffcc3399","Correct":32,"Choice":32,"RT":549.0699999936623,"Accuracy":1,"Outcome":"-1","Keys":[2049.6150000108173],"TotalKeys":1,"Block":1,"Trial":80,"Robot":3,"Valence":"Lose","Action":"Go","Sham":0,"Color":"yellow","trial_type":"pit-trial","trial_index":97,"time_elapsed":420013,"internal_node_id":"0.0-86.0","task_version":"test-retest-t3"},{"Rune":"rune_05_jeran","Hex":"#ffcc3399","Correct":32,"Choice":32,"RT":603.3100000058766,"Accuracy":1,"Outcome":"-1","Keys":[2104.360000012093],"TotalKeys":1,"Block":1,"Trial":81,"Robot":3,"Valence":"Lose","Action":"Go","Sham":0,"Color":"yellow","trial_type":"pit-trial","trial_index":98,"time_elapsed":423132,"internal_node_id":"0.0-87.0","task_version":"test-retest-t3"},{"Rune":"rune_05_gebo","Hex":"#ffcc3399","Correct":-1,"Choice":-1,"RT":-1,"Accuracy":1,"Outcome":"-1","Keys":[],"TotalKeys":0,"Block":1,"Trial":82,"Robot":4,"Valence":"Lose","Action":"No-Go","Sham":0,"Color":"yellow","trial_type":"pit-trial","trial_index":99,"time_elapsed":427148,"internal_node_id":"0.0-88.0","task_version":"test-retest-t3"},{"Rune":"rune_05_ior","Hex":"#3366ff99","Correct":-1,"Choice":-1,"RT":-1,"Accuracy":1,"Outcome":"+1","Keys":[],"TotalKeys":0,"Block":1,"Trial":83,"Robot":2,"Valence":"Win","Action":"No-Go","Sham":1,"Color":"blue","trial_type":"pit-trial","trial_index":100,"time_elapsed":431163,"internal_node_id":"0.0-89.0","task_version":"test-retest-t3"},{"Rune":"rune_05_tiwaz","Hex":"#3366ff99","Correct":32,"Choice":32,"RT":507.19499999831896,"Accuracy":1,"Outcome":"+10","Keys":[2007.8749999956926],"TotalKeys":1,"Block":1,"Trial":84,"Robot":1,"Valence":"Win","Action":"Go","Sham":0,"Color":"blue","trial_type":"pit-trial","trial_index":101,"time_elapsed":434186,"internal_node_id":"0.0-90.0","task_version":"test-retest-t3"},{"Rune":"rune_05_jeran","Hex":"#ffcc3399","Correct":32,"Choice":32,"RT":690.5300000071293,"Accuracy":1,"Outcome":"-1","Keys":[2192.2100000083447],"TotalKeys":1,"Block":1,"Trial":85,"Robot":3,"Valence":"Lose","Action":"Go","Sham":0,"Color":"yellow","trial_type":"pit-trial","trial_index":102,"time_elapsed":437392,"internal_node_id":"0.0-91.0","task_version":"test-retest-t3"},{"Rune":"rune_05_ior","Hex":"#3366ff99","Correct":-1,"Choice":-1,"RT":-1,"Accuracy":1,"Outcome":"+10","Keys":[],"TotalKeys":0,"Block":1,"Trial":86,"Robot":2,"Valence":"Win","Action":"No-Go","Sham":0,"Color":"blue","trial_type":"pit-trial","trial_index":103,"time_elapsed":441407,"internal_node_id":"0.0-92.0","task_version":"test-retest-t3"},{"Rune":"rune_05_gebo","Hex":"#ffcc3399","Correct":-1,"Choice":-1,"RT":-1,"Accuracy":1,"Outcome":"-1","Keys":[],"TotalKeys":0,"Block":1,"Trial":87,"Robot":4,"Valence":"Lose","Action":"No-Go","Sham":0,"Color":"yellow","trial_type":"pit-trial","trial_index":104,"time_elapsed":445423,"internal_node_id":"0.0-93.0","task_version":"test-retest-t3"},{"Rune":"rune_05_tiwaz","Hex":"#3366ff99","Correct":32,"Choice":32,"RT":405.13499999360647,"Accuracy":1,"Outcome":"+10","Keys":[1905.3799999965122],"TotalKeys":1,"Block":1,"Trial":88,"Robot":1,"Valence":"Win","Action":"Go","Sham":0,"Color":"blue","trial_type":"pit-trial","trial_index":105,"time_elapsed":448343,"internal_node_id":"0.0-94.0","task_version":"test-retest-t3"},{"Rune":"rune_05_jeran","Hex":"#ffcc3399","Correct":32,"Choice":32,"RT":638.3499999938067,"Accuracy":1,"Outcome":"-1","Keys":[2138.5650000011083],"TotalKeys":1,"Block":1,"Trial":89,"Robot":3,"Valence":"Lose","Action":"Go","Sham":0,"Color":"yellow","trial_type":"pit-trial","trial_index":106,"time_elapsed":451496,"internal_node_id":"0.0-95.0","task_version":"test-retest-t3"},{"Rune":"rune_05_ior","Hex":"#3366ff99","Correct":-1,"Choice":-1,"RT":-1,"Accuracy":1,"Outcome":"+10","Keys":[],"TotalKeys":0,"Block":1,"Trial":90,"Robot":2,"Valence":"Win","Action":"No-Go","Sham":0,"Color":"blue","trial_type":"pit-trial","trial_index":107,"time_elapsed":455511,"internal_node_id":"0.0-96.0","task_version":"test-retest-t3"},{"Rune":"rune_05_gebo","Hex":"#ffcc3399","Correct":-1,"Choice":-1,"RT":-1,"Accuracy":1,"Outcome":"-1","Keys":[],"TotalKeys":0,"Block":1,"Trial":91,"Robot":4,"Valence":"Lose","Action":"No-Go","Sham":0,"Color":"yellow","trial_type":"pit-trial","trial_index":108,"time_elapsed":459527,"internal_node_id":"0.0-97.0","task_version":"test-retest-t3"},{"Rune":"rune_05_tiwaz","Hex":"#3366ff99","Correct":32,"Choice":32,"RT":445.73000000673346,"Accuracy":1,"Outcome":"+10","Keys":[1946.00999999966],"TotalKeys":1,"Block":1,"Trial":92,"Robot":1,"Valence":"Win","Action":"Go","Sham":0,"Color":"blue","trial_type":"pit-trial","trial_index":109,"time_elapsed":462487,"internal_node_id":"0.0-98.0","task_version":"test-retest-t3"},{"Rune":"rune_05_ior","Hex":"#3366ff99","Correct":-1,"Choice":-1,"RT":-1,"Accuracy":1,"Outcome":"+10","Keys":[],"TotalKeys":0,"Block":1,"Trial":93,"Robot":2,"Valence":"Win","Action":"No-Go","Sham":0,"Color":"blue","trial_type":"pit-trial","trial_index":110,"time_elapsed":466503,"internal_node_id":"0.0-99.0","task_version":"test-retest-t3"},{"Rune":"rune_05_tiwaz","Hex":"#3366ff99","Correct":32,"Choice":32,"RT":437.45499999204185,"Accuracy":1,"Outcome":"+10","Keys":[1938.6150000063935],"TotalKeys":1,"Block":1,"Trial":94,"Robot":1,"Valence":"Win","Action":"Go","Sham":0,"Color":"blue","trial_type":"pit-trial","trial_index":111,"time_elapsed":469457,"internal_node_id":"0.0-100.0","task_version":"test-retest-t3"},{"Rune":"rune_05_gebo","Hex":"#ffcc3399","Correct":-1,"Choice":-1,"RT":-1,"Accuracy":1,"Outcome":"-1","Keys":[],"TotalKeys":0,"Block":1,"Trial":95,"Robot":4,"Valence":"Lose","Action":"No-Go","Sham":0,"Color":"yellow","trial_type":"pit-trial","trial_index":112,"time_elapsed":473473,"internal_node_id":"0.0-101.0","task_version":"test-retest-t3"},{"Rune":"rune_05_jeran","Hex":"#ffcc3399","Correct":32,"Choice":32,"RT":776.9350000016857,"Accuracy":1,"Outcome":"-1","Keys":[2277.7700000006007],"TotalKeys":1,"Block":1,"Trial":96,"Robot":3,"Valence":"Lose","Action":"Go","Sham":0,"Color":"yellow","trial_type":"pit-trial","trial_index":113,"time_elapsed":476766,"internal_node_id":"0.0-102.0","task_version":"test-retest-t3"},{"Rune":"rune_05_gebo","Hex":"#ffcc3399","Correct":-1,"Choice":-1,"RT":-1,"Accuracy":1,"Outcome":"-10","Keys":[],"TotalKeys":0,"Block":1,"Trial":97,"Robot":4,"Valence":"Lose","Action":"No-Go","Sham":1,"Color":"yellow","trial_type":"pit-trial","trial_index":114,"time_elapsed":480781,"internal_node_id":"0.0-103.0","task_version":"test-retest-t3"},{"Rune":"rune_05_ior","Hex":"#3366ff99","Correct":-1,"Choice":-1,"RT":-1,"Accuracy":1,"Outcome":"+10","Keys":[],"TotalKeys":0,"Block":1,"Trial":98,"Robot":2,"Valence":"Win","Action":"No-Go","Sham":0,"Color":"blue","trial_type":"pit-trial","trial_index":115,"time_elapsed":484797,"internal_node_id":"0.0-104.0","task_version":"test-retest-t3"},{"Rune":"rune_05_jeran","Hex":"#ffcc3399","Correct":32,"Choice":32,"RT":534.14000000339,"Accuracy":1,"Outcome":"-10","Keys":[2034.7100000071805],"TotalKeys":1,"Block":1,"Trial":99,"Robot":3,"Valence":"Lose","Action":"Go","Sham":1,"Color":"yellow","trial_type":"pit-trial","trial_index":116,"time_elapsed":487847,"internal_node_id":"0.0-105.0","task_version":"test-retest-t3"},{"Rune":"rune_05_tiwaz","Hex":"#3366ff99","Correct":32,"Choice":32,"RT":477.42000001017004,"Accuracy":1,"Outcome":"+1","Keys":[1977.759999994305],"TotalKeys":1,"Block":1,"Trial":100,"Robot":1,"Valence":"Win","Action":"Go","Sham":1,"Color":"blue","trial_type":"pit-trial","trial_index":117,"time_elapsed":490840,"internal_node_id":"0.0-106.0","task_version":"test-retest-t3"},{"Rune":"rune_05_gebo","Hex":"#ffcc3399","Correct":-1,"Choice":-1,"RT":-1,"Accuracy":1,"Outcome":"-1","Keys":[],"TotalKeys":0,"Block":1,"Trial":101,"Robot":4,"Valence":"Lose","Action":"No-Go","Sham":0,"Color":"yellow","trial_type":"pit-trial","trial_index":118,"time_elapsed":494856,"internal_node_id":"0.0-107.0","task_version":"test-retest-t3"},{"Rune":"rune_05_ior","Hex":"#3366ff99","Correct":-1,"Choice":-1,"RT":-1,"Accuracy":1,"Outcome":"+10","Keys":[],"TotalKeys":0,"Block":1,"Trial":102,"Robot":2,"Valence":"Win","Action":"No-Go","Sham":0,"Color":"blue","trial_type":"pit-trial","trial_index":119,"time_elapsed":498872,"internal_node_id":"0.0-108.0","task_version":"test-retest-t3"},{"Rune":"rune_05_tiwaz","Hex":"#3366ff99","Correct":32,"Choice":32,"RT":288.7999999948079,"Accuracy":1,"Outcome":"+10","Keys":[1789.295000009588],"TotalKeys":1,"Block":1,"Trial":103,"Robot":1,"Valence":"Win","Action":"Go","Sham":0,"Color":"blue","trial_type":"pit-trial","trial_index":120,"time_elapsed":501676,"internal_node_id":"0.0-109.0","task_version":"test-retest-t3"},{"Rune":"rune_05_jeran","Hex":"#ffcc3399","Correct":32,"Choice":32,"RT":760.3799999924377,"Accuracy":1,"Outcome":"-1","Keys":[2261.2200000003213],"TotalKeys":1,"Block":1,"Trial":104,"Robot":3,"Valence":"Lose","Action":"Go","Sham":0,"Color":"yellow","trial_type":"pit-trial","trial_index":121,"time_elapsed":504952,"internal_node_id":"0.0-110.0","task_version":"test-retest-t3"},{"Rune":"rune_05_jeran","Hex":"#ffcc3399","Correct":32,"Choice":32,"RT":541.639999995823,"Accuracy":1,"Outcome":"-1","Keys":[2042.4050000001444],"TotalKeys":1,"Block":1,"Trial":105,"Robot":3,"Valence":"Lose","Action":"Go","Sham":0,"Color":"yellow","trial_type":"pit-trial","trial_index":122,"time_elapsed":508010,"internal_node_id":"0.0-111.0","task_version":"test-retest-t3"},{"Rune":"rune_05_gebo","Hex":"#ffcc3399","Correct":-1,"Choice":-1,"RT":-1,"Accuracy":1,"Outcome":"-1","Keys":[],"TotalKeys":0,"Block":1,"Trial":106,"Robot":4,"Valence":"Lose","Action":"No-Go","Sham":0,"Color":"yellow","trial_type":"pit-trial","trial_index":123,"time_elapsed":512026,"internal_node_id":"0.0-112.0","task_version":"test-retest-t3"},{"Rune":"rune_05_tiwaz","Hex":"#3366ff99","Correct":32,"Choice":32,"RT":300.27500000142027,"Accuracy":1,"Outcome":"+10","Keys":[1801.3799999898765],"TotalKeys":1,"Block":1,"Trial":107,"Robot":1,"Valence":"Win","Action":"Go","Sham":0,"Color":"blue","trial_type":"pit-trial","trial_index":124,"time_elapsed":514842,"internal_node_id":"0.0-113.0","task_version":"test-retest-t3"},{"Rune":"rune_05_ior","Hex":"#3366ff99","Correct":-1,"Choice":-1,"RT":-1,"Accuracy":1,"Outcome":"+10","Keys":[],"TotalKeys":0,"Block":1,"Trial":108,"Robot":2,"Valence":"Win","Action":"No-Go","Sham":0,"Color":"blue","trial_type":"pit-trial","trial_index":125,"time_elapsed":518857,"internal_node_id":"0.0-114.0","task_version":"test-retest-t3"},{"Rune":"rune_05_tiwaz","Hex":"#3366ff99","Correct":32,"Choice":32,"RT":392.50500001071487,"Accuracy":1,"Outcome":"+10","Keys":[1893.4799999988172],"TotalKeys":1,"Block":1,"Trial":109,"Robot":1,"Valence":"Win","Action":"Go","Sham":0,"Color":"blue","trial_type":"pit-trial","trial_index":126,"time_elapsed":521765,"internal_node_id":"0.0-115.0","task_version":"test-retest-t3"},{"Rune":"rune_05_jeran","Hex":"#ffcc3399","Correct":32,"Choice":32,"RT":359.4849999935832,"Accuracy":1,"Outcome":"-1","Keys":[1859.6549999929266],"TotalKeys":1,"Block":1,"Trial":110,"Robot":3,"Valence":"Lose","Action":"Go","Sham":0,"Color":"yellow","trial_type":"pit-trial","trial_index":127,"time_elapsed":524639,"internal_node_id":"0.0-116.0","task_version":"test-retest-t3"},{"Rune":"rune_05_gebo","Hex":"#ffcc3399","Correct":-1,"Choice":-1,"RT":-1,"Accuracy":1,"Outcome":"-10","Keys":[],"TotalKeys":0,"Block":1,"Trial":111,"Robot":4,"Valence":"Lose","Action":"No-Go","Sham":1,"Color":"yellow","trial_type":"pit-trial","trial_index":128,"time_elapsed":528655,"internal_node_id":"0.0-117.0","task_version":"test-retest-t3"},{"Rune":"rune_05_ior","Hex":"#3366ff99","Correct":-1,"Choice":-1,"RT":-1,"Accuracy":1,"Outcome":"+1","Keys":[],"TotalKeys":0,"Block":1,"Trial":112,"Robot":2,"Valence":"Win","Action":"No-Go","Sham":1,"Color":"blue","trial_type":"pit-trial","trial_index":129,"time_elapsed":532671,"internal_node_id":"0.0-118.0","task_version":"test-retest-t3"},{"Rune":"rune_05_ior","Hex":"#3366ff99","Correct":-1,"Choice":-1,"RT":-1,"Accuracy":1,"Outcome":"+10","Keys":[],"TotalKeys":0,"Block":1,"Trial":113,"Robot":2,"Valence":"Win","Action":"No-Go","Sham":0,"Color":"blue","trial_type":"pit-trial","trial_index":130,"time_elapsed":536688,"internal_node_id":"0.0-119.0","task_version":"test-retest-t3"},{"Rune":"rune_05_tiwaz","Hex":"#3366ff99","Correct":32,"Choice":32,"RT":345.5300000059651,"Accuracy":1,"Outcome":"+1","Keys":[1845.6100000039442],"TotalKeys":1,"Block":1,"Trial":114,"Robot":1,"Valence":"Win","Action":"Go","Sham":1,"Color":"blue","trial_type":"pit-trial","trial_index":131,"time_elapsed":539549,"internal_node_id":"0.0-120.0","task_version":"test-retest-t3"},{"Rune":"rune_05_gebo","Hex":"#ffcc3399","Correct":-1,"Choice":-1,"RT":-1,"Accuracy":1,"Outcome":"-1","Keys":[],"TotalKeys":0,"Block":1,"Trial":115,"Robot":4,"Valence":"Lose","Action":"No-Go","Sham":0,"Color":"yellow","trial_type":"pit-trial","trial_index":132,"time_elapsed":543565,"internal_node_id":"0.0-121.0","task_version":"test-retest-t3"},{"Rune":"rune_05_jeran","Hex":"#ffcc3399","Correct":32,"Choice":32,"RT":509.76500000979286,"Accuracy":1,"Outcome":"-10","Keys":[2010.0600000005215],"TotalKeys":1,"Block":1,"Trial":116,"Robot":3,"Valence":"Lose","Action":"Go","Sham":1,"Color":"yellow","trial_type":"pit-trial","trial_index":133,"time_elapsed":546586,"internal_node_id":"0.0-122.0","task_version":"test-retest-t3"},{"Rune":"rune_05_tiwaz","Hex":"#3366ff99","Correct":32,"Choice":32,"RT":516.4749999967171,"Accuracy":1,"Outcome":"+10","Keys":[2017.6349999965169],"TotalKeys":1,"Block":1,"Trial":117,"Robot":1,"Valence":"Win","Action":"Go","Sham":0,"Color":"blue","trial_type":"pit-trial","trial_index":134,"time_elapsed":549618,"internal_node_id":"0.0-123.0","task_version":"test-retest-t3"},{"Rune":"rune_05_gebo","Hex":"#ffcc3399","Correct":-1,"Choice":-1,"RT":-1,"Accuracy":1,"Outcome":"-1","Keys":[],"TotalKeys":0,"Block":1,"Trial":118,"Robot":4,"Valence":"Lose","Action":"No-Go","Sham":0,"Color":"yellow","trial_type":"pit-trial","trial_index":135,"time_elapsed":553633,"internal_node_id":"0.0-124.0","task_version":"test-retest-t3"},{"Rune":"rune_05_ior","Hex":"#3366ff99","Correct":-1,"Choice":-1,"RT":-1,"Accuracy":1,"Outcome":"+10","Keys":[],"TotalKeys":0,"Block":1,"Trial":119,"Robot":2,"Valence":"Win","Action":"No-Go","Sham":0,"Color":"blue","trial_type":"pit-trial","trial_index":136,"time_elapsed":557648,"internal_node_id":"0.0-125.0","task_version":"test-retest-t3"},{"Rune":"rune_05_jeran","Hex":"#ffcc3399","Correct":32,"Choice":32,"RT":1031.0800000006566,"Accuracy":1,"Outcome":"-1","Keys":[2531.9149999995716],"TotalKeys":1,"Block":1,"Trial":120,"Robot":3,"Valence":"Lose","Action":"Go","Sham":0,"Color":"yellow","trial_type":"pit-trial","trial_index":137,"time_elapsed":561196,"internal_node_id":"0.0-126.0","task_version":"test-retest-t3"},{"view_history":"[{\"page_index\":0,\"viewing_time\":3144.369999994524},{\"page_index\":1,\"viewing_time\":1912.1650000015507},{\"page_index\":2,\"viewing_time\":3040.09500000393}]","rt":8097.039999993285,"trial_type":"pit-instructions","trial_index":138,"time_elapsed":569306,"internal_node_id":"0.0-127.0","task_version":"test-retest-t3"},{"Rune":"rune_06_ehwaz","Hex":"#3366ff99","Correct":-1,"Choice":-1,"RT":-1,"Accuracy":1,"Outcome":"+10","Keys":[],"TotalKeys":0,"Block":2,"Trial":121,"Robot":2,"Valence":"Win","Action":"No-Go","Sham":0,"Color":"blue","trial_type":"pit-trial","trial_index":139,"time_elapsed":573314,"internal_node_id":"0.0-128.0","task_version":"test-retest-t3"},{"Rune":"rune_06_cweord","Hex":"#ffcc3399","Correct":-1,"Choice":-1,"RT":-1,"Accuracy":1,"Outcome":"-1","Keys":[],"TotalKeys":0,"Block":2,"Trial":122,"Robot":4,"Valence":"Lose","Action":"No-Go","Sham":0,"Color":"yellow","trial_type":"pit-trial","trial_index":140,"time_elapsed":577331,"internal_node_id":"0.0-129.0","task_version":"test-retest-t3"},{"Rune":"rune_06_ansuz","Hex":"#ffcc3399","Correct":32,"Choice":-1,"RT":-1,"Accuracy":0,"Outcome":"-10","Keys":[],"TotalKeys":0,"Block":2,"Trial":123,"Robot":3,"Valence":"Lose","Action":"Go","Sham":0,"Color":"yellow","trial_type":"pit-trial","trial_index":141,"time_elapsed":581349,"internal_node_id":"0.0-130.0","task_version":"test-retest-t3"},{"Rune":"rune_06_berkanan","Hex":"#3366ff99","Correct":32,"Choice":-1,"RT":-1,"Accuracy":0,"Outcome":"+1","Keys":[],"TotalKeys":0,"Block":2,"Trial":124,"Robot":1,"Valence":"Win","Action":"Go","Sham":0,"Color":"blue","trial_type":"pit-trial","trial_index":142,"time_elapsed":585364,"internal_node_id":"0.0-131.0","task_version":"test-retest-t3"},{"Rune":"rune_06_ansuz","Hex":"#ffcc3399","Correct":32,"Choice":32,"RT":936.2050000054296,"Accuracy":1,"Outcome":"-10","Keys":[2436.9900000019697],"TotalKeys":1,"Block":2,"Trial":125,"Robot":3,"Valence":"Lose","Action":"Go","Sham":1,"Color":"yellow","trial_type":"pit-trial","trial_index":143,"time_elapsed":588817,"internal_node_id":"0.0-132.0","task_version":"test-retest-t3"},{"Rune":"rune_06_berkanan","Hex":"#3366ff99","Correct":32,"Choice":-1,"RT":-1,"Accuracy":0,"Outcome":"+1","Keys":[],"TotalKeys":0,"Block":2,"Trial":126,"Robot":1,"Valence":"Win","Action":"Go","Sham":0,"Color":"blue","trial_type":"pit-trial","trial_index":144,"time_elapsed":592834,"internal_node_id":"0.0-133.0","task_version":"test-retest-t3"},{"Rune":"rune_06_ehwaz","Hex":"#3366ff99","Correct":-1,"Choice":32,"RT":866.8500000057975,"Accuracy":0,"Outcome":"+1","Keys":[2367.0949999941513],"TotalKeys":1,"Block":2,"Trial":127,"Robot":2,"Valence":"Win","Action":"No-Go","Sham":0,"Color":"blue","trial_type":"pit-trial","trial_index":145,"time_elapsed":596216,"internal_node_id":"0.0-134.0","task_version":"test-retest-t3"},{"Rune":"rune_06_cweord","Hex":"#ffcc3399","Correct":-1,"Choice":32,"RT":848.3949999936158,"Accuracy":0,"Outcome":"-10","Keys":[2350.285000007716],"TotalKeys":1,"Block":2,"Trial":128,"Robot":4,"Valence":"Lose","Action":"No-Go","Sham":0,"Color":"yellow","trial_type":"pit-trial","trial_index":146,"time_elapsed":599582,"internal_node_id":"0.0-135.0","task_version":"test-retest-t3"},{"Rune":"rune_06_ehwaz","Hex":"#3366ff99","Correct":-1,"Choice":32,"RT":476.47500000311993,"Accuracy":0,"Outcome":"+1","Keys":[1978.4450000006473],"TotalKeys":1,"Block":2,"Trial":129,"Robot":2,"Valence":"Win","Action":"No-Go","Sham":0,"Color":"blue","trial_type":"pit-trial","trial_index":147,"time_elapsed":602575,"internal_node_id":"0.0-136.0","task_version":"test-retest-t3"},{"Rune":"rune_06_ansuz","Hex":"#ffcc3399","Correct":32,"Choice":32,"RT":728.0949999985751,"Accuracy":1,"Outcome":"-1","Keys":[2229.735000000801],"TotalKeys":1,"Block":2,"Trial":130,"Robot":3,"Valence":"Lose","Action":"Go","Sham":0,"Color":"yellow","trial_type":"pit-trial","trial_index":148,"time_elapsed":605820,"internal_node_id":"0.0-137.0","task_version":"test-retest-t3"},{"Rune":"rune_06_berkanan","Hex":"#3366ff99","Correct":32,"Choice":32,"RT":320.4200000036508,"Accuracy":1,"Outcome":"+10","Keys":[1820.7400000101188],"TotalKeys":1,"Block":2,"Trial":131,"Robot":1,"Valence":"Win","Action":"Go","Sham":0,"Color":"blue","trial_type":"pit-trial","trial_index":149,"time_elapsed":608656,"internal_node_id":"0.0-138.0","task_version":"test-retest-t3"},{"Rune":"rune_06_cweord","Hex":"#ffcc3399","Correct":-1,"Choice":-1,"RT":-1,"Accuracy":1,"Outcome":"-1","Keys":[],"TotalKeys":0,"Block":2,"Trial":132,"Robot":4,"Valence":"Lose","Action":"No-Go","Sham":0,"Color":"yellow","trial_type":"pit-trial","trial_index":150,"time_elapsed":612672,"internal_node_id":"0.0-139.0","task_version":"test-retest-t3"},{"Rune":"rune_06_ansuz","Hex":"#ffcc3399","Correct":32,"Choice":32,"RT":471.38499999709893,"Accuracy":1,"Outcome":"-1","Keys":[1972.9599999991478],"TotalKeys":1,"Block":2,"Trial":133,"Robot":3,"Valence":"Lose","Action":"Go","Sham":0,"Color":"yellow","trial_type":"pit-trial","trial_index":151,"time_elapsed":615660,"internal_node_id":"0.0-140.0","task_version":"test-retest-t3"},{"Rune":"rune_06_cweord","Hex":"#ffcc3399","Correct":-1,"Choice":-1,"RT":-1,"Accuracy":1,"Outcome":"-10","Keys":[],"TotalKeys":0,"Block":2,"Trial":134,"Robot":4,"Valence":"Lose","Action":"No-Go","Sham":1,"Color":"yellow","trial_type":"pit-trial","trial_index":152,"time_elapsed":619678,"internal_node_id":"0.0-141.0","task_version":"test-retest-t3"},{"Rune":"rune_06_ehwaz","Hex":"#3366ff99","Correct":-1,"Choice":32,"RT":449.8449999955483,"Accuracy":0,"Outcome":"+1","Keys":[1951.1099999945145],"TotalKeys":1,"Block":2,"Trial":135,"Robot":2,"Valence":"Win","Action":"No-Go","Sham":0,"Color":"blue","trial_type":"pit-trial","trial_index":153,"time_elapsed":622645,"internal_node_id":"0.0-142.0","task_version":"test-retest-t3"},{"Rune":"rune_06_berkanan","Hex":"#3366ff99","Correct":32,"Choice":32,"RT":407.90999999444466,"Accuracy":1,"Outcome":"+1","Keys":[1908.4250000014435],"TotalKeys":1,"Block":2,"Trial":136,"Robot":1,"Valence":"Win","Action":"Go","Sham":1,"Color":"blue","trial_type":"pit-trial","trial_index":154,"time_elapsed":625568,"internal_node_id":"0.0-143.0","task_version":"test-retest-t3"},{"Rune":"rune_06_cweord","Hex":"#ffcc3399","Correct":-1,"Choice":-1,"RT":-1,"Accuracy":1,"Outcome":"-1","Keys":[],"TotalKeys":0,"Block":2,"Trial":137,"Robot":4,"Valence":"Lose","Action":"No-Go","Sham":0,"Color":"yellow","trial_type":"pit-trial","trial_index":155,"time_elapsed":629584,"internal_node_id":"0.0-144.0","task_version":"test-retest-t3"},{"Rune":"rune_06_ansuz","Hex":"#ffcc3399","Correct":32,"Choice":32,"RT":379.69500001054257,"Accuracy":1,"Outcome":"-1","Keys":[1880.5649999994785],"TotalKeys":1,"Block":2,"Trial":138,"Robot":3,"Valence":"Lose","Action":"Go","Sham":0,"Color":"yellow","trial_type":"pit-trial","trial_index":156,"time_elapsed":632479,"internal_node_id":"0.0-145.0","task_version":"test-retest-t3"},{"Rune":"rune_06_berkanan","Hex":"#3366ff99","Correct":32,"Choice":32,"RT":299.7600000089733,"Accuracy":1,"Outcome":"+10","Keys":[1800.889999998617],"TotalKeys":1,"Block":2,"Trial":139,"Robot":1,"Valence":"Win","Action":"Go","Sham":0,"Color":"blue","trial_type":"pit-trial","trial_index":157,"time_elapsed":635295,"internal_node_id":"0.0-146.0","task_version":"test-retest-t3"},{"Rune":"rune_06_ehwaz","Hex":"#3366ff99","Correct":-1,"Choice":-1,"RT":-1,"Accuracy":1,"Outcome":"+1","Keys":[],"TotalKeys":0,"Block":2,"Trial":140,"Robot":2,"Valence":"Win","Action":"No-Go","Sham":1,"Color":"blue","trial_type":"pit-trial","trial_index":158,"time_elapsed":639311,"internal_node_id":"0.0-147.0","task_version":"test-retest-t3"},{"Rune":"rune_06_ehwaz","Hex":"#3366ff99","Correct":-1,"Choice":-1,"RT":-1,"Accuracy":1,"Outcome":"+1","Keys":[],"TotalKeys":0,"Block":2,"Trial":141,"Robot":2,"Valence":"Win","Action":"No-Go","Sham":1,"Color":"blue","trial_type":"pit-trial","trial_index":159,"time_elapsed":643327,"internal_node_id":"0.0-148.0","task_version":"test-retest-t3"},{"Rune":"rune_06_ansuz","Hex":"#ffcc3399","Correct":32,"Choice":32,"RT":479.6749999950407,"Accuracy":1,"Outcome":"-1","Keys":[1980.3549999924144],"TotalKeys":1,"Block":2,"Trial":142,"Robot":3,"Valence":"Lose","Action":"Go","Sham":0,"Color":"yellow","trial_type":"pit-trial","trial_index":160,"time_elapsed":646332,"internal_node_id":"0.0-149.0","task_version":"test-retest-t3"},{"Rune":"rune_06_berkanan","Hex":"#3366ff99","Correct":32,"Choice":32,"RT":369.2799999989802,"Accuracy":1,"Outcome":"+10","Keys":[1870.6849999871338],"TotalKeys":1,"Block":2,"Trial":143,"Robot":1,"Valence":"Win","Action":"Go","Sham":0,"Color":"blue","trial_type":"pit-trial","trial_index":161,"time_elapsed":649217,"internal_node_id":"0.0-150.0","task_version":"test-retest-t3"},{"Rune":"rune_06_cweord","Hex":"#ffcc3399","Correct":-1,"Choice":-1,"RT":-1,"Accuracy":1,"Outcome":"-1","Keys":[],"TotalKeys":0,"Block":2,"Trial":144,"Robot":4,"Valence":"Lose","Action":"No-Go","Sham":0,"Color":"yellow","trial_type":"pit-trial","trial_index":162,"time_elapsed":653233,"internal_node_id":"0.0-151.0","task_version":"test-retest-t3"},{"Rune":"rune_06_cweord","Hex":"#ffcc3399","Correct":-1,"Choice":-1,"RT":-1,"Accuracy":1,"Outcome":"-1","Keys":[],"TotalKeys":0,"Block":2,"Trial":145,"Robot":4,"Valence":"Lose","Action":"No-Go","Sham":0,"Color":"yellow","trial_type":"pit-trial","trial_index":163,"time_elapsed":657248,"internal_node_id":"0.0-152.0","task_version":"test-retest-t3"},{"Rune":"rune_06_berkanan","Hex":"#3366ff99","Correct":32,"Choice":32,"RT":403.70000000984874,"Accuracy":1,"Outcome":"+1","Keys":[1904.7999999893364],"TotalKeys":1,"Block":2,"Trial":146,"Robot":1,"Valence":"Win","Action":"Go","Sham":1,"Color":"blue","trial_type":"pit-trial","trial_index":164,"time_elapsed":660168,"internal_node_id":"0.0-153.0","task_version":"test-retest-t3"},{"Rune":"rune_06_ansuz","Hex":"#ffcc3399","Correct":32,"Choice":32,"RT":541.4750000054482,"Accuracy":1,"Outcome":"-10","Keys":[2043.115000007674],"TotalKeys":1,"Block":2,"Trial":147,"Robot":3,"Valence":"Lose","Action":"Go","Sham":1,"Color":"yellow","trial_type":"pit-trial","trial_index":165,"time_elapsed":663226,"internal_node_id":"0.0-154.0","task_version":"test-retest-t3"},{"Rune":"rune_06_ehwaz","Hex":"#3366ff99","Correct":-1,"Choice":32,"RT":433.21499999728985,"Accuracy":0,"Outcome":"+1","Keys":[1934.1699999931734],"TotalKeys":1,"Block":2,"Trial":148,"Robot":2,"Valence":"Win","Action":"No-Go","Sham":0,"Color":"blue","trial_type":"pit-trial","trial_index":166,"time_elapsed":666174,"internal_node_id":"0.0-155.0","task_version":"test-retest-t3"},{"Rune":"rune_06_ansuz","Hex":"#ffcc3399","Correct":32,"Choice":32,"RT":602.2699999884935,"Accuracy":1,"Outcome":"-1","Keys":[2103.335000007064],"TotalKeys":1,"Block":2,"Trial":149,"Robot":3,"Valence":"Lose","Action":"Go","Sham":0,"Color":"yellow","trial_type":"pit-trial","trial_index":167,"time_elapsed":669293,"internal_node_id":"0.0-156.0","task_version":"test-retest-t3"},{"Rune":"rune_06_cweord","Hex":"#ffcc3399","Correct":-1,"Choice":-1,"RT":-1,"Accuracy":1,"Outcome":"-1","Keys":[],"TotalKeys":0,"Block":2,"Trial":150,"Robot":4,"Valence":"Lose","Action":"No-Go","Sham":0,"Color":"yellow","trial_type":"pit-trial","trial_index":168,"time_elapsed":673309,"internal_node_id":"0.0-157.0","task_version":"test-retest-t3"},{"Rune":"rune_06_berkanan","Hex":"#3366ff99","Correct":32,"Choice":32,"RT":346.6500000067754,"Accuracy":1,"Outcome":"+10","Keys":[1847.829999998794],"TotalKeys":1,"Block":2,"Trial":151,"Robot":1,"Valence":"Win","Action":"Go","Sham":0,"Color":"blue","trial_type":"pit-trial","trial_index":169,"time_elapsed":676172,"internal_node_id":"0.0-158.0","task_version":"test-retest-t3"},{"Rune":"rune_06_ehwaz","Hex":"#3366ff99","Correct":-1,"Choice":-1,"RT":-1,"Accuracy":1,"Outcome":"+10","Keys":[],"TotalKeys":0,"Block":2,"Trial":152,"Robot":2,"Valence":"Win","Action":"No-Go","Sham":0,"Color":"blue","trial_type":"pit-trial","trial_index":170,"time_elapsed":680188,"internal_node_id":"0.0-159.0","task_version":"test-retest-t3"},{"Rune":"rune_06_cweord","Hex":"#ffcc3399","Correct":-1,"Choice":-1,"RT":-1,"Accuracy":1,"Outcome":"-1","Keys":[],"TotalKeys":0,"Block":2,"Trial":153,"Robot":4,"Valence":"Lose","Action":"No-Go","Sham":0,"Color":"yellow","trial_type":"pit-trial","trial_index":171,"time_elapsed":684203,"internal_node_id":"0.0-160.0","task_version":"test-retest-t3"},{"Rune":"rune_06_ansuz","Hex":"#ffcc3399","Correct":32,"Choice":32,"RT":616.3899999955902,"Accuracy":1,"Outcome":"-1","Keys":[2117.0550000097137],"TotalKeys":1,"Block":2,"Trial":154,"Robot":3,"Valence":"Lose","Action":"Go","Sham":0,"Color":"yellow","trial_type":"pit-trial","trial_index":172,"time_elapsed":687336,"internal_node_id":"0.0-161.0","task_version":"test-retest-t3"},{"Rune":"rune_06_berkanan","Hex":"#3366ff99","Correct":32,"Choice":32,"RT":325.4049999959534,"Accuracy":1,"Outcome":"+10","Keys":[1825.7299999968382],"TotalKeys":1,"Block":2,"Trial":155,"Robot":1,"Valence":"Win","Action":"Go","Sham":0,"Color":"blue","trial_type":"pit-trial","trial_index":173,"time_elapsed":690176,"internal_node_id":"0.0-162.0","task_version":"test-retest-t3"},{"Rune":"rune_06_ehwaz","Hex":"#3366ff99","Correct":-1,"Choice":-1,"RT":-1,"Accuracy":1,"Outcome":"+10","Keys":[],"TotalKeys":0,"Block":2,"Trial":156,"Robot":2,"Valence":"Win","Action":"No-Go","Sham":0,"Color":"blue","trial_type":"pit-trial","trial_index":174,"time_elapsed":694193,"internal_node_id":"0.0-163.0","task_version":"test-retest-t3"},{"Rune":"rune_06_ehwaz","Hex":"#3366ff99","Correct":-1,"Choice":-1,"RT":-1,"Accuracy":1,"Outcome":"+10","Keys":[],"TotalKeys":0,"Block":2,"Trial":157,"Robot":2,"Valence":"Win","Action":"No-Go","Sham":0,"Color":"blue","trial_type":"pit-trial","trial_index":175,"time_elapsed":698209,"internal_node_id":"0.0-164.0","task_version":"test-retest-t3"},{"Rune":"rune_06_berkanan","Hex":"#3366ff99","Correct":32,"Choice":32,"RT":445.78499998897314,"Accuracy":1,"Outcome":"+10","Keys":[1946.28499999817],"TotalKeys":1,"Block":2,"Trial":158,"Robot":1,"Valence":"Win","Action":"Go","Sham":0,"Color":"blue","trial_type":"pit-trial","trial_index":176,"time_elapsed":701168,"internal_node_id":"0.0-165.0","task_version":"test-retest-t3"},{"Rune":"rune_06_cweord","Hex":"#ffcc3399","Correct":-1,"Choice":-1,"RT":-1,"Accuracy":1,"Outcome":"-10","Keys":[],"TotalKeys":0,"Block":2,"Trial":159,"Robot":4,"Valence":"Lose","Action":"No-Go","Sham":1,"Color":"yellow","trial_type":"pit-trial","trial_index":177,"time_elapsed":705184,"internal_node_id":"0.0-166.0","task_version":"test-retest-t3"},{"Rune":"rune_06_ansuz","Hex":"#ffcc3399","Correct":32,"Choice":32,"RT":456.1000000103377,"Accuracy":1,"Outcome":"-1","Keys":[1956.3899999920977],"TotalKeys":1,"Block":2,"Trial":160,"Robot":3,"Valence":"Lose","Action":"Go","Sham":0,"Color":"yellow","trial_type":"pit-trial","trial_index":178,"time_elapsed":708155,"internal_node_id":"0.0-167.0","task_version":"test-retest-t3"},{"Rune":"rune_06_berkanan","Hex":"#3366ff99","Correct":32,"Choice":32,"RT":327.74000000790693,"Accuracy":1,"Outcome":"+1","Keys":[1828.2800000015413],"TotalKeys":1,"Block":2,"Trial":161,"Robot":1,"Valence":"Win","Action":"Go","Sham":1,"Color":"blue","trial_type":"pit-trial","trial_index":179,"time_elapsed":710998,"internal_node_id":"0.0-168.0","task_version":"test-retest-t3"},{"Rune":"rune_06_cweord","Hex":"#ffcc3399","Correct":-1,"Choice":-1,"RT":-1,"Accuracy":1,"Outcome":"-1","Keys":[],"TotalKeys":0,"Block":2,"Trial":162,"Robot":4,"Valence":"Lose","Action":"No-Go","Sham":0,"Color":"yellow","trial_type":"pit-trial","trial_index":180,"time_elapsed":715014,"internal_node_id":"0.0-169.0","task_version":"test-retest-t3"},{"Rune":"rune_06_ehwaz","Hex":"#3366ff99","Correct":-1,"Choice":-1,"RT":-1,"Accuracy":1,"Outcome":"+10","Keys":[],"TotalKeys":0,"Block":2,"Trial":163,"Robot":2,"Valence":"Win","Action":"No-Go","Sham":0,"Color":"blue","trial_type":"pit-trial","trial_index":181,"time_elapsed":719029,"internal_node_id":"0.0-170.0","task_version":"test-retest-t3"},{"Rune":"rune_06_ansuz","Hex":"#ffcc3399","Correct":32,"Choice":32,"RT":600.8299999957671,"Accuracy":1,"Outcome":"-1","Keys":[2101.7699999938486],"TotalKeys":1,"Block":2,"Trial":164,"Robot":3,"Valence":"Lose","Action":"Go","Sham":0,"Color":"yellow","trial_type":"pit-trial","trial_index":182,"time_elapsed":722146,"internal_node_id":"0.0-171.0","task_version":"test-retest-t3"},{"Rune":"rune_06_berkanan","Hex":"#3366ff99","Correct":32,"Choice":32,"RT":329.8800000047777,"Accuracy":1,"Outcome":"+10","Keys":[1831.224999987171],"TotalKeys":1,"Block":2,"Trial":165,"Robot":1,"Valence":"Win","Action":"Go","Sham":0,"Color":"blue","trial_type":"pit-trial","trial_index":183,"time_elapsed":724992,"internal_node_id":"0.0-172.0","task_version":"test-retest-t3"},{"Rune":"rune_06_cweord","Hex":"#ffcc3399","Correct":-1,"Choice":-1,"RT":-1,"Accuracy":1,"Outcome":"-1","Keys":[],"TotalKeys":0,"Block":2,"Trial":166,"Robot":4,"Valence":"Lose","Action":"No-Go","Sham":0,"Color":"yellow","trial_type":"pit-trial","trial_index":184,"time_elapsed":729007,"internal_node_id":"0.0-173.0","task_version":"test-retest-t3"},{"Rune":"rune_06_ehwaz","Hex":"#3366ff99","Correct":-1,"Choice":-1,"RT":-1,"Accuracy":1,"Outcome":"+10","Keys":[],"TotalKeys":0,"Block":2,"Trial":167,"Robot":2,"Valence":"Win","Action":"No-Go","Sham":0,"Color":"blue","trial_type":"pit-trial","trial_index":185,"time_elapsed":733023,"internal_node_id":"0.0-174.0","task_version":"test-retest-t3"},{"Rune":"rune_06_ansuz","Hex":"#ffcc3399","Correct":32,"Choice":32,"RT":480.4350000049453,"Accuracy":1,"Outcome":"-10","Keys":[1980.5550000019139],"TotalKeys":1,"Block":2,"Trial":168,"Robot":3,"Valence":"Lose","Action":"Go","Sham":1,"Color":"yellow","trial_type":"pit-trial","trial_index":186,"time_elapsed":736018,"internal_node_id":"0.0-175.0","task_version":"test-retest-t3"},{"Rune":"rune_06_cweord","Hex":"#ffcc3399","Correct":-1,"Choice":-1,"RT":-1,"Accuracy":1,"Outcome":"-10","Keys":[],"TotalKeys":0,"Block":2,"Trial":169,"Robot":4,"Valence":"Lose","Action":"No-Go","Sham":1,"Color":"yellow","trial_type":"pit-trial","trial_index":187,"time_elapsed":740034,"internal_node_id":"0.0-176.0","task_version":"test-retest-t3"},{"Rune":"rune_06_ehwaz","Hex":"#3366ff99","Correct":-1,"Choice":-1,"RT":-1,"Accuracy":1,"Outcome":"+10","Keys":[],"TotalKeys":0,"Block":2,"Trial":170,"Robot":2,"Valence":"Win","Action":"No-Go","Sham":0,"Color":"blue","trial_type":"pit-trial","trial_index":188,"time_elapsed":744048,"internal_node_id":"0.0-177.0","task_version":"test-retest-t3"},{"Rune":"rune_06_ansuz","Hex":"#ffcc3399","Correct":32,"Choice":32,"RT":522.3899999982677,"Accuracy":1,"Outcome":"-1","Keys":[2023.399999990943],"TotalKeys":1,"Block":2,"Trial":171,"Robot":3,"Valence":"Lose","Action":"Go","Sham":0,"Color":"yellow","trial_type":"pit-trial","trial_index":189,"time_elapsed":747087,"internal_node_id":"0.0-178.0","task_version":"test-retest-t3"},{"Rune":"rune_06_berkanan","Hex":"#3366ff99","Correct":32,"Choice":32,"RT":335.7150000083493,"Accuracy":1,"Outcome":"+10","Keys":[1836.3899999967543],"TotalKeys":1,"Block":2,"Trial":172,"Robot":1,"Valence":"Win","Action":"Go","Sham":0,"Color":"blue","trial_type":"pit-trial","trial_index":190,"time_elapsed":749942,"internal_node_id":"0.0-179.0","task_version":"test-retest-t3"},{"Rune":"rune_06_berkanan","Hex":"#3366ff99","Correct":32,"Choice":32,"RT":517.1249999984866,"Accuracy":1,"Outcome":"+10","Keys":[2018.450000003213],"TotalKeys":1,"Block":2,"Trial":173,"Robot":1,"Valence":"Win","Action":"Go","Sham":0,"Color":"blue","trial_type":"pit-trial","trial_index":191,"time_elapsed":752975,"internal_node_id":"0.0-180.0","task_version":"test-retest-t3"},{"Rune":"rune_06_ansuz","Hex":"#ffcc3399","Correct":32,"Choice":32,"RT":415.94500000064727,"Accuracy":1,"Outcome":"-1","Keys":[1917.4499999935506],"TotalKeys":1,"Block":2,"Trial":174,"Robot":3,"Valence":"Lose","Action":"Go","Sham":0,"Color":"yellow","trial_type":"pit-trial","trial_index":192,"time_elapsed":755908,"internal_node_id":"0.0-181.0","task_version":"test-retest-t3"},{"Rune":"rune_06_ehwaz","Hex":"#3366ff99","Correct":-1,"Choice":-1,"RT":-1,"Accuracy":1,"Outcome":"+10","Keys":[],"TotalKeys":0,"Block":2,"Trial":175,"Robot":2,"Valence":"Win","Action":"No-Go","Sham":0,"Color":"blue","trial_type":"pit-trial","trial_index":193,"time_elapsed":759923,"internal_node_id":"0.0-182.0","task_version":"test-retest-t3"},{"Rune":"rune_06_cweord","Hex":"#ffcc3399","Correct":-1,"Choice":-1,"RT":-1,"Accuracy":1,"Outcome":"-1","Keys":[],"TotalKeys":0,"Block":2,"Trial":176,"Robot":4,"Valence":"Lose","Action":"No-Go","Sham":0,"Color":"yellow","trial_type":"pit-trial","trial_index":194,"time_elapsed":763938,"internal_node_id":"0.0-183.0","task_version":"test-retest-t3"},{"Rune":"rune_06_berkanan","Hex":"#3366ff99","Correct":32,"Choice":32,"RT":351.169999994454,"Accuracy":1,"Outcome":"+10","Keys":[1852.4250000045868],"TotalKeys":1,"Block":2,"Trial":177,"Robot":1,"Valence":"Win","Action":"Go","Sham":0,"Color":"blue","trial_type":"pit-trial","trial_index":195,"time_elapsed":766805,"internal_node_id":"0.0-184.0","task_version":"test-retest-t3"},{"Rune":"rune_06_cweord","Hex":"#ffcc3399","Correct":-1,"Choice":-1,"RT":-1,"Accuracy":1,"Outcome":"-1","Keys":[],"TotalKeys":0,"Block":2,"Trial":178,"Robot":4,"Valence":"Lose","Action":"No-Go","Sham":0,"Color":"yellow","trial_type":"pit-trial","trial_index":196,"time_elapsed":770822,"internal_node_id":"0.0-185.0","task_version":"test-retest-t3"},{"Rune":"rune_06_ansuz","Hex":"#ffcc3399","Correct":32,"Choice":32,"RT":643.0649999965681,"Accuracy":1,"Outcome":"-1","Keys":[2143.720000007306],"TotalKeys":1,"Block":2,"Trial":179,"Robot":3,"Valence":"Lose","Action":"Go","Sham":0,"Color":"yellow","trial_type":"pit-trial","trial_index":197,"time_elapsed":773981,"internal_node_id":"0.0-186.0","task_version":"test-retest-t3"},{"Rune":"rune_06_ehwaz","Hex":"#3366ff99","Correct":-1,"Choice":-1,"RT":-1,"Accuracy":1,"Outcome":"+1","Keys":[],"TotalKeys":0,"Block":2,"Trial":180,"Robot":2,"Valence":"Win","Action":"No-Go","Sham":1,"Color":"blue","trial_type":"pit-trial","trial_index":198,"time_elapsed":777996,"internal_node_id":"0.0-187.0","task_version":"test-retest-t3"},{"view_history":"[{\"page_index\":0,\"viewing_time\":2910.9500000049593},{\"page_index\":1,\"viewing_time\":1032.0349999965401}]","rt":3943.4049999981653,"trial_type":"pit-instructions","trial_index":199,"time_elapsed":781953,"internal_node_id":"0.0-188.0","task_version":"test-retest-t3"},{"Rune":"rune_06_ehwaz","Hex":"#3366ff99","Correct":-1,"Choice":-1,"RT":-1,"Accuracy":1,"Outcome":"+10","Keys":[],"TotalKeys":0,"Block":2,"Trial":181,"Robot":2,"Valence":"Win","Action":"No-Go","Sham":0,"Color":"blue","trial_type":"pit-trial","trial_index":200,"time_elapsed":785963,"internal_node_id":"0.0-189.0","task_version":"test-retest-t3"},{"Rune":"rune_06_cweord","Hex":"#ffcc3399","Correct":-1,"Choice":-1,"RT":-1,"Accuracy":1,"Outcome":"-1","Keys":[],"TotalKeys":0,"Block":2,"Trial":182,"Robot":4,"Valence":"Lose","Action":"No-Go","Sham":0,"Color":"yellow","trial_type":"pit-trial","trial_index":201,"time_elapsed":789978,"internal_node_id":"0.0-190.0","task_version":"test-retest-t3"},{"Rune":"rune_06_berkanan","Hex":"#3366ff99","Correct":32,"Choice":32,"RT":305.37999999069143,"Accuracy":1,"Outcome":"+10","Keys":[1807.0799999986775],"TotalKeys":1,"Block":2,"Trial":183,"Robot":1,"Valence":"Win","Action":"Go","Sham":0,"Color":"blue","trial_type":"pit-trial","trial_index":202,"time_elapsed":792800,"internal_node_id":"0.0-191.0","task_version":"test-retest-t3"},{"Rune":"rune_06_ansuz","Hex":"#ffcc3399","Correct":32,"Choice":32,"RT":333.74499999627005,"Accuracy":1,"Outcome":"-1","Keys":[1835.2950000116834],"TotalKeys":1,"Block":2,"Trial":184,"Robot":3,"Valence":"Lose","Action":"Go","Sham":0,"Color":"yellow","trial_type":"pit-trial","trial_index":203,"time_elapsed":795650,"internal_node_id":"0.0-192.0","task_version":"test-retest-t3"},{"Rune":"rune_06_cweord","Hex":"#ffcc3399","Correct":-1,"Choice":-1,"RT":-1,"Accuracy":1,"Outcome":"-1","Keys":[],"TotalKeys":0,"Block":2,"Trial":185,"Robot":4,"Valence":"Lose","Action":"No-Go","Sham":0,"Color":"yellow","trial_type":"pit-trial","trial_index":204,"time_elapsed":799666,"internal_node_id":"0.0-193.0","task_version":"test-retest-t3"},{"Rune":"rune_06_ehwaz","Hex":"#3366ff99","Correct":-1,"Choice":-1,"RT":-1,"Accuracy":1,"Outcome":"+10","Keys":[],"TotalKeys":0,"Block":2,"Trial":186,"Robot":2,"Valence":"Win","Action":"No-Go","Sham":0,"Color":"blue","trial_type":"pit-trial","trial_index":205,"time_elapsed":803682,"internal_node_id":"0.0-194.0","task_version":"test-retest-t3"},{"Rune":"rune_06_ansuz","Hex":"#ffcc3399","Correct":32,"Choice":32,"RT":456.3100000086706,"Accuracy":1,"Outcome":"-1","Keys":[1956.9650000048568],"TotalKeys":1,"Block":2,"Trial":187,"Robot":3,"Valence":"Lose","Action":"Go","Sham":0,"Color":"yellow","trial_type":"pit-trial","trial_index":206,"time_elapsed":806654,"internal_node_id":"0.0-195.0","task_version":"test-retest-t3"},{"Rune":"rune_06_berkanan","Hex":"#3366ff99","Correct":32,"Choice":32,"RT":482.7100000111386,"Accuracy":1,"Outcome":"+1","Keys":[1983.525000003283],"TotalKeys":1,"Block":2,"Trial":188,"Robot":1,"Valence":"Win","Action":"Go","Sham":1,"Color":"blue","trial_type":"pit-trial","trial_index":207,"time_elapsed":809652,"internal_node_id":"0.0-196.0","task_version":"test-retest-t3"},{"Rune":"rune_06_cweord","Hex":"#ffcc3399","Correct":-1,"Choice":-1,"RT":-1,"Accuracy":1,"Outcome":"-1","Keys":[],"TotalKeys":0,"Block":2,"Trial":189,"Robot":4,"Valence":"Lose","Action":"No-Go","Sham":0,"Color":"yellow","trial_type":"pit-trial","trial_index":208,"time_elapsed":813667,"internal_node_id":"0.0-197.0","task_version":"test-retest-t3"},{"Rune":"rune_06_ehwaz","Hex":"#3366ff99","Correct":-1,"Choice":-1,"RT":-1,"Accuracy":1,"Outcome":"+10","Keys":[],"TotalKeys":0,"Block":2,"Trial":190,"Robot":2,"Valence":"Win","Action":"No-Go","Sham":0,"Color":"blue","trial_type":"pit-trial","trial_index":209,"time_elapsed":817682,"internal_node_id":"0.0-198.0","task_version":"test-retest-t3"},{"Rune":"rune_06_berkanan","Hex":"#3366ff99","Correct":32,"Choice":32,"RT":371.72999999893364,"Accuracy":1,"Outcome":"+10","Keys":[1872.0999999932246],"TotalKeys":1,"Block":2,"Trial":191,"Robot":1,"Valence":"Win","Action":"Go","Sham":0,"Color":"blue","trial_type":"pit-trial","trial_index":210,"time_elapsed":820569,"internal_node_id":"0.0-199.0","task_version":"test-retest-t3"},{"Rune":"rune_06_ansuz","Hex":"#ffcc3399","Correct":32,"Choice":32,"RT":536.8250000028638,"Accuracy":1,"Outcome":"-1","Keys":[2037.2349999961443],"TotalKeys":1,"Block":2,"Trial":192,"Robot":3,"Valence":"Lose","Action":"Go","Sham":0,"Color":"yellow","trial_type":"pit-trial","trial_index":211,"time_elapsed":823621,"internal_node_id":"0.0-200.0","task_version":"test-retest-t3"},{"Rune":"rune_06_berkanan","Hex":"#3366ff99","Correct":32,"Choice":32,"RT":327.85499999590684,"Accuracy":1,"Outcome":"+10","Keys":[1827.9449999972712],"TotalKeys":1,"Block":2,"Trial":193,"Robot":1,"Valence":"Win","Action":"Go","Sham":0,"Color":"blue","trial_type":"pit-trial","trial_index":212,"time_elapsed":826464,"internal_node_id":"0.0-201.0","task_version":"test-retest-t3"},{"Rune":"rune_06_ehwaz","Hex":"#3366ff99","Correct":-1,"Choice":-1,"RT":-1,"Accuracy":1,"Outcome":"+1","Keys":[],"TotalKeys":0,"Block":2,"Trial":194,"Robot":2,"Valence":"Win","Action":"No-Go","Sham":1,"Color":"blue","trial_type":"pit-trial","trial_index":213,"time_elapsed":830479,"internal_node_id":"0.0-202.0","task_version":"test-retest-t3"},{"Rune":"rune_06_ansuz","Hex":"#ffcc3399","Correct":32,"Choice":32,"RT":467.1200000011595,"Accuracy":1,"Outcome":"-10","Keys":[1968.8249999890104],"TotalKeys":1,"Block":2,"Trial":195,"Robot":3,"Valence":"Lose","Action":"Go","Sham":1,"Color":"yellow","trial_type":"pit-trial","trial_index":214,"time_elapsed":833464,"internal_node_id":"0.0-203.0","task_version":"test-retest-t3"},{"Rune":"rune_06_cweord","Hex":"#ffcc3399","Correct":-1,"Choice":-1,"RT":-1,"Accuracy":1,"Outcome":"-1","Keys":[],"TotalKeys":0,"Block":2,"Trial":196,"Robot":4,"Valence":"Lose","Action":"No-Go","Sham":0,"Color":"yellow","trial_type":"pit-trial","trial_index":215,"time_elapsed":837479,"internal_node_id":"0.0-204.0","task_version":"test-retest-t3"},{"Rune":"rune_06_ehwaz","Hex":"#3366ff99","Correct":-1,"Choice":-1,"RT":-1,"Accuracy":1,"Outcome":"+10","Keys":[],"TotalKeys":0,"Block":2,"Trial":197,"Robot":2,"Valence":"Win","Action":"No-Go","Sham":0,"Color":"blue","trial_type":"pit-trial","trial_index":216,"time_elapsed":841494,"internal_node_id":"0.0-205.0","task_version":"test-retest-t3"},{"Rune":"rune_06_cweord","Hex":"#ffcc3399","Correct":-1,"Choice":-1,"RT":-1,"Accuracy":1,"Outcome":"-10","Keys":[],"TotalKeys":0,"Block":2,"Trial":198,"Robot":4,"Valence":"Lose","Action":"No-Go","Sham":1,"Color":"yellow","trial_type":"pit-trial","trial_index":217,"time_elapsed":845509,"internal_node_id":"0.0-206.0","task_version":"test-retest-t3"},{"Rune":"rune_06_berkanan","Hex":"#3366ff99","Correct":32,"Choice":32,"RT":408.7299999955576,"Accuracy":1,"Outcome":"+10","Keys":[1910.47499999695],"TotalKeys":1,"Block":2,"Trial":199,"Robot":1,"Valence":"Win","Action":"Go","Sham":0,"Color":"blue","trial_type":"pit-trial","trial_index":218,"time_elapsed":848434,"internal_node_id":"0.0-207.0","task_version":"test-retest-t3"},{"Rune":"rune_06_ansuz","Hex":"#ffcc3399","Correct":32,"Choice":32,"RT":630.2250000007916,"Accuracy":1,"Outcome":"-1","Keys":[2130.520000006072],"TotalKeys":1,"Block":2,"Trial":200,"Robot":3,"Valence":"Lose","Action":"Go","Sham":0,"Color":"yellow","trial_type":"pit-trial","trial_index":219,"time_elapsed":851579,"internal_node_id":"0.0-208.0","task_version":"test-retest-t3"},{"Rune":"rune_06_ehwaz","Hex":"#3366ff99","Correct":-1,"Choice":-1,"RT":-1,"Accuracy":1,"Outcome":"+1","Keys":[],"TotalKeys":0,"Block":2,"Trial":201,"Robot":2,"Valence":"Win","Action":"No-Go","Sham":1,"Color":"blue","trial_type":"pit-trial","trial_index":220,"time_elapsed":855596,"internal_node_id":"0.0-209.0","task_version":"test-retest-t3"},{"Rune":"rune_06_cweord","Hex":"#ffcc3399","Correct":-1,"Choice":-1,"RT":-1,"Accuracy":1,"Outcome":"-1","Keys":[],"TotalKeys":0,"Block":2,"Trial":202,"Robot":4,"Valence":"Lose","Action":"No-Go","Sham":0,"Color":"yellow","trial_type":"pit-trial","trial_index":221,"time_elapsed":859612,"internal_node_id":"0.0-210.0","task_version":"test-retest-t3"},{"Rune":"rune_06_ansuz","Hex":"#ffcc3399","Correct":32,"Choice":32,"RT":541.9349999865517,"Accuracy":1,"Outcome":"-1","Keys":[2042.4000000057276],"TotalKeys":1,"Block":2,"Trial":203,"Robot":3,"Valence":"Lose","Action":"Go","Sham":0,"Color":"yellow","trial_type":"pit-trial","trial_index":222,"time_elapsed":862669,"internal_node_id":"0.0-211.0","task_version":"test-retest-t3"},{"Rune":"rune_06_berkanan","Hex":"#3366ff99","Correct":32,"Choice":32,"RT":352.32999999425374,"Accuracy":1,"Outcome":"+10","Keys":[1852.469999997993],"TotalKeys":1,"Block":2,"Trial":204,"Robot":1,"Valence":"Win","Action":"Go","Sham":0,"Color":"blue","trial_type":"pit-trial","trial_index":223,"time_elapsed":865537,"internal_node_id":"0.0-212.0","task_version":"test-retest-t3"},{"Rune":"rune_06_berkanan","Hex":"#3366ff99","Correct":32,"Choice":32,"RT":403.0100000090897,"Accuracy":1,"Outcome":"+10","Keys":[1904.3850000016391],"TotalKeys":1,"Block":2,"Trial":205,"Robot":1,"Valence":"Win","Action":"Go","Sham":0,"Color":"blue","trial_type":"pit-trial","trial_index":224,"time_elapsed":868457,"internal_node_id":"0.0-213.0","task_version":"test-retest-t3"},{"Rune":"rune_06_cweord","Hex":"#ffcc3399","Correct":-1,"Choice":-1,"RT":-1,"Accuracy":1,"Outcome":"-1","Keys":[],"TotalKeys":0,"Block":2,"Trial":206,"Robot":4,"Valence":"Lose","Action":"No-Go","Sham":0,"Color":"yellow","trial_type":"pit-trial","trial_index":225,"time_elapsed":872467,"internal_node_id":"0.0-214.0","task_version":"test-retest-t3"},{"Rune":"rune_06_ehwaz","Hex":"#3366ff99","Correct":-1,"Choice":-1,"RT":-1,"Accuracy":1,"Outcome":"+10","Keys":[],"TotalKeys":0,"Block":2,"Trial":207,"Robot":2,"Valence":"Win","Action":"No-Go","Sham":0,"Color":"blue","trial_type":"pit-trial","trial_index":226,"time_elapsed":876483,"internal_node_id":"0.0-215.0","task_version":"test-retest-t3"},{"Rune":"rune_06_ansuz","Hex":"#ffcc3399","Correct":32,"Choice":32,"RT":476.8000000040047,"Accuracy":1,"Outcome":"-1","Keys":[1977.2749999974621],"TotalKeys":1,"Block":2,"Trial":208,"Robot":3,"Valence":"Lose","Action":"Go","Sham":0,"Color":"yellow","trial_type":"pit-trial","trial_index":227,"time_elapsed":879478,"internal_node_id":"0.0-216.0","task_version":"test-retest-t3"},{"Rune":"rune_06_ansuz","Hex":"#ffcc3399","Correct":32,"Choice":32,"RT":482.45500000484753,"Accuracy":1,"Outcome":"-1","Keys":[1983.4399999963352],"TotalKeys":1,"Block":2,"Trial":209,"Robot":3,"Valence":"Lose","Action":"Go","Sham":0,"Color":"yellow","trial_type":"pit-trial","trial_index":228,"time_elapsed":882477,"internal_node_id":"0.0-217.0","task_version":"test-retest-t3"},{"Rune":"rune_06_ehwaz","Hex":"#3366ff99","Correct":-1,"Choice":-1,"RT":-1,"Accuracy":1,"Outcome":"+10","Keys":[],"TotalKeys":0,"Block":2,"Trial":210,"Robot":2,"Valence":"Win","Action":"No-Go","Sham":0,"Color":"blue","trial_type":"pit-trial","trial_index":229,"time_elapsed":886492,"internal_node_id":"0.0-218.0","task_version":"test-retest-t3"},{"Rune":"rune_06_berkanan","Hex":"#3366ff99","Correct":32,"Choice":32,"RT":336.1250000016298,"Accuracy":1,"Outcome":"+10","Keys":[1837.0999999897322],"TotalKeys":1,"Block":2,"Trial":211,"Robot":1,"Valence":"Win","Action":"Go","Sham":0,"Color":"blue","trial_type":"pit-trial","trial_index":230,"time_elapsed":889344,"internal_node_id":"0.0-219.0","task_version":"test-retest-t3"},{"Rune":"rune_06_cweord","Hex":"#ffcc3399","Correct":-1,"Choice":-1,"RT":-1,"Accuracy":1,"Outcome":"-1","Keys":[],"TotalKeys":0,"Block":2,"Trial":212,"Robot":4,"Valence":"Lose","Action":"No-Go","Sham":0,"Color":"yellow","trial_type":"pit-trial","trial_index":231,"time_elapsed":893360,"internal_node_id":"0.0-220.0","task_version":"test-retest-t3"},{"Rune":"rune_06_berkanan","Hex":"#3366ff99","Correct":32,"Choice":32,"RT":442.30500000412576,"Accuracy":1,"Outcome":"+10","Keys":[1942.365000009886],"TotalKeys":1,"Block":2,"Trial":213,"Robot":1,"Valence":"Win","Action":"Go","Sham":0,"Color":"blue","trial_type":"pit-trial","trial_index":232,"time_elapsed":896317,"internal_node_id":"0.0-221.0","task_version":"test-retest-t3"},{"Rune":"rune_06_cweord","Hex":"#ffcc3399","Correct":-1,"Choice":-1,"RT":-1,"Accuracy":1,"Outcome":"-1","Keys":[],"TotalKeys":0,"Block":2,"Trial":214,"Robot":4,"Valence":"Lose","Action":"No-Go","Sham":0,"Color":"yellow","trial_type":"pit-trial","trial_index":233,"time_elapsed":900333,"internal_node_id":"0.0-222.0","task_version":"test-retest-t3"},{"Rune":"rune_06_ehwaz","Hex":"#3366ff99","Correct":-1,"Choice":-1,"RT":-1,"Accuracy":1,"Outcome":"+10","Keys":[],"TotalKeys":0,"Block":2,"Trial":215,"Robot":2,"Valence":"Win","Action":"No-Go","Sham":0,"Color":"blue","trial_type":"pit-trial","trial_index":234,"time_elapsed":904349,"internal_node_id":"0.0-223.0","task_version":"test-retest-t3"},{"Rune":"rune_06_ansuz","Hex":"#ffcc3399","Correct":32,"Choice":32,"RT":474.820000003092,"Accuracy":1,"Outcome":"-1","Keys":[1975.9099999937462],"TotalKeys":1,"Block":2,"Trial":216,"Robot":3,"Valence":"Lose","Action":"Go","Sham":0,"Color":"yellow","trial_type":"pit-trial","trial_index":235,"time_elapsed":907340,"internal_node_id":"0.0-224.0","task_version":"test-retest-t3"},{"Rune":"rune_06_cweord","Hex":"#ffcc3399","Correct":-1,"Choice":-1,"RT":-1,"Accuracy":1,"Outcome":"-10","Keys":[],"TotalKeys":0,"Block":2,"Trial":217,"Robot":4,"Valence":"Lose","Action":"No-Go","Sham":1,"Color":"yellow","trial_type":"pit-trial","trial_index":236,"time_elapsed":911354,"internal_node_id":"0.0-225.0","task_version":"test-retest-t3"},{"Rune":"rune_06_ehwaz","Hex":"#3366ff99","Correct":-1,"Choice":-1,"RT":-1,"Accuracy":1,"Outcome":"+10","Keys":[],"TotalKeys":0,"Block":2,"Trial":218,"Robot":2,"Valence":"Win","Action":"No-Go","Sham":0,"Color":"blue","trial_type":"pit-trial","trial_index":237,"time_elapsed":915370,"internal_node_id":"0.0-226.0","task_version":"test-retest-t3"},{"Rune":"rune_06_berkanan","Hex":"#3366ff99","Correct":32,"Choice":32,"RT":912.1550000127172,"Accuracy":1,"Outcome":"+1","Keys":[2412.735000005341],"TotalKeys":1,"Block":2,"Trial":219,"Robot":1,"Valence":"Win","Action":"Go","Sham":1,"Color":"blue","trial_type":"pit-trial","trial_index":238,"time_elapsed":918797,"internal_node_id":"0.0-227.0","task_version":"test-retest-t3"},{"Rune":"rune_06_ansuz","Hex":"#ffcc3399","Correct":32,"Choice":32,"RT":520.1099999976577,"Accuracy":1,"Outcome":"-10","Keys":[2020.5249999999069],"TotalKeys":1,"Block":2,"Trial":220,"Robot":3,"Valence":"Lose","Action":"Go","Sham":1,"Color":"yellow","trial_type":"pit-trial","trial_index":239,"time_elapsed":921832,"internal_node_id":"0.0-228.0","task_version":"test-retest-t3"},{"Rune":"rune_06_cweord","Hex":"#ffcc3399","Correct":-1,"Choice":-1,"RT":-1,"Accuracy":1,"Outcome":"-1","Keys":[],"TotalKeys":0,"Block":2,"Trial":221,"Robot":4,"Valence":"Lose","Action":"No-Go","Sham":0,"Color":"yellow","trial_type":"pit-trial","trial_index":240,"time_elapsed":925851,"internal_node_id":"0.0-229.0","task_version":"test-retest-t3"},{"Rune":"rune_06_berkanan","Hex":"#3366ff99","Correct":32,"Choice":32,"RT":466.57000000413973,"Accuracy":1,"Outcome":"+10","Keys":[1967.049999992014],"TotalKeys":1,"Block":2,"Trial":222,"Robot":1,"Valence":"Win","Action":"Go","Sham":0,"Color":"blue","trial_type":"pit-trial","trial_index":241,"time_elapsed":928832,"internal_node_id":"0.0-230.0","task_version":"test-retest-t3"},{"Rune":"rune_06_ansuz","Hex":"#ffcc3399","Correct":32,"Choice":32,"RT":547.3150000034366,"Accuracy":1,"Outcome":"-1","Keys":[2048.3950000052573],"TotalKeys":1,"Block":2,"Trial":223,"Robot":3,"Valence":"Lose","Action":"Go","Sham":0,"Color":"yellow","trial_type":"pit-trial","trial_index":242,"time_elapsed":931895,"internal_node_id":"0.0-231.0","task_version":"test-retest-t3"},{"Rune":"rune_06_ehwaz","Hex":"#3366ff99","Correct":-1,"Choice":-1,"RT":-1,"Accuracy":1,"Outcome":"+10","Keys":[],"TotalKeys":0,"Block":2,"Trial":224,"Robot":2,"Valence":"Win","Action":"No-Go","Sham":0,"Color":"blue","trial_type":"pit-trial","trial_index":243,"time_elapsed":935911,"internal_node_id":"0.0-232.0","task_version":"test-retest-t3"},{"Rune":"rune_06_cweord","Hex":"#ffcc3399","Correct":-1,"Choice":-1,"RT":-1,"Accuracy":1,"Outcome":"-1","Keys":[],"TotalKeys":0,"Block":2,"Trial":225,"Robot":4,"Valence":"Lose","Action":"No-Go","Sham":0,"Color":"yellow","trial_type":"pit-trial","trial_index":244,"time_elapsed":939928,"internal_node_id":"0.0-233.0","task_version":"test-retest-t3"},{"Rune":"rune_06_berkanan","Hex":"#3366ff99","Correct":32,"Choice":32,"RT":320.85999999253545,"Accuracy":1,"Outcome":"+10","Keys":[1821.2650000059512],"TotalKeys":1,"Block":2,"Trial":226,"Robot":1,"Valence":"Win","Action":"Go","Sham":0,"Color":"blue","trial_type":"pit-trial","trial_index":245,"time_elapsed":942764,"internal_node_id":"0.0-234.0","task_version":"test-retest-t3"},{"Rune":"rune_06_ehwaz","Hex":"#3366ff99","Correct":-1,"Choice":-1,"RT":-1,"Accuracy":1,"Outcome":"+10","Keys":[],"TotalKeys":0,"Block":2,"Trial":227,"Robot":2,"Valence":"Win","Action":"No-Go","Sham":0,"Color":"blue","trial_type":"pit-trial","trial_index":246,"time_elapsed":946779,"internal_node_id":"0.0-235.0","task_version":"test-retest-t3"},{"Rune":"rune_06_ansuz","Hex":"#ffcc3399","Correct":32,"Choice":32,"RT":430.0199999997858,"Accuracy":1,"Outcome":"-1","Keys":[1930.5650000023888],"TotalKeys":1,"Block":2,"Trial":228,"Robot":3,"Valence":"Lose","Action":"Go","Sham":0,"Color":"yellow","trial_type":"pit-trial","trial_index":247,"time_elapsed":949725,"internal_node_id":"0.0-236.0","task_version":"test-retest-t3"},{"Rune":"rune_06_cweord","Hex":"#ffcc3399","Correct":-1,"Choice":-1,"RT":-1,"Accuracy":1,"Outcome":"-10","Keys":[],"TotalKeys":0,"Block":2,"Trial":229,"Robot":4,"Valence":"Lose","Action":"No-Go","Sham":1,"Color":"yellow","trial_type":"pit-trial","trial_index":248,"time_elapsed":953742,"internal_node_id":"0.0-237.0","task_version":"test-retest-t3"},{"Rune":"rune_06_ansuz","Hex":"#ffcc3399","Correct":32,"Choice":32,"RT":529.0950000053272,"Accuracy":1,"Outcome":"-1","Keys":[2030.4199999955017],"TotalKeys":1,"Block":2,"Trial":230,"Robot":3,"Valence":"Lose","Action":"Go","Sham":0,"Color":"yellow","trial_type":"pit-trial","trial_index":249,"time_elapsed":956787,"internal_node_id":"0.0-238.0","task_version":"test-retest-t3"},{"Rune":"rune_06_berkanan","Hex":"#3366ff99","Correct":32,"Choice":32,"RT":439.80000000738073,"Accuracy":1,"Outcome":"+10","Keys":[1940.4900000081398],"TotalKeys":1,"Block":2,"Trial":231,"Robot":1,"Valence":"Win","Action":"Go","Sham":0,"Color":"blue","trial_type":"pit-trial","trial_index":250,"time_elapsed":959742,"internal_node_id":"0.0-239.0","task_version":"test-retest-t3"},{"Rune":"rune_06_ehwaz","Hex":"#3366ff99","Correct":-1,"Choice":-1,"RT":-1,"Accuracy":1,"Outcome":"+1","Keys":[],"TotalKeys":0,"Block":2,"Trial":232,"Robot":2,"Valence":"Win","Action":"No-Go","Sham":1,"Color":"blue","trial_type":"pit-trial","trial_index":251,"time_elapsed":963758,"internal_node_id":"0.0-240.0","task_version":"test-retest-t3"},{"Rune":"rune_06_ehwaz","Hex":"#3366ff99","Correct":-1,"Choice":-1,"RT":-1,"Accuracy":1,"Outcome":"+10","Keys":[],"TotalKeys":0,"Block":2,"Trial":233,"Robot":2,"Valence":"Win","Action":"No-Go","Sham":0,"Color":"blue","trial_type":"pit-trial","trial_index":252,"time_elapsed":967774,"internal_node_id":"0.0-241.0","task_version":"test-retest-t3"},{"Rune":"rune_06_ansuz","Hex":"#ffcc3399","Correct":32,"Choice":32,"RT":509.1849999880651,"Accuracy":1,"Outcome":"-10","Keys":[2009.4550000067102],"TotalKeys":1,"Block":2,"Trial":234,"Robot":3,"Valence":"Lose","Action":"Go","Sham":1,"Color":"yellow","trial_type":"pit-trial","trial_index":253,"time_elapsed":970798,"internal_node_id":"0.0-242.0","task_version":"test-retest-t3"},{"Rune":"rune_06_cweord","Hex":"#ffcc3399","Correct":-1,"Choice":-1,"RT":-1,"Accuracy":1,"Outcome":"-1","Keys":[],"TotalKeys":0,"Block":2,"Trial":235,"Robot":4,"Valence":"Lose","Action":"No-Go","Sham":0,"Color":"yellow","trial_type":"pit-trial","trial_index":254,"time_elapsed":974814,"internal_node_id":"0.0-243.0","task_version":"test-retest-t3"},{"Rune":"rune_06_berkanan","Hex":"#3366ff99","Correct":32,"Choice":32,"RT":327.1200000017416,"Accuracy":1,"Outcome":"+1","Keys":[1827.8900000004796],"TotalKeys":1,"Block":2,"Trial":236,"Robot":1,"Valence":"Win","Action":"Go","Sham":1,"Color":"blue","trial_type":"pit-trial","trial_index":255,"time_elapsed":977658,"internal_node_id":"0.0-244.0","task_version":"test-retest-t3"},{"Rune":"rune_06_berkanan","Hex":"#3366ff99","Correct":32,"Choice":32,"RT":433.27000000863336,"Accuracy":1,"Outcome":"+10","Keys":[1933.9949999994133],"TotalKeys":1,"Block":2,"Trial":237,"Robot":1,"Valence":"Win","Action":"Go","Sham":0,"Color":"blue","trial_type":"pit-trial","trial_index":256,"time_elapsed":980607,"internal_node_id":"0.0-245.0","task_version":"test-retest-t3"},{"Rune":"rune_06_ansuz","Hex":"#ffcc3399","Correct":32,"Choice":32,"RT":515.0600000051782,"Accuracy":1,"Outcome":"-1","Keys":[2016.23500000278],"TotalKeys":1,"Block":2,"Trial":238,"Robot":3,"Valence":"Lose","Action":"Go","Sham":0,"Color":"yellow","trial_type":"pit-trial","trial_index":257,"time_elapsed":983638,"internal_node_id":"0.0-246.0","task_version":"test-retest-t3"},{"Rune":"rune_06_ehwaz","Hex":"#3366ff99","Correct":-1,"Choice":-1,"RT":-1,"Accuracy":1,"Outcome":"+10","Keys":[],"TotalKeys":0,"Block":2,"Trial":239,"Robot":2,"Valence":"Win","Action":"No-Go","Sham":0,"Color":"blue","trial_type":"pit-trial","trial_index":258,"time_elapsed":987654,"internal_node_id":"0.0-247.0","task_version":"test-retest-t3"},{"Rune":"rune_06_cweord","Hex":"#ffcc3399","Correct":-1,"Choice":-1,"RT":-1,"Accuracy":1,"Outcome":"-1","Keys":[],"TotalKeys":0,"Block":2,"Trial":240,"Robot":4,"Valence":"Lose","Action":"No-Go","Sham":0,"Color":"yellow","trial_type":"pit-trial","trial_index":259,"time_elapsed":991671,"internal_node_id":"0.0-248.0","task_version":"test-retest-t3"},{"view_history":"[{\"page_index\":0,\"viewing_time\":1843.6599999986356}]","rt":1844.0600000030827,"trial_type":"pit-instructions","trial_index":260,"time_elapsed":993528,"internal_node_id":"0.0-249.0","task_version":"test-retest-t3"},{"rt":30410.285000005388,"responses":{"difficulty":"5","fun":"2","clarity":"5","strategy":"I just tried to spot the \"Accept\" symbols and stick with them.","feedback":"Well-designed and very clearly explained. Thanks"},"survey":"debrief","trial_type":"survey-debrief","trial_index":261,"time_elapsed":1023944,"internal_node_id":"0.0-250.0","task_version":"test-retest-t3"},{"rt":4411.254999999073,"stimulus":"You earned a bonus of $1.4 out of $1.5.<br><br>Press any key to complete the experiment.","key_press":71,"trial_type":"html-keyboard-response","trial_index":262,"time_elapsed":1028361,"internal_node_id":"0.0-251.0","task_version":"test-retest-t3","accuracy":0.9333333333333333,"bonus":1.4,"interactions":"[]"}]