[{"slider_type":"valence","raw_loc":609,"loc":0.718,"trial_type":"affective-slider","trial_index":0,"time_elapsed":12517,"internal_node_id":"0.0-0.0","task_version":"test-retest-t2"},{"responses":{"Q03":"0","Q05":"0","Q02":"0","Q06":"0","Q08":"0","Q04":"0","Q01":"1","Q07":"0"},"rt":16826.144999999087,"survey":"gad7","trial_type":"survey-template","trial_index":1,"time_elapsed":29347,"internal_node_id":"0.0-1.0","task_version":"test-retest-t2"},{"view_history":"[{\"page_index\":0,\"viewing_time\":6652.549999998882},{\"page_index\":1,\"viewing_time\":1182.4800000031246},{\"page_index\":2,\"viewing_time\":1224.9750000046333},{\"page_index\":3,\"viewing_time\":4476.86499998963},{\"page_index\":4,\"viewing_time\":2553.6250000004657},{\"page_index\":5,\"viewing_time\":1552.8600000106962}]","rt":17644.725000005565,"trial_type":"pit-instructions","trial_index":2,"time_elapsed":46998,"internal_node_id":"0.0-2.0-0.0","task_version":"test-retest-t2"},{"Rune":"rune_00_ingz","Hex":"#FFFFF080","Correct":32,"Choice":32,"RT":609.3600000021979,"Accuracy":1,"Outcome":"+10","Keys":[2110.5250000109663],"TotalKeys":1,"Block":0,"Action":"Go","trial_type":"pit-trial","trial_index":3,"time_elapsed":50117,"internal_node_id":"0.0-2.0-1.0-0.0","task_version":"test-retest-t2"},{"Rune":"rune_00_ingz","Hex":"#FFFFF080","Correct":32,"Choice":32,"RT":345.5300000059651,"Accuracy":1,"Outcome":"+10","Keys":[1846.0749999940163],"TotalKeys":1,"Block":0,"Action":"Go","trial_type":"pit-trial","trial_index":4,"time_elapsed":52971,"internal_node_id":"0.0-2.0-1.0-0.1","task_version":"test-retest-t2"},{"Rune":"rune_00_ingz","Hex":"#FFFFF080","Correct":32,"Choice":32,"RT":291.0050000064075,"Accuracy":1,"Outcome":"+10","Keys":[1792.9149999981746],"TotalKeys":1,"Block":0,"Action":"Go","trial_type":"pit-trial","trial_index":5,"time_elapsed":55772,"internal_node_id":"0.0-2.0-1.0-0.2","task_version":"test-retest-t2"},{"Rune":"rune_00_ingz","Hex":"#FFFFF080","Correct":32,"Choice":32,"RT":123.41000000014901,"Accuracy":1,"Outcome":"+10","Keys":[1623.8699999958044],"TotalKeys":1,"Block":0,"Action":"Go","trial_type":"pit-trial","trial_index":6,"time_elapsed":58400,"internal_node_id":"0.0-2.0-1.0-0.3","task_version":"test-retest-t2"},{"view_history":"[{\"page_index\":0,\"viewing_time\":2592.2349999891594}]","rt":2592.8599999897415,"trial_type":"pit-instructions","trial_index":7,"time_elapsed":60995,"internal_node_id":"0.0-2.0-2.0","task_version":"test-retest-t2"},{"Rune":"rune_00_isaz","Hex":"#FFFFF080","Correct":-1,"Choice":-1,"RT":-1,"Accuracy":1,"Outcome":"+10","Keys":[],"TotalKeys":0,"Block":0,"Action":"No-Go","trial_type":"pit-trial","trial_index":8,"time_elapsed":65005,"internal_node_id":"0.0-2.0-3.0-0.0","task_version":"test-retest-t2"},{"Rune":"rune_00_isaz","Hex":"#FFFFF080","Correct":-1,"Choice":-1,"RT":-1,"Accuracy":1,"Outcome":"+10","Keys":[],"TotalKeys":0,"Block":0,"Action":"No-Go","trial_type":"pit-trial","trial_index":9,"time_elapsed":69011,"internal_node_id":"0.0-2.0-3.0-0.1","task_version":"test-retest-t2"},{"Rune":"rune_00_isaz","Hex":"#FFFFF080","Correct":-1,"Choice":-1,"RT":-1,"Accuracy":1,"Outcome":"+10","Keys":[],"TotalKeys":0,"Block":0,"Action":"No-Go","trial_type":"pit-trial","trial_index":10,"time_elapsed":73017,"internal_node_id":"0.0-2.0-3.0-0.2","task_version":"test-retest-t2"},{"Rune":"rune_00_isaz","Hex":"#FFFFF080","Correct":-1,"Choice":-1,"RT":-1,"Accuracy":1,"Outcome":"+10","Keys":[],"TotalKeys":0,"Block":0,"Action":"No-Go","trial_type":"pit-trial","trial_index":11,"time_elapsed":77029,"internal_node_id":"0.0-2.0-3.0-0.3","task_version":"test-retest-t2"},{"view_history":"[{\"page_index\":0,\"viewing_time\":2502.4850000045262},{\"page_index\":1,\"viewing_time\":13510.959999999614},{\"page_index\":2,\"viewing_time\":3385.6200000009267},{\"page_index\":3,\"viewing_time\":1643.450000003213},{\"page_index\":4,\"viewing_time\":527.5699999911012},{\"page_index\":5,\"viewing_time\":1428.874999997788},{\"page_index\":6,\"viewing_time\":676.6350000107195},{\"page_index\":7,\"viewing_time\":549.4349999935366}]","rt":24225.665000005392,"trial_type":"pit-instructions","trial_index":12,"time_elapsed":101257,"internal_node_id":"0.0-2.0-4.0","task_version":"test-retest-t2"},{"responses":["Do nothing","+10","+1","True","Yes"],"num_errors":1,"rt":14015.709999992396,"trial_type":"pit-comprehension","trial_index":13,"time_elapsed":115276,"internal_node_id":"0.0-2.0-5.0","task_version":"test-retest-t2"},{"view_history":"[{\"page_index\":0,\"viewing_time\":3140.9199999907287},{\"page_index\":1,\"viewing_time\":989.7300000011455},{\"page_index\":2,\"viewing_time\":1046.2050000060117},{\"page_index\":3,\"viewing_time\":1035.024999990128},{\"page_index\":4,\"viewing_time\":652.3600000073202},{\"page_index\":5,\"viewing_time\":528.8599999912549}]","rt":7393.649999998161,"trial_type":"pit-instructions","trial_index":14,"time_elapsed":122677,"internal_node_id":"0.0-2.1-0.1","task_version":"test-retest-t2"},{"Rune":"rune_00_ingz","Hex":"#FFFFF080","Correct":32,"Choice":32,"RT":149.69000000564847,"Accuracy":1,"Outcome":"+10","Keys":[1649.8049999936484],"TotalKeys":1,"Block":0,"Action":"Go","trial_type":"pit-trial","trial_index":15,"time_elapsed":125333,"internal_node_id":"0.0-2.1-1.1-0.4","task_version":"test-retest-t2"},{"Rune":"rune_00_ingz","Hex":"#FFFFF080","Correct":32,"Choice":32,"RT":195.87500000488944,"Accuracy":1,"Outcome":"+10","Keys":[1696.3249999971595],"TotalKeys":1,"Block":0,"Action":"Go","trial_type":"pit-trial","trial_index":16,"time_elapsed":128034,"internal_node_id":"0.0-2.1-1.1-0.5","task_version":"test-retest-t2"},{"Rune":"rune_00_ingz","Hex":"#FFFFF080","Correct":32,"Choice":32,"RT":127.2949999984121,"Accuracy":1,"Outcome":"+10","Keys":[1628.2800000044517],"TotalKeys":1,"Block":0,"Action":"Go","trial_type":"pit-trial","trial_index":17,"time_elapsed":130670,"internal_node_id":"0.0-2.1-1.1-0.6","task_version":"test-retest-t2"},{"Rune":"rune_00_ingz","Hex":"#FFFFF080","Correct":32,"Choice":32,"RT":132.20999999612104,"Accuracy":1,"Outcome":"+10","Keys":[1633.2000000111293],"TotalKeys":1,"Block":0,"Action":"Go","trial_type":"pit-trial","trial_index":18,"time_elapsed":133310,"internal_node_id":"0.0-2.1-1.1-0.7","task_version":"test-retest-t2"},{"view_history":"[{\"page_index\":0,\"viewing_time\":1346.3400000036927}]","rt":1346.7600000003586,"trial_type":"pit-instructions","trial_index":19,"time_elapsed":134658,"internal_node_id":"0.0-2.1-2.1","task_version":"test-retest-t2"},{"Rune":"rune_00_isaz","Hex":"#FFFFF080","Correct":-1,"Choice":-1,"RT":-1,"Accuracy":1,"Outcome":"+10","Keys":[],"TotalKeys":0,"Block":0,"Action":"No-Go","trial_type":"pit-trial","trial_index":20,"time_elapsed":138665,"internal_node_id":"0.0-2.1-3.1-0.4","task_version":"test-retest-t2"},{"Rune":"rune_00_isaz","Hex":"#FFFFF080","Correct":-1,"Choice":-1,"RT":-1,"Accuracy":1,"Outcome":"+10","Keys":[],"TotalKeys":0,"Block":0,"Action":"No-Go","trial_type":"pit-trial","trial_index":21,"time_elapsed":142673,"internal_node_id":"0.0-2.1-3.1-0.5","task_version":"test-retest-t2"},{"Rune":"rune_00_isaz","Hex":"#FFFFF080","Correct":-1,"Choice":-1,"RT":-1,"Accuracy":1,"Outcome":"+10","Keys":[],"TotalKeys":0,"Block":0,"Action":"No-Go","trial_type":"pit-trial","trial_index":22,"time_elapsed":146684,"internal_node_id":"0.0-2.1-3.1-0.6","task_version":"test-retest-t2"},{"Rune":"rune_00_isaz","Hex":"#FFFFF080","Correct":-1,"Choice":-1,"RT":-1,"Accuracy":1,"Outcome":"+10","Keys":[],"TotalKeys":0,"Block":0,"Action":"No-Go","trial_type":"pit-trial","trial_index":23,"time_elapsed":150692,"internal_node_id":"0.0-2.1-3.1-0.7","task_version":"test-retest-t2"},{"view_history":"[{\"page_index\":0,\"viewing_time\":1560.5700000014622},{\"page_index\":1,\"viewing_time\":9798.215000002529},{\"page_index\":2,\"viewing_time\":2507.4599999934435},{\"page_index\":3,\"viewing_time\":2665.6700000021374},{\"page_index\":4,\"viewing_time\":754.4400000042515},{\"page_index\":5,\"viewing_time\":709.2549999943003},{\"page_index\":6,\"viewing_time\":483.4499999997206},{\"page_index\":7,\"viewing_time\":700.4299999971408}]","rt":19179.87500000163,"trial_type":"pit-instructions","trial_index":24,"time_elapsed":169874,"internal_node_id":"0.0-2.1-4.1","task_version":"test-retest-t2"},{"responses":["Do nothing","+10","-1","True","Yes"],"num_errors":0,"rt":9985.815000007278,"trial_type":"pit-comprehension","trial_index":25,"time_elapsed":179863,"internal_node_id":"0.0-2.1-5.1","task_version":"test-retest-t2"},{"trial_type":"call-function","trial_index":26,"time_elapsed":179866,"internal_node_id":"0.0-3.0","task_version":"test-retest-t2"},{"view_history":"[{\"page_index\":0,\"viewing_time\":1298.110000003362},{\"page_index\":1,\"viewing_time\":1293.599999989965},{\"page_index\":2,\"viewing_time\":1236.5300000092248}]","rt":3828.624999994645,"trial_type":"pit-instructions","trial_index":27,"time_elapsed":183696,"internal_node_id":"0.0-4.0","task_version":"test-retest-t2"},{"Rune":"rune_05_tiwaz","Hex":"#ffcc3399","Correct":-1,"Choice":32,"RT":394.88999999593943,"Accuracy":0,"Outcome":"-1","Keys":[1895.4999999987194],"TotalKeys":1,"Block":1,"Trial":1,"Robot":4,"Valence":"Lose","Action":"No-Go","Sham":1,"Color":"yellow","trial_type":"pit-trial","trial_index":28,"time_elapsed":186596,"internal_node_id":"0.0-5.0","task_version":"test-retest-t2"},{"Rune":"rune_05_jeran","Hex":"#3366ff99","Correct":32,"Choice":32,"RT":958.3899999997811,"Accuracy":1,"Outcome":"+10","Keys":[2459.3650000024354],"TotalKeys":1,"Block":1,"Trial":2,"Robot":1,"Valence":"Win","Action":"Go","Sham":0,"Color":"blue","trial_type":"pit-trial","trial_index":29,"time_elapsed":190061,"internal_node_id":"0.0-6.0","task_version":"test-retest-t2"},{"Rune":"rune_05_gebo","Hex":"#3366ff99","Correct":-1,"Choice":-1,"RT":-1,"Accuracy":1,"Outcome":"+1","Keys":[],"TotalKeys":0,"Block":1,"Trial":3,"Robot":2,"Valence":"Win","Action":"No-Go","Sham":1,"Color":"blue","trial_type":"pit-trial","trial_index":30,"time_elapsed":194066,"internal_node_id":"0.0-7.0","task_version":"test-retest-t2"},{"Rune":"rune_05_ior","Hex":"#ffcc3399","Correct":32,"Choice":-1,"RT":-1,"Accuracy":0,"Outcome":"-10","Keys":[],"TotalKeys":0,"Block":1,"Trial":4,"Robot":3,"Valence":"Lose","Action":"Go","Sham":0,"Color":"yellow","trial_type":"pit-trial","trial_index":31,"time_elapsed":198071,"internal_node_id":"0.0-8.0","task_version":"test-retest-t2"},{"Rune":"rune_05_jeran","Hex":"#3366ff99","Correct":32,"Choice":32,"RT":388.79499999166,"Accuracy":1,"Outcome":"+10","Keys":[1889.6200000017416],"TotalKeys":1,"Block":1,"Trial":5,"Robot":1,"Valence":"Win","Action":"Go","Sham":0,"Color":"blue","trial_type":"pit-trial","trial_index":32,"time_elapsed":200968,"internal_node_id":"0.0-9.0","task_version":"test-retest-t2"},{"Rune":"rune_05_tiwaz","Hex":"#ffcc3399","Correct":-1,"Choice":32,"RT":539.4950000045355,"Accuracy":0,"Outcome":"-10","Keys":[2040.0250000093365],"TotalKeys":1,"Block":1,"Trial":6,"Robot":4,"Valence":"Lose","Action":"No-Go","Sham":0,"Color":"yellow","trial_type":"pit-trial","trial_index":33,"time_elapsed":204012,"internal_node_id":"0.0-10.0","task_version":"test-retest-t2"},{"Rune":"rune_05_gebo","Hex":"#3366ff99","Correct":-1,"Choice":-1,"RT":-1,"Accuracy":1,"Outcome":"+10","Keys":[],"TotalKeys":0,"Block":1,"Trial":7,"Robot":2,"Valence":"Win","Action":"No-Go","Sham":0,"Color":"blue","trial_type":"pit-trial","trial_index":34,"time_elapsed":208022,"internal_node_id":"0.0-11.0","task_version":"test-retest-t2"},{"Rune":"rune_05_ior","Hex":"#ffcc3399","Correct":32,"Choice":32,"RT":317.4050000088755,"Accuracy":1,"Outcome":"-1","Keys":[1817.6649999950314],"TotalKeys":1,"Block":1,"Trial":8,"Robot":3,"Valence":"Lose","Action":"Go","Sham":0,"Color":"yellow","trial_type":"pit-trial","trial_index":35,"time_elapsed":210843,"internal_node_id":"0.0-12.0","task_version":"test-retest-t2"},{"Rune":"rune_05_jeran","Hex":"#3366ff99","Correct":32,"Choice":32,"RT":360.97500000323635,"Accuracy":1,"Outcome":"+1","Keys":[1861.945000011474],"TotalKeys":1,"Block":1,"Trial":9,"Robot":1,"Valence":"Win","Action":"Go","Sham":1,"Color":"blue","trial_type":"pit-trial","trial_index":36,"time_elapsed":213711,"internal_node_id":"0.0-13.0","task_version":"test-retest-t2"},{"Rune":"rune_05_ior","Hex":"#ffcc3399","Correct":32,"Choice":32,"RT":445.4450000048382,"Accuracy":1,"Outcome":"-1","Keys":[1945.9499999938998],"TotalKeys":1,"Block":1,"Trial":10,"Robot":3,"Valence":"Lose","Action":"Go","Sham":0,"Color":"yellow","trial_type":"pit-trial","trial_index":37,"time_elapsed":216660,"internal_node_id":"0.0-14.0","task_version":"test-retest-t2"},{"Rune":"rune_05_gebo","Hex":"#3366ff99","Correct":-1,"Choice":-1,"RT":-1,"Accuracy":1,"Outcome":"+10","Keys":[],"TotalKeys":0,"Block":1,"Trial":11,"Robot":2,"Valence":"Win","Action":"No-Go","Sham":0,"Color":"blue","trial_type":"pit-trial","trial_index":38,"time_elapsed":220671,"internal_node_id":"0.0-15.0","task_version":"test-retest-t2"},{"Rune":"rune_05_tiwaz","Hex":"#ffcc3399","Correct":-1,"Choice":-1,"RT":-1,"Accuracy":1,"Outcome":"-1","Keys":[],"TotalKeys":0,"Block":1,"Trial":12,"Robot":4,"Valence":"Lose","Action":"No-Go","Sham":0,"Color":"yellow","trial_type":"pit-trial","trial_index":39,"time_elapsed":224683,"internal_node_id":"0.0-16.0","task_version":"test-retest-t2"},{"Rune":"rune_05_jeran","Hex":"#3366ff99","Correct":32,"Choice":32,"RT":252.44999999995343,"Accuracy":1,"Outcome":"+10","Keys":[1753.0299999925774],"TotalKeys":1,"Block":1,"Trial":13,"Robot":1,"Valence":"Win","Action":"Go","Sham":0,"Color":"blue","trial_type":"pit-trial","trial_index":40,"time_elapsed":227441,"internal_node_id":"0.0-17.0","task_version":"test-retest-t2"},{"Rune":"rune_05_gebo","Hex":"#3366ff99","Correct":-1,"Choice":-1,"RT":-1,"Accuracy":1,"Outcome":"+10","Keys":[],"TotalKeys":0,"Block":1,"Trial":14,"Robot":2,"Valence":"Win","Action":"No-Go","Sham":0,"Color":"blue","trial_type":"pit-trial","trial_index":41,"time_elapsed":231451,"internal_node_id":"0.0-18.0","task_version":"test-retest-t2"},{"Rune":"rune_05_ior","Hex":"#ffcc3399","Correct":32,"Choice":32,"RT":378.24999999429565,"Accuracy":1,"Outcome":"-1","Keys":[1878.3849999890663],"TotalKeys":1,"Block":1,"Trial":15,"Robot":3,"Valence":"Lose","Action":"Go","Sham":0,"Color":"yellow","trial_type":"pit-trial","trial_index":42,"time_elapsed":234337,"internal_node_id":"0.0-19.0","task_version":"test-retest-t2"},{"Rune":"rune_05_tiwaz","Hex":"#ffcc3399","Correct":-1,"Choice":-1,"RT":-1,"Accuracy":1,"Outcome":"-1","Keys":[],"TotalKeys":0,"Block":1,"Trial":16,"Robot":4,"Valence":"Lose","Action":"No-Go","Sham":0,"Color":"yellow","trial_type":"pit-trial","trial_index":43,"time_elapsed":238348,"internal_node_id":"0.0-20.0","task_version":"test-retest-t2"},{"Rune":"rune_05_gebo","Hex":"#3366ff99","Correct":-1,"Choice":-1,"RT":-1,"Accuracy":1,"Outcome":"+10","Keys":[],"TotalKeys":0,"Block":1,"Trial":17,"Robot":2,"Valence":"Win","Action":"No-Go","Sham":0,"Color":"blue","trial_type":"pit-trial","trial_index":44,"time_elapsed":242357,"internal_node_id":"0.0-21.0","task_version":"test-retest-t2"},{"Rune":"rune_05_ior","Hex":"#ffcc3399","Correct":32,"Choice":32,"RT":720.7749999943189,"Accuracy":1,"Outcome":"-10","Keys":[2221.225000001141],"TotalKeys":1,"Block":1,"Trial":18,"Robot":3,"Valence":"Lose","Action":"Go","Sham":1,"Color":"yellow","trial_type":"pit-trial","trial_index":45,"time_elapsed":245585,"internal_node_id":"0.0-22.0","task_version":"test-retest-t2"},{"Rune":"rune_05_jeran","Hex":"#3366ff99","Correct":32,"Choice":32,"RT":291.37000000628177,"Accuracy":1,"Outcome":"+10","Keys":[1791.6349999868544],"TotalKeys":1,"Block":1,"Trial":19,"Robot":1,"Valence":"Win","Action":"Go","Sham":0,"Color":"blue","trial_type":"pit-trial","trial_index":46,"time_elapsed":248383,"internal_node_id":"0.0-23.0","task_version":"test-retest-t2"},{"Rune":"rune_05_tiwaz","Hex":"#ffcc3399","Correct":-1,"Choice":-1,"RT":-1,"Accuracy":1,"Outcome":"-1","Keys":[],"TotalKeys":0,"Block":1,"Trial":20,"Robot":4,"Valence":"Lose","Action":"No-Go","Sham":0,"Color":"yellow","trial_type":"pit-trial","trial_index":47,"time_elapsed":252392,"internal_node_id":"0.0-24.0","task_version":"test-retest-t2"},{"Rune":"rune_05_gebo","Hex":"#3366ff99","Correct":-1,"Choice":-1,"RT":-1,"Accuracy":1,"Outcome":"+10","Keys":[],"TotalKeys":0,"Block":1,"Trial":21,"Robot":2,"Valence":"Win","Action":"No-Go","Sham":0,"Color":"blue","trial_type":"pit-trial","trial_index":48,"time_elapsed":256402,"internal_node_id":"0.0-25.0","task_version":"test-retest-t2"},{"Rune":"rune_05_ior","Hex":"#ffcc3399","Correct":32,"Choice":32,"RT":1012.3450000101002,"Accuracy":1,"Outcome":"-1","Keys":[2512.619999994058],"TotalKeys":1,"Block":1,"Trial":22,"Robot":3,"Valence":"Lose","Action":"Go","Sham":0,"Color":"yellow","trial_type":"pit-trial","trial_index":49,"time_elapsed":259920,"internal_node_id":"0.0-26.0","task_version":"test-retest-t2"},{"Rune":"rune_05_tiwaz","Hex":"#ffcc3399","Correct":-1,"Choice":-1,"RT":-1,"Accuracy":1,"Outcome":"-1","Keys":[],"TotalKeys":0,"Block":1,"Trial":23,"Robot":4,"Valence":"Lose","Action":"No-Go","Sham":0,"Color":"yellow","trial_type":"pit-trial","trial_index":50,"time_elapsed":263926,"internal_node_id":"0.0-27.0","task_version":"test-retest-t2"},{"Rune":"rune_05_jeran","Hex":"#3366ff99","Correct":32,"Choice":32,"RT":351.0650000098394,"Accuracy":1,"Outcome":"+10","Keys":[1851.280000002589],"TotalKeys":1,"Block":1,"Trial":24,"Robot":1,"Valence":"Win","Action":"Go","Sham":0,"Color":"blue","trial_type":"pit-trial","trial_index":51,"time_elapsed":266784,"internal_node_id":"0.0-28.0","task_version":"test-retest-t2"},{"Rune":"rune_05_ior","Hex":"#ffcc3399","Correct":32,"Choice":32,"RT":423.9850000012666,"Accuracy":1,"Outcome":"-1","Keys":[1924.9949999939417],"TotalKeys":1,"Block":1,"Trial":25,"Robot":3,"Valence":"Lose","Action":"Go","Sham":0,"Color":"yellow","trial_type":"pit-trial","trial_index":52,"time_elapsed":269715,"internal_node_id":"0.0-29.0","task_version":"test-retest-t2"},{"Rune":"rune_05_tiwaz","Hex":"#ffcc3399","Correct":-1,"Choice":-1,"RT":-1,"Accuracy":1,"Outcome":"-1","Keys":[],"TotalKeys":0,"Block":1,"Trial":26,"Robot":4,"Valence":"Lose","Action":"No-Go","Sham":0,"Color":"yellow","trial_type":"pit-trial","trial_index":53,"time_elapsed":273723,"internal_node_id":"0.0-30.0","task_version":"test-retest-t2"},{"Rune":"rune_05_jeran","Hex":"#3366ff99","Correct":32,"Choice":32,"RT":380.9049999981653,"Accuracy":1,"Outcome":"+10","Keys":[1881.2699999980396],"TotalKeys":1,"Block":1,"Trial":27,"Robot":1,"Valence":"Win","Action":"Go","Sham":0,"Color":"blue","trial_type":"pit-trial","trial_index":54,"time_elapsed":276612,"internal_node_id":"0.0-31.0","task_version":"test-retest-t2"},{"Rune":"rune_05_gebo","Hex":"#3366ff99","Correct":-1,"Choice":-1,"RT":-1,"Accuracy":1,"Outcome":"+10","Keys":[],"TotalKeys":0,"Block":1,"Trial":28,"Robot":2,"Valence":"Win","Action":"No-Go","Sham":0,"Color":"blue","trial_type":"pit-trial","trial_index":55,"time_elapsed":280621,"internal_node_id":"0.0-32.0","task_version":"test-retest-t2"},{"Rune":"rune_05_jeran","Hex":"#3366ff99","Correct":32,"Choice":32,"RT":347.66500000841916,"Accuracy":1,"Outcome":"+10","Keys":[1849.0750000055414],"TotalKeys":1,"Block":1,"Trial":29,"Robot":1,"Valence":"Win","Action":"Go","Sham":0,"Color":"blue","trial_type":"pit-trial","trial_index":56,"time_elapsed":283475,"internal_node_id":"0.0-33.0","task_version":"test-retest-t2"},{"Rune":"rune_05_tiwaz","Hex":"#ffcc3399","Correct":-1,"Choice":-1,"RT":-1,"Accuracy":1,"Outcome":"-10","Keys":[],"TotalKeys":0,"Block":1,"Trial":30,"Robot":4,"Valence":"Lose","Action":"No-Go","Sham":1,"Color":"yellow","trial_type":"pit-trial","trial_index":57,"time_elapsed":287483,"internal_node_id":"0.0-34.0","task_version":"test-retest-t2"},{"Rune":"rune_05_ior","Hex":"#ffcc3399","Correct":32,"Choice":32,"RT":443.7000000034459,"Accuracy":1,"Outcome":"-10","Keys":[1944.3299999984447],"TotalKeys":1,"Block":1,"Trial":31,"Robot":3,"Valence":"Lose","Action":"Go","Sham":1,"Color":"yellow","trial_type":"pit-trial","trial_index":58,"time_elapsed":290433,"internal_node_id":"0.0-35.0","task_version":"test-retest-t2"},{"Rune":"rune_05_gebo","Hex":"#3366ff99","Correct":-1,"Choice":-1,"RT":-1,"Accuracy":1,"Outcome":"+10","Keys":[],"TotalKeys":0,"Block":1,"Trial":32,"Robot":2,"Valence":"Win","Action":"No-Go","Sham":0,"Color":"blue","trial_type":"pit-trial","trial_index":59,"time_elapsed":294440,"internal_node_id":"0.0-36.0","task_version":"test-retest-t2"},{"Rune":"rune_05_tiwaz","Hex":"#ffcc3399","Correct":-1,"Choice":-1,"RT":-1,"Accuracy":1,"Outcome":"-1","Keys":[],"TotalKeys":0,"Block":1,"Trial":33,"Robot":4,"Valence":"Lose","Action":"No-Go","Sham":0,"Color":"yellow","trial_type":"pit-trial","trial_index":60,"time_elapsed":298443,"internal_node_id":"0.0-37.0","task_version":"test-retest-t2"},{"Rune":"rune_05_jeran","Hex":"#3366ff99","Correct":32,"Choice":32,"RT":444.260000003851,"Accuracy":1,"Outcome":"+1","Keys":[1944.7650000074646],"TotalKeys":1,"Block":1,"Trial":34,"Robot":1,"Valence":"Win","Action":"Go","Sham":1,"Color":"blue","trial_type":"pit-trial","trial_index":61,"time_elapsed":301391,"internal_node_id":"0.0-38.0","task_version":"test-retest-t2"},{"Rune":"rune_05_ior","Hex":"#ffcc3399","Correct":32,"Choice":-1,"RT":-1,"Accuracy":0,"Outcome":"-10","Keys":[3284.1199999966193],"TotalKeys":1,"Block":1,"Trial":35,"Robot":3,"Valence":"Lose","Action":"Go","Sham":0,"Color":"yellow","trial_type":"pit-trial","trial_index":62,"time_elapsed":305395,"internal_node_id":"0.0-39.0","task_version":"test-retest-t2"},{"Rune":"rune_05_gebo","Hex":"#3366ff99","Correct":-1,"Choice":-1,"RT":-1,"Accuracy":1,"Outcome":"+10","Keys":[],"TotalKeys":0,"Block":1,"Trial":36,"Robot":2,"Valence":"Win","Action":"No-Go","Sham":0,"Color":"blue","trial_type":"pit-trial","trial_index":63,"time_elapsed":309399,"internal_node_id":"0.0-40.0","task_version":"test-retest-t2"},{"Rune":"rune_05_gebo","Hex":"#3366ff99","Correct":-1,"Choice":-1,"RT":-1,"Accuracy":1,"Outcome":"+1","Keys":[],"TotalKeys":0,"Block":1,"Trial":37,"Robot":2,"Valence":"Win","Action":"No-Go","Sham":1,"Color":"blue","trial_type":"pit-trial","trial_index":64,"time_elapsed":313406,"internal_node_id":"0.0-41.0","task_version":"test-retest-t2"},{"Rune":"rune_05_jeran","Hex":"#3366ff99","Correct":32,"Choice":32,"RT":353.3949999982724,"Accuracy":1,"Outcome":"+10","Keys":[1853.6699999967823],"TotalKeys":1,"Block":1,"Trial":38,"Robot":1,"Valence":"Win","Action":"Go","Sham":0,"Color":"blue","trial_type":"pit-trial","trial_index":65,"time_elapsed":316265,"internal_node_id":"0.0-42.0","task_version":"test-retest-t2"},{"Rune":"rune_05_tiwaz","Hex":"#ffcc3399","Correct":-1,"Choice":-1,"RT":-1,"Accuracy":1,"Outcome":"-1","Keys":[],"TotalKeys":0,"Block":1,"Trial":39,"Robot":4,"Valence":"Lose","Action":"No-Go","Sham":0,"Color":"yellow","trial_type":"pit-trial","trial_index":66,"time_elapsed":320276,"internal_node_id":"0.0-43.0","task_version":"test-retest-t2"},{"Rune":"rune_05_ior","Hex":"#ffcc3399","Correct":32,"Choice":32,"RT":443.0150000116555,"Accuracy":1,"Outcome":"-1","Keys":[1944.0600000089034],"TotalKeys":1,"Block":1,"Trial":40,"Robot":3,"Valence":"Lose","Action":"Go","Sham":0,"Color":"yellow","trial_type":"pit-trial","trial_index":67,"time_elapsed":323225,"internal_node_id":"0.0-44.0","task_version":"test-retest-t2"},{"Rune":"rune_05_jeran","Hex":"#3366ff99","Correct":32,"Choice":32,"RT":389.7350000042934,"Accuracy":1,"Outcome":"+10","Keys":[1890.0699999940116],"TotalKeys":1,"Block":1,"Trial":41,"Robot":1,"Valence":"Win","Action":"Go","Sham":0,"Color":"blue","trial_type":"pit-trial","trial_index":68,"time_elapsed":326120,"internal_node_id":"0.0-45.0","task_version":"test-retest-t2"},{"Rune":"rune_05_gebo","Hex":"#3366ff99","Correct":-1,"Choice":-1,"RT":-1,"Accuracy":1,"Outcome":"+10","Keys":[],"TotalKeys":0,"Block":1,"Trial":42,"Robot":2,"Valence":"Win","Action":"No-Go","Sham":0,"Color":"blue","trial_type":"pit-trial","trial_index":69,"time_elapsed":330127,"internal_node_id":"0.0-46.0","task_version":"test-retest-t2"},{"Rune":"rune_05_tiwaz","Hex":"#ffcc3399","Correct":-1,"Choice":-1,"RT":-1,"Accuracy":1,"Outcome":"-1","Keys":[],"TotalKeys":0,"Block":1,"Trial":43,"Robot":4,"Valence":"Lose","Action":"No-Go","Sham":0,"Color":"yellow","trial_type":"pit-trial","trial_index":70,"time_elapsed":334133,"internal_node_id":"0.0-47.0","task_version":"test-retest-t2"},{"Rune":"rune_05_ior","Hex":"#ffcc3399","Correct":32,"Choice":32,"RT":375.7250000053318,"Accuracy":1,"Outcome":"-10","Keys":[1878.2350000110455],"TotalKeys":1,"Block":1,"Trial":44,"Robot":3,"Valence":"Lose","Action":"Go","Sham":1,"Color":"yellow","trial_type":"pit-trial","trial_index":71,"time_elapsed":337019,"internal_node_id":"0.0-48.0","task_version":"test-retest-t2"},{"Rune":"rune_05_gebo","Hex":"#3366ff99","Correct":-1,"Choice":-1,"RT":-1,"Accuracy":1,"Outcome":"+10","Keys":[],"TotalKeys":0,"Block":1,"Trial":45,"Robot":2,"Valence":"Win","Action":"No-Go","Sham":0,"Color":"blue","trial_type":"pit-trial","trial_index":72,"time_elapsed":341028,"internal_node_id":"0.0-49.0","task_version":"test-retest-t2"},{"Rune":"rune_05_ior","Hex":"#ffcc3399","Correct":32,"Choice":32,"RT":380.74999999662396,"Accuracy":1,"Outcome":"-1","Keys":[1880.8699999935925],"TotalKeys":1,"Block":1,"Trial":46,"Robot":3,"Valence":"Lose","Action":"Go","Sham":0,"Color":"yellow","trial_type":"pit-trial","trial_index":73,"time_elapsed":343915,"internal_node_id":"0.0-50.0","task_version":"test-retest-t2"},{"Rune":"rune_05_tiwaz","Hex":"#ffcc3399","Correct":-1,"Choice":-1,"RT":-1,"Accuracy":1,"Outcome":"-1","Keys":[],"TotalKeys":0,"Block":1,"Trial":47,"Robot":4,"Valence":"Lose","Action":"No-Go","Sham":0,"Color":"yellow","trial_type":"pit-trial","trial_index":74,"time_elapsed":347927,"internal_node_id":"0.0-51.0","task_version":"test-retest-t2"},{"Rune":"rune_05_jeran","Hex":"#3366ff99","Correct":32,"Choice":32,"RT":378.2199999986915,"Accuracy":1,"Outcome":"+10","Keys":[1878.5849999985658],"TotalKeys":1,"Block":1,"Trial":48,"Robot":1,"Valence":"Win","Action":"Go","Sham":0,"Color":"blue","trial_type":"pit-trial","trial_index":75,"time_elapsed":350811,"internal_node_id":"0.0-52.0","task_version":"test-retest-t2"},{"Rune":"rune_05_tiwaz","Hex":"#ffcc3399","Correct":-1,"Choice":-1,"RT":-1,"Accuracy":1,"Outcome":"-10","Keys":[],"TotalKeys":0,"Block":1,"Trial":49,"Robot":4,"Valence":"Lose","Action":"No-Go","Sham":1,"Color":"yellow","trial_type":"pit-trial","trial_index":76,"time_elapsed":354817,"internal_node_id":"0.0-53.0","task_version":"test-retest-t2"},{"Rune":"rune_05_gebo","Hex":"#3366ff99","Correct":-1,"Choice":-1,"RT":-1,"Accuracy":1,"Outcome":"+1","Keys":[],"TotalKeys":0,"Block":1,"Trial":50,"Robot":2,"Valence":"Win","Action":"No-Go","Sham":1,"Color":"blue","trial_type":"pit-trial","trial_index":77,"time_elapsed":358824,"internal_node_id":"0.0-54.0","task_version":"test-retest-t2"},{"Rune":"rune_05_jeran","Hex":"#3366ff99","Correct":32,"Choice":32,"RT":728.9650000020629,"Accuracy":1,"Outcome":"+10","Keys":[2229.399999996531],"TotalKeys":1,"Block":1,"Trial":51,"Robot":1,"Valence":"Win","Action":"Go","Sham":0,"Color":"blue","trial_type":"pit-trial","trial_index":78,"time_elapsed":362058,"internal_node_id":"0.0-55.0","task_version":"test-retest-t2"},{"Rune":"rune_05_ior","Hex":"#ffcc3399","Correct":32,"Choice":32,"RT":422.51000000396743,"Accuracy":1,"Outcome":"-1","Keys":[1922.6699999999255],"TotalKeys":1,"Block":1,"Trial":52,"Robot":3,"Valence":"Lose","Action":"Go","Sham":0,"Color":"yellow","trial_type":"pit-trial","trial_index":79,"time_elapsed":364989,"internal_node_id":"0.0-56.0","task_version":"test-retest-t2"},{"Rune":"rune_05_ior","Hex":"#ffcc3399","Correct":32,"Choice":32,"RT":341.100000005099,"Accuracy":1,"Outcome":"-1","Keys":[1847.8800000011688],"TotalKeys":1,"Block":1,"Trial":53,"Robot":3,"Valence":"Lose","Action":"Go","Sham":0,"Color":"yellow","trial_type":"pit-trial","trial_index":80,"time_elapsed":367840,"internal_node_id":"0.0-57.0","task_version":"test-retest-t2"},{"Rune":"rune_05_gebo","Hex":"#3366ff99","Correct":-1,"Choice":-1,"RT":-1,"Accuracy":1,"Outcome":"+10","Keys":[3989.0550000127405],"TotalKeys":1,"Block":1,"Trial":54,"Robot":2,"Valence":"Win","Action":"No-Go","Sham":0,"Color":"blue","trial_type":"pit-trial","trial_index":81,"time_elapsed":371848,"internal_node_id":"0.0-58.0","task_version":"test-retest-t2"},{"Rune":"rune_05_tiwaz","Hex":"#ffcc3399","Correct":-1,"Choice":-1,"RT":-1,"Accuracy":1,"Outcome":"-1","Keys":[],"TotalKeys":0,"Block":1,"Trial":55,"Robot":4,"Valence":"Lose","Action":"No-Go","Sham":0,"Color":"yellow","trial_type":"pit-trial","trial_index":82,"time_elapsed":375853,"internal_node_id":"0.0-59.0","task_version":"test-retest-t2"},{"Rune":"rune_05_jeran","Hex":"#3366ff99","Correct":32,"Choice":32,"RT":292.83000000577886,"Accuracy":1,"Outcome":"+10","Keys":[1794.7649999987334],"TotalKeys":1,"Block":1,"Trial":56,"Robot":1,"Valence":"Win","Action":"Go","Sham":0,"Color":"blue","trial_type":"pit-trial","trial_index":83,"time_elapsed":378654,"internal_node_id":"0.0-60.0","task_version":"test-retest-t2"},{"Rune":"rune_05_tiwaz","Hex":"#ffcc3399","Correct":-1,"Choice":-1,"RT":-1,"Accuracy":1,"Outcome":"-1","Keys":[],"TotalKeys":0,"Block":1,"Trial":57,"Robot":4,"Valence":"Lose","Action":"No-Go","Sham":0,"Color":"yellow","trial_type":"pit-trial","trial_index":84,"time_elapsed":382661,"internal_node_id":"0.0-61.0","task_version":"test-retest-t2"},{"Rune":"rune_05_jeran","Hex":"#3366ff99","Correct":32,"Choice":32,"RT":252.47500000114087,"Accuracy":1,"Outcome":"+1","Keys":[1752.7750000008382],"TotalKeys":1,"Block":1,"Trial":58,"Robot":1,"Valence":"Win","Action":"Go","Sham":1,"Color":"blue","trial_type":"pit-trial","trial_index":85,"time_elapsed":385422,"internal_node_id":"0.0-62.0","task_version":"test-retest-t2"},{"Rune":"rune_05_ior","Hex":"#ffcc3399","Correct":32,"Choice":32,"RT":539.6099999925354,"Accuracy":1,"Outcome":"-1","Keys":[2042.6149999984773],"TotalKeys":1,"Block":1,"Trial":59,"Robot":3,"Valence":"Lose","Action":"Go","Sham":0,"Color":"yellow","trial_type":"pit-trial","trial_index":86,"time_elapsed":388469,"internal_node_id":"0.0-63.0","task_version":"test-retest-t2"},{"Rune":"rune_05_gebo","Hex":"#3366ff99","Correct":-1,"Choice":-1,"RT":-1,"Accuracy":1,"Outcome":"+10","Keys":[],"TotalKeys":0,"Block":1,"Trial":60,"Robot":2,"Valence":"Win","Action":"No-Go","Sham":0,"Color":"blue","trial_type":"pit-trial","trial_index":87,"time_elapsed":392481,"internal_node_id":"0.0-64.0","task_version":"test-retest-t2"},{"value":false,"trial_type":"call-function","trial_index":88,"time_elapsed":392484,"internal_node_id":"0.0-65.0","task_version":"test-retest-t2"},{"view_history":"[{\"page_index\":0,\"viewing_time\":2498.60500000068},{\"page_index\":1,\"viewing_time\":1430.2449999959208}]","rt":3929.420000000391,"trial_type":"pit-instructions","trial_index":89,"time_elapsed":396414,"internal_node_id":"0.0-66.0","task_version":"test-retest-t2"},{"Rune":"rune_05_gebo","Hex":"#3366ff99","Correct":-1,"Choice":-1,"RT":-1,"Accuracy":1,"Outcome":"+10","Keys":[],"TotalKeys":0,"Block":1,"Trial":61,"Robot":2,"Valence":"Win","Action":"No-Go","Sham":0,"Color":"blue","trial_type":"pit-trial","trial_index":90,"time_elapsed":400428,"internal_node_id":"0.0-67.0","task_version":"test-retest-t2"},{"Rune":"rune_05_tiwaz","Hex":"#ffcc3399","Correct":-1,"Choice":-1,"RT":-1,"Accuracy":1,"Outcome":"-1","Keys":[],"TotalKeys":0,"Block":1,"Trial":62,"Robot":4,"Valence":"Lose","Action":"No-Go","Sham":0,"Color":"yellow","trial_type":"pit-trial","trial_index":91,"time_elapsed":404441,"internal_node_id":"0.0-68.0","task_version":"test-retest-t2"},{"Rune":"rune_05_jeran","Hex":"#3366ff99","Correct":32,"Choice":32,"RT":304.45999999938067,"Accuracy":1,"Outcome":"+10","Keys":[1804.6899999899324],"TotalKeys":1,"Block":1,"Trial":63,"Robot":1,"Valence":"Win","Action":"Go","Sham":0,"Color":"blue","trial_type":"pit-trial","trial_index":92,"time_elapsed":407250,"internal_node_id":"0.0-69.0","task_version":"test-retest-t2"},{"Rune":"rune_05_ior","Hex":"#ffcc3399","Correct":32,"Choice":32,"RT":382.8349999967031,"Accuracy":1,"Outcome":"-1","Keys":[1883.6000000010245],"TotalKeys":1,"Block":1,"Trial":64,"Robot":3,"Valence":"Lose","Action":"Go","Sham":0,"Color":"yellow","trial_type":"pit-trial","trial_index":93,"time_elapsed":410140,"internal_node_id":"0.0-70.0","task_version":"test-retest-t2"},{"Rune":"rune_05_jeran","Hex":"#3366ff99","Correct":32,"Choice":32,"RT":358.01499999070074,"Accuracy":1,"Outcome":"+10","Keys":[1859.454999997979],"TotalKeys":1,"Block":1,"Trial":65,"Robot":1,"Valence":"Win","Action":"Go","Sham":0,"Color":"blue","trial_type":"pit-trial","trial_index":94,"time_elapsed":413003,"internal_node_id":"0.0-71.0","task_version":"test-retest-t2"},{"Rune":"rune_05_tiwaz","Hex":"#ffcc3399","Correct":-1,"Choice":-1,"RT":-1,"Accuracy":1,"Outcome":"-10","Keys":[],"TotalKeys":0,"Block":1,"Trial":66,"Robot":4,"Valence":"Lose","Action":"No-Go","Sham":1,"Color":"yellow","trial_type":"pit-trial","trial_index":95,"time_elapsed":417014,"internal_node_id":"0.0-72.0","task_version":"test-retest-t2"},{"Rune":"rune_05_gebo","Hex":"#3366ff99","Correct":-1,"Choice":-1,"RT":-1,"Accuracy":1,"Outcome":"+10","Keys":[],"TotalKeys":0,"Block":1,"Trial":67,"Robot":2,"Valence":"Win","Action":"No-Go","Sham":0,"Color":"blue","trial_type":"pit-trial","trial_index":96,"time_elapsed":421024,"internal_node_id":"0.0-73.0","task_version":"test-retest-t2"},{"Rune":"rune_05_ior","Hex":"#ffcc3399","Correct":32,"Choice":32,"RT":529.5849999965867,"Accuracy":1,"Outcome":"-10","Keys":[2030.7299999985844],"TotalKeys":1,"Block":1,"Trial":68,"Robot":3,"Valence":"Lose","Action":"Go","Sham":1,"Color":"yellow","trial_type":"pit-trial","trial_index":97,"time_elapsed":424059,"internal_node_id":"0.0-74.0","task_version":"test-retest-t2"},{"Rune":"rune_05_tiwaz","Hex":"#ffcc3399","Correct":-1,"Choice":-1,"RT":-1,"Accuracy":1,"Outcome":"-1","Keys":[],"TotalKeys":0,"Block":1,"Trial":69,"Robot":4,"Valence":"Lose","Action":"No-Go","Sham":0,"Color":"yellow","trial_type":"pit-trial","trial_index":98,"time_elapsed":428068,"internal_node_id":"0.0-75.0","task_version":"test-retest-t2"},{"Rune":"rune_05_jeran","Hex":"#3366ff99","Correct":32,"Choice":32,"RT":254.5700000046054,"Accuracy":1,"Outcome":"+1","Keys":[1754.8600000009174],"TotalKeys":1,"Block":1,"Trial":70,"Robot":1,"Valence":"Win","Action":"Go","Sham":1,"Color":"blue","trial_type":"pit-trial","trial_index":99,"time_elapsed":430826,"internal_node_id":"0.0-76.0","task_version":"test-retest-t2"},{"Rune":"rune_05_gebo","Hex":"#3366ff99","Correct":-1,"Choice":-1,"RT":-1,"Accuracy":1,"Outcome":"+1","Keys":[],"TotalKeys":0,"Block":1,"Trial":71,"Robot":2,"Valence":"Win","Action":"No-Go","Sham":1,"Color":"blue","trial_type":"pit-trial","trial_index":100,"time_elapsed":434836,"internal_node_id":"0.0-77.0","task_version":"test-retest-t2"},{"Rune":"rune_05_ior","Hex":"#ffcc3399","Correct":32,"Choice":32,"RT":445.9000000060769,"Accuracy":1,"Outcome":"-1","Keys":[1947.0900000014808],"TotalKeys":1,"Block":1,"Trial":72,"Robot":3,"Valence":"Lose","Action":"Go","Sham":0,"Color":"yellow","trial_type":"pit-trial","trial_index":101,"time_elapsed":437790,"internal_node_id":"0.0-78.0","task_version":"test-retest-t2"},{"Rune":"rune_05_ior","Hex":"#ffcc3399","Correct":32,"Choice":32,"RT":508.4199999982957,"Accuracy":1,"Outcome":"-1","Keys":[2009.424999996554],"TotalKeys":1,"Block":1,"Trial":73,"Robot":3,"Valence":"Lose","Action":"Go","Sham":0,"Color":"yellow","trial_type":"pit-trial","trial_index":102,"time_elapsed":440804,"internal_node_id":"0.0-79.0","task_version":"test-retest-t2"},{"Rune":"rune_05_gebo","Hex":"#3366ff99","Correct":-1,"Choice":-1,"RT":-1,"Accuracy":1,"Outcome":"+10","Keys":[],"TotalKeys":0,"Block":1,"Trial":74,"Robot":2,"Valence":"Win","Action":"No-Go","Sham":0,"Color":"blue","trial_type":"pit-trial","trial_index":103,"time_elapsed":444814,"internal_node_id":"0.0-80.0","task_version":"test-retest-t2"},{"Rune":"rune_05_jeran","Hex":"#3366ff99","Correct":32,"Choice":32,"RT":477.0100000023376,"Accuracy":1,"Outcome":"+10","Keys":[1977.1699999982957],"TotalKeys":1,"Block":1,"Trial":75,"Robot":1,"Valence":"Win","Action":"Go","Sham":0,"Color":"blue","trial_type":"pit-trial","trial_index":104,"time_elapsed":447795,"internal_node_id":"0.0-81.0","task_version":"test-retest-t2"},{"Rune":"rune_05_tiwaz","Hex":"#ffcc3399","Correct":-1,"Choice":-1,"RT":-1,"Accuracy":1,"Outcome":"-1","Keys":[],"TotalKeys":0,"Block":1,"Trial":76,"Robot":4,"Valence":"Lose","Action":"No-Go","Sham":0,"Color":"yellow","trial_type":"pit-trial","trial_index":105,"time_elapsed":451799,"internal_node_id":"0.0-82.0","task_version":"test-retest-t2"},{"Rune":"rune_05_gebo","Hex":"#3366ff99","Correct":-1,"Choice":-1,"RT":-1,"Accuracy":1,"Outcome":"+10","Keys":[],"TotalKeys":0,"Block":1,"Trial":77,"Robot":2,"Valence":"Win","Action":"No-Go","Sham":0,"Color":"blue","trial_type":"pit-trial","trial_index":106,"time_elapsed":455803,"internal_node_id":"0.0-83.0","task_version":"test-retest-t2"},{"Rune":"rune_05_jeran","Hex":"#3366ff99","Correct":32,"Choice":32,"RT":542.5600000016857,"Accuracy":1,"Outcome":"+10","Keys":[2044.9599999992643],"TotalKeys":1,"Block":1,"Trial":78,"Robot":1,"Valence":"Win","Action":"Go","Sham":0,"Color":"blue","trial_type":"pit-trial","trial_index":107,"time_elapsed":458853,"internal_node_id":"0.0-84.0","task_version":"test-retest-t2"},{"Rune":"rune_05_ior","Hex":"#ffcc3399","Correct":32,"Choice":32,"RT":894.815000006929,"Accuracy":1,"Outcome":"-1","Keys":[2395.845000006375],"TotalKeys":1,"Block":1,"Trial":79,"Robot":3,"Valence":"Lose","Action":"Go","Sham":0,"Color":"yellow","trial_type":"pit-trial","trial_index":108,"time_elapsed":462253,"internal_node_id":"0.0-85.0","task_version":"test-retest-t2"},{"Rune":"rune_05_tiwaz","Hex":"#ffcc3399","Correct":-1,"Choice":-1,"RT":-1,"Accuracy":1,"Outcome":"-1","Keys":[],"TotalKeys":0,"Block":1,"Trial":80,"Robot":4,"Valence":"Lose","Action":"No-Go","Sham":0,"Color":"yellow","trial_type":"pit-trial","trial_index":109,"time_elapsed":466265,"internal_node_id":"0.0-86.0","task_version":"test-retest-t2"},{"Rune":"rune_05_tiwaz","Hex":"#ffcc3399","Correct":-1,"Choice":-1,"RT":-1,"Accuracy":1,"Outcome":"-1","Keys":[],"TotalKeys":0,"Block":1,"Trial":81,"Robot":4,"Valence":"Lose","Action":"No-Go","Sham":0,"Color":"yellow","trial_type":"pit-trial","trial_index":110,"time_elapsed":470277,"internal_node_id":"0.0-87.0","task_version":"test-retest-t2"},{"Rune":"rune_05_gebo","Hex":"#3366ff99","Correct":-1,"Choice":-1,"RT":-1,"Accuracy":1,"Outcome":"+1","Keys":[],"TotalKeys":0,"Block":1,"Trial":82,"Robot":2,"Valence":"Win","Action":"No-Go","Sham":1,"Color":"blue","trial_type":"pit-trial","trial_index":111,"time_elapsed":474287,"internal_node_id":"0.0-88.0","task_version":"test-retest-t2"},{"Rune":"rune_05_ior","Hex":"#ffcc3399","Correct":32,"Choice":32,"RT":364.6699999953853,"Accuracy":1,"Outcome":"-1","Keys":[1865.5049999943003],"TotalKeys":1,"Block":1,"Trial":83,"Robot":3,"Valence":"Lose","Action":"Go","Sham":0,"Color":"yellow","trial_type":"pit-trial","trial_index":112,"time_elapsed":477161,"internal_node_id":"0.0-89.0","task_version":"test-retest-t2"},{"Rune":"rune_05_jeran","Hex":"#3366ff99","Correct":32,"Choice":-1,"RT":-1,"Accuracy":0,"Outcome":"+1","Keys":[3855.8349999948405],"TotalKeys":1,"Block":1,"Trial":84,"Robot":1,"Valence":"Win","Action":"Go","Sham":0,"Color":"blue","trial_type":"pit-trial","trial_index":113,"time_elapsed":481173,"internal_node_id":"0.0-90.0","task_version":"test-retest-t2"},{"Rune":"rune_05_gebo","Hex":"#3366ff99","Correct":-1,"Choice":-1,"RT":-1,"Accuracy":1,"Outcome":"+10","Keys":[],"TotalKeys":0,"Block":1,"Trial":85,"Robot":2,"Valence":"Win","Action":"No-Go","Sham":0,"Color":"blue","trial_type":"pit-trial","trial_index":114,"time_elapsed":485183,"internal_node_id":"0.0-91.0","task_version":"test-retest-t2"},{"Rune":"rune_05_tiwaz","Hex":"#ffcc3399","Correct":-1,"Choice":-1,"RT":-1,"Accuracy":1,"Outcome":"-10","Keys":[],"TotalKeys":0,"Block":1,"Trial":86,"Robot":4,"Valence":"Lose","Action":"No-Go","Sham":1,"Color":"yellow","trial_type":"pit-trial","trial_index":115,"time_elapsed":489189,"internal_node_id":"0.0-92.0","task_version":"test-retest-t2"},{"Rune":"rune_05_ior","Hex":"#ffcc3399","Correct":32,"Choice":32,"RT":974.0750000055414,"Accuracy":1,"Outcome":"-10","Keys":[2475.6150000030175],"TotalKeys":1,"Block":1,"Trial":87,"Robot":3,"Valence":"Lose","Action":"Go","Sham":1,"Color":"yellow","trial_type":"pit-trial","trial_index":116,"time_elapsed":492671,"internal_node_id":"0.0-93.0","task_version":"test-retest-t2"},{"Rune":"rune_05_jeran","Hex":"#3366ff99","Correct":32,"Choice":32,"RT":285.954999999376,"Accuracy":1,"Outcome":"+10","Keys":[1788.0150000128197],"TotalKeys":1,"Block":1,"Trial":88,"Robot":1,"Valence":"Win","Action":"Go","Sham":0,"Color":"blue","trial_type":"pit-trial","trial_index":117,"time_elapsed":495465,"internal_node_id":"0.0-94.0","task_version":"test-retest-t2"},{"Rune":"rune_05_gebo","Hex":"#3366ff99","Correct":-1,"Choice":-1,"RT":-1,"Accuracy":1,"Outcome":"+10","Keys":[],"TotalKeys":0,"Block":1,"Trial":89,"Robot":2,"Valence":"Win","Action":"No-Go","Sham":0,"Color":"blue","trial_type":"pit-trial","trial_index":118,"time_elapsed":499474,"internal_node_id":"0.0-95.0","task_version":"test-retest-t2"},{"Rune":"rune_05_tiwaz","Hex":"#ffcc3399","Correct":-1,"Choice":-1,"RT":-1,"Accuracy":1,"Outcome":"-1","Keys":[],"TotalKeys":0,"Block":1,"Trial":90,"Robot":4,"Valence":"Lose","Action":"No-Go","Sham":0,"Color":"yellow","trial_type":"pit-trial","trial_index":119,"time_elapsed":503481,"internal_node_id":"0.0-96.0","task_version":"test-retest-t2"},{"Rune":"rune_05_jeran","Hex":"#3366ff99","Correct":32,"Choice":32,"RT":314.5749999966938,"Accuracy":1,"Outcome":"+1","Keys":[1815.6449999951292],"TotalKeys":1,"Block":1,"Trial":91,"Robot":1,"Valence":"Win","Action":"Go","Sham":1,"Color":"blue","trial_type":"pit-trial","trial_index":120,"time_elapsed":506302,"internal_node_id":"0.0-97.0","task_version":"test-retest-t2"},{"Rune":"rune_05_ior","Hex":"#ffcc3399","Correct":32,"Choice":32,"RT":606.2399999937043,"Accuracy":1,"Outcome":"-1","Keys":[2106.709999992745],"TotalKeys":1,"Block":1,"Trial":92,"Robot":3,"Valence":"Lose","Action":"Go","Sham":0,"Color":"yellow","trial_type":"pit-trial","trial_index":121,"time_elapsed":509416,"internal_node_id":"0.0-98.0","task_version":"test-retest-t2"},{"Rune":"rune_05_tiwaz","Hex":"#ffcc3399","Correct":-1,"Choice":-1,"RT":-1,"Accuracy":1,"Outcome":"-1","Keys":[],"TotalKeys":0,"Block":1,"Trial":93,"Robot":4,"Valence":"Lose","Action":"No-Go","Sham":0,"Color":"yellow","trial_type":"pit-trial","trial_index":122,"time_elapsed":513425,"internal_node_id":"0.0-99.0","task_version":"test-retest-t2"},{"Rune":"rune_05_ior","Hex":"#ffcc3399","Correct":32,"Choice":32,"RT":379.1249999922002,"Accuracy":1,"Outcome":"-1","Keys":[1880.4049999889685],"TotalKeys":1,"Block":1,"Trial":94,"Robot":3,"Valence":"Lose","Action":"Go","Sham":0,"Color":"yellow","trial_type":"pit-trial","trial_index":123,"time_elapsed":516311,"internal_node_id":"0.0-100.0","task_version":"test-retest-t2"},{"Rune":"rune_05_gebo","Hex":"#3366ff99","Correct":-1,"Choice":-1,"RT":-1,"Accuracy":1,"Outcome":"+10","Keys":[],"TotalKeys":0,"Block":1,"Trial":95,"Robot":2,"Valence":"Win","Action":"No-Go","Sham":0,"Color":"blue","trial_type":"pit-trial","trial_index":124,"time_elapsed":520326,"internal_node_id":"0.0-101.0","task_version":"test-retest-t2"},{"Rune":"rune_05_jeran","Hex":"#3366ff99","Correct":32,"Choice":32,"RT":434.54999999084976,"Accuracy":1,"Outcome":"+10","Keys":[1935.5499999946915],"TotalKeys":1,"Block":1,"Trial":96,"Robot":1,"Valence":"Win","Action":"Go","Sham":0,"Color":"blue","trial_type":"pit-trial","trial_index":125,"time_elapsed":523271,"internal_node_id":"0.0-102.0","task_version":"test-retest-t2"},{"Rune":"rune_05_gebo","Hex":"#3366ff99","Correct":-1,"Choice":-1,"RT":-1,"Accuracy":1,"Outcome":"+10","Keys":[],"TotalKeys":0,"Block":1,"Trial":97,"Robot":2,"Valence":"Win","Action":"No-Go","Sham":0,"Color":"blue","trial_type":"pit-trial","trial_index":126,"time_elapsed":527279,"internal_node_id":"0.0-103.0","task_version":"test-retest-t2"},{"Rune":"rune_05_tiwaz","Hex":"#ffcc3399","Correct":-1,"Choice":-1,"RT":-1,"Accuracy":1,"Outcome":"-1","Keys":[],"TotalKeys":0,"Block":1,"Trial":98,"Robot":4,"Valence":"Lose","Action":"No-Go","Sham":0,"Color":"yellow","trial_type":"pit-trial","trial_index":127,"time_elapsed":531291,"internal_node_id":"0.0-104.0","task_version":"test-retest-t2"},{"Rune":"rune_05_jeran","Hex":"#3366ff99","Correct":32,"Choice":32,"RT":317.49000000127126,"Accuracy":1,"Outcome":"+10","Keys":[1817.879999987781],"TotalKeys":1,"Block":1,"Trial":99,"Robot":1,"Valence":"Win","Action":"Go","Sham":0,"Color":"blue","trial_type":"pit-trial","trial_index":128,"time_elapsed":534116,"internal_node_id":"0.0-105.0","task_version":"test-retest-t2"},{"Rune":"rune_05_ior","Hex":"#ffcc3399","Correct":32,"Choice":32,"RT":281.55499999411404,"Accuracy":1,"Outcome":"-1","Keys":[1783.3500000124332],"TotalKeys":1,"Block":1,"Trial":100,"Robot":3,"Valence":"Lose","Action":"Go","Sham":0,"Color":"yellow","trial_type":"pit-trial","trial_index":129,"time_elapsed":536903,"internal_node_id":"0.0-106.0","task_version":"test-retest-t2"},{"Rune":"rune_05_gebo","Hex":"#3366ff99","Correct":-1,"Choice":-1,"RT":-1,"Accuracy":1,"Outcome":"+10","Keys":[],"TotalKeys":0,"Block":1,"Trial":101,"Robot":2,"Valence":"Win","Action":"No-Go","Sham":0,"Color":"blue","trial_type":"pit-trial","trial_index":130,"time_elapsed":540913,"internal_node_id":"0.0-107.0","task_version":"test-retest-t2"},{"Rune":"rune_05_ior","Hex":"#ffcc3399","Correct":32,"Choice":32,"RT":417.0650000014575,"Accuracy":1,"Outcome":"-1","Keys":[1917.7599999966333],"TotalKeys":1,"Block":1,"Trial":102,"Robot":3,"Valence":"Lose","Action":"Go","Sham":0,"Color":"yellow","trial_type":"pit-trial","trial_index":131,"time_elapsed":543837,"internal_node_id":"0.0-108.0","task_version":"test-retest-t2"},{"Rune":"rune_05_jeran","Hex":"#3366ff99","Correct":32,"Choice":32,"RT":392.16999999189284,"Accuracy":1,"Outcome":"+10","Keys":[1894.5200000016484],"TotalKeys":1,"Block":1,"Trial":103,"Robot":1,"Valence":"Win","Action":"Go","Sham":0,"Color":"blue","trial_type":"pit-trial","trial_index":132,"time_elapsed":546740,"internal_node_id":"0.0-109.0","task_version":"test-retest-t2"},{"Rune":"rune_05_tiwaz","Hex":"#ffcc3399","Correct":-1,"Choice":-1,"RT":-1,"Accuracy":1,"Outcome":"-1","Keys":[],"TotalKeys":0,"Block":1,"Trial":104,"Robot":4,"Valence":"Lose","Action":"No-Go","Sham":0,"Color":"yellow","trial_type":"pit-trial","trial_index":133,"time_elapsed":550753,"internal_node_id":"0.0-110.0","task_version":"test-retest-t2"},{"Rune":"rune_05_gebo","Hex":"#3366ff99","Correct":-1,"Choice":-1,"RT":-1,"Accuracy":1,"Outcome":"+1","Keys":[],"TotalKeys":0,"Block":1,"Trial":105,"Robot":2,"Valence":"Win","Action":"No-Go","Sham":1,"Color":"blue","trial_type":"pit-trial","trial_index":134,"time_elapsed":554758,"internal_node_id":"0.0-111.0","task_version":"test-retest-t2"},{"Rune":"rune_05_jeran","Hex":"#3366ff99","Correct":32,"Choice":32,"RT":272.3400000104448,"Accuracy":1,"Outcome":"+10","Keys":[1773.8600000011502],"TotalKeys":1,"Block":1,"Trial":106,"Robot":1,"Valence":"Win","Action":"Go","Sham":0,"Color":"blue","trial_type":"pit-trial","trial_index":135,"time_elapsed":557537,"internal_node_id":"0.0-112.0","task_version":"test-retest-t2"},{"Rune":"rune_05_ior","Hex":"#ffcc3399","Correct":32,"Choice":32,"RT":384.4800000078976,"Accuracy":1,"Outcome":"-10","Keys":[1887.204999991809],"TotalKeys":1,"Block":1,"Trial":107,"Robot":3,"Valence":"Lose","Action":"Go","Sham":1,"Color":"yellow","trial_type":"pit-trial","trial_index":136,"time_elapsed":560430,"internal_node_id":"0.0-113.0","task_version":"test-retest-t2"},{"Rune":"rune_05_tiwaz","Hex":"#ffcc3399","Correct":-1,"Choice":-1,"RT":-1,"Accuracy":1,"Outcome":"-1","Keys":[],"TotalKeys":0,"Block":1,"Trial":108,"Robot":4,"Valence":"Lose","Action":"No-Go","Sham":0,"Color":"yellow","trial_type":"pit-trial","trial_index":137,"time_elapsed":564440,"internal_node_id":"0.0-114.0","task_version":"test-retest-t2"},{"Rune":"rune_05_jeran","Hex":"#3366ff99","Correct":32,"Choice":32,"RT":283.94000000844244,"Accuracy":1,"Outcome":"+1","Keys":[1785.859999989043],"TotalKeys":1,"Block":1,"Trial":109,"Robot":1,"Valence":"Win","Action":"Go","Sham":1,"Color":"blue","trial_type":"pit-trial","trial_index":138,"time_elapsed":567232,"internal_node_id":"0.0-115.0","task_version":"test-retest-t2"},{"Rune":"rune_05_tiwaz","Hex":"#ffcc3399","Correct":-1,"Choice":-1,"RT":-1,"Accuracy":1,"Outcome":"-1","Keys":[],"TotalKeys":0,"Block":1,"Trial":110,"Robot":4,"Valence":"Lose","Action":"No-Go","Sham":0,"Color":"yellow","trial_type":"pit-trial","trial_index":139,"time_elapsed":571243,"internal_node_id":"0.0-116.0","task_version":"test-retest-t2"},{"Rune":"rune_05_gebo","Hex":"#3366ff99","Correct":-1,"Choice":32,"RT":410.1449999870965,"Accuracy":0,"Outcome":"+1","Keys":[1910.4850000003353],"TotalKeys":1,"Block":1,"Trial":111,"Robot":2,"Valence":"Win","Action":"No-Go","Sham":0,"Color":"blue","trial_type":"pit-trial","trial_index":140,"time_elapsed":574162,"internal_node_id":"0.0-117.0","task_version":"test-retest-t2"},{"Rune":"rune_05_ior","Hex":"#ffcc3399","Correct":32,"Choice":32,"RT":410.3599999943981,"Accuracy":1,"Outcome":"-1","Keys":[1913.52500001085],"TotalKeys":1,"Block":1,"Trial":112,"Robot":3,"Valence":"Lose","Action":"Go","Sham":0,"Color":"yellow","trial_type":"pit-trial","trial_index":141,"time_elapsed":577082,"internal_node_id":"0.0-118.0","task_version":"test-retest-t2"},{"Rune":"rune_05_jeran","Hex":"#3366ff99","Correct":32,"Choice":32,"RT":347.8049999976065,"Accuracy":1,"Outcome":"+10","Keys":[1847.9049999878043],"TotalKeys":1,"Block":1,"Trial":113,"Robot":1,"Valence":"Win","Action":"Go","Sham":0,"Color":"blue","trial_type":"pit-trial","trial_index":142,"time_elapsed":579938,"internal_node_id":"0.0-119.0","task_version":"test-retest-t2"},{"Rune":"rune_05_gebo","Hex":"#3366ff99","Correct":-1,"Choice":-1,"RT":-1,"Accuracy":1,"Outcome":"+10","Keys":[],"TotalKeys":0,"Block":1,"Trial":114,"Robot":2,"Valence":"Win","Action":"No-Go","Sham":0,"Color":"blue","trial_type":"pit-trial","trial_index":143,"time_elapsed":583949,"internal_node_id":"0.0-120.0","task_version":"test-retest-t2"},{"Rune":"rune_05_ior","Hex":"#ffcc3399","Correct":32,"Choice":32,"RT":379.7900000063237,"Accuracy":1,"Outcome":"-1","Keys":[1880.3199999965727],"TotalKeys":1,"Block":1,"Trial":115,"Robot":3,"Valence":"Lose","Action":"Go","Sham":0,"Color":"yellow","trial_type":"pit-trial","trial_index":144,"time_elapsed":586832,"internal_node_id":"0.0-121.0","task_version":"test-retest-t2"},{"Rune":"rune_05_tiwaz","Hex":"#ffcc3399","Correct":-1,"Choice":-1,"RT":-1,"Accuracy":1,"Outcome":"-10","Keys":[],"TotalKeys":0,"Block":1,"Trial":116,"Robot":4,"Valence":"Lose","Action":"No-Go","Sham":1,"Color":"yellow","trial_type":"pit-trial","trial_index":145,"time_elapsed":590840,"internal_node_id":"0.0-122.0","task_version":"test-retest-t2"},{"Rune":"rune_05_ior","Hex":"#ffcc3399","Correct":32,"Choice":32,"RT":316.2049999955343,"Accuracy":1,"Outcome":"-1","Keys":[1818.5200000007171],"TotalKeys":1,"Block":1,"Trial":117,"Robot":3,"Valence":"Lose","Action":"Go","Sham":0,"Color":"yellow","trial_type":"pit-trial","trial_index":146,"time_elapsed":593664,"internal_node_id":"0.0-123.0","task_version":"test-retest-t2"},{"Rune":"rune_05_jeran","Hex":"#3366ff99","Correct":32,"Choice":32,"RT":391.5100000012899,"Accuracy":1,"Outcome":"+10","Keys":[1891.8200000043726],"TotalKeys":1,"Block":1,"Trial":118,"Robot":1,"Valence":"Win","Action":"Go","Sham":0,"Color":"blue","trial_type":"pit-trial","trial_index":147,"time_elapsed":596559,"internal_node_id":"0.0-124.0","task_version":"test-retest-t2"},{"Rune":"rune_05_gebo","Hex":"#3366ff99","Correct":-1,"Choice":-1,"RT":-1,"Accuracy":1,"Outcome":"+10","Keys":[],"TotalKeys":0,"Block":1,"Trial":119,"Robot":2,"Valence":"Win","Action":"No-Go","Sham":0,"Color":"blue","trial_type":"pit-trial","trial_index":148,"time_elapsed":600570,"internal_node_id":"0.0-125.0","task_version":"test-retest-t2"},{"Rune":"rune_05_tiwaz","Hex":"#ffcc3399","Correct":-1,"Choice":-1,"RT":-1,"Accuracy":1,"Outcome":"-1","Keys":[],"TotalKeys":0,"Block":1,"Trial":120,"Robot":4,"Valence":"Lose","Action":"No-Go","Sham":0,"Color":"yellow","trial_type":"pit-trial","trial_index":149,"time_elapsed":604576,"internal_node_id":"0.0-126.0","task_version":"test-retest-t2"},{"view_history":"[{\"page_index\":0,\"viewing_time\":5240.935000008903},{\"page_index\":1,\"viewing_time\":2024.7050000034506},{\"page_index\":2,\"viewing_time\":1023.8199999876088}]","rt":8290.020000000368,"trial_type":"pit-instructions","trial_index":150,"time_elapsed":612868,"internal_node_id":"0.0-127.0","task_version":"test-retest-t2"},{"Rune":"rune_06_berkanan","Hex":"#ffcc3399","Correct":-1,"Choice":32,"RT":954.120000009425,"Accuracy":0,"Outcome":"-1","Keys":[2454.4800000003306],"TotalKeys":1,"Block":2,"Trial":121,"Robot":4,"Valence":"Lose","Action":"No-Go","Sham":1,"Color":"yellow","trial_type":"pit-trial","trial_index":151,"time_elapsed":616330,"internal_node_id":"0.0-128.0","task_version":"test-retest-t2"},{"Rune":"rune_06_cweord","Hex":"#3366ff99","Correct":-1,"Choice":32,"RT":413.284999987809,"Accuracy":0,"Outcome":"+10","Keys":[1914.1899999958696],"TotalKeys":1,"Block":2,"Trial":122,"Robot":2,"Valence":"Win","Action":"No-Go","Sham":1,"Color":"blue","trial_type":"pit-trial","trial_index":152,"time_elapsed":619250,"internal_node_id":"0.0-129.0","task_version":"test-retest-t2"},{"Rune":"rune_06_ehwaz","Hex":"#3366ff99","Correct":32,"Choice":-1,"RT":-1,"Accuracy":0,"Outcome":"+1","Keys":[],"TotalKeys":0,"Block":2,"Trial":123,"Robot":1,"Valence":"Win","Action":"Go","Sham":0,"Color":"blue","trial_type":"pit-trial","trial_index":153,"time_elapsed":623257,"internal_node_id":"0.0-130.0","task_version":"test-retest-t2"},{"Rune":"rune_06_ansuz","Hex":"#ffcc3399","Correct":32,"Choice":-1,"RT":-1,"Accuracy":0,"Outcome":"-10","Keys":[],"TotalKeys":0,"Block":2,"Trial":124,"Robot":3,"Valence":"Lose","Action":"Go","Sham":0,"Color":"yellow","trial_type":"pit-trial","trial_index":154,"time_elapsed":627268,"internal_node_id":"0.0-131.0","task_version":"test-retest-t2"},{"Rune":"rune_06_cweord","Hex":"#3366ff99","Correct":-1,"Choice":32,"RT":572.199999995064,"Accuracy":0,"Outcome":"+1","Keys":[2072.314999997616],"TotalKeys":1,"Block":2,"Trial":125,"Robot":2,"Valence":"Win","Action":"No-Go","Sham":0,"Color":"blue","trial_type":"pit-trial","trial_index":155,"time_elapsed":630348,"internal_node_id":"0.0-132.0","task_version":"test-retest-t2"},{"Rune":"rune_06_ansuz","Hex":"#ffcc3399","Correct":32,"Choice":32,"RT":1202.4850000016158,"Accuracy":1,"Outcome":"-1","Keys":[2702.6349999941885],"TotalKeys":1,"Block":2,"Trial":126,"Robot":3,"Valence":"Lose","Action":"Go","Sham":0,"Color":"yellow","trial_type":"pit-trial","trial_index":156,"time_elapsed":634054,"internal_node_id":"0.0-133.0","task_version":"test-retest-t2"},{"Rune":"rune_06_berkanan","Hex":"#ffcc3399","Correct":-1,"Choice":-1,"RT":-1,"Accuracy":1,"Outcome":"-1","Keys":[],"TotalKeys":0,"Block":2,"Trial":127,"Robot":4,"Valence":"Lose","Action":"No-Go","Sham":0,"Color":"yellow","trial_type":"pit-trial","trial_index":157,"time_elapsed":638060,"internal_node_id":"0.0-134.0","task_version":"test-retest-t2"},{"Rune":"rune_06_ehwaz","Hex":"#3366ff99","Correct":32,"Choice":32,"RT":225.68499999761116,"Accuracy":1,"Outcome":"+10","Keys":[1728.14500000095],"TotalKeys":1,"Block":2,"Trial":128,"Robot":1,"Valence":"Win","Action":"Go","Sham":0,"Color":"blue","trial_type":"pit-trial","trial_index":158,"time_elapsed":640794,"internal_node_id":"0.0-135.0","task_version":"test-retest-t2"},{"Rune":"rune_06_ehwaz","Hex":"#3366ff99","Correct":32,"Choice":32,"RT":548.4199999918928,"Accuracy":1,"Outcome":"+1","Keys":[2048.6850000015693],"TotalKeys":1,"Block":2,"Trial":129,"Robot":1,"Valence":"Win","Action":"Go","Sham":1,"Color":"blue","trial_type":"pit-trial","trial_index":159,"time_elapsed":643847,"internal_node_id":"0.0-136.0","task_version":"test-retest-t2"},{"Rune":"rune_06_ansuz","Hex":"#ffcc3399","Correct":32,"Choice":-1,"RT":-1,"Accuracy":0,"Outcome":"-10","Keys":[3059.544999996433],"TotalKeys":1,"Block":2,"Trial":130,"Robot":3,"Valence":"Lose","Action":"Go","Sham":0,"Color":"yellow","trial_type":"pit-trial","trial_index":160,"time_elapsed":647858,"internal_node_id":"0.0-137.0","task_version":"test-retest-t2"},{"Rune":"rune_06_cweord","Hex":"#3366ff99","Correct":-1,"Choice":-1,"RT":-1,"Accuracy":1,"Outcome":"+10","Keys":[],"TotalKeys":0,"Block":2,"Trial":131,"Robot":2,"Valence":"Win","Action":"No-Go","Sham":0,"Color":"blue","trial_type":"pit-trial","trial_index":161,"time_elapsed":651869,"internal_node_id":"0.0-138.0","task_version":"test-retest-t2"},{"Rune":"rune_06_berkanan","Hex":"#ffcc3399","Correct":-1,"Choice":-1,"RT":-1,"Accuracy":1,"Outcome":"-1","Keys":[],"TotalKeys":0,"Block":2,"Trial":132,"Robot":4,"Valence":"Lose","Action":"No-Go","Sham":0,"Color":"yellow","trial_type":"pit-trial","trial_index":162,"time_elapsed":655877,"internal_node_id":"0.0-139.0","task_version":"test-retest-t2"},{"Rune":"rune_06_berkanan","Hex":"#ffcc3399","Correct":-1,"Choice":-1,"RT":-1,"Accuracy":1,"Outcome":"-1","Keys":[],"TotalKeys":0,"Block":2,"Trial":133,"Robot":4,"Valence":"Lose","Action":"No-Go","Sham":0,"Color":"yellow","trial_type":"pit-trial","trial_index":163,"time_elapsed":659887,"internal_node_id":"0.0-140.0","task_version":"test-retest-t2"},{"Rune":"rune_06_cweord","Hex":"#3366ff99","Correct":-1,"Choice":-1,"RT":-1,"Accuracy":1,"Outcome":"+10","Keys":[],"TotalKeys":0,"Block":2,"Trial":134,"Robot":2,"Valence":"Win","Action":"No-Go","Sham":0,"Color":"blue","trial_type":"pit-trial","trial_index":164,"time_elapsed":663893,"internal_node_id":"0.0-141.0","task_version":"test-retest-t2"},{"Rune":"rune_06_ehwaz","Hex":"#3366ff99","Correct":32,"Choice":32,"RT":236.73499999858905,"Accuracy":1,"Outcome":"+10","Keys":[1738.6249999981374],"TotalKeys":1,"Block":2,"Trial":135,"Robot":1,"Valence":"Win","Action":"Go","Sham":0,"Color":"blue","trial_type":"pit-trial","trial_index":165,"time_elapsed":666638,"internal_node_id":"0.0-142.0","task_version":"test-retest-t2"},{"Rune":"rune_06_ansuz","Hex":"#ffcc3399","Correct":32,"Choice":32,"RT":567.8699999989476,"Accuracy":1,"Outcome":"-1","Keys":[2069.9250000034226],"TotalKeys":1,"Block":2,"Trial":136,"Robot":3,"Valence":"Lose","Action":"Go","Sham":0,"Color":"yellow","trial_type":"pit-trial","trial_index":166,"time_elapsed":669716,"internal_node_id":"0.0-143.0","task_version":"test-retest-t2"},{"Rune":"rune_06_cweord","Hex":"#3366ff99","Correct":-1,"Choice":-1,"RT":-1,"Accuracy":1,"Outcome":"+10","Keys":[],"TotalKeys":0,"Block":2,"Trial":137,"Robot":2,"Valence":"Win","Action":"No-Go","Sham":0,"Color":"blue","trial_type":"pit-trial","trial_index":167,"time_elapsed":673727,"internal_node_id":"0.0-144.0","task_version":"test-retest-t2"},{"Rune":"rune_06_ansuz","Hex":"#ffcc3399","Correct":32,"Choice":32,"RT":696.6899999970337,"Accuracy":1,"Outcome":"-10","Keys":[2198.759999999311],"TotalKeys":1,"Block":2,"Trial":138,"Robot":3,"Valence":"Lose","Action":"Go","Sham":1,"Color":"yellow","trial_type":"pit-trial","trial_index":168,"time_elapsed":676932,"internal_node_id":"0.0-145.0","task_version":"test-retest-t2"},{"Rune":"rune_06_ehwaz","Hex":"#3366ff99","Correct":32,"Choice":32,"RT":317.4999999901047,"Accuracy":1,"Outcome":"+10","Keys":[1817.5999999948544],"TotalKeys":1,"Block":2,"Trial":139,"Robot":1,"Valence":"Win","Action":"Go","Sham":0,"Color":"blue","trial_type":"pit-trial","trial_index":169,"time_elapsed":679752,"internal_node_id":"0.0-146.0","task_version":"test-retest-t2"},{"Rune":"rune_06_berkanan","Hex":"#ffcc3399","Correct":-1,"Choice":-1,"RT":-1,"Accuracy":1,"Outcome":"-1","Keys":[],"TotalKeys":0,"Block":2,"Trial":140,"Robot":4,"Valence":"Lose","Action":"No-Go","Sham":0,"Color":"yellow","trial_type":"pit-trial","trial_index":170,"time_elapsed":683764,"internal_node_id":"0.0-147.0","task_version":"test-retest-t2"},{"Rune":"rune_06_cweord","Hex":"#3366ff99","Correct":-1,"Choice":-1,"RT":-1,"Accuracy":1,"Outcome":"+10","Keys":[],"TotalKeys":0,"Block":2,"Trial":141,"Robot":2,"Valence":"Win","Action":"No-Go","Sham":0,"Color":"blue","trial_type":"pit-trial","trial_index":171,"time_elapsed":687771,"internal_node_id":"0.0-148.0","task_version":"test-retest-t2"},{"Rune":"rune_06_berkanan","Hex":"#ffcc3399","Correct":-1,"Choice":-1,"RT":-1,"Accuracy":1,"Outcome":"-1","Keys":[],"TotalKeys":0,"Block":2,"Trial":142,"Robot":4,"Valence":"Lose","Action":"No-Go","Sham":0,"Color":"yellow","trial_type":"pit-trial","trial_index":172,"time_elapsed":691782,"internal_node_id":"0.0-149.0","task_version":"test-retest-t2"},{"Rune":"rune_06_ehwaz","Hex":"#3366ff99","Correct":32,"Choice":32,"RT":371.6700000077253,"Accuracy":1,"Outcome":"+10","Keys":[1872.1199999999953],"TotalKeys":1,"Block":2,"Trial":143,"Robot":1,"Valence":"Win","Action":"Go","Sham":0,"Color":"blue","trial_type":"pit-trial","trial_index":173,"time_elapsed":694658,"internal_node_id":"0.0-150.0","task_version":"test-retest-t2"},{"Rune":"rune_06_ansuz","Hex":"#ffcc3399","Correct":32,"Choice":32,"RT":394.5700000040233,"Accuracy":1,"Outcome":"-1","Keys":[1895.01000000746],"TotalKeys":1,"Block":2,"Trial":144,"Robot":3,"Valence":"Lose","Action":"Go","Sham":0,"Color":"yellow","trial_type":"pit-trial","trial_index":174,"time_elapsed":697558,"internal_node_id":"0.0-151.0","task_version":"test-retest-t2"},{"Rune":"rune_06_ansuz","Hex":"#ffcc3399","Correct":32,"Choice":32,"RT":859.9149999936344,"Accuracy":1,"Outcome":"-1","Keys":[2360.335000004852,2519.430000000284],"TotalKeys":2,"Block":2,"Trial":145,"Robot":3,"Valence":"Lose","Action":"Go","Sham":0,"Color":"yellow","trial_type":"pit-trial","trial_index":175,"time_elapsed":700924,"internal_node_id":"0.0-152.0","task_version":"test-retest-t2"},{"Rune":"rune_06_ehwaz","Hex":"#3366ff99","Correct":32,"Choice":32,"RT":477.2649999940768,"Accuracy":1,"Outcome":"+10","Keys":[1978.0699999973876],"TotalKeys":1,"Block":2,"Trial":146,"Robot":1,"Valence":"Win","Action":"Go","Sham":0,"Color":"blue","trial_type":"pit-trial","trial_index":176,"time_elapsed":703908,"internal_node_id":"0.0-153.0","task_version":"test-retest-t2"},{"Rune":"rune_06_cweord","Hex":"#3366ff99","Correct":-1,"Choice":-1,"RT":-1,"Accuracy":1,"Outcome":"+10","Keys":[],"TotalKeys":0,"Block":2,"Trial":147,"Robot":2,"Valence":"Win","Action":"No-Go","Sham":0,"Color":"blue","trial_type":"pit-trial","trial_index":177,"time_elapsed":707916,"internal_node_id":"0.0-154.0","task_version":"test-retest-t2"},{"Rune":"rune_06_berkanan","Hex":"#ffcc3399","Correct":-1,"Choice":-1,"RT":-1,"Accuracy":1,"Outcome":"-1","Keys":[],"TotalKeys":0,"Block":2,"Trial":148,"Robot":4,"Valence":"Lose","Action":"No-Go","Sham":0,"Color":"yellow","trial_type":"pit-trial","trial_index":178,"time_elapsed":711926,"internal_node_id":"0.0-155.0","task_version":"test-retest-t2"},{"Rune":"rune_06_ansuz","Hex":"#ffcc3399","Correct":32,"Choice":32,"RT":443.794999999227,"Accuracy":1,"Outcome":"-10","Keys":[1943.8999999983935],"TotalKeys":1,"Block":2,"Trial":149,"Robot":3,"Valence":"Lose","Action":"Go","Sham":1,"Color":"yellow","trial_type":"pit-trial","trial_index":179,"time_elapsed":714874,"internal_node_id":"0.0-156.0","task_version":"test-retest-t2"},{"Rune":"rune_06_cweord","Hex":"#3366ff99","Correct":-1,"Choice":-1,"RT":-1,"Accuracy":1,"Outcome":"+10","Keys":[],"TotalKeys":0,"Block":2,"Trial":150,"Robot":2,"Valence":"Win","Action":"No-Go","Sham":0,"Color":"blue","trial_type":"pit-trial","trial_index":180,"time_elapsed":718885,"internal_node_id":"0.0-157.0","task_version":"test-retest-t2"},{"Rune":"rune_06_berkanan","Hex":"#ffcc3399","Correct":-1,"Choice":-1,"RT":-1,"Accuracy":1,"Outcome":"-10","Keys":[],"TotalKeys":0,"Block":2,"Trial":151,"Robot":4,"Valence":"Lose","Action":"No-Go","Sham":1,"Color":"yellow","trial_type":"pit-trial","trial_index":181,"time_elapsed":722894,"internal_node_id":"0.0-158.0","task_version":"test-retest-t2"},{"Rune":"rune_06_ehwaz","Hex":"#3366ff99","Correct":32,"Choice":32,"RT":306.5950000018347,"Accuracy":1,"Outcome":"+10","Keys":[1809.1950000089128],"TotalKeys":1,"Block":2,"Trial":152,"Robot":1,"Valence":"Win","Action":"Go","Sham":0,"Color":"blue","trial_type":"pit-trial","trial_index":182,"time_elapsed":725706,"internal_node_id":"0.0-159.0","task_version":"test-retest-t2"},{"Rune":"rune_06_cweord","Hex":"#3366ff99","Correct":-1,"Choice":-1,"RT":-1,"Accuracy":1,"Outcome":"+10","Keys":[],"TotalKeys":0,"Block":2,"Trial":153,"Robot":2,"Valence":"Win","Action":"No-Go","Sham":0,"Color":"blue","trial_type":"pit-trial","trial_index":183,"time_elapsed":729718,"internal_node_id":"0.0-160.0","task_version":"test-retest-t2"},{"Rune":"rune_06_ehwaz","Hex":"#3366ff99","Correct":32,"Choice":32,"RT":350.430000005872,"Accuracy":1,"Outcome":"+1","Keys":[1851.169999994454],"TotalKeys":1,"Block":2,"Trial":154,"Robot":1,"Valence":"Win","Action":"Go","Sham":1,"Color":"blue","trial_type":"pit-trial","trial_index":184,"time_elapsed":732575,"internal_node_id":"0.0-161.0","task_version":"test-retest-t2"},{"Rune":"rune_06_ansuz","Hex":"#ffcc3399","Correct":32,"Choice":32,"RT":419.8049999977229,"Accuracy":1,"Outcome":"-1","Keys":[1920.270000002347],"TotalKeys":1,"Block":2,"Trial":155,"Robot":3,"Valence":"Lose","Action":"Go","Sham":0,"Color":"yellow","trial_type":"pit-trial","trial_index":185,"time_elapsed":735501,"internal_node_id":"0.0-162.0","task_version":"test-retest-t2"},{"Rune":"rune_06_berkanan","Hex":"#ffcc3399","Correct":-1,"Choice":-1,"RT":-1,"Accuracy":1,"Outcome":"-1","Keys":[],"TotalKeys":0,"Block":2,"Trial":156,"Robot":4,"Valence":"Lose","Action":"No-Go","Sham":0,"Color":"yellow","trial_type":"pit-trial","trial_index":186,"time_elapsed":739512,"internal_node_id":"0.0-163.0","task_version":"test-retest-t2"},{"Rune":"rune_06_ansuz","Hex":"#ffcc3399","Correct":32,"Choice":32,"RT":660.4200000001583,"Accuracy":1,"Outcome":"-1","Keys":[2161.9749999954365],"TotalKeys":1,"Block":2,"Trial":157,"Robot":3,"Valence":"Lose","Action":"Go","Sham":0,"Color":"yellow","trial_type":"pit-trial","trial_index":187,"time_elapsed":742681,"internal_node_id":"0.0-164.0","task_version":"test-retest-t2"},{"Rune":"rune_06_cweord","Hex":"#3366ff99","Correct":-1,"Choice":-1,"RT":-1,"Accuracy":1,"Outcome":"+1","Keys":[],"TotalKeys":0,"Block":2,"Trial":158,"Robot":2,"Valence":"Win","Action":"No-Go","Sham":1,"Color":"blue","trial_type":"pit-trial","trial_index":188,"time_elapsed":746692,"internal_node_id":"0.0-165.0","task_version":"test-retest-t2"},{"Rune":"rune_06_ehwaz","Hex":"#3366ff99","Correct":32,"Choice":32,"RT":278.89000000141095,"Accuracy":1,"Outcome":"+10","Keys":[1780.3700000076788],"TotalKeys":1,"Block":2,"Trial":159,"Robot":1,"Valence":"Win","Action":"Go","Sham":0,"Color":"blue","trial_type":"pit-trial","trial_index":189,"time_elapsed":749478,"internal_node_id":"0.0-166.0","task_version":"test-retest-t2"},{"Rune":"rune_06_berkanan","Hex":"#ffcc3399","Correct":-1,"Choice":-1,"RT":-1,"Accuracy":1,"Outcome":"-1","Keys":[],"TotalKeys":0,"Block":2,"Trial":160,"Robot":4,"Valence":"Lose","Action":"No-Go","Sham":0,"Color":"yellow","trial_type":"pit-trial","trial_index":190,"time_elapsed":753489,"internal_node_id":"0.0-167.0","task_version":"test-retest-t2"},{"Rune":"rune_06_ansuz","Hex":"#ffcc3399","Correct":32,"Choice":32,"RT":442.0300000056159,"Accuracy":1,"Outcome":"-10","Keys":[1942.5800000026356],"TotalKeys":1,"Block":2,"Trial":161,"Robot":3,"Valence":"Lose","Action":"Go","Sham":1,"Color":"yellow","trial_type":"pit-trial","trial_index":191,"time_elapsed":756435,"internal_node_id":"0.0-168.0","task_version":"test-retest-t2"},{"Rune":"rune_06_cweord","Hex":"#3366ff99","Correct":-1,"Choice":-1,"RT":-1,"Accuracy":1,"Outcome":"+10","Keys":[],"TotalKeys":0,"Block":2,"Trial":162,"Robot":2,"Valence":"Win","Action":"No-Go","Sham":0,"Color":"blue","trial_type":"pit-trial","trial_index":192,"time_elapsed":760444,"internal_node_id":"0.0-169.0","task_version":"test-retest-t2"},{"Rune":"rune_06_ehwaz","Hex":"#3366ff99","Correct":32,"Choice":32,"RT":253.98999999742955,"Accuracy":1,"Outcome":"+10","Keys":[1755.620000010822],"TotalKeys":1,"Block":2,"Trial":163,"Robot":1,"Valence":"Win","Action":"Go","Sham":0,"Color":"blue","trial_type":"pit-trial","trial_index":193,"time_elapsed":763206,"internal_node_id":"0.0-170.0","task_version":"test-retest-t2"},{"Rune":"rune_06_berkanan","Hex":"#ffcc3399","Correct":-1,"Choice":-1,"RT":-1,"Accuracy":1,"Outcome":"-1","Keys":[],"TotalKeys":0,"Block":2,"Trial":164,"Robot":4,"Valence":"Lose","Action":"No-Go","Sham":0,"Color":"yellow","trial_type":"pit-trial","trial_index":194,"time_elapsed":767212,"internal_node_id":"0.0-171.0","task_version":"test-retest-t2"},{"Rune":"rune_06_cweord","Hex":"#3366ff99","Correct":-1,"Choice":-1,"RT":-1,"Accuracy":1,"Outcome":"+10","Keys":[],"TotalKeys":0,"Block":2,"Trial":165,"Robot":2,"Valence":"Win","Action":"No-Go","Sham":0,"Color":"blue","trial_type":"pit-trial","trial_index":195,"time_elapsed":771225,"internal_node_id":"0.0-172.0","task_version":"test-retest-t2"},{"Rune":"rune_06_ansuz","Hex":"#ffcc3399","Correct":32,"Choice":32,"RT":411.1899999988964,"Accuracy":1,"Outcome":"-1","Keys":[1912.1500000037486],"TotalKeys":1,"Block":2,"Trial":166,"Robot":3,"Valence":"Lose","Action":"Go","Sham":0,"Color":"yellow","trial_type":"pit-trial","trial_index":196,"time_elapsed":774144,"internal_node_id":"0.0-173.0","task_version":"test-retest-t2"},{"Rune":"rune_06_ehwaz","Hex":"#3366ff99","Correct":32,"Choice":32,"RT":284.22000000136904,"Accuracy":1,"Outcome":"+10","Keys":[1784.445000012056],"TotalKeys":1,"Block":2,"Trial":167,"Robot":1,"Valence":"Win","Action":"Go","Sham":0,"Color":"blue","trial_type":"pit-trial","trial_index":197,"time_elapsed":776934,"internal_node_id":"0.0-174.0","task_version":"test-retest-t2"},{"Rune":"rune_06_berkanan","Hex":"#ffcc3399","Correct":-1,"Choice":-1,"RT":-1,"Accuracy":1,"Outcome":"-1","Keys":[],"TotalKeys":0,"Block":2,"Trial":168,"Robot":4,"Valence":"Lose","Action":"No-Go","Sham":0,"Color":"yellow","trial_type":"pit-trial","trial_index":198,"time_elapsed":780942,"internal_node_id":"0.0-175.0","task_version":"test-retest-t2"},{"Rune":"rune_06_ansuz","Hex":"#ffcc3399","Correct":32,"Choice":32,"RT":412.3600000020815,"Accuracy":1,"Outcome":"-1","Keys":[1914.8049999930663],"TotalKeys":1,"Block":2,"Trial":169,"Robot":3,"Valence":"Lose","Action":"Go","Sham":0,"Color":"yellow","trial_type":"pit-trial","trial_index":199,"time_elapsed":783862,"internal_node_id":"0.0-176.0","task_version":"test-retest-t2"},{"Rune":"rune_06_ehwaz","Hex":"#3366ff99","Correct":32,"Choice":32,"RT":326.6949999961071,"Accuracy":1,"Outcome":"+10","Keys":[1828.349999996135],"TotalKeys":1,"Block":2,"Trial":170,"Robot":1,"Valence":"Win","Action":"Go","Sham":0,"Color":"blue","trial_type":"pit-trial","trial_index":200,"time_elapsed":786697,"internal_node_id":"0.0-177.0","task_version":"test-retest-t2"},{"Rune":"rune_06_cweord","Hex":"#3366ff99","Correct":-1,"Choice":-1,"RT":-1,"Accuracy":1,"Outcome":"+1","Keys":[],"TotalKeys":0,"Block":2,"Trial":171,"Robot":2,"Valence":"Win","Action":"No-Go","Sham":1,"Color":"blue","trial_type":"pit-trial","trial_index":201,"time_elapsed":790701,"internal_node_id":"0.0-178.0","task_version":"test-retest-t2"},{"Rune":"rune_06_berkanan","Hex":"#ffcc3399","Correct":-1,"Choice":-1,"RT":-1,"Accuracy":1,"Outcome":"-10","Keys":[],"TotalKeys":0,"Block":2,"Trial":172,"Robot":4,"Valence":"Lose","Action":"No-Go","Sham":1,"Color":"yellow","trial_type":"pit-trial","trial_index":202,"time_elapsed":794712,"internal_node_id":"0.0-179.0","task_version":"test-retest-t2"},{"Rune":"rune_06_cweord","Hex":"#3366ff99","Correct":-1,"Choice":-1,"RT":-1,"Accuracy":1,"Outcome":"+10","Keys":[],"TotalKeys":0,"Block":2,"Trial":173,"Robot":2,"Valence":"Win","Action":"No-Go","Sham":0,"Color":"blue","trial_type":"pit-trial","trial_index":203,"time_elapsed":798722,"internal_node_id":"0.0-180.0","task_version":"test-retest-t2"},{"Rune":"rune_06_ehwaz","Hex":"#3366ff99","Correct":32,"Choice":32,"RT":244.49500000628177,"Accuracy":1,"Outcome":"+10","Keys":[1744.9950000009267],"TotalKeys":1,"Block":2,"Trial":174,"Robot":1,"Valence":"Win","Action":"Go","Sham":0,"Color":"blue","trial_type":"pit-trial","trial_index":204,"time_elapsed":801470,"internal_node_id":"0.0-181.0","task_version":"test-retest-t2"},{"Rune":"rune_06_berkanan","Hex":"#ffcc3399","Correct":-1,"Choice":-1,"RT":-1,"Accuracy":1,"Outcome":"-1","Keys":[],"TotalKeys":0,"Block":2,"Trial":175,"Robot":4,"Valence":"Lose","Action":"No-Go","Sham":0,"Color":"yellow","trial_type":"pit-trial","trial_index":205,"time_elapsed":805480,"internal_node_id":"0.0-182.0","task_version":"test-retest-t2"},{"Rune":"rune_06_ansuz","Hex":"#ffcc3399","Correct":32,"Choice":32,"RT":379.5700000046054,"Accuracy":1,"Outcome":"-1","Keys":[1881.4149999961955],"TotalKeys":1,"Block":2,"Trial":176,"Robot":3,"Valence":"Lose","Action":"Go","Sham":0,"Color":"yellow","trial_type":"pit-trial","trial_index":206,"time_elapsed":808367,"internal_node_id":"0.0-183.0","task_version":"test-retest-t2"},{"Rune":"rune_06_cweord","Hex":"#3366ff99","Correct":-1,"Choice":-1,"RT":-1,"Accuracy":1,"Outcome":"+10","Keys":[],"TotalKeys":0,"Block":2,"Trial":177,"Robot":2,"Valence":"Win","Action":"No-Go","Sham":0,"Color":"blue","trial_type":"pit-trial","trial_index":207,"time_elapsed":812377,"internal_node_id":"0.0-184.0","task_version":"test-retest-t2"},{"Rune":"rune_06_berkanan","Hex":"#ffcc3399","Correct":-1,"Choice":-1,"RT":-1,"Accuracy":1,"Outcome":"-1","Keys":[],"TotalKeys":0,"Block":2,"Trial":178,"Robot":4,"Valence":"Lose","Action":"No-Go","Sham":0,"Color":"yellow","trial_type":"pit-trial","trial_index":208,"time_elapsed":816390,"internal_node_id":"0.0-185.0","task_version":"test-retest-t2"},{"Rune":"rune_06_ansuz","Hex":"#ffcc3399","Correct":32,"Choice":32,"RT":367.2249999945052,"Accuracy":1,"Outcome":"-1","Keys":[1867.3600000038277],"TotalKeys":1,"Block":2,"Trial":179,"Robot":3,"Valence":"Lose","Action":"Go","Sham":0,"Color":"yellow","trial_type":"pit-trial","trial_index":209,"time_elapsed":819262,"internal_node_id":"0.0-186.0","task_version":"test-retest-t2"},{"Rune":"rune_06_ehwaz","Hex":"#3366ff99","Correct":32,"Choice":32,"RT":294.7799999965355,"Accuracy":1,"Outcome":"+1","Keys":[1795.4750000062631],"TotalKeys":1,"Block":2,"Trial":180,"Robot":1,"Valence":"Win","Action":"Go","Sham":1,"Color":"blue","trial_type":"pit-trial","trial_index":210,"time_elapsed":822061,"internal_node_id":"0.0-187.0","task_version":"test-retest-t2"},{"view_history":"[{\"page_index\":0,\"viewing_time\":1891.9350000069244},{\"page_index\":1,\"viewing_time\":954.3549999943934}]","rt":2846.739999993588,"trial_type":"pit-instructions","trial_index":211,"time_elapsed":824909,"internal_node_id":"0.0-188.0","task_version":"test-retest-t2"},{"Rune":"rune_06_cweord","Hex":"#3366ff99","Correct":-1,"Choice":-1,"RT":-1,"Accuracy":1,"Outcome":"+10","Keys":[],"TotalKeys":0,"Block":2,"Trial":181,"Robot":2,"Valence":"Win","Action":"No-Go","Sham":0,"Color":"blue","trial_type":"pit-trial","trial_index":212,"time_elapsed":828918,"internal_node_id":"0.0-189.0","task_version":"test-retest-t2"},{"Rune":"rune_06_berkanan","Hex":"#ffcc3399","Correct":-1,"Choice":-1,"RT":-1,"Accuracy":1,"Outcome":"-1","Keys":[],"TotalKeys":0,"Block":2,"Trial":182,"Robot":4,"Valence":"Lose","Action":"No-Go","Sham":0,"Color":"yellow","trial_type":"pit-trial","trial_index":213,"time_elapsed":832927,"internal_node_id":"0.0-190.0","task_version":"test-retest-t2"},{"Rune":"rune_06_ansuz","Hex":"#ffcc3399","Correct":32,"Choice":32,"RT":388.81999999284744,"Accuracy":1,"Outcome":"-1","Keys":[1890.3600000048755],"TotalKeys":1,"Block":2,"Trial":183,"Robot":3,"Valence":"Lose","Action":"Go","Sham":0,"Color":"yellow","trial_type":"pit-trial","trial_index":214,"time_elapsed":835824,"internal_node_id":"0.0-191.0","task_version":"test-retest-t2"},{"Rune":"rune_06_ehwaz","Hex":"#3366ff99","Correct":32,"Choice":32,"RT":255.17499999841675,"Accuracy":1,"Outcome":"+10","Keys":[1755.5599999905098],"TotalKeys":1,"Block":2,"Trial":184,"Robot":1,"Valence":"Win","Action":"Go","Sham":0,"Color":"blue","trial_type":"pit-trial","trial_index":215,"time_elapsed":838583,"internal_node_id":"0.0-192.0","task_version":"test-retest-t2"},{"Rune":"rune_06_ansuz","Hex":"#ffcc3399","Correct":32,"Choice":32,"RT":356.854999990901,"Accuracy":1,"Outcome":"-10","Keys":[1858.7350000016158],"TotalKeys":1,"Block":2,"Trial":185,"Robot":3,"Valence":"Lose","Action":"Go","Sham":1,"Color":"yellow","trial_type":"pit-trial","trial_index":216,"time_elapsed":841446,"internal_node_id":"0.0-193.0","task_version":"test-retest-t2"},{"Rune":"rune_06_ehwaz","Hex":"#3366ff99","Correct":32,"Choice":32,"RT":285.94500001054257,"Accuracy":1,"Outcome":"+10","Keys":[1786.7499999993015],"TotalKeys":1,"Block":2,"Trial":186,"Robot":1,"Valence":"Win","Action":"Go","Sham":0,"Color":"blue","trial_type":"pit-trial","trial_index":217,"time_elapsed":844236,"internal_node_id":"0.0-194.0","task_version":"test-retest-t2"},{"Rune":"rune_06_berkanan","Hex":"#ffcc3399","Correct":-1,"Choice":-1,"RT":-1,"Accuracy":1,"Outcome":"-10","Keys":[],"TotalKeys":0,"Block":2,"Trial":187,"Robot":4,"Valence":"Lose","Action":"No-Go","Sham":1,"Color":"yellow","trial_type":"pit-trial","trial_index":218,"time_elapsed":848244,"internal_node_id":"0.0-195.0","task_version":"test-retest-t2"},{"Rune":"rune_06_cweord","Hex":"#3366ff99","Correct":-1,"Choice":-1,"RT":-1,"Accuracy":1,"Outcome":"+10","Keys":[],"TotalKeys":0,"Block":2,"Trial":188,"Robot":2,"Valence":"Win","Action":"No-Go","Sham":0,"Color":"blue","trial_type":"pit-trial","trial_index":219,"time_elapsed":852248,"internal_node_id":"0.0-196.0","task_version":"test-retest-t2"},{"Rune":"rune_06_ehwaz","Hex":"#3366ff99","Correct":32,"Choice":32,"RT":230.5649999907473,"Accuracy":1,"Outcome":"+1","Keys":[1730.8300000004238],"TotalKeys":1,"Block":2,"Trial":189,"Robot":1,"Valence":"Win","Action":"Go","Sham":1,"Color":"blue","trial_type":"pit-trial","trial_index":220,"time_elapsed":854984,"internal_node_id":"0.0-197.0","task_version":"test-retest-t2"},{"Rune":"rune_06_ansuz","Hex":"#ffcc3399","Correct":32,"Choice":32,"RT":356.68499999155756,"Accuracy":1,"Outcome":"-1","Keys":[1857.3299999989104],"TotalKeys":1,"Block":2,"Trial":190,"Robot":3,"Valence":"Lose","Action":"Go","Sham":0,"Color":"yellow","trial_type":"pit-trial","trial_index":221,"time_elapsed":857847,"internal_node_id":"0.0-198.0","task_version":"test-retest-t2"},{"Rune":"rune_06_cweord","Hex":"#3366ff99","Correct":-1,"Choice":-1,"RT":-1,"Accuracy":1,"Outcome":"+1","Keys":[],"TotalKeys":0,"Block":2,"Trial":191,"Robot":2,"Valence":"Win","Action":"No-Go","Sham":1,"Color":"blue","trial_type":"pit-trial","trial_index":222,"time_elapsed":861855,"internal_node_id":"0.0-199.0","task_version":"test-retest-t2"},{"Rune":"rune_06_berkanan","Hex":"#ffcc3399","Correct":-1,"Choice":-1,"RT":-1,"Accuracy":1,"Outcome":"-1","Keys":[],"TotalKeys":0,"Block":2,"Trial":192,"Robot":4,"Valence":"Lose","Action":"No-Go","Sham":0,"Color":"yellow","trial_type":"pit-trial","trial_index":223,"time_elapsed":865866,"internal_node_id":"0.0-200.0","task_version":"test-retest-t2"},{"Rune":"rune_06_ehwaz","Hex":"#3366ff99","Correct":32,"Choice":-1,"RT":-1,"Accuracy":0,"Outcome":"+1","Keys":[],"TotalKeys":0,"Block":2,"Trial":193,"Robot":1,"Valence":"Win","Action":"Go","Sham":0,"Color":"blue","trial_type":"pit-trial","trial_index":224,"time_elapsed":869870,"internal_node_id":"0.0-201.0","task_version":"test-retest-t2"},{"Rune":"rune_06_berkanan","Hex":"#ffcc3399","Correct":-1,"Choice":-1,"RT":-1,"Accuracy":1,"Outcome":"-1","Keys":[],"TotalKeys":0,"Block":2,"Trial":194,"Robot":4,"Valence":"Lose","Action":"No-Go","Sham":0,"Color":"yellow","trial_type":"pit-trial","trial_index":225,"time_elapsed":873880,"internal_node_id":"0.0-202.0","task_version":"test-retest-t2"},{"Rune":"rune_06_cweord","Hex":"#3366ff99","Correct":-1,"Choice":-1,"RT":-1,"Accuracy":1,"Outcome":"+10","Keys":[],"TotalKeys":0,"Block":2,"Trial":195,"Robot":2,"Valence":"Win","Action":"No-Go","Sham":0,"Color":"blue","trial_type":"pit-trial","trial_index":226,"time_elapsed":877889,"internal_node_id":"0.0-203.0","task_version":"test-retest-t2"},{"Rune":"rune_06_ansuz","Hex":"#ffcc3399","Correct":32,"Choice":32,"RT":368.5199999890756,"Accuracy":1,"Outcome":"-1","Keys":[1868.914999999106],"TotalKeys":1,"Block":2,"Trial":196,"Robot":3,"Valence":"Lose","Action":"Go","Sham":0,"Color":"yellow","trial_type":"pit-trial","trial_index":227,"time_elapsed":880763,"internal_node_id":"0.0-204.0","task_version":"test-retest-t2"},{"Rune":"rune_06_ehwaz","Hex":"#3366ff99","Correct":32,"Choice":32,"RT":187.37499999406282,"Accuracy":1,"Outcome":"+10","Keys":[1688.369999988936],"TotalKeys":1,"Block":2,"Trial":197,"Robot":1,"Valence":"Win","Action":"Go","Sham":0,"Color":"blue","trial_type":"pit-trial","trial_index":228,"time_elapsed":883456,"internal_node_id":"0.0-205.0","task_version":"test-retest-t2"},{"Rune":"rune_06_ansuz","Hex":"#ffcc3399","Correct":32,"Choice":32,"RT":421.9699999957811,"Accuracy":1,"Outcome":"-1","Keys":[1922.275000004447],"TotalKeys":1,"Block":2,"Trial":198,"Robot":3,"Valence":"Lose","Action":"Go","Sham":0,"Color":"yellow","trial_type":"pit-trial","trial_index":229,"time_elapsed":886383,"internal_node_id":"0.0-206.0","task_version":"test-retest-t2"},{"Rune":"rune_06_cweord","Hex":"#3366ff99","Correct":-1,"Choice":-1,"RT":-1,"Accuracy":1,"Outcome":"+10","Keys":[],"TotalKeys":0,"Block":2,"Trial":199,"Robot":2,"Valence":"Win","Action":"No-Go","Sham":0,"Color":"blue","trial_type":"pit-trial","trial_index":230,"time_elapsed":890394,"internal_node_id":"0.0-207.0","task_version":"test-retest-t2"},{"Rune":"rune_06_berkanan","Hex":"#ffcc3399","Correct":-1,"Choice":-1,"RT":-1,"Accuracy":1,"Outcome":"-1","Keys":[],"TotalKeys":0,"Block":2,"Trial":200,"Robot":4,"Valence":"Lose","Action":"No-Go","Sham":0,"Color":"yellow","trial_type":"pit-trial","trial_index":231,"time_elapsed":894404,"internal_node_id":"0.0-208.0","task_version":"test-retest-t2"},{"Rune":"rune_06_cweord","Hex":"#3366ff99","Correct":-1,"Choice":-1,"RT":-1,"Accuracy":1,"Outcome":"+1","Keys":[],"TotalKeys":0,"Block":2,"Trial":201,"Robot":2,"Valence":"Win","Action":"No-Go","Sham":1,"Color":"blue","trial_type":"pit-trial","trial_index":232,"time_elapsed":898415,"internal_node_id":"0.0-209.0","task_version":"test-retest-t2"},{"Rune":"rune_06_ansuz","Hex":"#ffcc3399","Correct":32,"Choice":32,"RT":432.3399999993853,"Accuracy":1,"Outcome":"-1","Keys":[1933.3950000000186],"TotalKeys":1,"Block":2,"Trial":202,"Robot":3,"Valence":"Lose","Action":"Go","Sham":0,"Color":"yellow","trial_type":"pit-trial","trial_index":233,"time_elapsed":901354,"internal_node_id":"0.0-210.0","task_version":"test-retest-t2"},{"Rune":"rune_06_berkanan","Hex":"#ffcc3399","Correct":-1,"Choice":-1,"RT":-1,"Accuracy":1,"Outcome":"-1","Keys":[],"TotalKeys":0,"Block":2,"Trial":203,"Robot":4,"Valence":"Lose","Action":"No-Go","Sham":0,"Color":"yellow","trial_type":"pit-trial","trial_index":234,"time_elapsed":905364,"internal_node_id":"0.0-211.0","task_version":"test-retest-t2"},{"Rune":"rune_06_ehwaz","Hex":"#3366ff99","Correct":32,"Choice":32,"RT":249.8150000028545,"Accuracy":1,"Outcome":"+10","Keys":[1751.9800000009127],"TotalKeys":1,"Block":2,"Trial":204,"Robot":1,"Valence":"Win","Action":"Go","Sham":0,"Color":"blue","trial_type":"pit-trial","trial_index":235,"time_elapsed":908122,"internal_node_id":"0.0-212.0","task_version":"test-retest-t2"},{"Rune":"rune_06_cweord","Hex":"#3366ff99","Correct":-1,"Choice":-1,"RT":-1,"Accuracy":1,"Outcome":"+10","Keys":[],"TotalKeys":0,"Block":2,"Trial":205,"Robot":2,"Valence":"Win","Action":"No-Go","Sham":0,"Color":"blue","trial_type":"pit-trial","trial_index":236,"time_elapsed":912133,"internal_node_id":"0.0-213.0","task_version":"test-retest-t2"},{"Rune":"rune_06_ehwaz","Hex":"#3366ff99","Correct":32,"Choice":32,"RT":184.2800000013085,"Accuracy":1,"Outcome":"+10","Keys":[1687.0449999987613],"TotalKeys":1,"Block":2,"Trial":206,"Robot":1,"Valence":"Win","Action":"Go","Sham":0,"Color":"blue","trial_type":"pit-trial","trial_index":237,"time_elapsed":914825,"internal_node_id":"0.0-214.0","task_version":"test-retest-t2"},{"Rune":"rune_06_berkanan","Hex":"#ffcc3399","Correct":-1,"Choice":-1,"RT":-1,"Accuracy":1,"Outcome":"-10","Keys":[],"TotalKeys":0,"Block":2,"Trial":207,"Robot":4,"Valence":"Lose","Action":"No-Go","Sham":1,"Color":"yellow","trial_type":"pit-trial","trial_index":238,"time_elapsed":918832,"internal_node_id":"0.0-215.0","task_version":"test-retest-t2"},{"Rune":"rune_06_ansuz","Hex":"#ffcc3399","Correct":32,"Choice":32,"RT":351.0849999875063,"Accuracy":1,"Outcome":"-10","Keys":[1852.0399999979418],"TotalKeys":1,"Block":2,"Trial":208,"Robot":3,"Valence":"Lose","Action":"Go","Sham":1,"Color":"yellow","trial_type":"pit-trial","trial_index":239,"time_elapsed":921688,"internal_node_id":"0.0-216.0","task_version":"test-retest-t2"},{"Rune":"rune_06_berkanan","Hex":"#ffcc3399","Correct":-1,"Choice":-1,"RT":-1,"Accuracy":1,"Outcome":"-1","Keys":[],"TotalKeys":0,"Block":2,"Trial":209,"Robot":4,"Valence":"Lose","Action":"No-Go","Sham":0,"Color":"yellow","trial_type":"pit-trial","trial_index":240,"time_elapsed":925697,"internal_node_id":"0.0-217.0","task_version":"test-retest-t2"},{"Rune":"rune_06_ansuz","Hex":"#ffcc3399","Correct":32,"Choice":32,"RT":421.9650000013644,"Accuracy":1,"Outcome":"-1","Keys":[1922.6249999919673],"TotalKeys":1,"Block":2,"Trial":210,"Robot":3,"Valence":"Lose","Action":"Go","Sham":0,"Color":"yellow","trial_type":"pit-trial","trial_index":241,"time_elapsed":928626,"internal_node_id":"0.0-218.0","task_version":"test-retest-t2"},{"Rune":"rune_06_ehwaz","Hex":"#3366ff99","Correct":32,"Choice":32,"RT":222.29499999957625,"Accuracy":1,"Outcome":"+1","Keys":[1722.750000000815],"TotalKeys":1,"Block":2,"Trial":211,"Robot":1,"Valence":"Win","Action":"Go","Sham":1,"Color":"blue","trial_type":"pit-trial","trial_index":242,"time_elapsed":931354,"internal_node_id":"0.0-219.0","task_version":"test-retest-t2"},{"Rune":"rune_06_cweord","Hex":"#3366ff99","Correct":-1,"Choice":-1,"RT":-1,"Accuracy":1,"Outcome":"+10","Keys":[],"TotalKeys":0,"Block":2,"Trial":212,"Robot":2,"Valence":"Win","Action":"No-Go","Sham":0,"Color":"blue","trial_type":"pit-trial","trial_index":243,"time_elapsed":935365,"internal_node_id":"0.0-220.0","task_version":"test-retest-t2"},{"Rune":"rune_06_ehwaz","Hex":"#3366ff99","Correct":32,"Choice":32,"RT":218.2150000007823,"Accuracy":1,"Outcome":"+10","Keys":[1718.429999993532],"TotalKeys":1,"Block":2,"Trial":213,"Robot":1,"Valence":"Win","Action":"Go","Sham":0,"Color":"blue","trial_type":"pit-trial","trial_index":244,"time_elapsed":938089,"internal_node_id":"0.0-221.0","task_version":"test-retest-t2"},{"Rune":"rune_06_cweord","Hex":"#3366ff99","Correct":-1,"Choice":-1,"RT":-1,"Accuracy":1,"Outcome":"+10","Keys":[],"TotalKeys":0,"Block":2,"Trial":214,"Robot":2,"Valence":"Win","Action":"No-Go","Sham":0,"Color":"blue","trial_type":"pit-trial","trial_index":245,"time_elapsed":942098,"internal_node_id":"0.0-222.0","task_version":"test-retest-t2"},{"Rune":"rune_06_berkanan","Hex":"#ffcc3399","Correct":-1,"Choice":-1,"RT":-1,"Accuracy":1,"Outcome":"-1","Keys":[],"TotalKeys":0,"Block":2,"Trial":215,"Robot":4,"Valence":"Lose","Action":"No-Go","Sham":0,"Color":"yellow","trial_type":"pit-trial","trial_index":246,"time_elapsed":946104,"internal_node_id":"0.0-223.0","task_version":"test-retest-t2"},{"Rune":"rune_06_ansuz","Hex":"#ffcc3399","Correct":32,"Choice":32,"RT":351.88500001095235,"Accuracy":1,"Outcome":"-1","Keys":[1851.9300000043586],"TotalKeys":1,"Block":2,"Trial":216,"Robot":3,"Valence":"Lose","Action":"Go","Sham":0,"Color":"yellow","trial_type":"pit-trial","trial_index":247,"time_elapsed":948962,"internal_node_id":"0.0-224.0","task_version":"test-retest-t2"},{"Rune":"rune_06_berkanan","Hex":"#ffcc3399","Correct":-1,"Choice":-1,"RT":-1,"Accuracy":1,"Outcome":"-1","Keys":[],"TotalKeys":0,"Block":2,"Trial":217,"Robot":4,"Valence":"Lose","Action":"No-Go","Sham":0,"Color":"yellow","trial_type":"pit-trial","trial_index":248,"time_elapsed":952966,"internal_node_id":"0.0-225.0","task_version":"test-retest-t2"},{"Rune":"rune_06_cweord","Hex":"#3366ff99","Correct":-1,"Choice":-1,"RT":-1,"Accuracy":1,"Outcome":"+10","Keys":[],"TotalKeys":0,"Block":2,"Trial":218,"Robot":2,"Valence":"Win","Action":"No-Go","Sham":0,"Color":"blue","trial_type":"pit-trial","trial_index":249,"time_elapsed":956979,"internal_node_id":"0.0-226.0","task_version":"test-retest-t2"},{"Rune":"rune_06_ansuz","Hex":"#ffcc3399","Correct":32,"Choice":32,"RT":447.2549999918556,"Accuracy":1,"Outcome":"-1","Keys":[1947.5000000093132],"TotalKeys":1,"Block":2,"Trial":219,"Robot":3,"Valence":"Lose","Action":"Go","Sham":0,"Color":"yellow","trial_type":"pit-trial","trial_index":250,"time_elapsed":959933,"internal_node_id":"0.0-227.0","task_version":"test-retest-t2"},{"Rune":"rune_06_ehwaz","Hex":"#3366ff99","Correct":32,"Choice":32,"RT":284.68000001157634,"Accuracy":1,"Outcome":"+10","Keys":[1784.7800000017742],"TotalKeys":1,"Block":2,"Trial":220,"Robot":1,"Valence":"Win","Action":"Go","Sham":0,"Color":"blue","trial_type":"pit-trial","trial_index":251,"time_elapsed":962724,"internal_node_id":"0.0-228.0","task_version":"test-retest-t2"},{"Rune":"rune_06_ansuz","Hex":"#ffcc3399","Correct":32,"Choice":32,"RT":360.130000000936,"Accuracy":1,"Outcome":"-1","Keys":[1860.2450000034878],"TotalKeys":1,"Block":2,"Trial":221,"Robot":3,"Valence":"Lose","Action":"Go","Sham":0,"Color":"yellow","trial_type":"pit-trial","trial_index":252,"time_elapsed":965591,"internal_node_id":"0.0-229.0","task_version":"test-retest-t2"},{"Rune":"rune_06_ehwaz","Hex":"#3366ff99","Correct":32,"Choice":32,"RT":226.25500000140164,"Accuracy":1,"Outcome":"+10","Keys":[1726.9450000021607],"TotalKeys":1,"Block":2,"Trial":222,"Robot":1,"Valence":"Win","Action":"Go","Sham":0,"Color":"blue","trial_type":"pit-trial","trial_index":253,"time_elapsed":968322,"internal_node_id":"0.0-230.0","task_version":"test-retest-t2"},{"Rune":"rune_06_cweord","Hex":"#3366ff99","Correct":-1,"Choice":-1,"RT":-1,"Accuracy":1,"Outcome":"+10","Keys":[],"TotalKeys":0,"Block":2,"Trial":223,"Robot":2,"Valence":"Win","Action":"No-Go","Sham":0,"Color":"blue","trial_type":"pit-trial","trial_index":254,"time_elapsed":972332,"internal_node_id":"0.0-231.0","task_version":"test-retest-t2"},{"Rune":"rune_06_berkanan","Hex":"#ffcc3399","Correct":-1,"Choice":-1,"RT":-1,"Accuracy":1,"Outcome":"-1","Keys":[],"TotalKeys":0,"Block":2,"Trial":224,"Robot":4,"Valence":"Lose","Action":"No-Go","Sham":0,"Color":"yellow","trial_type":"pit-trial","trial_index":255,"time_elapsed":976344,"internal_node_id":"0.0-232.0","task_version":"test-retest-t2"},{"Rune":"rune_06_berkanan","Hex":"#ffcc3399","Correct":-1,"Choice":-1,"RT":-1,"Accuracy":1,"Outcome":"-1","Keys":[],"TotalKeys":0,"Block":2,"Trial":225,"Robot":4,"Valence":"Lose","Action":"No-Go","Sham":0,"Color":"yellow","trial_type":"pit-trial","trial_index":256,"time_elapsed":980356,"internal_node_id":"0.0-233.0","task_version":"test-retest-t2"},{"Rune":"rune_06_cweord","Hex":"#3366ff99","Correct":-1,"Choice":-1,"RT":-1,"Accuracy":1,"Outcome":"+1","Keys":[],"TotalKeys":0,"Block":2,"Trial":226,"Robot":2,"Valence":"Win","Action":"No-Go","Sham":1,"Color":"blue","trial_type":"pit-trial","trial_index":257,"time_elapsed":984366,"internal_node_id":"0.0-234.0","task_version":"test-retest-t2"},{"Rune":"rune_06_ehwaz","Hex":"#3366ff99","Correct":32,"Choice":32,"RT":323.9449999964563,"Accuracy":1,"Outcome":"+10","Keys":[1825.7900000025984],"TotalKeys":1,"Block":2,"Trial":227,"Robot":1,"Valence":"Win","Action":"Go","Sham":0,"Color":"blue","trial_type":"pit-trial","trial_index":258,"time_elapsed":987196,"internal_node_id":"0.0-235.0","task_version":"test-retest-t2"},{"Rune":"rune_06_ansuz","Hex":"#ffcc3399","Correct":32,"Choice":32,"RT":485.8600000006845,"Accuracy":1,"Outcome":"-10","Keys":[1986.1800000071526],"TotalKeys":1,"Block":2,"Trial":228,"Robot":3,"Valence":"Lose","Action":"Go","Sham":1,"Color":"yellow","trial_type":"pit-trial","trial_index":259,"time_elapsed":990189,"internal_node_id":"0.0-236.0","task_version":"test-retest-t2"},{"Rune":"rune_06_cweord","Hex":"#3366ff99","Correct":-1,"Choice":-1,"RT":-1,"Accuracy":1,"Outcome":"+10","Keys":[],"TotalKeys":0,"Block":2,"Trial":229,"Robot":2,"Valence":"Win","Action":"No-Go","Sham":0,"Color":"blue","trial_type":"pit-trial","trial_index":260,"time_elapsed":994201,"internal_node_id":"0.0-237.0","task_version":"test-retest-t2"},{"Rune":"rune_06_ansuz","Hex":"#ffcc3399","Correct":32,"Choice":32,"RT":632.8150000044843,"Accuracy":1,"Outcome":"-1","Keys":[2134.665000005043],"TotalKeys":1,"Block":2,"Trial":230,"Robot":3,"Valence":"Lose","Action":"Go","Sham":0,"Color":"yellow","trial_type":"pit-trial","trial_index":261,"time_elapsed":997341,"internal_node_id":"0.0-238.0","task_version":"test-retest-t2"},{"Rune":"rune_06_berkanan","Hex":"#ffcc3399","Correct":-1,"Choice":-1,"RT":-1,"Accuracy":1,"Outcome":"-1","Keys":[],"TotalKeys":0,"Block":2,"Trial":231,"Robot":4,"Valence":"Lose","Action":"No-Go","Sham":0,"Color":"yellow","trial_type":"pit-trial","trial_index":262,"time_elapsed":1001346,"internal_node_id":"0.0-239.0","task_version":"test-retest-t2"},{"Rune":"rune_06_ehwaz","Hex":"#3366ff99","Correct":32,"Choice":32,"RT":222.9500000103144,"Accuracy":1,"Outcome":"+1","Keys":[1724.304999996093],"TotalKeys":1,"Block":2,"Trial":232,"Robot":1,"Valence":"Win","Action":"Go","Sham":1,"Color":"blue","trial_type":"pit-trial","trial_index":263,"time_elapsed":1004074,"internal_node_id":"0.0-240.0","task_version":"test-retest-t2"},{"Rune":"rune_06_berkanan","Hex":"#ffcc3399","Correct":-1,"Choice":-1,"RT":-1,"Accuracy":1,"Outcome":"-10","Keys":[],"TotalKeys":0,"Block":2,"Trial":233,"Robot":4,"Valence":"Lose","Action":"No-Go","Sham":1,"Color":"yellow","trial_type":"pit-trial","trial_index":264,"time_elapsed":1008081,"internal_node_id":"0.0-241.0","task_version":"test-retest-t2"},{"Rune":"rune_06_cweord","Hex":"#3366ff99","Correct":-1,"Choice":-1,"RT":-1,"Accuracy":1,"Outcome":"+10","Keys":[],"TotalKeys":0,"Block":2,"Trial":234,"Robot":2,"Valence":"Win","Action":"No-Go","Sham":0,"Color":"blue","trial_type":"pit-trial","trial_index":265,"time_elapsed":1012093,"internal_node_id":"0.0-242.0","task_version":"test-retest-t2"},{"Rune":"rune_06_ehwaz","Hex":"#3366ff99","Correct":32,"Choice":32,"RT":246.26500000886153,"Accuracy":1,"Outcome":"+10","Keys":[1747.4050000018906],"TotalKeys":1,"Block":2,"Trial":235,"Robot":1,"Valence":"Win","Action":"Go","Sham":0,"Color":"blue","trial_type":"pit-trial","trial_index":266,"time_elapsed":1014845,"internal_node_id":"0.0-243.0","task_version":"test-retest-t2"},{"Rune":"rune_06_ansuz","Hex":"#ffcc3399","Correct":32,"Choice":32,"RT":421.92000000795815,"Accuracy":1,"Outcome":"-1","Keys":[1922.1499999985099],"TotalKeys":1,"Block":2,"Trial":236,"Robot":3,"Valence":"Lose","Action":"Go","Sham":0,"Color":"yellow","trial_type":"pit-trial","trial_index":267,"time_elapsed":1017773,"internal_node_id":"0.0-244.0","task_version":"test-retest-t2"},{"Rune":"rune_06_ehwaz","Hex":"#3366ff99","Correct":32,"Choice":32,"RT":349.7250000073109,"Accuracy":1,"Outcome":"+10","Keys":[1850.220000007539],"TotalKeys":1,"Block":2,"Trial":237,"Robot":1,"Valence":"Win","Action":"Go","Sham":0,"Color":"blue","trial_type":"pit-trial","trial_index":268,"time_elapsed":1020631,"internal_node_id":"0.0-245.0","task_version":"test-retest-t2"},{"Rune":"rune_06_cweord","Hex":"#3366ff99","Correct":-1,"Choice":-1,"RT":-1,"Accuracy":1,"Outcome":"+10","Keys":[],"TotalKeys":0,"Block":2,"Trial":238,"Robot":2,"Valence":"Win","Action":"No-Go","Sham":0,"Color":"blue","trial_type":"pit-trial","trial_index":269,"time_elapsed":1024643,"internal_node_id":"0.0-246.0","task_version":"test-retest-t2"},{"Rune":"rune_06_ansuz","Hex":"#ffcc3399","Correct":32,"Choice":32,"RT":371.9299999938812,"Accuracy":1,"Outcome":"-1","Keys":[1872.814999995171],"TotalKeys":1,"Block":2,"Trial":239,"Robot":3,"Valence":"Lose","Action":"Go","Sham":0,"Color":"yellow","trial_type":"pit-trial","trial_index":270,"time_elapsed":1027527,"internal_node_id":"0.0-247.0","task_version":"test-retest-t2"},{"Rune":"rune_06_berkanan","Hex":"#ffcc3399","Correct":-1,"Choice":-1,"RT":-1,"Accuracy":1,"Outcome":"-1","Keys":[],"TotalKeys":0,"Block":2,"Trial":240,"Robot":4,"Valence":"Lose","Action":"No-Go","Sham":0,"Color":"yellow","trial_type":"pit-trial","trial_index":271,"time_elapsed":1031539,"internal_node_id":"0.0-248.0","task_version":"test-retest-t2"},{"view_history":"[{\"page_index\":0,\"viewing_time\":1549.5450000016717}]","rt":1550.1250000088476,"trial_type":"pit-instructions","trial_index":272,"time_elapsed":1033091,"internal_node_id":"0.0-249.0","task_version":"test-retest-t2"},{"rt":14723.805000001448,"responses":{"difficulty":"5","fun":"4","clarity":"5","strategy":"I remembered which ones were complete or incomplete","feedback":""},"survey":"debrief","trial_type":"survey-debrief","trial_index":273,"time_elapsed":1047819,"internal_node_id":"0.0-250.0","task_version":"test-retest-t2"},{"rt":2603.7450000003446,"stimulus":"You earned a bonus of $1.42 out of $1.5.<br><br>Press any key to complete the experiment.","key_press":32,"trial_type":"html-keyboard-response","trial_index":274,"time_elapsed":1050426,"internal_node_id":"0.0-251.0","task_version":"test-retest-t2","accuracy":0.9458333333333333,"bonus":1.42,"interactions":"[]"}]