[{"slider_type":"valence","raw_loc":567,"loc":0.634,"trial_type":"affective-slider","trial_index":0,"time_elapsed":6469,"internal_node_id":"0.0-0.0","task_version":"test-retest-t3"},{"responses":{"Q01":"0","Q03":"0","Q05":"0","Q08":"0","Q04":"0","Q07":"0","Q06":"0","Q02":"0"},"rt":13896.17000008002,"survey":"gad7","trial_type":"survey-template","trial_index":1,"time_elapsed":20375,"internal_node_id":"0.0-1.0","task_version":"test-retest-t3"},{"view_history":"[{\"page_index\":0,\"viewing_time\":2327.0550000015646},{\"page_index\":1,\"viewing_time\":814.5049999002367},{\"page_index\":2,\"viewing_time\":2244.9150001630187},{\"page_index\":3,\"viewing_time\":3711.1750000622123},{\"page_index\":4,\"viewing_time\":3014.994999859482},{\"page_index\":5,\"viewing_time\":1879.0249999146909}]","rt":13992.540000006557,"trial_type":"pit-instructions","trial_index":2,"time_elapsed":34372,"internal_node_id":"0.0-2.0-0.0","task_version":"test-retest-t3"},{"Rune":"rune_00_ingz","Hex":"#FFFFF080","Correct":32,"Choice":32,"RT":217.71500003524125,"Accuracy":1,"Outcome":"+10","Keys":[1718.540000030771],"TotalKeys":1,"Block":0,"Action":"Go","trial_type":"pit-trial","trial_index":3,"time_elapsed":37096,"internal_node_id":"0.0-2.0-1.0-0.0","task_version":"test-retest-t3"},{"Rune":"rune_00_ingz","Hex":"#FFFFF080","Correct":32,"Choice":32,"RT":182.75499995797873,"Accuracy":1,"Outcome":"+10","Keys":[1683.8599999900907],"TotalKeys":1,"Block":0,"Action":"Go","trial_type":"pit-trial","trial_index":4,"time_elapsed":39786,"internal_node_id":"0.0-2.0-1.0-0.1","task_version":"test-retest-t3"},{"Rune":"rune_00_ingz","Hex":"#FFFFF080","Correct":32,"Choice":32,"RT":177.7200000360608,"Accuracy":1,"Outcome":"+10","Keys":[1678.940000012517],"TotalKeys":1,"Block":0,"Action":"Go","trial_type":"pit-trial","trial_index":5,"time_elapsed":42470,"internal_node_id":"0.0-2.0-1.0-0.2","task_version":"test-retest-t3"},{"Rune":"rune_00_ingz","Hex":"#FFFFF080","Correct":32,"Choice":32,"RT":310.7600000221282,"Accuracy":1,"Outcome":"+10","Keys":[1811.9100001640618],"TotalKeys":1,"Block":0,"Action":"Go","trial_type":"pit-trial","trial_index":6,"time_elapsed":45288,"internal_node_id":"0.0-2.0-1.0-0.3","task_version":"test-retest-t3"},{"view_history":"[{\"page_index\":0,\"viewing_time\":1890.8649999648333}]","rt":1891.289999941364,"trial_type":"pit-instructions","trial_index":7,"time_elapsed":47182,"internal_node_id":"0.0-2.0-2.0","task_version":"test-retest-t3"},{"Rune":"rune_00_isaz","Hex":"#FFFFF080","Correct":-1,"Choice":-1,"RT":-1,"Accuracy":1,"Outcome":"+10","Keys":[],"TotalKeys":0,"Block":0,"Action":"No-Go","trial_type":"pit-trial","trial_index":8,"time_elapsed":51188,"internal_node_id":"0.0-2.0-3.0-0.0","task_version":"test-retest-t3"},{"Rune":"rune_00_isaz","Hex":"#FFFFF080","Correct":-1,"Choice":-1,"RT":-1,"Accuracy":1,"Outcome":"+10","Keys":[],"TotalKeys":0,"Block":0,"Action":"No-Go","trial_type":"pit-trial","trial_index":9,"time_elapsed":55194,"internal_node_id":"0.0-2.0-3.0-0.1","task_version":"test-retest-t3"},{"Rune":"rune_00_isaz","Hex":"#FFFFF080","Correct":-1,"Choice":-1,"RT":-1,"Accuracy":1,"Outcome":"+10","Keys":[],"TotalKeys":0,"Block":0,"Action":"No-Go","trial_type":"pit-trial","trial_index":10,"time_elapsed":59201,"internal_node_id":"0.0-2.0-3.0-0.2","task_version":"test-retest-t3"},{"Rune":"rune_00_isaz","Hex":"#FFFFF080","Correct":-1,"Choice":-1,"RT":-1,"Accuracy":1,"Outcome":"+10","Keys":[],"TotalKeys":0,"Block":0,"Action":"No-Go","trial_type":"pit-trial","trial_index":11,"time_elapsed":63208,"internal_node_id":"0.0-2.0-3.0-0.3","task_version":"test-retest-t3"},{"view_history":"[{\"page_index\":0,\"viewing_time\":2254.1400000918657},{\"page_index\":1,\"viewing_time\":3362.5050000846386},{\"page_index\":2,\"viewing_time\":2216.8949998449534},{\"page_index\":3,\"viewing_time\":2619.2350001074374},{\"page_index\":4,\"viewing_time\":2524.890000000596},{\"page_index\":5,\"viewing_time\":2070.975000038743},{\"page_index\":6,\"viewing_time\":2998.939999844879},{\"page_index\":7,\"viewing_time\":1344.325000187382}]","rt":19392.515000188723,"trial_type":"pit-instructions","trial_index":12,"time_elapsed":82603,"internal_node_id":"0.0-2.0-4.0","task_version":"test-retest-t3"},{"responses":["Do nothing","+10","-1","True","Yes"],"num_errors":0,"rt":15649.555000010878,"trial_type":"pit-comprehension","trial_index":13,"time_elapsed":98256,"internal_node_id":"0.0-2.0-5.0","task_version":"test-retest-t3"},{"trial_type":"call-function","trial_index":14,"time_elapsed":98260,"internal_node_id":"0.0-3.0","task_version":"test-retest-t3"},{"view_history":"[{\"page_index\":0,\"viewing_time\":1164.3199999816716},{\"page_index\":1,\"viewing_time\":1474.1450001019984},{\"page_index\":2,\"viewing_time\":1776.7749999184161}]","rt":4415.625000139698,"trial_type":"pit-instructions","trial_index":15,"time_elapsed":102677,"internal_node_id":"0.0-4.0","task_version":"test-retest-t3"},{"Rune":"rune_05_tiwaz","Hex":"#ffcc3399","Correct":-1,"Choice":32,"RT":309.98499994166195,"Accuracy":0,"Outcome":"-10","Keys":[1810.279999859631],"TotalKeys":1,"Block":1,"Trial":1,"Robot":4,"Valence":"Lose","Action":"No-Go","Sham":0,"Color":"yellow","trial_type":"pit-trial","trial_index":16,"time_elapsed":105493,"internal_node_id":"0.0-5.0","task_version":"test-retest-t3"},{"Rune":"rune_05_gebo","Hex":"#3366ff99","Correct":-1,"Choice":32,"RT":630.4699999745935,"Accuracy":0,"Outcome":"+1","Keys":[2131.6050000023097],"TotalKeys":1,"Block":1,"Trial":2,"Robot":2,"Valence":"Win","Action":"No-Go","Sham":0,"Color":"blue","trial_type":"pit-trial","trial_index":17,"time_elapsed":108630,"internal_node_id":"0.0-6.0","task_version":"test-retest-t3"},{"Rune":"rune_05_jeran","Hex":"#3366ff99","Correct":32,"Choice":32,"RT":528.8549999240786,"Accuracy":1,"Outcome":"+10","Keys":[2028.9499999489635],"TotalKeys":1,"Block":1,"Trial":3,"Robot":1,"Valence":"Win","Action":"Go","Sham":0,"Color":"blue","trial_type":"pit-trial","trial_index":18,"time_elapsed":111664,"internal_node_id":"0.0-7.0","task_version":"test-retest-t3"},{"Rune":"rune_05_ior","Hex":"#ffcc3399","Correct":32,"Choice":32,"RT":576.2849999591708,"Accuracy":1,"Outcome":"-1","Keys":[2076.4649999327958],"TotalKeys":1,"Block":1,"Trial":4,"Robot":3,"Valence":"Lose","Action":"Go","Sham":0,"Color":"yellow","trial_type":"pit-trial","trial_index":19,"time_elapsed":114745,"internal_node_id":"0.0-8.0","task_version":"test-retest-t3"},{"Rune":"rune_05_gebo","Hex":"#3366ff99","Correct":-1,"Choice":32,"RT":785.304999910295,"Accuracy":0,"Outcome":"+1","Keys":[2285.42000008747],"TotalKeys":1,"Block":1,"Trial":5,"Robot":2,"Valence":"Win","Action":"No-Go","Sham":0,"Color":"blue","trial_type":"pit-trial","trial_index":20,"time_elapsed":118035,"internal_node_id":"0.0-9.0","task_version":"test-retest-t3"},{"Rune":"rune_05_ior","Hex":"#ffcc3399","Correct":32,"Choice":32,"RT":630.4599998984486,"Accuracy":1,"Outcome":"-1","Keys":[2131.7599997855723],"TotalKeys":1,"Block":1,"Trial":6,"Robot":3,"Valence":"Lose","Action":"Go","Sham":0,"Color":"yellow","trial_type":"pit-trial","trial_index":21,"time_elapsed":121174,"internal_node_id":"0.0-10.0","task_version":"test-retest-t3"},{"Rune":"rune_05_tiwaz","Hex":"#ffcc3399","Correct":-1,"Choice":-1,"RT":-1,"Accuracy":1,"Outcome":"-1","Keys":[],"TotalKeys":0,"Block":1,"Trial":7,"Robot":4,"Valence":"Lose","Action":"No-Go","Sham":0,"Color":"yellow","trial_type":"pit-trial","trial_index":22,"time_elapsed":125181,"internal_node_id":"0.0-11.0","task_version":"test-retest-t3"},{"Rune":"rune_05_jeran","Hex":"#3366ff99","Correct":32,"Choice":32,"RT":646.1249999701977,"Accuracy":1,"Outcome":"+10","Keys":[2146.5900000184774],"TotalKeys":1,"Block":1,"Trial":8,"Robot":1,"Valence":"Win","Action":"Go","Sham":0,"Color":"blue","trial_type":"pit-trial","trial_index":23,"time_elapsed":128330,"internal_node_id":"0.0-12.0","task_version":"test-retest-t3"},{"Rune":"rune_05_tiwaz","Hex":"#ffcc3399","Correct":-1,"Choice":32,"RT":728.1899999361485,"Accuracy":0,"Outcome":"-1","Keys":[2228.835000190884],"TotalKeys":1,"Block":1,"Trial":9,"Robot":4,"Valence":"Lose","Action":"No-Go","Sham":1,"Color":"yellow","trial_type":"pit-trial","trial_index":24,"time_elapsed":131561,"internal_node_id":"0.0-13.0","task_version":"test-retest-t3"},{"Rune":"rune_05_gebo","Hex":"#3366ff99","Correct":-1,"Choice":-1,"RT":-1,"Accuracy":1,"Outcome":"+1","Keys":[],"TotalKeys":0,"Block":1,"Trial":10,"Robot":2,"Valence":"Win","Action":"No-Go","Sham":1,"Color":"blue","trial_type":"pit-trial","trial_index":25,"time_elapsed":135565,"internal_node_id":"0.0-14.0","task_version":"test-retest-t3"},{"Rune":"rune_05_jeran","Hex":"#3366ff99","Correct":32,"Choice":32,"RT":667.5549999345094,"Accuracy":1,"Outcome":"+1","Keys":[2169.0199999138713],"TotalKeys":1,"Block":1,"Trial":11,"Robot":1,"Valence":"Win","Action":"Go","Sham":1,"Color":"blue","trial_type":"pit-trial","trial_index":26,"time_elapsed":138740,"internal_node_id":"0.0-15.0","task_version":"test-retest-t3"},{"Rune":"rune_05_ior","Hex":"#ffcc3399","Correct":32,"Choice":-1,"RT":-1,"Accuracy":0,"Outcome":"-1","Keys":[],"TotalKeys":0,"Block":1,"Trial":12,"Robot":3,"Valence":"Lose","Action":"Go","Sham":1,"Color":"yellow","trial_type":"pit-trial","trial_index":27,"time_elapsed":142744,"internal_node_id":"0.0-16.0","task_version":"test-retest-t3"},{"Rune":"rune_05_ior","Hex":"#ffcc3399","Correct":32,"Choice":-1,"RT":-1,"Accuracy":0,"Outcome":"-10","Keys":[],"TotalKeys":0,"Block":1,"Trial":13,"Robot":3,"Valence":"Lose","Action":"Go","Sham":0,"Color":"yellow","trial_type":"pit-trial","trial_index":28,"time_elapsed":146749,"internal_node_id":"0.0-17.0","task_version":"test-retest-t3"},{"Rune":"rune_05_tiwaz","Hex":"#ffcc3399","Correct":-1,"Choice":32,"RT":730.1349998451769,"Accuracy":0,"Outcome":"-10","Keys":[2231.879999861121],"TotalKeys":1,"Block":1,"Trial":14,"Robot":4,"Valence":"Lose","Action":"No-Go","Sham":0,"Color":"yellow","trial_type":"pit-trial","trial_index":29,"time_elapsed":149986,"internal_node_id":"0.0-18.0","task_version":"test-retest-t3"},{"Rune":"rune_05_gebo","Hex":"#3366ff99","Correct":-1,"Choice":-1,"RT":-1,"Accuracy":1,"Outcome":"+10","Keys":[],"TotalKeys":0,"Block":1,"Trial":15,"Robot":2,"Valence":"Win","Action":"No-Go","Sham":0,"Color":"blue","trial_type":"pit-trial","trial_index":30,"time_elapsed":153991,"internal_node_id":"0.0-19.0","task_version":"test-retest-t3"},{"Rune":"rune_05_jeran","Hex":"#3366ff99","Correct":32,"Choice":32,"RT":505.3949998691678,"Accuracy":1,"Outcome":"+10","Keys":[2006.4400001429021],"TotalKeys":1,"Block":1,"Trial":16,"Robot":1,"Valence":"Win","Action":"Go","Sham":0,"Color":"blue","trial_type":"pit-trial","trial_index":31,"time_elapsed":157004,"internal_node_id":"0.0-20.0","task_version":"test-retest-t3"},{"Rune":"rune_05_jeran","Hex":"#3366ff99","Correct":32,"Choice":32,"RT":646.1549999658018,"Accuracy":1,"Outcome":"+10","Keys":[2147.080000024289],"TotalKeys":1,"Block":1,"Trial":17,"Robot":1,"Valence":"Win","Action":"Go","Sham":0,"Color":"blue","trial_type":"pit-trial","trial_index":32,"time_elapsed":160156,"internal_node_id":"0.0-21.0","task_version":"test-retest-t3"},{"Rune":"rune_05_tiwaz","Hex":"#ffcc3399","Correct":-1,"Choice":-1,"RT":-1,"Accuracy":1,"Outcome":"-1","Keys":[],"TotalKeys":0,"Block":1,"Trial":18,"Robot":4,"Valence":"Lose","Action":"No-Go","Sham":0,"Color":"yellow","trial_type":"pit-trial","trial_index":33,"time_elapsed":164160,"internal_node_id":"0.0-22.0","task_version":"test-retest-t3"},{"Rune":"rune_05_ior","Hex":"#ffcc3399","Correct":32,"Choice":32,"RT":552.0899998955429,"Accuracy":1,"Outcome":"-1","Keys":[2052.3049999028444],"TotalKeys":1,"Block":1,"Trial":19,"Robot":3,"Valence":"Lose","Action":"Go","Sham":0,"Color":"yellow","trial_type":"pit-trial","trial_index":34,"time_elapsed":167219,"internal_node_id":"0.0-23.0","task_version":"test-retest-t3"},{"Rune":"rune_05_gebo","Hex":"#3366ff99","Correct":-1,"Choice":-1,"RT":-1,"Accuracy":1,"Outcome":"+10","Keys":[],"TotalKeys":0,"Block":1,"Trial":20,"Robot":2,"Valence":"Win","Action":"No-Go","Sham":0,"Color":"blue","trial_type":"pit-trial","trial_index":35,"time_elapsed":171228,"internal_node_id":"0.0-24.0","task_version":"test-retest-t3"},{"Rune":"rune_05_gebo","Hex":"#3366ff99","Correct":-1,"Choice":-1,"RT":-1,"Accuracy":1,"Outcome":"+10","Keys":[],"TotalKeys":0,"Block":1,"Trial":21,"Robot":2,"Valence":"Win","Action":"No-Go","Sham":0,"Color":"blue","trial_type":"pit-trial","trial_index":36,"time_elapsed":175235,"internal_node_id":"0.0-25.0","task_version":"test-retest-t3"},{"Rune":"rune_05_tiwaz","Hex":"#ffcc3399","Correct":-1,"Choice":-1,"RT":-1,"Accuracy":1,"Outcome":"-1","Keys":[],"TotalKeys":0,"Block":1,"Trial":22,"Robot":4,"Valence":"Lose","Action":"No-Go","Sham":0,"Color":"yellow","trial_type":"pit-trial","trial_index":37,"time_elapsed":179241,"internal_node_id":"0.0-26.0","task_version":"test-retest-t3"},{"Rune":"rune_05_ior","Hex":"#ffcc3399","Correct":32,"Choice":32,"RT":519.4899998605251,"Accuracy":1,"Outcome":"-1","Keys":[2019.5799998473376],"TotalKeys":1,"Block":1,"Trial":23,"Robot":3,"Valence":"Lose","Action":"Go","Sham":0,"Color":"yellow","trial_type":"pit-trial","trial_index":38,"time_elapsed":182264,"internal_node_id":"0.0-27.0","task_version":"test-retest-t3"},{"Rune":"rune_05_jeran","Hex":"#3366ff99","Correct":32,"Choice":32,"RT":336.9650000240654,"Accuracy":1,"Outcome":"+1","Keys":[1837.7149999141693],"TotalKeys":1,"Block":1,"Trial":24,"Robot":1,"Valence":"Win","Action":"Go","Sham":1,"Color":"blue","trial_type":"pit-trial","trial_index":39,"time_elapsed":185107,"internal_node_id":"0.0-28.0","task_version":"test-retest-t3"},{"Rune":"rune_05_ior","Hex":"#ffcc3399","Correct":32,"Choice":32,"RT":565.995000069961,"Accuracy":1,"Outcome":"-1","Keys":[2066.859999904409],"TotalKeys":1,"Block":1,"Trial":25,"Robot":3,"Valence":"Lose","Action":"Go","Sham":0,"Color":"yellow","trial_type":"pit-trial","trial_index":40,"time_elapsed":188180,"internal_node_id":"0.0-29.0","task_version":"test-retest-t3"},{"Rune":"rune_05_jeran","Hex":"#3366ff99","Correct":32,"Choice":32,"RT":489.75499998778105,"Accuracy":1,"Outcome":"+10","Keys":[1990.7800001092255],"TotalKeys":1,"Block":1,"Trial":26,"Robot":1,"Valence":"Win","Action":"Go","Sham":0,"Color":"blue","trial_type":"pit-trial","trial_index":41,"time_elapsed":191176,"internal_node_id":"0.0-30.0","task_version":"test-retest-t3"},{"Rune":"rune_05_tiwaz","Hex":"#ffcc3399","Correct":-1,"Choice":-1,"RT":-1,"Accuracy":1,"Outcome":"-10","Keys":[],"TotalKeys":0,"Block":1,"Trial":27,"Robot":4,"Valence":"Lose","Action":"No-Go","Sham":1,"Color":"yellow","trial_type":"pit-trial","trial_index":42,"time_elapsed":195181,"internal_node_id":"0.0-31.0","task_version":"test-retest-t3"},{"Rune":"rune_05_gebo","Hex":"#3366ff99","Correct":-1,"Choice":-1,"RT":-1,"Accuracy":1,"Outcome":"+10","Keys":[],"TotalKeys":0,"Block":1,"Trial":28,"Robot":2,"Valence":"Win","Action":"No-Go","Sham":0,"Color":"blue","trial_type":"pit-trial","trial_index":43,"time_elapsed":199191,"internal_node_id":"0.0-32.0","task_version":"test-retest-t3"},{"Rune":"rune_05_ior","Hex":"#ffcc3399","Correct":32,"Choice":32,"RT":548.9250000100583,"Accuracy":1,"Outcome":"-10","Keys":[2049.2400000803173],"TotalKeys":1,"Block":1,"Trial":29,"Robot":3,"Valence":"Lose","Action":"Go","Sham":1,"Color":"yellow","trial_type":"pit-trial","trial_index":44,"time_elapsed":202246,"internal_node_id":"0.0-33.0","task_version":"test-retest-t3"},{"Rune":"rune_05_tiwaz","Hex":"#ffcc3399","Correct":-1,"Choice":-1,"RT":-1,"Accuracy":1,"Outcome":"-1","Keys":[],"TotalKeys":0,"Block":1,"Trial":30,"Robot":4,"Valence":"Lose","Action":"No-Go","Sham":0,"Color":"yellow","trial_type":"pit-trial","trial_index":45,"time_elapsed":206252,"internal_node_id":"0.0-34.0","task_version":"test-retest-t3"},{"Rune":"rune_05_gebo","Hex":"#3366ff99","Correct":-1,"Choice":-1,"RT":-1,"Accuracy":1,"Outcome":"+1","Keys":[],"TotalKeys":0,"Block":1,"Trial":31,"Robot":2,"Valence":"Win","Action":"No-Go","Sham":1,"Color":"blue","trial_type":"pit-trial","trial_index":46,"time_elapsed":210258,"internal_node_id":"0.0-35.0","task_version":"test-retest-t3"},{"Rune":"rune_05_jeran","Hex":"#3366ff99","Correct":32,"Choice":32,"RT":458.8500000536442,"Accuracy":1,"Outcome":"+10","Keys":[1960.6049999129027],"TotalKeys":1,"Block":1,"Trial":32,"Robot":1,"Valence":"Win","Action":"Go","Sham":0,"Color":"blue","trial_type":"pit-trial","trial_index":47,"time_elapsed":213225,"internal_node_id":"0.0-36.0","task_version":"test-retest-t3"},{"Rune":"rune_05_ior","Hex":"#ffcc3399","Correct":32,"Choice":32,"RT":516.6150000877678,"Accuracy":1,"Outcome":"-1","Keys":[2016.774999909103],"TotalKeys":1,"Block":1,"Trial":33,"Robot":3,"Valence":"Lose","Action":"Go","Sham":0,"Color":"yellow","trial_type":"pit-trial","trial_index":48,"time_elapsed":216247,"internal_node_id":"0.0-37.0","task_version":"test-retest-t3"},{"Rune":"rune_05_gebo","Hex":"#3366ff99","Correct":-1,"Choice":-1,"RT":-1,"Accuracy":1,"Outcome":"+10","Keys":[],"TotalKeys":0,"Block":1,"Trial":34,"Robot":2,"Valence":"Win","Action":"No-Go","Sham":0,"Color":"blue","trial_type":"pit-trial","trial_index":49,"time_elapsed":220252,"internal_node_id":"0.0-38.0","task_version":"test-retest-t3"},{"Rune":"rune_05_jeran","Hex":"#3366ff99","Correct":32,"Choice":32,"RT":585.6849998235703,"Accuracy":1,"Outcome":"+10","Keys":[2086.0299998894334],"TotalKeys":1,"Block":1,"Trial":35,"Robot":1,"Valence":"Win","Action":"Go","Sham":0,"Color":"blue","trial_type":"pit-trial","trial_index":50,"time_elapsed":223343,"internal_node_id":"0.0-39.0","task_version":"test-retest-t3"},{"Rune":"rune_05_tiwaz","Hex":"#ffcc3399","Correct":-1,"Choice":-1,"RT":-1,"Accuracy":1,"Outcome":"-1","Keys":[],"TotalKeys":0,"Block":1,"Trial":36,"Robot":4,"Valence":"Lose","Action":"No-Go","Sham":0,"Color":"yellow","trial_type":"pit-trial","trial_index":51,"time_elapsed":227347,"internal_node_id":"0.0-40.0","task_version":"test-retest-t3"},{"Rune":"rune_05_ior","Hex":"#ffcc3399","Correct":32,"Choice":32,"RT":493.30500001087785,"Accuracy":1,"Outcome":"-1","Keys":[1994.4549999199808],"TotalKeys":1,"Block":1,"Trial":37,"Robot":3,"Valence":"Lose","Action":"Go","Sham":0,"Color":"yellow","trial_type":"pit-trial","trial_index":52,"time_elapsed":230346,"internal_node_id":"0.0-41.0","task_version":"test-retest-t3"},{"Rune":"rune_05_gebo","Hex":"#3366ff99","Correct":-1,"Choice":-1,"RT":-1,"Accuracy":1,"Outcome":"+10","Keys":[],"TotalKeys":0,"Block":1,"Trial":38,"Robot":2,"Valence":"Win","Action":"No-Go","Sham":0,"Color":"blue","trial_type":"pit-trial","trial_index":53,"time_elapsed":234350,"internal_node_id":"0.0-42.0","task_version":"test-retest-t3"},{"Rune":"rune_05_tiwaz","Hex":"#ffcc3399","Correct":-1,"Choice":-1,"RT":-1,"Accuracy":1,"Outcome":"-1","Keys":[],"TotalKeys":0,"Block":1,"Trial":39,"Robot":4,"Valence":"Lose","Action":"No-Go","Sham":0,"Color":"yellow","trial_type":"pit-trial","trial_index":54,"time_elapsed":238358,"internal_node_id":"0.0-43.0","task_version":"test-retest-t3"},{"Rune":"rune_05_jeran","Hex":"#3366ff99","Correct":32,"Choice":32,"RT":424.86500018276274,"Accuracy":1,"Outcome":"+10","Keys":[1926.2149999849498],"TotalKeys":1,"Block":1,"Trial":40,"Robot":1,"Valence":"Win","Action":"Go","Sham":0,"Color":"blue","trial_type":"pit-trial","trial_index":55,"time_elapsed":241289,"internal_node_id":"0.0-44.0","task_version":"test-retest-t3"},{"Rune":"rune_05_gebo","Hex":"#3366ff99","Correct":-1,"Choice":-1,"RT":-1,"Accuracy":1,"Outcome":"+10","Keys":[],"TotalKeys":0,"Block":1,"Trial":41,"Robot":2,"Valence":"Win","Action":"No-Go","Sham":0,"Color":"blue","trial_type":"pit-trial","trial_index":56,"time_elapsed":245294,"internal_node_id":"0.0-45.0","task_version":"test-retest-t3"},{"Rune":"rune_05_tiwaz","Hex":"#ffcc3399","Correct":-1,"Choice":-1,"RT":-1,"Accuracy":1,"Outcome":"-1","Keys":[],"TotalKeys":0,"Block":1,"Trial":42,"Robot":4,"Valence":"Lose","Action":"No-Go","Sham":0,"Color":"yellow","trial_type":"pit-trial","trial_index":57,"time_elapsed":249302,"internal_node_id":"0.0-46.0","task_version":"test-retest-t3"},{"Rune":"rune_05_ior","Hex":"#ffcc3399","Correct":32,"Choice":32,"RT":713.044999865815,"Accuracy":1,"Outcome":"-1","Keys":[2214.109999826178],"TotalKeys":1,"Block":1,"Trial":43,"Robot":3,"Valence":"Lose","Action":"Go","Sham":0,"Color":"yellow","trial_type":"pit-trial","trial_index":58,"time_elapsed":252522,"internal_node_id":"0.0-47.0","task_version":"test-retest-t3"},{"Rune":"rune_05_jeran","Hex":"#3366ff99","Correct":32,"Choice":32,"RT":704.0200000628829,"Accuracy":1,"Outcome":"+10","Keys":[2204.6449999324977],"TotalKeys":1,"Block":1,"Trial":44,"Robot":1,"Valence":"Win","Action":"Go","Sham":0,"Color":"blue","trial_type":"pit-trial","trial_index":59,"time_elapsed":255730,"internal_node_id":"0.0-48.0","task_version":"test-retest-t3"},{"Rune":"rune_05_gebo","Hex":"#3366ff99","Correct":-1,"Choice":-1,"RT":-1,"Accuracy":1,"Outcome":"+10","Keys":[],"TotalKeys":0,"Block":1,"Trial":45,"Robot":2,"Valence":"Win","Action":"No-Go","Sham":0,"Color":"blue","trial_type":"pit-trial","trial_index":60,"time_elapsed":259733,"internal_node_id":"0.0-49.0","task_version":"test-retest-t3"},{"Rune":"rune_05_jeran","Hex":"#3366ff99","Correct":32,"Choice":32,"RT":717.6649998873472,"Accuracy":1,"Outcome":"+10","Keys":[2219.2949999589473],"TotalKeys":1,"Block":1,"Trial":46,"Robot":1,"Valence":"Win","Action":"Go","Sham":0,"Color":"blue","trial_type":"pit-trial","trial_index":61,"time_elapsed":262959,"internal_node_id":"0.0-50.0","task_version":"test-retest-t3"},{"Rune":"rune_05_tiwaz","Hex":"#ffcc3399","Correct":-1,"Choice":-1,"RT":-1,"Accuracy":1,"Outcome":"-1","Keys":[],"TotalKeys":0,"Block":1,"Trial":47,"Robot":4,"Valence":"Lose","Action":"No-Go","Sham":0,"Color":"yellow","trial_type":"pit-trial","trial_index":62,"time_elapsed":266964,"internal_node_id":"0.0-51.0","task_version":"test-retest-t3"},{"Rune":"rune_05_ior","Hex":"#ffcc3399","Correct":32,"Choice":32,"RT":717.8899999707937,"Accuracy":1,"Outcome":"-1","Keys":[2219.444999936968],"TotalKeys":1,"Block":1,"Trial":48,"Robot":3,"Valence":"Lose","Action":"Go","Sham":0,"Color":"yellow","trial_type":"pit-trial","trial_index":63,"time_elapsed":270187,"internal_node_id":"0.0-52.0","task_version":"test-retest-t3"},{"Rune":"rune_05_jeran","Hex":"#3366ff99","Correct":32,"Choice":32,"RT":646.9300000462681,"Accuracy":1,"Outcome":"+10","Keys":[2147.8649999480695],"TotalKeys":1,"Block":1,"Trial":49,"Robot":1,"Valence":"Win","Action":"Go","Sham":0,"Color":"blue","trial_type":"pit-trial","trial_index":64,"time_elapsed":273342,"internal_node_id":"0.0-53.0","task_version":"test-retest-t3"},{"Rune":"rune_05_gebo","Hex":"#3366ff99","Correct":-1,"Choice":-1,"RT":-1,"Accuracy":1,"Outcome":"+1","Keys":[],"TotalKeys":0,"Block":1,"Trial":50,"Robot":2,"Valence":"Win","Action":"No-Go","Sham":1,"Color":"blue","trial_type":"pit-trial","trial_index":65,"time_elapsed":277347,"internal_node_id":"0.0-54.0","task_version":"test-retest-t3"},{"Rune":"rune_05_ior","Hex":"#ffcc3399","Correct":32,"Choice":32,"RT":531.639999942854,"Accuracy":1,"Outcome":"-10","Keys":[2032.7699999324977],"TotalKeys":1,"Block":1,"Trial":51,"Robot":3,"Valence":"Lose","Action":"Go","Sham":1,"Color":"yellow","trial_type":"pit-trial","trial_index":66,"time_elapsed":280383,"internal_node_id":"0.0-55.0","task_version":"test-retest-t3"},{"Rune":"rune_05_tiwaz","Hex":"#ffcc3399","Correct":-1,"Choice":-1,"RT":-1,"Accuracy":1,"Outcome":"-10","Keys":[],"TotalKeys":0,"Block":1,"Trial":52,"Robot":4,"Valence":"Lose","Action":"No-Go","Sham":1,"Color":"yellow","trial_type":"pit-trial","trial_index":67,"time_elapsed":284388,"internal_node_id":"0.0-56.0","task_version":"test-retest-t3"},{"Rune":"rune_05_tiwaz","Hex":"#ffcc3399","Correct":-1,"Choice":-1,"RT":-1,"Accuracy":1,"Outcome":"-1","Keys":[],"TotalKeys":0,"Block":1,"Trial":53,"Robot":4,"Valence":"Lose","Action":"No-Go","Sham":0,"Color":"yellow","trial_type":"pit-trial","trial_index":68,"time_elapsed":288394,"internal_node_id":"0.0-57.0","task_version":"test-retest-t3"},{"Rune":"rune_05_gebo","Hex":"#3366ff99","Correct":-1,"Choice":-1,"RT":-1,"Accuracy":1,"Outcome":"+10","Keys":[],"TotalKeys":0,"Block":1,"Trial":54,"Robot":2,"Valence":"Win","Action":"No-Go","Sham":0,"Color":"blue","trial_type":"pit-trial","trial_index":69,"time_elapsed":292407,"internal_node_id":"0.0-58.0","task_version":"test-retest-t3"},{"Rune":"rune_05_jeran","Hex":"#3366ff99","Correct":32,"Choice":32,"RT":475.16999999061227,"Accuracy":1,"Outcome":"+10","Keys":[1976.8000000622123],"TotalKeys":1,"Block":1,"Trial":55,"Robot":1,"Valence":"Win","Action":"Go","Sham":0,"Color":"blue","trial_type":"pit-trial","trial_index":70,"time_elapsed":295390,"internal_node_id":"0.0-59.0","task_version":"test-retest-t3"},{"Rune":"rune_05_ior","Hex":"#ffcc3399","Correct":32,"Choice":32,"RT":811.5650000981987,"Accuracy":1,"Outcome":"-1","Keys":[2312.5399998389184],"TotalKeys":1,"Block":1,"Trial":56,"Robot":3,"Valence":"Lose","Action":"Go","Sham":0,"Color":"yellow","trial_type":"pit-trial","trial_index":71,"time_elapsed":298708,"internal_node_id":"0.0-60.0","task_version":"test-retest-t3"},{"Rune":"rune_05_tiwaz","Hex":"#ffcc3399","Correct":-1,"Choice":-1,"RT":-1,"Accuracy":1,"Outcome":"-1","Keys":[],"TotalKeys":0,"Block":1,"Trial":57,"Robot":4,"Valence":"Lose","Action":"No-Go","Sham":0,"Color":"yellow","trial_type":"pit-trial","trial_index":72,"time_elapsed":302712,"internal_node_id":"0.0-61.0","task_version":"test-retest-t3"},{"Rune":"rune_05_jeran","Hex":"#3366ff99","Correct":32,"Choice":32,"RT":439.53999993391335,"Accuracy":1,"Outcome":"+1","Keys":[1940.6749999616295],"TotalKeys":1,"Block":1,"Trial":58,"Robot":1,"Valence":"Win","Action":"Go","Sham":1,"Color":"blue","trial_type":"pit-trial","trial_index":73,"time_elapsed":305658,"internal_node_id":"0.0-62.0","task_version":"test-retest-t3"},{"Rune":"rune_05_ior","Hex":"#ffcc3399","Correct":32,"Choice":32,"RT":500.4350000526756,"Accuracy":1,"Outcome":"-1","Keys":[2002.0250000525266],"TotalKeys":1,"Block":1,"Trial":59,"Robot":3,"Valence":"Lose","Action":"Go","Sham":0,"Color":"yellow","trial_type":"pit-trial","trial_index":74,"time_elapsed":308664,"internal_node_id":"0.0-63.0","task_version":"test-retest-t3"},{"Rune":"rune_05_gebo","Hex":"#3366ff99","Correct":-1,"Choice":-1,"RT":-1,"Accuracy":1,"Outcome":"+10","Keys":[],"TotalKeys":0,"Block":1,"Trial":60,"Robot":2,"Valence":"Win","Action":"No-Go","Sham":0,"Color":"blue","trial_type":"pit-trial","trial_index":75,"time_elapsed":312669,"internal_node_id":"0.0-64.0","task_version":"test-retest-t3"},{"value":false,"trial_type":"call-function","trial_index":76,"time_elapsed":312672,"internal_node_id":"0.0-65.0","task_version":"test-retest-t3"},{"view_history":"[{\"page_index\":0,\"viewing_time\":2144.310000119731},{\"page_index\":1,\"viewing_time\":1514.835000038147}]","rt":3659.5300000626594,"trial_type":"pit-instructions","trial_index":77,"time_elapsed":316333,"internal_node_id":"0.0-66.0","task_version":"test-retest-t3"},{"Rune":"rune_05_tiwaz","Hex":"#ffcc3399","Correct":-1,"Choice":-1,"RT":-1,"Accuracy":1,"Outcome":"-1","Keys":[],"TotalKeys":0,"Block":1,"Trial":61,"Robot":4,"Valence":"Lose","Action":"No-Go","Sham":0,"Color":"yellow","trial_type":"pit-trial","trial_index":78,"time_elapsed":320340,"internal_node_id":"0.0-67.0","task_version":"test-retest-t3"},{"Rune":"rune_05_ior","Hex":"#ffcc3399","Correct":32,"Choice":32,"RT":463.99999991990626,"Accuracy":1,"Outcome":"-1","Keys":[1964.8499998729676],"TotalKeys":1,"Block":1,"Trial":62,"Robot":3,"Valence":"Lose","Action":"Go","Sham":0,"Color":"yellow","trial_type":"pit-trial","trial_index":79,"time_elapsed":323311,"internal_node_id":"0.0-68.0","task_version":"test-retest-t3"},{"Rune":"rune_05_jeran","Hex":"#3366ff99","Correct":32,"Choice":32,"RT":411.1649999395013,"Accuracy":1,"Outcome":"+10","Keys":[1912.03000000678],"TotalKeys":1,"Block":1,"Trial":63,"Robot":1,"Valence":"Win","Action":"Go","Sham":0,"Color":"blue","trial_type":"pit-trial","trial_index":80,"time_elapsed":326229,"internal_node_id":"0.0-69.0","task_version":"test-retest-t3"},{"Rune":"rune_05_gebo","Hex":"#3366ff99","Correct":-1,"Choice":-1,"RT":-1,"Accuracy":1,"Outcome":"+1","Keys":[],"TotalKeys":0,"Block":1,"Trial":64,"Robot":2,"Valence":"Win","Action":"No-Go","Sham":1,"Color":"blue","trial_type":"pit-trial","trial_index":81,"time_elapsed":330236,"internal_node_id":"0.0-70.0","task_version":"test-retest-t3"},{"Rune":"rune_05_jeran","Hex":"#3366ff99","Correct":32,"Choice":32,"RT":346.9249999616295,"Accuracy":1,"Outcome":"+1","Keys":[1848.4300000127405],"TotalKeys":1,"Block":1,"Trial":65,"Robot":1,"Valence":"Win","Action":"Go","Sham":1,"Color":"blue","trial_type":"pit-trial","trial_index":82,"time_elapsed":333091,"internal_node_id":"0.0-71.0","task_version":"test-retest-t3"},{"Rune":"rune_05_ior","Hex":"#ffcc3399","Correct":32,"Choice":32,"RT":507.13999988511205,"Accuracy":1,"Outcome":"-1","Keys":[2007.5799999758601],"TotalKeys":1,"Block":1,"Trial":66,"Robot":3,"Valence":"Lose","Action":"Go","Sham":0,"Color":"yellow","trial_type":"pit-trial","trial_index":83,"time_elapsed":336103,"internal_node_id":"0.0-72.0","task_version":"test-retest-t3"},{"Rune":"rune_05_tiwaz","Hex":"#ffcc3399","Correct":-1,"Choice":-1,"RT":-1,"Accuracy":1,"Outcome":"-10","Keys":[],"TotalKeys":0,"Block":1,"Trial":67,"Robot":4,"Valence":"Lose","Action":"No-Go","Sham":1,"Color":"yellow","trial_type":"pit-trial","trial_index":84,"time_elapsed":340108,"internal_node_id":"0.0-73.0","task_version":"test-retest-t3"},{"Rune":"rune_05_gebo","Hex":"#3366ff99","Correct":-1,"Choice":-1,"RT":-1,"Accuracy":1,"Outcome":"+10","Keys":[],"TotalKeys":0,"Block":1,"Trial":68,"Robot":2,"Valence":"Win","Action":"No-Go","Sham":0,"Color":"blue","trial_type":"pit-trial","trial_index":85,"time_elapsed":344114,"internal_node_id":"0.0-74.0","task_version":"test-retest-t3"},{"Rune":"rune_05_gebo","Hex":"#3366ff99","Correct":-1,"Choice":-1,"RT":-1,"Accuracy":1,"Outcome":"+10","Keys":[],"TotalKeys":0,"Block":1,"Trial":69,"Robot":2,"Valence":"Win","Action":"No-Go","Sham":0,"Color":"blue","trial_type":"pit-trial","trial_index":86,"time_elapsed":348119,"internal_node_id":"0.0-75.0","task_version":"test-retest-t3"},{"Rune":"rune_05_tiwaz","Hex":"#ffcc3399","Correct":-1,"Choice":-1,"RT":-1,"Accuracy":1,"Outcome":"-1","Keys":[],"TotalKeys":0,"Block":1,"Trial":70,"Robot":4,"Valence":"Lose","Action":"No-Go","Sham":0,"Color":"yellow","trial_type":"pit-trial","trial_index":87,"time_elapsed":352125,"internal_node_id":"0.0-76.0","task_version":"test-retest-t3"},{"Rune":"rune_05_jeran","Hex":"#3366ff99","Correct":32,"Choice":32,"RT":432.425000006333,"Accuracy":1,"Outcome":"+10","Keys":[1933.0299999564886],"TotalKeys":1,"Block":1,"Trial":71,"Robot":1,"Valence":"Win","Action":"Go","Sham":0,"Color":"blue","trial_type":"pit-trial","trial_index":88,"time_elapsed":355064,"internal_node_id":"0.0-77.0","task_version":"test-retest-t3"},{"Rune":"rune_05_ior","Hex":"#ffcc3399","Correct":32,"Choice":32,"RT":572.7650001645088,"Accuracy":1,"Outcome":"-10","Keys":[2074.305000016466],"TotalKeys":1,"Block":1,"Trial":72,"Robot":3,"Valence":"Lose","Action":"Go","Sham":1,"Color":"yellow","trial_type":"pit-trial","trial_index":89,"time_elapsed":358145,"internal_node_id":"0.0-78.0","task_version":"test-retest-t3"},{"Rune":"rune_05_ior","Hex":"#ffcc3399","Correct":32,"Choice":32,"RT":679.2399999685585,"Accuracy":1,"Outcome":"-1","Keys":[2180.7349999435246],"TotalKeys":1,"Block":1,"Trial":73,"Robot":3,"Valence":"Lose","Action":"Go","Sham":0,"Color":"yellow","trial_type":"pit-trial","trial_index":90,"time_elapsed":361331,"internal_node_id":"0.0-79.0","task_version":"test-retest-t3"},{"Rune":"rune_05_jeran","Hex":"#3366ff99","Correct":32,"Choice":32,"RT":469.6149998344481,"Accuracy":1,"Outcome":"+10","Keys":[1970.5050000920892],"TotalKeys":1,"Block":1,"Trial":74,"Robot":1,"Valence":"Win","Action":"Go","Sham":0,"Color":"blue","trial_type":"pit-trial","trial_index":91,"time_elapsed":364306,"internal_node_id":"0.0-80.0","task_version":"test-retest-t3"},{"Rune":"rune_05_tiwaz","Hex":"#ffcc3399","Correct":-1,"Choice":-1,"RT":-1,"Accuracy":1,"Outcome":"-1","Keys":[],"TotalKeys":0,"Block":1,"Trial":75,"Robot":4,"Valence":"Lose","Action":"No-Go","Sham":0,"Color":"yellow","trial_type":"pit-trial","trial_index":92,"time_elapsed":368313,"internal_node_id":"0.0-81.0","task_version":"test-retest-t3"},{"Rune":"rune_05_gebo","Hex":"#3366ff99","Correct":-1,"Choice":-1,"RT":-1,"Accuracy":1,"Outcome":"+10","Keys":[],"TotalKeys":0,"Block":1,"Trial":76,"Robot":2,"Valence":"Win","Action":"No-Go","Sham":0,"Color":"blue","trial_type":"pit-trial","trial_index":93,"time_elapsed":372318,"internal_node_id":"0.0-82.0","task_version":"test-retest-t3"},{"Rune":"rune_05_tiwaz","Hex":"#ffcc3399","Correct":-1,"Choice":-1,"RT":-1,"Accuracy":1,"Outcome":"-1","Keys":[],"TotalKeys":0,"Block":1,"Trial":77,"Robot":4,"Valence":"Lose","Action":"No-Go","Sham":0,"Color":"yellow","trial_type":"pit-trial","trial_index":94,"time_elapsed":376323,"internal_node_id":"0.0-83.0","task_version":"test-retest-t3"},{"Rune":"rune_05_ior","Hex":"#ffcc3399","Correct":32,"Choice":32,"RT":514.7800000850111,"Accuracy":1,"Outcome":"-1","Keys":[2015.3650001157075],"TotalKeys":1,"Block":1,"Trial":78,"Robot":3,"Valence":"Lose","Action":"Go","Sham":0,"Color":"yellow","trial_type":"pit-trial","trial_index":95,"time_elapsed":379344,"internal_node_id":"0.0-84.0","task_version":"test-retest-t3"},{"Rune":"rune_05_gebo","Hex":"#3366ff99","Correct":-1,"Choice":-1,"RT":-1,"Accuracy":1,"Outcome":"+10","Keys":[],"TotalKeys":0,"Block":1,"Trial":79,"Robot":2,"Valence":"Win","Action":"No-Go","Sham":0,"Color":"blue","trial_type":"pit-trial","trial_index":96,"time_elapsed":383351,"internal_node_id":"0.0-85.0","task_version":"test-retest-t3"},{"Rune":"rune_05_jeran","Hex":"#3366ff99","Correct":32,"Choice":32,"RT":418.6400000471622,"Accuracy":1,"Outcome":"+10","Keys":[1919.1999998874962],"TotalKeys":1,"Block":1,"Trial":80,"Robot":1,"Valence":"Win","Action":"Go","Sham":0,"Color":"blue","trial_type":"pit-trial","trial_index":97,"time_elapsed":386277,"internal_node_id":"0.0-86.0","task_version":"test-retest-t3"},{"Rune":"rune_05_jeran","Hex":"#3366ff99","Correct":32,"Choice":32,"RT":459.3700000550598,"Accuracy":1,"Outcome":"+10","Keys":[1960.770000005141],"TotalKeys":1,"Block":1,"Trial":81,"Robot":1,"Valence":"Win","Action":"Go","Sham":0,"Color":"blue","trial_type":"pit-trial","trial_index":98,"time_elapsed":389243,"internal_node_id":"0.0-87.0","task_version":"test-retest-t3"},{"Rune":"rune_05_ior","Hex":"#ffcc3399","Correct":32,"Choice":32,"RT":666.9149999506772,"Accuracy":1,"Outcome":"-10","Keys":[2167.4299999140203],"TotalKeys":1,"Block":1,"Trial":82,"Robot":3,"Valence":"Lose","Action":"Go","Sham":1,"Color":"yellow","trial_type":"pit-trial","trial_index":99,"time_elapsed":392415,"internal_node_id":"0.0-88.0","task_version":"test-retest-t3"},{"Rune":"rune_05_tiwaz","Hex":"#ffcc3399","Correct":-1,"Choice":-1,"RT":-1,"Accuracy":1,"Outcome":"-10","Keys":[],"TotalKeys":0,"Block":1,"Trial":83,"Robot":4,"Valence":"Lose","Action":"No-Go","Sham":1,"Color":"yellow","trial_type":"pit-trial","trial_index":100,"time_elapsed":396423,"internal_node_id":"0.0-89.0","task_version":"test-retest-t3"},{"Rune":"rune_05_gebo","Hex":"#3366ff99","Correct":-1,"Choice":-1,"RT":-1,"Accuracy":1,"Outcome":"+10","Keys":[],"TotalKeys":0,"Block":1,"Trial":84,"Robot":2,"Valence":"Win","Action":"No-Go","Sham":0,"Color":"blue","trial_type":"pit-trial","trial_index":101,"time_elapsed":400429,"internal_node_id":"0.0-90.0","task_version":"test-retest-t3"},{"Rune":"rune_05_jeran","Hex":"#3366ff99","Correct":32,"Choice":32,"RT":398.63499999046326,"Accuracy":1,"Outcome":"+10","Keys":[1900.19499999471],"TotalKeys":1,"Block":1,"Trial":85,"Robot":1,"Valence":"Win","Action":"Go","Sham":0,"Color":"blue","trial_type":"pit-trial","trial_index":102,"time_elapsed":403334,"internal_node_id":"0.0-91.0","task_version":"test-retest-t3"},{"Rune":"rune_05_gebo","Hex":"#3366ff99","Correct":-1,"Choice":-1,"RT":-1,"Accuracy":1,"Outcome":"+10","Keys":[],"TotalKeys":0,"Block":1,"Trial":86,"Robot":2,"Valence":"Win","Action":"No-Go","Sham":0,"Color":"blue","trial_type":"pit-trial","trial_index":103,"time_elapsed":407343,"internal_node_id":"0.0-92.0","task_version":"test-retest-t3"},{"Rune":"rune_05_ior","Hex":"#ffcc3399","Correct":32,"Choice":32,"RT":398.73499982059,"Accuracy":1,"Outcome":"-1","Keys":[1899.7450000606477],"TotalKeys":1,"Block":1,"Trial":87,"Robot":3,"Valence":"Lose","Action":"Go","Sham":0,"Color":"yellow","trial_type":"pit-trial","trial_index":104,"time_elapsed":410247,"internal_node_id":"0.0-93.0","task_version":"test-retest-t3"},{"Rune":"rune_05_tiwaz","Hex":"#ffcc3399","Correct":-1,"Choice":-1,"RT":-1,"Accuracy":1,"Outcome":"-1","Keys":[],"TotalKeys":0,"Block":1,"Trial":88,"Robot":4,"Valence":"Lose","Action":"No-Go","Sham":0,"Color":"yellow","trial_type":"pit-trial","trial_index":105,"time_elapsed":414254,"internal_node_id":"0.0-94.0","task_version":"test-retest-t3"},{"Rune":"rune_05_jeran","Hex":"#3366ff99","Correct":32,"Choice":32,"RT":370.24999991990626,"Accuracy":1,"Outcome":"+1","Keys":[1871.1200000252575],"TotalKeys":1,"Block":1,"Trial":89,"Robot":1,"Valence":"Win","Action":"Go","Sham":1,"Color":"blue","trial_type":"pit-trial","trial_index":106,"time_elapsed":417131,"internal_node_id":"0.0-95.0","task_version":"test-retest-t3"},{"Rune":"rune_05_tiwaz","Hex":"#ffcc3399","Correct":-1,"Choice":-1,"RT":-1,"Accuracy":1,"Outcome":"-1","Keys":[],"TotalKeys":0,"Block":1,"Trial":90,"Robot":4,"Valence":"Lose","Action":"No-Go","Sham":0,"Color":"yellow","trial_type":"pit-trial","trial_index":107,"time_elapsed":421138,"internal_node_id":"0.0-96.0","task_version":"test-retest-t3"},{"Rune":"rune_05_ior","Hex":"#ffcc3399","Correct":32,"Choice":32,"RT":606.6600000485778,"Accuracy":1,"Outcome":"-1","Keys":[2107.175000011921],"TotalKeys":1,"Block":1,"Trial":91,"Robot":3,"Valence":"Lose","Action":"Go","Sham":0,"Color":"yellow","trial_type":"pit-trial","trial_index":108,"time_elapsed":424250,"internal_node_id":"0.0-97.0","task_version":"test-retest-t3"},{"Rune":"rune_05_gebo","Hex":"#3366ff99","Correct":-1,"Choice":-1,"RT":-1,"Accuracy":1,"Outcome":"+1","Keys":[],"TotalKeys":0,"Block":1,"Trial":92,"Robot":2,"Valence":"Win","Action":"No-Go","Sham":1,"Color":"blue","trial_type":"pit-trial","trial_index":109,"time_elapsed":428257,"internal_node_id":"0.0-98.0","task_version":"test-retest-t3"},{"Rune":"rune_05_jeran","Hex":"#3366ff99","Correct":32,"Choice":32,"RT":612.4950000084937,"Accuracy":1,"Outcome":"+10","Keys":[2113.314999965951],"TotalKeys":1,"Block":1,"Trial":93,"Robot":1,"Valence":"Win","Action":"Go","Sham":0,"Color":"blue","trial_type":"pit-trial","trial_index":110,"time_elapsed":431376,"internal_node_id":"0.0-99.0","task_version":"test-retest-t3"},{"Rune":"rune_05_tiwaz","Hex":"#ffcc3399","Correct":-1,"Choice":-1,"RT":-1,"Accuracy":1,"Outcome":"-1","Keys":[],"TotalKeys":0,"Block":1,"Trial":94,"Robot":4,"Valence":"Lose","Action":"No-Go","Sham":0,"Color":"yellow","trial_type":"pit-trial","trial_index":111,"time_elapsed":435382,"internal_node_id":"0.0-100.0","task_version":"test-retest-t3"},{"Rune":"rune_05_gebo","Hex":"#3366ff99","Correct":-1,"Choice":-1,"RT":-1,"Accuracy":1,"Outcome":"+10","Keys":[],"TotalKeys":0,"Block":1,"Trial":95,"Robot":2,"Valence":"Win","Action":"No-Go","Sham":0,"Color":"blue","trial_type":"pit-trial","trial_index":112,"time_elapsed":439388,"internal_node_id":"0.0-101.0","task_version":"test-retest-t3"},{"Rune":"rune_05_ior","Hex":"#ffcc3399","Correct":32,"Choice":32,"RT":696.6199998278171,"Accuracy":1,"Outcome":"-1","Keys":[2196.860000025481],"TotalKeys":1,"Block":1,"Trial":96,"Robot":3,"Valence":"Lose","Action":"Go","Sham":0,"Color":"yellow","trial_type":"pit-trial","trial_index":113,"time_elapsed":442589,"internal_node_id":"0.0-102.0","task_version":"test-retest-t3"},{"Rune":"rune_05_jeran","Hex":"#3366ff99","Correct":32,"Choice":32,"RT":591.2999999709427,"Accuracy":1,"Outcome":"+10","Keys":[2091.5749999694526],"TotalKeys":1,"Block":1,"Trial":97,"Robot":1,"Valence":"Win","Action":"Go","Sham":0,"Color":"blue","trial_type":"pit-trial","trial_index":114,"time_elapsed":445685,"internal_node_id":"0.0-103.0","task_version":"test-retest-t3"},{"Rune":"rune_05_ior","Hex":"#ffcc3399","Correct":32,"Choice":32,"RT":626.8199998885393,"Accuracy":1,"Outcome":"-1","Keys":[2128.8050001021475],"TotalKeys":1,"Block":1,"Trial":98,"Robot":3,"Valence":"Lose","Action":"Go","Sham":0,"Color":"yellow","trial_type":"pit-trial","trial_index":115,"time_elapsed":448819,"internal_node_id":"0.0-104.0","task_version":"test-retest-t3"},{"Rune":"rune_05_tiwaz","Hex":"#ffcc3399","Correct":-1,"Choice":-1,"RT":-1,"Accuracy":1,"Outcome":"-1","Keys":[],"TotalKeys":0,"Block":1,"Trial":99,"Robot":4,"Valence":"Lose","Action":"No-Go","Sham":0,"Color":"yellow","trial_type":"pit-trial","trial_index":116,"time_elapsed":452825,"internal_node_id":"0.0-105.0","task_version":"test-retest-t3"},{"Rune":"rune_05_gebo","Hex":"#3366ff99","Correct":-1,"Choice":-1,"RT":-1,"Accuracy":1,"Outcome":"+10","Keys":[],"TotalKeys":0,"Block":1,"Trial":100,"Robot":2,"Valence":"Win","Action":"No-Go","Sham":0,"Color":"blue","trial_type":"pit-trial","trial_index":117,"time_elapsed":456830,"internal_node_id":"0.0-106.0","task_version":"test-retest-t3"},{"Rune":"rune_05_ior","Hex":"#ffcc3399","Correct":32,"Choice":32,"RT":535.1950000040233,"Accuracy":1,"Outcome":"-1","Keys":[2036.5699999965727],"TotalKeys":1,"Block":1,"Trial":101,"Robot":3,"Valence":"Lose","Action":"Go","Sham":0,"Color":"yellow","trial_type":"pit-trial","trial_index":118,"time_elapsed":459873,"internal_node_id":"0.0-107.0","task_version":"test-retest-t3"},{"Rune":"rune_05_jeran","Hex":"#3366ff99","Correct":32,"Choice":32,"RT":539.6199999377131,"Accuracy":1,"Outcome":"+10","Keys":[2041.5300000458956],"TotalKeys":1,"Block":1,"Trial":102,"Robot":1,"Valence":"Win","Action":"Go","Sham":0,"Color":"blue","trial_type":"pit-trial","trial_index":119,"time_elapsed":462922,"internal_node_id":"0.0-108.0","task_version":"test-retest-t3"},{"Rune":"rune_05_tiwaz","Hex":"#ffcc3399","Correct":-1,"Choice":-1,"RT":-1,"Accuracy":1,"Outcome":"-1","Keys":[],"TotalKeys":0,"Block":1,"Trial":103,"Robot":4,"Valence":"Lose","Action":"No-Go","Sham":0,"Color":"yellow","trial_type":"pit-trial","trial_index":120,"time_elapsed":466926,"internal_node_id":"0.0-109.0","task_version":"test-retest-t3"},{"Rune":"rune_05_gebo","Hex":"#3366ff99","Correct":-1,"Choice":-1,"RT":-1,"Accuracy":1,"Outcome":"+10","Keys":[],"TotalKeys":0,"Block":1,"Trial":104,"Robot":2,"Valence":"Win","Action":"No-Go","Sham":0,"Color":"blue","trial_type":"pit-trial","trial_index":121,"time_elapsed":470931,"internal_node_id":"0.0-110.0","task_version":"test-retest-t3"},{"Rune":"rune_05_gebo","Hex":"#3366ff99","Correct":-1,"Choice":-1,"RT":-1,"Accuracy":1,"Outcome":"+10","Keys":[],"TotalKeys":0,"Block":1,"Trial":105,"Robot":2,"Valence":"Win","Action":"No-Go","Sham":0,"Color":"blue","trial_type":"pit-trial","trial_index":122,"time_elapsed":474938,"internal_node_id":"0.0-111.0","task_version":"test-retest-t3"},{"Rune":"rune_05_tiwaz","Hex":"#ffcc3399","Correct":-1,"Choice":-1,"RT":-1,"Accuracy":1,"Outcome":"-1","Keys":[],"TotalKeys":0,"Block":1,"Trial":106,"Robot":4,"Valence":"Lose","Action":"No-Go","Sham":0,"Color":"yellow","trial_type":"pit-trial","trial_index":123,"time_elapsed":478944,"internal_node_id":"0.0-112.0","task_version":"test-retest-t3"},{"Rune":"rune_05_jeran","Hex":"#3366ff99","Correct":32,"Choice":32,"RT":479.4549997895956,"Accuracy":1,"Outcome":"+10","Keys":[1979.9500000663102],"TotalKeys":1,"Block":1,"Trial":107,"Robot":1,"Valence":"Win","Action":"Go","Sham":0,"Color":"blue","trial_type":"pit-trial","trial_index":124,"time_elapsed":481928,"internal_node_id":"0.0-113.0","task_version":"test-retest-t3"},{"Rune":"rune_05_ior","Hex":"#ffcc3399","Correct":32,"Choice":32,"RT":581.1400001402944,"Accuracy":1,"Outcome":"-10","Keys":[2081.6450000274926],"TotalKeys":1,"Block":1,"Trial":108,"Robot":3,"Valence":"Lose","Action":"Go","Sham":1,"Color":"yellow","trial_type":"pit-trial","trial_index":125,"time_elapsed":485015,"internal_node_id":"0.0-114.0","task_version":"test-retest-t3"},{"Rune":"rune_05_jeran","Hex":"#3366ff99","Correct":32,"Choice":32,"RT":433.07500006631017,"Accuracy":1,"Outcome":"+10","Keys":[1933.940000133589],"TotalKeys":1,"Block":1,"Trial":109,"Robot":1,"Valence":"Win","Action":"Go","Sham":0,"Color":"blue","trial_type":"pit-trial","trial_index":126,"time_elapsed":487955,"internal_node_id":"0.0-115.0","task_version":"test-retest-t3"},{"Rune":"rune_05_ior","Hex":"#ffcc3399","Correct":32,"Choice":32,"RT":471.85000008903444,"Accuracy":1,"Outcome":"-1","Keys":[1972.2199998795986],"TotalKeys":1,"Block":1,"Trial":110,"Robot":3,"Valence":"Lose","Action":"Go","Sham":0,"Color":"yellow","trial_type":"pit-trial","trial_index":127,"time_elapsed":490931,"internal_node_id":"0.0-116.0","task_version":"test-retest-t3"},{"Rune":"rune_05_tiwaz","Hex":"#ffcc3399","Correct":-1,"Choice":-1,"RT":-1,"Accuracy":1,"Outcome":"-1","Keys":[],"TotalKeys":0,"Block":1,"Trial":111,"Robot":4,"Valence":"Lose","Action":"No-Go","Sham":0,"Color":"yellow","trial_type":"pit-trial","trial_index":128,"time_elapsed":494935,"internal_node_id":"0.0-117.0","task_version":"test-retest-t3"},{"Rune":"rune_05_gebo","Hex":"#3366ff99","Correct":-1,"Choice":-1,"RT":-1,"Accuracy":1,"Outcome":"+10","Keys":[],"TotalKeys":0,"Block":1,"Trial":112,"Robot":2,"Valence":"Win","Action":"No-Go","Sham":0,"Color":"blue","trial_type":"pit-trial","trial_index":129,"time_elapsed":498941,"internal_node_id":"0.0-118.0","task_version":"test-retest-t3"},{"Rune":"rune_05_gebo","Hex":"#3366ff99","Correct":-1,"Choice":-1,"RT":-1,"Accuracy":1,"Outcome":"+10","Keys":[],"TotalKeys":0,"Block":1,"Trial":113,"Robot":2,"Valence":"Win","Action":"No-Go","Sham":0,"Color":"blue","trial_type":"pit-trial","trial_index":130,"time_elapsed":502948,"internal_node_id":"0.0-119.0","task_version":"test-retest-t3"},{"Rune":"rune_05_jeran","Hex":"#3366ff99","Correct":32,"Choice":32,"RT":461.3499999977648,"Accuracy":1,"Outcome":"+10","Keys":[1962.4050001148134],"TotalKeys":1,"Block":1,"Trial":114,"Robot":1,"Valence":"Win","Action":"Go","Sham":0,"Color":"blue","trial_type":"pit-trial","trial_index":131,"time_elapsed":505916,"internal_node_id":"0.0-120.0","task_version":"test-retest-t3"},{"Rune":"rune_05_tiwaz","Hex":"#ffcc3399","Correct":-1,"Choice":-1,"RT":-1,"Accuracy":1,"Outcome":"-1","Keys":[],"TotalKeys":0,"Block":1,"Trial":115,"Robot":4,"Valence":"Lose","Action":"No-Go","Sham":0,"Color":"yellow","trial_type":"pit-trial","trial_index":132,"time_elapsed":509919,"internal_node_id":"0.0-121.0","task_version":"test-retest-t3"},{"Rune":"rune_05_ior","Hex":"#ffcc3399","Correct":32,"Choice":32,"RT":495.2850001864135,"Accuracy":1,"Outcome":"-1","Keys":[1996.1600000970066],"TotalKeys":1,"Block":1,"Trial":116,"Robot":3,"Valence":"Lose","Action":"Go","Sham":0,"Color":"yellow","trial_type":"pit-trial","trial_index":133,"time_elapsed":512920,"internal_node_id":"0.0-122.0","task_version":"test-retest-t3"},{"Rune":"rune_05_ior","Hex":"#ffcc3399","Correct":32,"Choice":32,"RT":1240.8499999437481,"Accuracy":1,"Outcome":"-1","Keys":[2742.6050000358373],"TotalKeys":1,"Block":1,"Trial":117,"Robot":3,"Valence":"Lose","Action":"Go","Sham":0,"Color":"yellow","trial_type":"pit-trial","trial_index":134,"time_elapsed":516668,"internal_node_id":"0.0-123.0","task_version":"test-retest-t3"},{"Rune":"rune_05_jeran","Hex":"#3366ff99","Correct":32,"Choice":32,"RT":432.66499997116625,"Accuracy":1,"Outcome":"+1","Keys":[1934.9499999079853],"TotalKeys":1,"Block":1,"Trial":118,"Robot":1,"Valence":"Win","Action":"Go","Sham":1,"Color":"blue","trial_type":"pit-trial","trial_index":135,"time_elapsed":519608,"internal_node_id":"0.0-124.0","task_version":"test-retest-t3"},{"Rune":"rune_05_tiwaz","Hex":"#ffcc3399","Correct":-1,"Choice":-1,"RT":-1,"Accuracy":1,"Outcome":"-10","Keys":[],"TotalKeys":0,"Block":1,"Trial":119,"Robot":4,"Valence":"Lose","Action":"No-Go","Sham":1,"Color":"yellow","trial_type":"pit-trial","trial_index":136,"time_elapsed":523615,"internal_node_id":"0.0-125.0","task_version":"test-retest-t3"},{"Rune":"rune_05_gebo","Hex":"#3366ff99","Correct":-1,"Choice":-1,"RT":-1,"Accuracy":1,"Outcome":"+1","Keys":[],"TotalKeys":0,"Block":1,"Trial":120,"Robot":2,"Valence":"Win","Action":"No-Go","Sham":1,"Color":"blue","trial_type":"pit-trial","trial_index":137,"time_elapsed":527622,"internal_node_id":"0.0-126.0","task_version":"test-retest-t3"},{"view_history":"[{\"page_index\":0,\"viewing_time\":2174.515000078827},{\"page_index\":1,\"viewing_time\":692.829999839887},{\"page_index\":2,\"viewing_time\":785.1500001270324}]","rt":3652.8849999886006,"trial_type":"pit-instructions","trial_index":138,"time_elapsed":531277,"internal_node_id":"0.0-127.0","task_version":"test-retest-t3"},{"Rune":"rune_06_cweord","Hex":"#3366ff99","Correct":-1,"Choice":32,"RT":556.184999877587,"Accuracy":0,"Outcome":"+1","Keys":[2057.370000053197],"TotalKeys":1,"Block":2,"Trial":121,"Robot":2,"Valence":"Win","Action":"No-Go","Sham":0,"Color":"blue","trial_type":"pit-trial","trial_index":139,"time_elapsed":534339,"internal_node_id":"0.0-128.0","task_version":"test-retest-t3"},{"Rune":"rune_06_ansuz","Hex":"#3366ff99","Correct":32,"Choice":32,"RT":610.4699999559671,"Accuracy":1,"Outcome":"+10","Keys":[2111.185000045225],"TotalKeys":1,"Block":2,"Trial":122,"Robot":1,"Valence":"Win","Action":"Go","Sham":0,"Color":"blue","trial_type":"pit-trial","trial_index":140,"time_elapsed":537456,"internal_node_id":"0.0-129.0","task_version":"test-retest-t3"},{"Rune":"rune_06_berkanan","Hex":"#ffcc3399","Correct":32,"Choice":32,"RT":716.6349999606609,"Accuracy":1,"Outcome":"-1","Keys":[2217.634999891743],"TotalKeys":1,"Block":2,"Trial":123,"Robot":3,"Valence":"Lose","Action":"Go","Sham":0,"Color":"yellow","trial_type":"pit-trial","trial_index":141,"time_elapsed":540679,"internal_node_id":"0.0-130.0","task_version":"test-retest-t3"},{"Rune":"rune_06_ehwaz","Hex":"#ffcc3399","Correct":-1,"Choice":-1,"RT":-1,"Accuracy":1,"Outcome":"-1","Keys":[],"TotalKeys":0,"Block":2,"Trial":124,"Robot":4,"Valence":"Lose","Action":"No-Go","Sham":0,"Color":"yellow","trial_type":"pit-trial","trial_index":142,"time_elapsed":544686,"internal_node_id":"0.0-131.0","task_version":"test-retest-t3"},{"Rune":"rune_06_cweord","Hex":"#3366ff99","Correct":-1,"Choice":32,"RT":1131.9099999964237,"Accuracy":0,"Outcome":"+1","Keys":[2632.7949999831617],"TotalKeys":1,"Block":2,"Trial":125,"Robot":2,"Valence":"Win","Action":"No-Go","Sham":0,"Color":"blue","trial_type":"pit-trial","trial_index":143,"time_elapsed":548325,"internal_node_id":"0.0-132.0","task_version":"test-retest-t3"},{"Rune":"rune_06_berkanan","Hex":"#ffcc3399","Correct":32,"Choice":32,"RT":875.6699999794364,"Accuracy":1,"Outcome":"-1","Keys":[2376.3449999969453],"TotalKeys":1,"Block":2,"Trial":126,"Robot":3,"Valence":"Lose","Action":"Go","Sham":0,"Color":"yellow","trial_type":"pit-trial","trial_index":144,"time_elapsed":551708,"internal_node_id":"0.0-133.0","task_version":"test-retest-t3"},{"Rune":"rune_06_ansuz","Hex":"#3366ff99","Correct":32,"Choice":32,"RT":612.2100001666695,"Accuracy":1,"Outcome":"+10","Keys":[2113.3550000377],"TotalKeys":1,"Block":2,"Trial":127,"Robot":1,"Valence":"Win","Action":"Go","Sham":0,"Color":"blue","trial_type":"pit-trial","trial_index":145,"time_elapsed":554826,"internal_node_id":"0.0-134.0","task_version":"test-retest-t3"},{"Rune":"rune_06_ehwaz","Hex":"#ffcc3399","Correct":-1,"Choice":-1,"RT":-1,"Accuracy":1,"Outcome":"-1","Keys":[],"TotalKeys":0,"Block":2,"Trial":128,"Robot":4,"Valence":"Lose","Action":"No-Go","Sham":0,"Color":"yellow","trial_type":"pit-trial","trial_index":146,"time_elapsed":558832,"internal_node_id":"0.0-135.0","task_version":"test-retest-t3"},{"Rune":"rune_06_ansuz","Hex":"#3366ff99","Correct":32,"Choice":32,"RT":555.614999961108,"Accuracy":1,"Outcome":"+1","Keys":[2056.6950000356883],"TotalKeys":1,"Block":2,"Trial":129,"Robot":1,"Valence":"Win","Action":"Go","Sham":1,"Color":"blue","trial_type":"pit-trial","trial_index":147,"time_elapsed":561893,"internal_node_id":"0.0-136.0","task_version":"test-retest-t3"},{"Rune":"rune_06_cweord","Hex":"#3366ff99","Correct":-1,"Choice":-1,"RT":-1,"Accuracy":1,"Outcome":"+1","Keys":[],"TotalKeys":0,"Block":2,"Trial":130,"Robot":2,"Valence":"Win","Action":"No-Go","Sham":1,"Color":"blue","trial_type":"pit-trial","trial_index":148,"time_elapsed":565900,"internal_node_id":"0.0-137.0","task_version":"test-retest-t3"},{"Rune":"rune_06_berkanan","Hex":"#ffcc3399","Correct":32,"Choice":32,"RT":452.69499998539686,"Accuracy":1,"Outcome":"-10","Keys":[1953.7749998271465],"TotalKeys":1,"Block":2,"Trial":131,"Robot":3,"Valence":"Lose","Action":"Go","Sham":1,"Color":"yellow","trial_type":"pit-trial","trial_index":149,"time_elapsed":568861,"internal_node_id":"0.0-138.0","task_version":"test-retest-t3"},{"Rune":"rune_06_ehwaz","Hex":"#ffcc3399","Correct":-1,"Choice":-1,"RT":-1,"Accuracy":1,"Outcome":"-10","Keys":[],"TotalKeys":0,"Block":2,"Trial":132,"Robot":4,"Valence":"Lose","Action":"No-Go","Sham":1,"Color":"yellow","trial_type":"pit-trial","trial_index":150,"time_elapsed":572867,"internal_node_id":"0.0-139.0","task_version":"test-retest-t3"},{"Rune":"rune_06_cweord","Hex":"#3366ff99","Correct":-1,"Choice":-1,"RT":-1,"Accuracy":1,"Outcome":"+10","Keys":[],"TotalKeys":0,"Block":2,"Trial":133,"Robot":2,"Valence":"Win","Action":"No-Go","Sham":0,"Color":"blue","trial_type":"pit-trial","trial_index":151,"time_elapsed":576875,"internal_node_id":"0.0-140.0","task_version":"test-retest-t3"},{"Rune":"rune_06_ehwaz","Hex":"#ffcc3399","Correct":-1,"Choice":-1,"RT":-1,"Accuracy":1,"Outcome":"-1","Keys":[],"TotalKeys":0,"Block":2,"Trial":134,"Robot":4,"Valence":"Lose","Action":"No-Go","Sham":0,"Color":"yellow","trial_type":"pit-trial","trial_index":152,"time_elapsed":580881,"internal_node_id":"0.0-141.0","task_version":"test-retest-t3"},{"Rune":"rune_06_berkanan","Hex":"#ffcc3399","Correct":32,"Choice":32,"RT":375.69999997504056,"Accuracy":1,"Outcome":"-1","Keys":[1876.9100001081824],"TotalKeys":1,"Block":2,"Trial":135,"Robot":3,"Valence":"Lose","Action":"Go","Sham":0,"Color":"yellow","trial_type":"pit-trial","trial_index":153,"time_elapsed":583762,"internal_node_id":"0.0-142.0","task_version":"test-retest-t3"},{"Rune":"rune_06_ansuz","Hex":"#3366ff99","Correct":32,"Choice":32,"RT":443.2350001297891,"Accuracy":1,"Outcome":"+10","Keys":[1944.069999968633],"TotalKeys":1,"Block":2,"Trial":136,"Robot":1,"Valence":"Win","Action":"Go","Sham":0,"Color":"blue","trial_type":"pit-trial","trial_index":154,"time_elapsed":586708,"internal_node_id":"0.0-143.0","task_version":"test-retest-t3"},{"Rune":"rune_06_ehwaz","Hex":"#ffcc3399","Correct":-1,"Choice":-1,"RT":-1,"Accuracy":1,"Outcome":"-1","Keys":[],"TotalKeys":0,"Block":2,"Trial":137,"Robot":4,"Valence":"Lose","Action":"No-Go","Sham":0,"Color":"yellow","trial_type":"pit-trial","trial_index":155,"time_elapsed":590713,"internal_node_id":"0.0-144.0","task_version":"test-retest-t3"},{"Rune":"rune_06_ansuz","Hex":"#3366ff99","Correct":32,"Choice":32,"RT":490.25000003166497,"Accuracy":1,"Outcome":"+10","Keys":[1991.3500000257045],"TotalKeys":1,"Block":2,"Trial":138,"Robot":1,"Valence":"Win","Action":"Go","Sham":0,"Color":"blue","trial_type":"pit-trial","trial_index":156,"time_elapsed":593710,"internal_node_id":"0.0-145.0","task_version":"test-retest-t3"},{"Rune":"rune_06_cweord","Hex":"#3366ff99","Correct":-1,"Choice":-1,"RT":-1,"Accuracy":1,"Outcome":"+10","Keys":[],"TotalKeys":0,"Block":2,"Trial":139,"Robot":2,"Valence":"Win","Action":"No-Go","Sham":0,"Color":"blue","trial_type":"pit-trial","trial_index":157,"time_elapsed":597714,"internal_node_id":"0.0-146.0","task_version":"test-retest-t3"},{"Rune":"rune_06_berkanan","Hex":"#ffcc3399","Correct":32,"Choice":32,"RT":392.41499989293516,"Accuracy":1,"Outcome":"-1","Keys":[1893.309999955818],"TotalKeys":1,"Block":2,"Trial":140,"Robot":3,"Valence":"Lose","Action":"Go","Sham":0,"Color":"yellow","trial_type":"pit-trial","trial_index":158,"time_elapsed":600610,"internal_node_id":"0.0-147.0","task_version":"test-retest-t3"},{"Rune":"rune_06_berkanan","Hex":"#ffcc3399","Correct":32,"Choice":32,"RT":436.9200000073761,"Accuracy":1,"Outcome":"-1","Keys":[1937.5650000292808],"TotalKeys":1,"Block":2,"Trial":141,"Robot":3,"Valence":"Lose","Action":"Go","Sham":0,"Color":"yellow","trial_type":"pit-trial","trial_index":159,"time_elapsed":603553,"internal_node_id":"0.0-148.0","task_version":"test-retest-t3"},{"Rune":"rune_06_ansuz","Hex":"#3366ff99","Correct":32,"Choice":32,"RT":414.7400001529604,"Accuracy":1,"Outcome":"+1","Keys":[1915.745000122115],"TotalKeys":1,"Block":2,"Trial":142,"Robot":1,"Valence":"Win","Action":"Go","Sham":1,"Color":"blue","trial_type":"pit-trial","trial_index":160,"time_elapsed":606474,"internal_node_id":"0.0-149.0","task_version":"test-retest-t3"},{"Rune":"rune_06_ehwaz","Hex":"#ffcc3399","Correct":-1,"Choice":-1,"RT":-1,"Accuracy":1,"Outcome":"-1","Keys":[],"TotalKeys":0,"Block":2,"Trial":143,"Robot":4,"Valence":"Lose","Action":"No-Go","Sham":0,"Color":"yellow","trial_type":"pit-trial","trial_index":161,"time_elapsed":610481,"internal_node_id":"0.0-150.0","task_version":"test-retest-t3"},{"Rune":"rune_06_cweord","Hex":"#3366ff99","Correct":-1,"Choice":-1,"RT":-1,"Accuracy":1,"Outcome":"+10","Keys":[],"TotalKeys":0,"Block":2,"Trial":144,"Robot":2,"Valence":"Win","Action":"No-Go","Sham":0,"Color":"blue","trial_type":"pit-trial","trial_index":162,"time_elapsed":614485,"internal_node_id":"0.0-151.0","task_version":"test-retest-t3"},{"Rune":"rune_06_cweord","Hex":"#3366ff99","Correct":-1,"Choice":-1,"RT":-1,"Accuracy":1,"Outcome":"+10","Keys":[],"TotalKeys":0,"Block":2,"Trial":145,"Robot":2,"Valence":"Win","Action":"No-Go","Sham":0,"Color":"blue","trial_type":"pit-trial","trial_index":163,"time_elapsed":618492,"internal_node_id":"0.0-152.0","task_version":"test-retest-t3"},{"Rune":"rune_06_ansuz","Hex":"#3366ff99","Correct":32,"Choice":32,"RT":463.3199998643249,"Accuracy":1,"Outcome":"+10","Keys":[1964.7949999198318],"TotalKeys":1,"Block":2,"Trial":146,"Robot":1,"Valence":"Win","Action":"Go","Sham":0,"Color":"blue","trial_type":"pit-trial","trial_index":164,"time_elapsed":621462,"internal_node_id":"0.0-153.0","task_version":"test-retest-t3"},{"Rune":"rune_06_berkanan","Hex":"#ffcc3399","Correct":32,"Choice":32,"RT":373.2000000309199,"Accuracy":1,"Outcome":"-1","Keys":[1874.705000082031],"TotalKeys":1,"Block":2,"Trial":147,"Robot":3,"Valence":"Lose","Action":"Go","Sham":0,"Color":"yellow","trial_type":"pit-trial","trial_index":165,"time_elapsed":624342,"internal_node_id":"0.0-154.0","task_version":"test-retest-t3"},{"Rune":"rune_06_ehwaz","Hex":"#ffcc3399","Correct":-1,"Choice":-1,"RT":-1,"Accuracy":1,"Outcome":"-10","Keys":[],"TotalKeys":0,"Block":2,"Trial":148,"Robot":4,"Valence":"Lose","Action":"No-Go","Sham":1,"Color":"yellow","trial_type":"pit-trial","trial_index":166,"time_elapsed":628350,"internal_node_id":"0.0-155.0","task_version":"test-retest-t3"},{"Rune":"rune_06_ehwaz","Hex":"#ffcc3399","Correct":-1,"Choice":-1,"RT":-1,"Accuracy":1,"Outcome":"-1","Keys":[],"TotalKeys":0,"Block":2,"Trial":149,"Robot":4,"Valence":"Lose","Action":"No-Go","Sham":0,"Color":"yellow","trial_type":"pit-trial","trial_index":167,"time_elapsed":632359,"internal_node_id":"0.0-156.0","task_version":"test-retest-t3"},{"Rune":"rune_06_ansuz","Hex":"#3366ff99","Correct":32,"Choice":32,"RT":473.33499998785555,"Accuracy":1,"Outcome":"+10","Keys":[1973.5499999951571],"TotalKeys":1,"Block":2,"Trial":150,"Robot":1,"Valence":"Win","Action":"Go","Sham":0,"Color":"blue","trial_type":"pit-trial","trial_index":168,"time_elapsed":635338,"internal_node_id":"0.0-157.0","task_version":"test-retest-t3"},{"Rune":"rune_06_berkanan","Hex":"#ffcc3399","Correct":32,"Choice":32,"RT":377.2199999075383,"Accuracy":1,"Outcome":"-10","Keys":[1879.094999982044],"TotalKeys":1,"Block":2,"Trial":151,"Robot":3,"Valence":"Lose","Action":"Go","Sham":1,"Color":"yellow","trial_type":"pit-trial","trial_index":169,"time_elapsed":638223,"internal_node_id":"0.0-158.0","task_version":"test-retest-t3"},{"Rune":"rune_06_cweord","Hex":"#3366ff99","Correct":-1,"Choice":-1,"RT":-1,"Accuracy":1,"Outcome":"+1","Keys":[],"TotalKeys":0,"Block":2,"Trial":152,"Robot":2,"Valence":"Win","Action":"No-Go","Sham":1,"Color":"blue","trial_type":"pit-trial","trial_index":170,"time_elapsed":642229,"internal_node_id":"0.0-159.0","task_version":"test-retest-t3"},{"Rune":"rune_06_ehwaz","Hex":"#ffcc3399","Correct":-1,"Choice":-1,"RT":-1,"Accuracy":1,"Outcome":"-1","Keys":[],"TotalKeys":0,"Block":2,"Trial":153,"Robot":4,"Valence":"Lose","Action":"No-Go","Sham":0,"Color":"yellow","trial_type":"pit-trial","trial_index":171,"time_elapsed":646233,"internal_node_id":"0.0-160.0","task_version":"test-retest-t3"},{"Rune":"rune_06_ansuz","Hex":"#3366ff99","Correct":32,"Choice":32,"RT":494.07500005327165,"Accuracy":1,"Outcome":"+10","Keys":[1995.2849999535829],"TotalKeys":1,"Block":2,"Trial":154,"Robot":1,"Valence":"Win","Action":"Go","Sham":0,"Color":"blue","trial_type":"pit-trial","trial_index":172,"time_elapsed":649234,"internal_node_id":"0.0-161.0","task_version":"test-retest-t3"},{"Rune":"rune_06_berkanan","Hex":"#ffcc3399","Correct":32,"Choice":32,"RT":787.3599999584258,"Accuracy":1,"Outcome":"-1","Keys":[2288.2399999070913],"TotalKeys":1,"Block":2,"Trial":155,"Robot":3,"Valence":"Lose","Action":"Go","Sham":0,"Color":"yellow","trial_type":"pit-trial","trial_index":173,"time_elapsed":652524,"internal_node_id":"0.0-162.0","task_version":"test-retest-t3"},{"Rune":"rune_06_cweord","Hex":"#3366ff99","Correct":-1,"Choice":-1,"RT":-1,"Accuracy":1,"Outcome":"+10","Keys":[],"TotalKeys":0,"Block":2,"Trial":156,"Robot":2,"Valence":"Win","Action":"No-Go","Sham":0,"Color":"blue","trial_type":"pit-trial","trial_index":174,"time_elapsed":656529,"internal_node_id":"0.0-163.0","task_version":"test-retest-t3"},{"Rune":"rune_06_cweord","Hex":"#3366ff99","Correct":-1,"Choice":-1,"RT":-1,"Accuracy":1,"Outcome":"+10","Keys":[],"TotalKeys":0,"Block":2,"Trial":157,"Robot":2,"Valence":"Win","Action":"No-Go","Sham":0,"Color":"blue","trial_type":"pit-trial","trial_index":175,"time_elapsed":660533,"internal_node_id":"0.0-164.0","task_version":"test-retest-t3"},{"Rune":"rune_06_ehwaz","Hex":"#ffcc3399","Correct":-1,"Choice":-1,"RT":-1,"Accuracy":1,"Outcome":"-1","Keys":[],"TotalKeys":0,"Block":2,"Trial":158,"Robot":4,"Valence":"Lose","Action":"No-Go","Sham":0,"Color":"yellow","trial_type":"pit-trial","trial_index":176,"time_elapsed":664537,"internal_node_id":"0.0-165.0","task_version":"test-retest-t3"},{"Rune":"rune_06_berkanan","Hex":"#ffcc3399","Correct":32,"Choice":32,"RT":780.144999967888,"Accuracy":1,"Outcome":"-1","Keys":[2280.9500000439584],"TotalKeys":1,"Block":2,"Trial":159,"Robot":3,"Valence":"Lose","Action":"Go","Sham":0,"Color":"yellow","trial_type":"pit-trial","trial_index":177,"time_elapsed":667824,"internal_node_id":"0.0-166.0","task_version":"test-retest-t3"},{"Rune":"rune_06_ansuz","Hex":"#3366ff99","Correct":32,"Choice":32,"RT":452.84499996341765,"Accuracy":1,"Outcome":"+10","Keys":[1954.714999999851],"TotalKeys":1,"Block":2,"Trial":160,"Robot":1,"Valence":"Win","Action":"Go","Sham":0,"Color":"blue","trial_type":"pit-trial","trial_index":178,"time_elapsed":670784,"internal_node_id":"0.0-167.0","task_version":"test-retest-t3"},{"Rune":"rune_06_cweord","Hex":"#3366ff99","Correct":-1,"Choice":-1,"RT":-1,"Accuracy":1,"Outcome":"+10","Keys":[],"TotalKeys":0,"Block":2,"Trial":161,"Robot":2,"Valence":"Win","Action":"No-Go","Sham":0,"Color":"blue","trial_type":"pit-trial","trial_index":179,"time_elapsed":674788,"internal_node_id":"0.0-168.0","task_version":"test-retest-t3"},{"Rune":"rune_06_ehwaz","Hex":"#ffcc3399","Correct":-1,"Choice":-1,"RT":-1,"Accuracy":1,"Outcome":"-1","Keys":[],"TotalKeys":0,"Block":2,"Trial":162,"Robot":4,"Valence":"Lose","Action":"No-Go","Sham":0,"Color":"yellow","trial_type":"pit-trial","trial_index":180,"time_elapsed":678792,"internal_node_id":"0.0-169.0","task_version":"test-retest-t3"},{"Rune":"rune_06_berkanan","Hex":"#ffcc3399","Correct":32,"Choice":32,"RT":377.1299999207258,"Accuracy":1,"Outcome":"-1","Keys":[1877.7449999470264],"TotalKeys":1,"Block":2,"Trial":163,"Robot":3,"Valence":"Lose","Action":"Go","Sham":0,"Color":"yellow","trial_type":"pit-trial","trial_index":181,"time_elapsed":681674,"internal_node_id":"0.0-170.0","task_version":"test-retest-t3"},{"Rune":"rune_06_ansuz","Hex":"#3366ff99","Correct":32,"Choice":32,"RT":464.66999989934266,"Accuracy":1,"Outcome":"+10","Keys":[1964.864999987185],"TotalKeys":1,"Block":2,"Trial":164,"Robot":1,"Valence":"Win","Action":"Go","Sham":0,"Color":"blue","trial_type":"pit-trial","trial_index":182,"time_elapsed":684644,"internal_node_id":"0.0-171.0","task_version":"test-retest-t3"},{"Rune":"rune_06_ansuz","Hex":"#3366ff99","Correct":32,"Choice":32,"RT":537.3849999159575,"Accuracy":1,"Outcome":"+10","Keys":[2038.5100001003593],"TotalKeys":1,"Block":2,"Trial":165,"Robot":1,"Valence":"Win","Action":"Go","Sham":0,"Color":"blue","trial_type":"pit-trial","trial_index":183,"time_elapsed":687688,"internal_node_id":"0.0-172.0","task_version":"test-retest-t3"},{"Rune":"rune_06_cweord","Hex":"#3366ff99","Correct":-1,"Choice":-1,"RT":-1,"Accuracy":1,"Outcome":"+10","Keys":[],"TotalKeys":0,"Block":2,"Trial":166,"Robot":2,"Valence":"Win","Action":"No-Go","Sham":0,"Color":"blue","trial_type":"pit-trial","trial_index":184,"time_elapsed":691694,"internal_node_id":"0.0-173.0","task_version":"test-retest-t3"},{"Rune":"rune_06_ehwaz","Hex":"#ffcc3399","Correct":-1,"Choice":-1,"RT":-1,"Accuracy":1,"Outcome":"-1","Keys":[],"TotalKeys":0,"Block":2,"Trial":167,"Robot":4,"Valence":"Lose","Action":"No-Go","Sham":0,"Color":"yellow","trial_type":"pit-trial","trial_index":185,"time_elapsed":695700,"internal_node_id":"0.0-174.0","task_version":"test-retest-t3"},{"Rune":"rune_06_berkanan","Hex":"#ffcc3399","Correct":32,"Choice":32,"RT":468.7749999575317,"Accuracy":1,"Outcome":"-1","Keys":[1970.7599999383092],"TotalKeys":1,"Block":2,"Trial":168,"Robot":3,"Valence":"Lose","Action":"Go","Sham":0,"Color":"yellow","trial_type":"pit-trial","trial_index":186,"time_elapsed":698677,"internal_node_id":"0.0-175.0","task_version":"test-retest-t3"},{"Rune":"rune_06_ansuz","Hex":"#3366ff99","Correct":32,"Choice":32,"RT":478.0600001104176,"Accuracy":1,"Outcome":"+10","Keys":[1978.1400000210851],"TotalKeys":1,"Block":2,"Trial":169,"Robot":1,"Valence":"Win","Action":"Go","Sham":0,"Color":"blue","trial_type":"pit-trial","trial_index":187,"time_elapsed":701660,"internal_node_id":"0.0-176.0","task_version":"test-retest-t3"},{"Rune":"rune_06_cweord","Hex":"#3366ff99","Correct":-1,"Choice":-1,"RT":-1,"Accuracy":1,"Outcome":"+1","Keys":[],"TotalKeys":0,"Block":2,"Trial":170,"Robot":2,"Valence":"Win","Action":"No-Go","Sham":1,"Color":"blue","trial_type":"pit-trial","trial_index":188,"time_elapsed":705665,"internal_node_id":"0.0-177.0","task_version":"test-retest-t3"},{"Rune":"rune_06_berkanan","Hex":"#ffcc3399","Correct":32,"Choice":32,"RT":399.7700000181794,"Accuracy":1,"Outcome":"-10","Keys":[1900.5249999463558],"TotalKeys":1,"Block":2,"Trial":171,"Robot":3,"Valence":"Lose","Action":"Go","Sham":1,"Color":"yellow","trial_type":"pit-trial","trial_index":189,"time_elapsed":708571,"internal_node_id":"0.0-178.0","task_version":"test-retest-t3"},{"Rune":"rune_06_ehwaz","Hex":"#ffcc3399","Correct":-1,"Choice":-1,"RT":-1,"Accuracy":1,"Outcome":"-10","Keys":[],"TotalKeys":0,"Block":2,"Trial":172,"Robot":4,"Valence":"Lose","Action":"No-Go","Sham":1,"Color":"yellow","trial_type":"pit-trial","trial_index":190,"time_elapsed":712580,"internal_node_id":"0.0-179.0","task_version":"test-retest-t3"},{"Rune":"rune_06_ehwaz","Hex":"#ffcc3399","Correct":-1,"Choice":-1,"RT":-1,"Accuracy":1,"Outcome":"-1","Keys":[],"TotalKeys":0,"Block":2,"Trial":173,"Robot":4,"Valence":"Lose","Action":"No-Go","Sham":0,"Color":"yellow","trial_type":"pit-trial","trial_index":191,"time_elapsed":716587,"internal_node_id":"0.0-180.0","task_version":"test-retest-t3"},{"Rune":"rune_06_cweord","Hex":"#3366ff99","Correct":-1,"Choice":-1,"RT":-1,"Accuracy":1,"Outcome":"+10","Keys":[],"TotalKeys":0,"Block":2,"Trial":174,"Robot":2,"Valence":"Win","Action":"No-Go","Sham":0,"Color":"blue","trial_type":"pit-trial","trial_index":192,"time_elapsed":720595,"internal_node_id":"0.0-181.0","task_version":"test-retest-t3"},{"Rune":"rune_06_berkanan","Hex":"#ffcc3399","Correct":32,"Choice":32,"RT":457.70000014454126,"Accuracy":1,"Outcome":"-1","Keys":[1958.894999930635],"TotalKeys":1,"Block":2,"Trial":175,"Robot":3,"Valence":"Lose","Action":"Go","Sham":0,"Color":"yellow","trial_type":"pit-trial","trial_index":193,"time_elapsed":723559,"internal_node_id":"0.0-182.0","task_version":"test-retest-t3"},{"Rune":"rune_06_ansuz","Hex":"#3366ff99","Correct":32,"Choice":32,"RT":484.4550001434982,"Accuracy":1,"Outcome":"+10","Keys":[1985.270000062883],"TotalKeys":1,"Block":2,"Trial":176,"Robot":1,"Valence":"Win","Action":"Go","Sham":0,"Color":"blue","trial_type":"pit-trial","trial_index":194,"time_elapsed":726550,"internal_node_id":"0.0-183.0","task_version":"test-retest-t3"},{"Rune":"rune_06_cweord","Hex":"#3366ff99","Correct":-1,"Choice":-1,"RT":-1,"Accuracy":1,"Outcome":"+10","Keys":[],"TotalKeys":0,"Block":2,"Trial":177,"Robot":2,"Valence":"Win","Action":"No-Go","Sham":0,"Color":"blue","trial_type":"pit-trial","trial_index":195,"time_elapsed":730555,"internal_node_id":"0.0-184.0","task_version":"test-retest-t3"},{"Rune":"rune_06_ehwaz","Hex":"#ffcc3399","Correct":-1,"Choice":-1,"RT":-1,"Accuracy":1,"Outcome":"-1","Keys":[],"TotalKeys":0,"Block":2,"Trial":178,"Robot":4,"Valence":"Lose","Action":"No-Go","Sham":0,"Color":"yellow","trial_type":"pit-trial","trial_index":196,"time_elapsed":734560,"internal_node_id":"0.0-185.0","task_version":"test-retest-t3"},{"Rune":"rune_06_berkanan","Hex":"#ffcc3399","Correct":32,"Choice":32,"RT":448.9949999842793,"Accuracy":1,"Outcome":"-1","Keys":[1949.3799998890609],"TotalKeys":1,"Block":2,"Trial":179,"Robot":3,"Valence":"Lose","Action":"Go","Sham":0,"Color":"yellow","trial_type":"pit-trial","trial_index":197,"time_elapsed":737514,"internal_node_id":"0.0-186.0","task_version":"test-retest-t3"},{"Rune":"rune_06_ansuz","Hex":"#3366ff99","Correct":32,"Choice":32,"RT":442.5800000317395,"Accuracy":1,"Outcome":"+1","Keys":[1944.1450000740588],"TotalKeys":1,"Block":2,"Trial":180,"Robot":1,"Valence":"Win","Action":"Go","Sham":1,"Color":"blue","trial_type":"pit-trial","trial_index":198,"time_elapsed":740463,"internal_node_id":"0.0-187.0","task_version":"test-retest-t3"},{"view_history":"[{\"page_index\":0,\"viewing_time\":2061.14499992691},{\"page_index\":1,\"viewing_time\":480.9099999256432}]","rt":2542.494999943301,"trial_type":"pit-instructions","trial_index":199,"time_elapsed":743007,"internal_node_id":"0.0-188.0","task_version":"test-retest-t3"},{"Rune":"rune_06_ansuz","Hex":"#3366ff99","Correct":32,"Choice":32,"RT":345.2300000935793,"Accuracy":1,"Outcome":"+10","Keys":[1845.4700000584126],"TotalKeys":1,"Block":2,"Trial":181,"Robot":1,"Valence":"Win","Action":"Go","Sham":0,"Color":"blue","trial_type":"pit-trial","trial_index":200,"time_elapsed":745859,"internal_node_id":"0.0-189.0","task_version":"test-retest-t3"},{"Rune":"rune_06_cweord","Hex":"#3366ff99","Correct":-1,"Choice":-1,"RT":-1,"Accuracy":1,"Outcome":"+1","Keys":[],"TotalKeys":0,"Block":2,"Trial":182,"Robot":2,"Valence":"Win","Action":"No-Go","Sham":1,"Color":"blue","trial_type":"pit-trial","trial_index":201,"time_elapsed":749866,"internal_node_id":"0.0-190.0","task_version":"test-retest-t3"},{"Rune":"rune_06_ehwaz","Hex":"#ffcc3399","Correct":-1,"Choice":-1,"RT":-1,"Accuracy":1,"Outcome":"-1","Keys":[],"TotalKeys":0,"Block":2,"Trial":183,"Robot":4,"Valence":"Lose","Action":"No-Go","Sham":0,"Color":"yellow","trial_type":"pit-trial","trial_index":202,"time_elapsed":753872,"internal_node_id":"0.0-191.0","task_version":"test-retest-t3"},{"Rune":"rune_06_berkanan","Hex":"#ffcc3399","Correct":32,"Choice":32,"RT":374.19000011868775,"Accuracy":1,"Outcome":"-1","Keys":[1874.6700000483543],"TotalKeys":1,"Block":2,"Trial":184,"Robot":3,"Valence":"Lose","Action":"Go","Sham":0,"Color":"yellow","trial_type":"pit-trial","trial_index":203,"time_elapsed":756751,"internal_node_id":"0.0-192.0","task_version":"test-retest-t3"},{"Rune":"rune_06_ansuz","Hex":"#3366ff99","Correct":32,"Choice":32,"RT":406.3050001859665,"Accuracy":1,"Outcome":"+1","Keys":[1907.2050000540912],"TotalKeys":1,"Block":2,"Trial":185,"Robot":1,"Valence":"Win","Action":"Go","Sham":1,"Color":"blue","trial_type":"pit-trial","trial_index":204,"time_elapsed":759665,"internal_node_id":"0.0-193.0","task_version":"test-retest-t3"},{"Rune":"rune_06_berkanan","Hex":"#ffcc3399","Correct":32,"Choice":32,"RT":423.4400000423193,"Accuracy":1,"Outcome":"-1","Keys":[1923.8899999763817],"TotalKeys":1,"Block":2,"Trial":186,"Robot":3,"Valence":"Lose","Action":"Go","Sham":0,"Color":"yellow","trial_type":"pit-trial","trial_index":205,"time_elapsed":762591,"internal_node_id":"0.0-194.0","task_version":"test-retest-t3"},{"Rune":"rune_06_ehwaz","Hex":"#ffcc3399","Correct":-1,"Choice":-1,"RT":-1,"Accuracy":1,"Outcome":"-10","Keys":[],"TotalKeys":0,"Block":2,"Trial":187,"Robot":4,"Valence":"Lose","Action":"No-Go","Sham":1,"Color":"yellow","trial_type":"pit-trial","trial_index":206,"time_elapsed":766596,"internal_node_id":"0.0-195.0","task_version":"test-retest-t3"},{"Rune":"rune_06_cweord","Hex":"#3366ff99","Correct":-1,"Choice":-1,"RT":-1,"Accuracy":1,"Outcome":"+10","Keys":[],"TotalKeys":0,"Block":2,"Trial":188,"Robot":2,"Valence":"Win","Action":"No-Go","Sham":0,"Color":"blue","trial_type":"pit-trial","trial_index":207,"time_elapsed":770603,"internal_node_id":"0.0-196.0","task_version":"test-retest-t3"},{"Rune":"rune_06_ehwaz","Hex":"#ffcc3399","Correct":-1,"Choice":-1,"RT":-1,"Accuracy":1,"Outcome":"-1","Keys":[],"TotalKeys":0,"Block":2,"Trial":189,"Robot":4,"Valence":"Lose","Action":"No-Go","Sham":0,"Color":"yellow","trial_type":"pit-trial","trial_index":208,"time_elapsed":774610,"internal_node_id":"0.0-197.0","task_version":"test-retest-t3"},{"Rune":"rune_06_berkanan","Hex":"#ffcc3399","Correct":32,"Choice":32,"RT":390.21000009961426,"Accuracy":1,"Outcome":"-10","Keys":[1890.7149999868125],"TotalKeys":1,"Block":2,"Trial":190,"Robot":3,"Valence":"Lose","Action":"Go","Sham":1,"Color":"yellow","trial_type":"pit-trial","trial_index":209,"time_elapsed":777507,"internal_node_id":"0.0-198.0","task_version":"test-retest-t3"},{"Rune":"rune_06_cweord","Hex":"#3366ff99","Correct":-1,"Choice":-1,"RT":-1,"Accuracy":1,"Outcome":"+10","Keys":[],"TotalKeys":0,"Block":2,"Trial":191,"Robot":2,"Valence":"Win","Action":"No-Go","Sham":0,"Color":"blue","trial_type":"pit-trial","trial_index":210,"time_elapsed":781511,"internal_node_id":"0.0-199.0","task_version":"test-retest-t3"},{"Rune":"rune_06_ansuz","Hex":"#3366ff99","Correct":32,"Choice":32,"RT":413.17000007256866,"Accuracy":1,"Outcome":"+10","Keys":[1914.3150001764297],"TotalKeys":1,"Block":2,"Trial":192,"Robot":1,"Valence":"Win","Action":"Go","Sham":0,"Color":"blue","trial_type":"pit-trial","trial_index":211,"time_elapsed":784430,"internal_node_id":"0.0-200.0","task_version":"test-retest-t3"},{"Rune":"rune_06_berkanan","Hex":"#ffcc3399","Correct":32,"Choice":32,"RT":443.10500007122755,"Accuracy":1,"Outcome":"-1","Keys":[1943.9049998763949],"TotalKeys":1,"Block":2,"Trial":193,"Robot":3,"Valence":"Lose","Action":"Go","Sham":0,"Color":"yellow","trial_type":"pit-trial","trial_index":212,"time_elapsed":787378,"internal_node_id":"0.0-201.0","task_version":"test-retest-t3"},{"Rune":"rune_06_ansuz","Hex":"#3366ff99","Correct":32,"Choice":32,"RT":396.3299999013543,"Accuracy":1,"Outcome":"+10","Keys":[1896.9550000037998],"TotalKeys":1,"Block":2,"Trial":194,"Robot":1,"Valence":"Win","Action":"Go","Sham":0,"Color":"blue","trial_type":"pit-trial","trial_index":213,"time_elapsed":790279,"internal_node_id":"0.0-202.0","task_version":"test-retest-t3"},{"Rune":"rune_06_cweord","Hex":"#3366ff99","Correct":-1,"Choice":-1,"RT":-1,"Accuracy":1,"Outcome":"+10","Keys":[],"TotalKeys":0,"Block":2,"Trial":195,"Robot":2,"Valence":"Win","Action":"No-Go","Sham":0,"Color":"blue","trial_type":"pit-trial","trial_index":214,"time_elapsed":794283,"internal_node_id":"0.0-203.0","task_version":"test-retest-t3"},{"Rune":"rune_06_ehwaz","Hex":"#ffcc3399","Correct":-1,"Choice":-1,"RT":-1,"Accuracy":1,"Outcome":"-1","Keys":[],"TotalKeys":0,"Block":2,"Trial":196,"Robot":4,"Valence":"Lose","Action":"No-Go","Sham":0,"Color":"yellow","trial_type":"pit-trial","trial_index":215,"time_elapsed":798286,"internal_node_id":"0.0-204.0","task_version":"test-retest-t3"},{"Rune":"rune_06_cweord","Hex":"#3366ff99","Correct":-1,"Choice":-1,"RT":-1,"Accuracy":1,"Outcome":"+10","Keys":[],"TotalKeys":0,"Block":2,"Trial":197,"Robot":2,"Valence":"Win","Action":"No-Go","Sham":0,"Color":"blue","trial_type":"pit-trial","trial_index":216,"time_elapsed":802291,"internal_node_id":"0.0-205.0","task_version":"test-retest-t3"},{"Rune":"rune_06_berkanan","Hex":"#ffcc3399","Correct":32,"Choice":32,"RT":444.50500002130866,"Accuracy":1,"Outcome":"-1","Keys":[1945.3249999787658],"TotalKeys":1,"Block":2,"Trial":198,"Robot":3,"Valence":"Lose","Action":"Go","Sham":0,"Color":"yellow","trial_type":"pit-trial","trial_index":217,"time_elapsed":805241,"internal_node_id":"0.0-206.0","task_version":"test-retest-t3"},{"Rune":"rune_06_ansuz","Hex":"#3366ff99","Correct":32,"Choice":32,"RT":452.44999998249114,"Accuracy":1,"Outcome":"+10","Keys":[1954.3450002092868],"TotalKeys":1,"Block":2,"Trial":199,"Robot":1,"Valence":"Win","Action":"Go","Sham":0,"Color":"blue","trial_type":"pit-trial","trial_index":218,"time_elapsed":808200,"internal_node_id":"0.0-207.0","task_version":"test-retest-t3"},{"Rune":"rune_06_ehwaz","Hex":"#ffcc3399","Correct":-1,"Choice":-1,"RT":-1,"Accuracy":1,"Outcome":"-1","Keys":[],"TotalKeys":0,"Block":2,"Trial":200,"Robot":4,"Valence":"Lose","Action":"No-Go","Sham":0,"Color":"yellow","trial_type":"pit-trial","trial_index":219,"time_elapsed":812209,"internal_node_id":"0.0-208.0","task_version":"test-retest-t3"},{"Rune":"rune_06_ehwaz","Hex":"#ffcc3399","Correct":-1,"Choice":-1,"RT":-1,"Accuracy":1,"Outcome":"-10","Keys":[],"TotalKeys":0,"Block":2,"Trial":201,"Robot":4,"Valence":"Lose","Action":"No-Go","Sham":1,"Color":"yellow","trial_type":"pit-trial","trial_index":220,"time_elapsed":816217,"internal_node_id":"0.0-209.0","task_version":"test-retest-t3"},{"Rune":"rune_06_ansuz","Hex":"#3366ff99","Correct":32,"Choice":32,"RT":475.8549998514354,"Accuracy":1,"Outcome":"+10","Keys":[1976.425000000745],"TotalKeys":1,"Block":2,"Trial":202,"Robot":1,"Valence":"Win","Action":"Go","Sham":0,"Color":"blue","trial_type":"pit-trial","trial_index":221,"time_elapsed":819201,"internal_node_id":"0.0-210.0","task_version":"test-retest-t3"},{"Rune":"rune_06_cweord","Hex":"#3366ff99","Correct":-1,"Choice":-1,"RT":-1,"Accuracy":1,"Outcome":"+10","Keys":[],"TotalKeys":0,"Block":2,"Trial":203,"Robot":2,"Valence":"Win","Action":"No-Go","Sham":0,"Color":"blue","trial_type":"pit-trial","trial_index":222,"time_elapsed":823209,"internal_node_id":"0.0-211.0","task_version":"test-retest-t3"},{"Rune":"rune_06_berkanan","Hex":"#ffcc3399","Correct":32,"Choice":32,"RT":408.77499990165234,"Accuracy":1,"Outcome":"-10","Keys":[1910.1400000508875],"TotalKeys":1,"Block":2,"Trial":204,"Robot":3,"Valence":"Lose","Action":"Go","Sham":1,"Color":"yellow","trial_type":"pit-trial","trial_index":223,"time_elapsed":826122,"internal_node_id":"0.0-212.0","task_version":"test-retest-t3"},{"Rune":"rune_06_ehwaz","Hex":"#ffcc3399","Correct":-1,"Choice":-1,"RT":-1,"Accuracy":1,"Outcome":"-1","Keys":[],"TotalKeys":0,"Block":2,"Trial":205,"Robot":4,"Valence":"Lose","Action":"No-Go","Sham":0,"Color":"yellow","trial_type":"pit-trial","trial_index":224,"time_elapsed":830130,"internal_node_id":"0.0-213.0","task_version":"test-retest-t3"},{"Rune":"rune_06_ansuz","Hex":"#3366ff99","Correct":32,"Choice":32,"RT":479.1399999521673,"Accuracy":1,"Outcome":"+10","Keys":[1980.7550001423806],"TotalKeys":1,"Block":2,"Trial":206,"Robot":1,"Valence":"Win","Action":"Go","Sham":0,"Color":"blue","trial_type":"pit-trial","trial_index":225,"time_elapsed":833116,"internal_node_id":"0.0-214.0","task_version":"test-retest-t3"},{"Rune":"rune_06_berkanan","Hex":"#ffcc3399","Correct":32,"Choice":32,"RT":448.49500013515353,"Accuracy":1,"Outcome":"-1","Keys":[1948.8000001292676],"TotalKeys":1,"Block":2,"Trial":207,"Robot":3,"Valence":"Lose","Action":"Go","Sham":0,"Color":"yellow","trial_type":"pit-trial","trial_index":226,"time_elapsed":836070,"internal_node_id":"0.0-215.0","task_version":"test-retest-t3"},{"Rune":"rune_06_cweord","Hex":"#3366ff99","Correct":-1,"Choice":-1,"RT":-1,"Accuracy":1,"Outcome":"+10","Keys":[],"TotalKeys":0,"Block":2,"Trial":208,"Robot":2,"Valence":"Win","Action":"No-Go","Sham":0,"Color":"blue","trial_type":"pit-trial","trial_index":227,"time_elapsed":840076,"internal_node_id":"0.0-216.0","task_version":"test-retest-t3"},{"Rune":"rune_06_cweord","Hex":"#3366ff99","Correct":-1,"Choice":-1,"RT":-1,"Accuracy":1,"Outcome":"+1","Keys":[],"TotalKeys":0,"Block":2,"Trial":209,"Robot":2,"Valence":"Win","Action":"No-Go","Sham":1,"Color":"blue","trial_type":"pit-trial","trial_index":228,"time_elapsed":844083,"internal_node_id":"0.0-217.0","task_version":"test-retest-t3"},{"Rune":"rune_06_ehwaz","Hex":"#ffcc3399","Correct":-1,"Choice":-1,"RT":-1,"Accuracy":1,"Outcome":"-1","Keys":[],"TotalKeys":0,"Block":2,"Trial":210,"Robot":4,"Valence":"Lose","Action":"No-Go","Sham":0,"Color":"yellow","trial_type":"pit-trial","trial_index":229,"time_elapsed":848090,"internal_node_id":"0.0-218.0","task_version":"test-retest-t3"},{"Rune":"rune_06_ansuz","Hex":"#3366ff99","Correct":32,"Choice":32,"RT":475.92999995686114,"Accuracy":1,"Outcome":"+1","Keys":[1977.4599999655038],"TotalKeys":1,"Block":2,"Trial":211,"Robot":1,"Valence":"Win","Action":"Go","Sham":1,"Color":"blue","trial_type":"pit-trial","trial_index":230,"time_elapsed":851075,"internal_node_id":"0.0-219.0","task_version":"test-retest-t3"},{"Rune":"rune_06_berkanan","Hex":"#ffcc3399","Correct":32,"Choice":32,"RT":557.6549998950213,"Accuracy":1,"Outcome":"-1","Keys":[2058.0549999140203],"TotalKeys":1,"Block":2,"Trial":212,"Robot":3,"Valence":"Lose","Action":"Go","Sham":0,"Color":"yellow","trial_type":"pit-trial","trial_index":231,"time_elapsed":854139,"internal_node_id":"0.0-220.0","task_version":"test-retest-t3"},{"Rune":"rune_06_berkanan","Hex":"#ffcc3399","Correct":32,"Choice":32,"RT":581.9449999835342,"Accuracy":1,"Outcome":"-1","Keys":[2083.8899998925626],"TotalKeys":1,"Block":2,"Trial":213,"Robot":3,"Valence":"Lose","Action":"Go","Sham":0,"Color":"yellow","trial_type":"pit-trial","trial_index":232,"time_elapsed":857228,"internal_node_id":"0.0-221.0","task_version":"test-retest-t3"},{"Rune":"rune_06_ansuz","Hex":"#3366ff99","Correct":32,"Choice":32,"RT":412.58500004187226,"Accuracy":1,"Outcome":"+10","Keys":[1913.1650000344962],"TotalKeys":1,"Block":2,"Trial":214,"Robot":1,"Valence":"Win","Action":"Go","Sham":0,"Color":"blue","trial_type":"pit-trial","trial_index":233,"time_elapsed":860147,"internal_node_id":"0.0-222.0","task_version":"test-retest-t3"},{"Rune":"rune_06_ehwaz","Hex":"#ffcc3399","Correct":-1,"Choice":-1,"RT":-1,"Accuracy":1,"Outcome":"-1","Keys":[],"TotalKeys":0,"Block":2,"Trial":215,"Robot":4,"Valence":"Lose","Action":"No-Go","Sham":0,"Color":"yellow","trial_type":"pit-trial","trial_index":234,"time_elapsed":864153,"internal_node_id":"0.0-223.0","task_version":"test-retest-t3"},{"Rune":"rune_06_cweord","Hex":"#3366ff99","Correct":-1,"Choice":-1,"RT":-1,"Accuracy":1,"Outcome":"+10","Keys":[],"TotalKeys":0,"Block":2,"Trial":216,"Robot":2,"Valence":"Win","Action":"No-Go","Sham":0,"Color":"blue","trial_type":"pit-trial","trial_index":235,"time_elapsed":868160,"internal_node_id":"0.0-224.0","task_version":"test-retest-t3"},{"Rune":"rune_06_ansuz","Hex":"#3366ff99","Correct":32,"Choice":32,"RT":475.25999997742474,"Accuracy":1,"Outcome":"+10","Keys":[1976.2749997898936],"TotalKeys":1,"Block":2,"Trial":217,"Robot":1,"Valence":"Win","Action":"Go","Sham":0,"Color":"blue","trial_type":"pit-trial","trial_index":236,"time_elapsed":871142,"internal_node_id":"0.0-225.0","task_version":"test-retest-t3"},{"Rune":"rune_06_cweord","Hex":"#3366ff99","Correct":-1,"Choice":-1,"RT":-1,"Accuracy":1,"Outcome":"+10","Keys":[],"TotalKeys":0,"Block":2,"Trial":218,"Robot":2,"Valence":"Win","Action":"No-Go","Sham":0,"Color":"blue","trial_type":"pit-trial","trial_index":237,"time_elapsed":875149,"internal_node_id":"0.0-226.0","task_version":"test-retest-t3"},{"Rune":"rune_06_berkanan","Hex":"#ffcc3399","Correct":32,"Choice":32,"RT":549.5899999514222,"Accuracy":1,"Outcome":"-1","Keys":[2050.7699998561293],"TotalKeys":1,"Block":2,"Trial":219,"Robot":3,"Valence":"Lose","Action":"Go","Sham":0,"Color":"yellow","trial_type":"pit-trial","trial_index":238,"time_elapsed":878206,"internal_node_id":"0.0-227.0","task_version":"test-retest-t3"},{"Rune":"rune_06_ehwaz","Hex":"#ffcc3399","Correct":-1,"Choice":-1,"RT":-1,"Accuracy":1,"Outcome":"-1","Keys":[],"TotalKeys":0,"Block":2,"Trial":220,"Robot":4,"Valence":"Lose","Action":"No-Go","Sham":0,"Color":"yellow","trial_type":"pit-trial","trial_index":239,"time_elapsed":882212,"internal_node_id":"0.0-228.0","task_version":"test-retest-t3"},{"Rune":"rune_06_berkanan","Hex":"#ffcc3399","Correct":32,"Choice":32,"RT":522.1499998588115,"Accuracy":1,"Outcome":"-1","Keys":[2022.544999839738],"TotalKeys":1,"Block":2,"Trial":221,"Robot":3,"Valence":"Lose","Action":"Go","Sham":0,"Color":"yellow","trial_type":"pit-trial","trial_index":240,"time_elapsed":885240,"internal_node_id":"0.0-229.0","task_version":"test-retest-t3"},{"Rune":"rune_06_ansuz","Hex":"#3366ff99","Correct":32,"Choice":32,"RT":493.3400000445545,"Accuracy":1,"Outcome":"+10","Keys":[1993.9300001133233],"TotalKeys":1,"Block":2,"Trial":222,"Robot":1,"Valence":"Win","Action":"Go","Sham":0,"Color":"blue","trial_type":"pit-trial","trial_index":241,"time_elapsed":888241,"internal_node_id":"0.0-230.0","task_version":"test-retest-t3"},{"Rune":"rune_06_cweord","Hex":"#3366ff99","Correct":-1,"Choice":-1,"RT":-1,"Accuracy":1,"Outcome":"+10","Keys":[],"TotalKeys":0,"Block":2,"Trial":223,"Robot":2,"Valence":"Win","Action":"No-Go","Sham":0,"Color":"blue","trial_type":"pit-trial","trial_index":242,"time_elapsed":892248,"internal_node_id":"0.0-231.0","task_version":"test-retest-t3"},{"Rune":"rune_06_ehwaz","Hex":"#ffcc3399","Correct":-1,"Choice":-1,"RT":-1,"Accuracy":1,"Outcome":"-1","Keys":[],"TotalKeys":0,"Block":2,"Trial":224,"Robot":4,"Valence":"Lose","Action":"No-Go","Sham":0,"Color":"yellow","trial_type":"pit-trial","trial_index":243,"time_elapsed":896256,"internal_node_id":"0.0-232.0","task_version":"test-retest-t3"},{"Rune":"rune_06_ansuz","Hex":"#3366ff99","Correct":32,"Choice":32,"RT":470.5250000115484,"Accuracy":1,"Outcome":"+10","Keys":[1971.1050000041723],"TotalKeys":1,"Block":2,"Trial":225,"Robot":1,"Valence":"Win","Action":"Go","Sham":0,"Color":"blue","trial_type":"pit-trial","trial_index":244,"time_elapsed":899233,"internal_node_id":"0.0-233.0","task_version":"test-retest-t3"},{"Rune":"rune_06_berkanan","Hex":"#ffcc3399","Correct":32,"Choice":32,"RT":536.1999999731779,"Accuracy":1,"Outcome":"-10","Keys":[2036.8899998720735],"TotalKeys":1,"Block":2,"Trial":226,"Robot":3,"Valence":"Lose","Action":"Go","Sham":1,"Color":"yellow","trial_type":"pit-trial","trial_index":245,"time_elapsed":902274,"internal_node_id":"0.0-234.0","task_version":"test-retest-t3"},{"Rune":"rune_06_ehwaz","Hex":"#ffcc3399","Correct":-1,"Choice":-1,"RT":-1,"Accuracy":1,"Outcome":"-1","Keys":[],"TotalKeys":0,"Block":2,"Trial":227,"Robot":4,"Valence":"Lose","Action":"No-Go","Sham":0,"Color":"yellow","trial_type":"pit-trial","trial_index":246,"time_elapsed":906278,"internal_node_id":"0.0-235.0","task_version":"test-retest-t3"},{"Rune":"rune_06_cweord","Hex":"#3366ff99","Correct":-1,"Choice":-1,"RT":-1,"Accuracy":1,"Outcome":"+10","Keys":[],"TotalKeys":0,"Block":2,"Trial":228,"Robot":2,"Valence":"Win","Action":"No-Go","Sham":0,"Color":"blue","trial_type":"pit-trial","trial_index":247,"time_elapsed":910283,"internal_node_id":"0.0-236.0","task_version":"test-retest-t3"},{"Rune":"rune_06_cweord","Hex":"#3366ff99","Correct":-1,"Choice":-1,"RT":-1,"Accuracy":1,"Outcome":"+10","Keys":[],"TotalKeys":0,"Block":2,"Trial":229,"Robot":2,"Valence":"Win","Action":"No-Go","Sham":0,"Color":"blue","trial_type":"pit-trial","trial_index":248,"time_elapsed":914285,"internal_node_id":"0.0-237.0","task_version":"test-retest-t3"},{"Rune":"rune_06_ehwaz","Hex":"#ffcc3399","Correct":-1,"Choice":-1,"RT":-1,"Accuracy":1,"Outcome":"-1","Keys":[],"TotalKeys":0,"Block":2,"Trial":230,"Robot":4,"Valence":"Lose","Action":"No-Go","Sham":0,"Color":"yellow","trial_type":"pit-trial","trial_index":249,"time_elapsed":918289,"internal_node_id":"0.0-238.0","task_version":"test-retest-t3"},{"Rune":"rune_06_ansuz","Hex":"#3366ff99","Correct":32,"Choice":32,"RT":420.030000153929,"Accuracy":1,"Outcome":"+10","Keys":[1920.8400000352412],"TotalKeys":1,"Block":2,"Trial":231,"Robot":1,"Valence":"Win","Action":"Go","Sham":0,"Color":"blue","trial_type":"pit-trial","trial_index":250,"time_elapsed":921216,"internal_node_id":"0.0-239.0","task_version":"test-retest-t3"},{"Rune":"rune_06_berkanan","Hex":"#ffcc3399","Correct":32,"Choice":32,"RT":502.3699998855591,"Accuracy":1,"Outcome":"-1","Keys":[2003.3299999777228],"TotalKeys":1,"Block":2,"Trial":232,"Robot":3,"Valence":"Lose","Action":"Go","Sham":0,"Color":"yellow","trial_type":"pit-trial","trial_index":251,"time_elapsed":924226,"internal_node_id":"0.0-240.0","task_version":"test-retest-t3"},{"Rune":"rune_06_cweord","Hex":"#3366ff99","Correct":-1,"Choice":-1,"RT":-1,"Accuracy":1,"Outcome":"+10","Keys":[],"TotalKeys":0,"Block":2,"Trial":233,"Robot":2,"Valence":"Win","Action":"No-Go","Sham":0,"Color":"blue","trial_type":"pit-trial","trial_index":252,"time_elapsed":928231,"internal_node_id":"0.0-241.0","task_version":"test-retest-t3"},{"Rune":"rune_06_ehwaz","Hex":"#ffcc3399","Correct":-1,"Choice":-1,"RT":-1,"Accuracy":1,"Outcome":"-1","Keys":[],"TotalKeys":0,"Block":2,"Trial":234,"Robot":4,"Valence":"Lose","Action":"No-Go","Sham":0,"Color":"yellow","trial_type":"pit-trial","trial_index":253,"time_elapsed":932239,"internal_node_id":"0.0-242.0","task_version":"test-retest-t3"},{"Rune":"rune_06_ansuz","Hex":"#3366ff99","Correct":32,"Choice":32,"RT":423.26000006869435,"Accuracy":1,"Outcome":"+10","Keys":[1925.0499999616295],"TotalKeys":1,"Block":2,"Trial":235,"Robot":1,"Valence":"Win","Action":"Go","Sham":0,"Color":"blue","trial_type":"pit-trial","trial_index":254,"time_elapsed":935169,"internal_node_id":"0.0-243.0","task_version":"test-retest-t3"},{"Rune":"rune_06_berkanan","Hex":"#ffcc3399","Correct":32,"Choice":32,"RT":441.554999910295,"Accuracy":1,"Outcome":"-1","Keys":[1942.5799997989088],"TotalKeys":1,"Block":2,"Trial":236,"Robot":3,"Valence":"Lose","Action":"Go","Sham":0,"Color":"yellow","trial_type":"pit-trial","trial_index":255,"time_elapsed":938119,"internal_node_id":"0.0-244.0","task_version":"test-retest-t3"},{"Rune":"rune_06_berkanan","Hex":"#ffcc3399","Correct":32,"Choice":32,"RT":445.30000002123415,"Accuracy":1,"Outcome":"-1","Keys":[1946.989999851212],"TotalKeys":1,"Block":2,"Trial":237,"Robot":3,"Valence":"Lose","Action":"Go","Sham":0,"Color":"yellow","trial_type":"pit-trial","trial_index":256,"time_elapsed":941072,"internal_node_id":"0.0-245.0","task_version":"test-retest-t3"},{"Rune":"rune_06_ehwaz","Hex":"#ffcc3399","Correct":-1,"Choice":-1,"RT":-1,"Accuracy":1,"Outcome":"-10","Keys":[],"TotalKeys":0,"Block":2,"Trial":238,"Robot":4,"Valence":"Lose","Action":"No-Go","Sham":1,"Color":"yellow","trial_type":"pit-trial","trial_index":257,"time_elapsed":945077,"internal_node_id":"0.0-246.0","task_version":"test-retest-t3"},{"Rune":"rune_06_cweord","Hex":"#3366ff99","Correct":-1,"Choice":-1,"RT":-1,"Accuracy":1,"Outcome":"+1","Keys":[],"TotalKeys":0,"Block":2,"Trial":239,"Robot":2,"Valence":"Win","Action":"No-Go","Sham":1,"Color":"blue","trial_type":"pit-trial","trial_index":258,"time_elapsed":949084,"internal_node_id":"0.0-247.0","task_version":"test-retest-t3"},{"Rune":"rune_06_ansuz","Hex":"#3366ff99","Correct":32,"Choice":32,"RT":456.66499994695187,"Accuracy":1,"Outcome":"+1","Keys":[1957.1849999483675],"TotalKeys":1,"Block":2,"Trial":240,"Robot":1,"Valence":"Win","Action":"Go","Sham":1,"Color":"blue","trial_type":"pit-trial","trial_index":259,"time_elapsed":952046,"internal_node_id":"0.0-248.0","task_version":"test-retest-t3"},{"view_history":"[{\"page_index\":0,\"viewing_time\":2410.619999980554}]","rt":2411.0349998809397,"trial_type":"pit-instructions","trial_index":260,"time_elapsed":954459,"internal_node_id":"0.0-249.0","task_version":"test-retest-t3"},{"rt":35108.50500012748,"responses":{"difficulty":"5","fun":"4","clarity":"5","strategy":"Figure out the patterns first with trial and error, give each symbol a name to memorize, stick with the pattern","feedback":"no comments"},"survey":"debrief","trial_type":"survey-debrief","trial_index":261,"time_elapsed":989570,"internal_node_id":"0.0-250.0","task_version":"test-retest-t3"},{"rt":2969.1449999809265,"stimulus":"You earned a bonus of $1.45 out of $1.5.<br><br>Press any key to complete the experiment.","key_press":75,"trial_type":"html-keyboard-response","trial_index":262,"time_elapsed":992544,"internal_node_id":"0.0-251.0","task_version":"test-retest-t3","accuracy":0.9625,"bonus":1.45,"interactions":"[]"}]