[{"slider_type":"valence","raw_loc":740,"loc":0.98,"trial_type":"affective-slider","trial_index":0,"time_elapsed":11939,"internal_node_id":"0.0-0.0","task_version":"test-retest-t3"},{"responses":{"Q05":"0","Q02":"0","Q07":"0","Q03":"0","Q08":"0","Q04":"0","Q01":"0","Q06":"0"},"rt":63533.37499999907,"survey":"gad7","trial_type":"survey-template","trial_index":1,"time_elapsed":75483,"internal_node_id":"0.0-1.0","task_version":"test-retest-t3"},{"view_history":"[{\"page_index\":0,\"viewing_time\":12634.9100000225},{\"page_index\":1,\"viewing_time\":1805.5150000145659},{\"page_index\":2,\"viewing_time\":4222.670000046492},{\"page_index\":3,\"viewing_time\":116953.8899998879},{\"page_index\":4,\"viewing_time\":9062.590000103228},{\"page_index\":5,\"viewing_time\":5014.219999895431}]","rt":149695.98000007682,"trial_type":"pit-instructions","trial_index":2,"time_elapsed":225218,"internal_node_id":"0.0-2.0-0.0","task_version":"test-retest-t3"},{"Rune":"rune_00_ingz","Hex":"#FFFFF080","Correct":32,"Choice":32,"RT":465.4650000156835,"Accuracy":1,"Outcome":"+10","Keys":[1966.9899999862537],"TotalKeys":1,"Block":0,"Action":"Go","trial_type":"pit-trial","trial_index":3,"time_elapsed":228197,"internal_node_id":"0.0-2.0-1.0-0.0","task_version":"test-retest-t3"},{"Rune":"rune_00_ingz","Hex":"#FFFFF080","Correct":32,"Choice":32,"RT":559.1900000581518,"Accuracy":1,"Outcome":"+10","Keys":[2061.459999997169],"TotalKeys":1,"Block":0,"Action":"Go","trial_type":"pit-trial","trial_index":4,"time_elapsed":231269,"internal_node_id":"0.0-2.0-1.0-0.1","task_version":"test-retest-t3"},{"Rune":"rune_00_ingz","Hex":"#FFFFF080","Correct":32,"Choice":32,"RT":377.43499991483986,"Accuracy":1,"Outcome":"+10","Keys":[1879.3399999849498],"TotalKeys":1,"Block":0,"Action":"Go","trial_type":"pit-trial","trial_index":5,"time_elapsed":234159,"internal_node_id":"0.0-2.0-1.0-0.2","task_version":"test-retest-t3"},{"Rune":"rune_00_ingz","Hex":"#FFFFF080","Correct":32,"Choice":32,"RT":440.90499996673316,"Accuracy":1,"Outcome":"+10","Keys":[1943.1050000712276],"TotalKeys":1,"Block":0,"Action":"Go","trial_type":"pit-trial","trial_index":6,"time_elapsed":237111,"internal_node_id":"0.0-2.0-1.0-0.3","task_version":"test-retest-t3"},{"view_history":"[{\"page_index\":0,\"viewing_time\":29314.18000010308}]","rt":29315.250000101514,"trial_type":"pit-instructions","trial_index":7,"time_elapsed":266430,"internal_node_id":"0.0-2.0-2.0","task_version":"test-retest-t3"},{"Rune":"rune_00_isaz","Hex":"#FFFFF080","Correct":-1,"Choice":-1,"RT":-1,"Accuracy":1,"Outcome":"+10","Keys":[],"TotalKeys":0,"Block":0,"Action":"No-Go","trial_type":"pit-trial","trial_index":8,"time_elapsed":270447,"internal_node_id":"0.0-2.0-3.0-0.0","task_version":"test-retest-t3"},{"Rune":"rune_00_isaz","Hex":"#FFFFF080","Correct":-1,"Choice":-1,"RT":-1,"Accuracy":1,"Outcome":"+10","Keys":[],"TotalKeys":0,"Block":0,"Action":"No-Go","trial_type":"pit-trial","trial_index":9,"time_elapsed":274475,"internal_node_id":"0.0-2.0-3.0-0.1","task_version":"test-retest-t3"},{"Rune":"rune_00_isaz","Hex":"#FFFFF080","Correct":-1,"Choice":-1,"RT":-1,"Accuracy":1,"Outcome":"+10","Keys":[],"TotalKeys":0,"Block":0,"Action":"No-Go","trial_type":"pit-trial","trial_index":10,"time_elapsed":278494,"internal_node_id":"0.0-2.0-3.0-0.2","task_version":"test-retest-t3"},{"Rune":"rune_00_isaz","Hex":"#FFFFF080","Correct":-1,"Choice":-1,"RT":-1,"Accuracy":1,"Outcome":"+10","Keys":[],"TotalKeys":0,"Block":0,"Action":"No-Go","trial_type":"pit-trial","trial_index":11,"time_elapsed":282515,"internal_node_id":"0.0-2.0-3.0-0.3","task_version":"test-retest-t3"},{"view_history":"[{\"page_index\":0,\"viewing_time\":40856.570000061765},{\"page_index\":1,\"viewing_time\":77536.92999994382},{\"page_index\":2,\"viewing_time\":36622.72000010125},{\"page_index\":3,\"viewing_time\":4995.969999930821},{\"page_index\":4,\"viewing_time\":5593.385000014678},{\"page_index\":5,\"viewing_time\":9735.66500004381},{\"page_index\":6,\"viewing_time\":1593.614999903366},{\"page_index\":7,\"viewing_time\":790.9950000466779}]","rt":177726.92000004463,"trial_type":"pit-instructions","trial_index":12,"time_elapsed":460250,"internal_node_id":"0.0-2.0-4.0","task_version":"test-retest-t3"},{"responses":["Do nothing","+10","-1","True","Yes"],"num_errors":0,"rt":32103.54499996174,"trial_type":"pit-comprehension","trial_index":13,"time_elapsed":492367,"internal_node_id":"0.0-2.0-5.0","task_version":"test-retest-t3"},{"trial_type":"call-function","trial_index":14,"time_elapsed":492380,"internal_node_id":"0.0-3.0","task_version":"test-retest-t3"},{"view_history":"[{\"page_index\":0,\"viewing_time\":3245.8999999798834},{\"page_index\":1,\"viewing_time\":2071.695000049658},{\"page_index\":2,\"viewing_time\":8710.800000000745}]","rt":14030.030000023544,"trial_type":"pit-instructions","trial_index":15,"time_elapsed":506413,"internal_node_id":"0.0-4.0","task_version":"test-retest-t3"},{"Rune":"rune_05_gebo","Hex":"#3366ff99","Correct":-1,"Choice":32,"RT":627.2650000173599,"Accuracy":0,"Outcome":"+1","Keys":[2127.714999951422],"TotalKeys":1,"Block":1,"Trial":1,"Robot":2,"Valence":"Win","Action":"No-Go","Sham":0,"Color":"blue","trial_type":"pit-trial","trial_index":16,"time_elapsed":509555,"internal_node_id":"0.0-5.0","task_version":"test-retest-t3"},{"Rune":"rune_05_jeran","Hex":"#ffcc3399","Correct":-1,"Choice":-1,"RT":-1,"Accuracy":1,"Outcome":"-10","Keys":[],"TotalKeys":0,"Block":1,"Trial":2,"Robot":4,"Valence":"Lose","Action":"No-Go","Sham":1,"Color":"yellow","trial_type":"pit-trial","trial_index":17,"time_elapsed":513568,"internal_node_id":"0.0-6.0","task_version":"test-retest-t3"},{"Rune":"rune_05_ior","Hex":"#3366ff99","Correct":32,"Choice":32,"RT":666.2549999309704,"Accuracy":1,"Outcome":"+10","Keys":[2167.230000020936],"TotalKeys":1,"Block":1,"Trial":3,"Robot":1,"Valence":"Win","Action":"Go","Sham":0,"Color":"blue","trial_type":"pit-trial","trial_index":18,"time_elapsed":516745,"internal_node_id":"0.0-7.0","task_version":"test-retest-t3"},{"Rune":"rune_05_tiwaz","Hex":"#ffcc3399","Correct":32,"Choice":32,"RT":545.5450000008568,"Accuracy":1,"Outcome":"-1","Keys":[2046.1199999554083],"TotalKeys":1,"Block":1,"Trial":4,"Robot":3,"Valence":"Lose","Action":"Go","Sham":0,"Color":"yellow","trial_type":"pit-trial","trial_index":19,"time_elapsed":519809,"internal_node_id":"0.0-8.0","task_version":"test-retest-t3"},{"Rune":"rune_05_ior","Hex":"#3366ff99","Correct":32,"Choice":-1,"RT":-1,"Accuracy":0,"Outcome":"+1","Keys":[],"TotalKeys":0,"Block":1,"Trial":5,"Robot":1,"Valence":"Win","Action":"Go","Sham":0,"Color":"blue","trial_type":"pit-trial","trial_index":20,"time_elapsed":523830,"internal_node_id":"0.0-9.0","task_version":"test-retest-t3"},{"Rune":"rune_05_jeran","Hex":"#ffcc3399","Correct":-1,"Choice":32,"RT":1157.5899999588728,"Accuracy":0,"Outcome":"-10","Keys":[2657.800000044517],"TotalKeys":1,"Block":1,"Trial":6,"Robot":4,"Valence":"Lose","Action":"No-Go","Sham":0,"Color":"yellow","trial_type":"pit-trial","trial_index":21,"time_elapsed":527505,"internal_node_id":"0.0-10.0","task_version":"test-retest-t3"},{"Rune":"rune_05_gebo","Hex":"#3366ff99","Correct":-1,"Choice":-1,"RT":-1,"Accuracy":1,"Outcome":"+10","Keys":[],"TotalKeys":0,"Block":1,"Trial":7,"Robot":2,"Valence":"Win","Action":"No-Go","Sham":0,"Color":"blue","trial_type":"pit-trial","trial_index":22,"time_elapsed":531521,"internal_node_id":"0.0-11.0","task_version":"test-retest-t3"},{"Rune":"rune_05_tiwaz","Hex":"#ffcc3399","Correct":32,"Choice":32,"RT":1035.440000006929,"Accuracy":1,"Outcome":"-1","Keys":[2535.6950000859797],"TotalKeys":1,"Block":1,"Trial":8,"Robot":3,"Valence":"Lose","Action":"Go","Sham":0,"Color":"yellow","trial_type":"pit-trial","trial_index":23,"time_elapsed":535067,"internal_node_id":"0.0-12.0","task_version":"test-retest-t3"},{"Rune":"rune_05_jeran","Hex":"#ffcc3399","Correct":-1,"Choice":-1,"RT":-1,"Accuracy":1,"Outcome":"-1","Keys":[],"TotalKeys":0,"Block":1,"Trial":9,"Robot":4,"Valence":"Lose","Action":"No-Go","Sham":0,"Color":"yellow","trial_type":"pit-trial","trial_index":24,"time_elapsed":539078,"internal_node_id":"0.0-13.0","task_version":"test-retest-t3"},{"Rune":"rune_05_ior","Hex":"#3366ff99","Correct":32,"Choice":32,"RT":1248.7549999495968,"Accuracy":1,"Outcome":"+1","Keys":[2749.7299999231473],"TotalKeys":1,"Block":1,"Trial":10,"Robot":1,"Valence":"Win","Action":"Go","Sham":1,"Color":"blue","trial_type":"pit-trial","trial_index":25,"time_elapsed":542838,"internal_node_id":"0.0-14.0","task_version":"test-retest-t3"},{"Rune":"rune_05_tiwaz","Hex":"#ffcc3399","Correct":32,"Choice":-1,"RT":-1,"Accuracy":0,"Outcome":"-10","Keys":[3710.495000006631],"TotalKeys":1,"Block":1,"Trial":11,"Robot":3,"Valence":"Lose","Action":"Go","Sham":0,"Color":"yellow","trial_type":"pit-trial","trial_index":26,"time_elapsed":546854,"internal_node_id":"0.0-15.0","task_version":"test-retest-t3"},{"Rune":"rune_05_gebo","Hex":"#3366ff99","Correct":-1,"Choice":32,"RT":796.015000087209,"Accuracy":0,"Outcome":"+1","Keys":[2296.405000030063],"TotalKeys":1,"Block":1,"Trial":12,"Robot":2,"Valence":"Win","Action":"No-Go","Sham":0,"Color":"blue","trial_type":"pit-trial","trial_index":27,"time_elapsed":550158,"internal_node_id":"0.0-16.0","task_version":"test-retest-t3"},{"Rune":"rune_05_gebo","Hex":"#3366ff99","Correct":-1,"Choice":-1,"RT":-1,"Accuracy":1,"Outcome":"+10","Keys":[],"TotalKeys":0,"Block":1,"Trial":13,"Robot":2,"Valence":"Win","Action":"No-Go","Sham":0,"Color":"blue","trial_type":"pit-trial","trial_index":28,"time_elapsed":554163,"internal_node_id":"0.0-17.0","task_version":"test-retest-t3"},{"Rune":"rune_05_jeran","Hex":"#ffcc3399","Correct":-1,"Choice":-1,"RT":-1,"Accuracy":1,"Outcome":"-1","Keys":[],"TotalKeys":0,"Block":1,"Trial":14,"Robot":4,"Valence":"Lose","Action":"No-Go","Sham":0,"Color":"yellow","trial_type":"pit-trial","trial_index":29,"time_elapsed":558170,"internal_node_id":"0.0-18.0","task_version":"test-retest-t3"},{"Rune":"rune_05_ior","Hex":"#3366ff99","Correct":32,"Choice":-1,"RT":-1,"Accuracy":0,"Outcome":"+1","Keys":[],"TotalKeys":0,"Block":1,"Trial":15,"Robot":1,"Valence":"Win","Action":"Go","Sham":0,"Color":"blue","trial_type":"pit-trial","trial_index":30,"time_elapsed":562178,"internal_node_id":"0.0-19.0","task_version":"test-retest-t3"},{"Rune":"rune_05_tiwaz","Hex":"#ffcc3399","Correct":32,"Choice":-1,"RT":-1,"Accuracy":0,"Outcome":"-1","Keys":[],"TotalKeys":0,"Block":1,"Trial":16,"Robot":3,"Valence":"Lose","Action":"Go","Sham":1,"Color":"yellow","trial_type":"pit-trial","trial_index":31,"time_elapsed":566187,"internal_node_id":"0.0-20.0","task_version":"test-retest-t3"},{"Rune":"rune_05_jeran","Hex":"#ffcc3399","Correct":-1,"Choice":-1,"RT":-1,"Accuracy":1,"Outcome":"-1","Keys":[],"TotalKeys":0,"Block":1,"Trial":17,"Robot":4,"Valence":"Lose","Action":"No-Go","Sham":0,"Color":"yellow","trial_type":"pit-trial","trial_index":32,"time_elapsed":570194,"internal_node_id":"0.0-21.0","task_version":"test-retest-t3"},{"Rune":"rune_05_gebo","Hex":"#3366ff99","Correct":-1,"Choice":-1,"RT":-1,"Accuracy":1,"Outcome":"+1","Keys":[],"TotalKeys":0,"Block":1,"Trial":18,"Robot":2,"Valence":"Win","Action":"No-Go","Sham":1,"Color":"blue","trial_type":"pit-trial","trial_index":33,"time_elapsed":574205,"internal_node_id":"0.0-22.0","task_version":"test-retest-t3"},{"Rune":"rune_05_tiwaz","Hex":"#ffcc3399","Correct":32,"Choice":-1,"RT":-1,"Accuracy":0,"Outcome":"-10","Keys":[],"TotalKeys":0,"Block":1,"Trial":19,"Robot":3,"Valence":"Lose","Action":"Go","Sham":0,"Color":"yellow","trial_type":"pit-trial","trial_index":34,"time_elapsed":578219,"internal_node_id":"0.0-23.0","task_version":"test-retest-t3"},{"Rune":"rune_05_ior","Hex":"#3366ff99","Correct":32,"Choice":32,"RT":951.0599999921396,"Accuracy":1,"Outcome":"+10","Keys":[2452.8100000461563],"TotalKeys":1,"Block":1,"Trial":20,"Robot":1,"Valence":"Win","Action":"Go","Sham":0,"Color":"blue","trial_type":"pit-trial","trial_index":35,"time_elapsed":581687,"internal_node_id":"0.0-24.0","task_version":"test-retest-t3"},{"Rune":"rune_05_tiwaz","Hex":"#ffcc3399","Correct":32,"Choice":-1,"RT":-1,"Accuracy":0,"Outcome":"-10","Keys":[],"TotalKeys":0,"Block":1,"Trial":21,"Robot":3,"Valence":"Lose","Action":"Go","Sham":0,"Color":"yellow","trial_type":"pit-trial","trial_index":36,"time_elapsed":585694,"internal_node_id":"0.0-25.0","task_version":"test-retest-t3"},{"Rune":"rune_05_gebo","Hex":"#3366ff99","Correct":-1,"Choice":32,"RT":1281.1550000915304,"Accuracy":0,"Outcome":"+1","Keys":[2783.6050000041723],"TotalKeys":1,"Block":1,"Trial":22,"Robot":2,"Valence":"Win","Action":"No-Go","Sham":0,"Color":"blue","trial_type":"pit-trial","trial_index":37,"time_elapsed":589486,"internal_node_id":"0.0-26.0","task_version":"test-retest-t3"},{"Rune":"rune_05_ior","Hex":"#3366ff99","Correct":32,"Choice":-1,"RT":-1,"Accuracy":0,"Outcome":"+1","Keys":[3061.5949999773875],"TotalKeys":1,"Block":1,"Trial":23,"Robot":1,"Valence":"Win","Action":"Go","Sham":0,"Color":"blue","trial_type":"pit-trial","trial_index":38,"time_elapsed":593507,"internal_node_id":"0.0-27.0","task_version":"test-retest-t3"},{"Rune":"rune_05_jeran","Hex":"#ffcc3399","Correct":-1,"Choice":32,"RT":1162.2649999335408,"Accuracy":0,"Outcome":"-10","Keys":[2665.3250000672415],"TotalKeys":1,"Block":1,"Trial":24,"Robot":4,"Valence":"Lose","Action":"No-Go","Sham":0,"Color":"yellow","trial_type":"pit-trial","trial_index":39,"time_elapsed":597182,"internal_node_id":"0.0-28.0","task_version":"test-retest-t3"},{"Rune":"rune_05_ior","Hex":"#3366ff99","Correct":32,"Choice":32,"RT":975.6550000747666,"Accuracy":1,"Outcome":"+10","Keys":[2475.8900000015274],"TotalKeys":1,"Block":1,"Trial":25,"Robot":1,"Valence":"Win","Action":"Go","Sham":0,"Color":"blue","trial_type":"pit-trial","trial_index":40,"time_elapsed":600665,"internal_node_id":"0.0-29.0","task_version":"test-retest-t3"},{"Rune":"rune_05_jeran","Hex":"#ffcc3399","Correct":-1,"Choice":32,"RT":633.2550001097843,"Accuracy":0,"Outcome":"-1","Keys":[2134.025000035763],"TotalKeys":1,"Block":1,"Trial":26,"Robot":4,"Valence":"Lose","Action":"No-Go","Sham":1,"Color":"yellow","trial_type":"pit-trial","trial_index":41,"time_elapsed":603807,"internal_node_id":"0.0-30.0","task_version":"test-retest-t3"},{"Rune":"rune_05_tiwaz","Hex":"#ffcc3399","Correct":32,"Choice":-1,"RT":-1,"Accuracy":0,"Outcome":"-1","Keys":[],"TotalKeys":0,"Block":1,"Trial":27,"Robot":3,"Valence":"Lose","Action":"Go","Sham":1,"Color":"yellow","trial_type":"pit-trial","trial_index":42,"time_elapsed":607825,"internal_node_id":"0.0-31.0","task_version":"test-retest-t3"},{"Rune":"rune_05_gebo","Hex":"#3366ff99","Correct":-1,"Choice":32,"RT":1078.8149998988956,"Accuracy":0,"Outcome":"+10","Keys":[2578.8249999750406],"TotalKeys":1,"Block":1,"Trial":28,"Robot":2,"Valence":"Win","Action":"No-Go","Sham":1,"Color":"blue","trial_type":"pit-trial","trial_index":43,"time_elapsed":611419,"internal_node_id":"0.0-32.0","task_version":"test-retest-t3"},{"Rune":"rune_05_jeran","Hex":"#ffcc3399","Correct":-1,"Choice":32,"RT":931.6800000378862,"Accuracy":0,"Outcome":"-10","Keys":[2431.914999964647],"TotalKeys":1,"Block":1,"Trial":29,"Robot":4,"Valence":"Lose","Action":"No-Go","Sham":0,"Color":"yellow","trial_type":"pit-trial","trial_index":44,"time_elapsed":614864,"internal_node_id":"0.0-33.0","task_version":"test-retest-t3"},{"Rune":"rune_05_gebo","Hex":"#3366ff99","Correct":-1,"Choice":32,"RT":598.5799999907613,"Accuracy":0,"Outcome":"+1","Keys":[2099.25500000827],"TotalKeys":1,"Block":1,"Trial":30,"Robot":2,"Valence":"Win","Action":"No-Go","Sham":0,"Color":"blue","trial_type":"pit-trial","trial_index":45,"time_elapsed":617980,"internal_node_id":"0.0-34.0","task_version":"test-retest-t3"},{"Rune":"rune_05_ior","Hex":"#3366ff99","Correct":32,"Choice":32,"RT":569.6250000037253,"Accuracy":1,"Outcome":"+10","Keys":[2070.259999949485],"TotalKeys":1,"Block":1,"Trial":31,"Robot":1,"Valence":"Win","Action":"Go","Sham":0,"Color":"blue","trial_type":"pit-trial","trial_index":46,"time_elapsed":621066,"internal_node_id":"0.0-35.0","task_version":"test-retest-t3"},{"Rune":"rune_05_tiwaz","Hex":"#ffcc3399","Correct":32,"Choice":-1,"RT":-1,"Accuracy":0,"Outcome":"-10","Keys":[],"TotalKeys":0,"Block":1,"Trial":32,"Robot":3,"Valence":"Lose","Action":"Go","Sham":0,"Color":"yellow","trial_type":"pit-trial","trial_index":47,"time_elapsed":625073,"internal_node_id":"0.0-36.0","task_version":"test-retest-t3"},{"Rune":"rune_05_ior","Hex":"#3366ff99","Correct":32,"Choice":32,"RT":1200.3750000149012,"Accuracy":1,"Outcome":"+10","Keys":[2701.1400000192225],"TotalKeys":1,"Block":1,"Trial":33,"Robot":1,"Valence":"Win","Action":"Go","Sham":0,"Color":"blue","trial_type":"pit-trial","trial_index":48,"time_elapsed":628783,"internal_node_id":"0.0-37.0","task_version":"test-retest-t3"},{"Rune":"rune_05_gebo","Hex":"#3366ff99","Correct":-1,"Choice":-1,"RT":-1,"Accuracy":1,"Outcome":"+10","Keys":[],"TotalKeys":0,"Block":1,"Trial":34,"Robot":2,"Valence":"Win","Action":"No-Go","Sham":0,"Color":"blue","trial_type":"pit-trial","trial_index":49,"time_elapsed":632801,"internal_node_id":"0.0-38.0","task_version":"test-retest-t3"},{"Rune":"rune_05_tiwaz","Hex":"#ffcc3399","Correct":32,"Choice":32,"RT":706.6199999535456,"Accuracy":1,"Outcome":"-1","Keys":[2207.4199999915436],"TotalKeys":1,"Block":1,"Trial":35,"Robot":3,"Valence":"Lose","Action":"Go","Sham":0,"Color":"yellow","trial_type":"pit-trial","trial_index":50,"time_elapsed":636023,"internal_node_id":"0.0-39.0","task_version":"test-retest-t3"},{"Rune":"rune_05_jeran","Hex":"#ffcc3399","Correct":-1,"Choice":-1,"RT":-1,"Accuracy":1,"Outcome":"-1","Keys":[],"TotalKeys":0,"Block":1,"Trial":36,"Robot":4,"Valence":"Lose","Action":"No-Go","Sham":0,"Color":"yellow","trial_type":"pit-trial","trial_index":51,"time_elapsed":640034,"internal_node_id":"0.0-40.0","task_version":"test-retest-t3"},{"Rune":"rune_05_ior","Hex":"#3366ff99","Correct":32,"Choice":32,"RT":658.8800000026822,"Accuracy":1,"Outcome":"+1","Keys":[2159.7549999132752],"TotalKeys":1,"Block":1,"Trial":37,"Robot":1,"Valence":"Win","Action":"Go","Sham":1,"Color":"blue","trial_type":"pit-trial","trial_index":52,"time_elapsed":643208,"internal_node_id":"0.0-41.0","task_version":"test-retest-t3"},{"Rune":"rune_05_gebo","Hex":"#3366ff99","Correct":-1,"Choice":-1,"RT":-1,"Accuracy":1,"Outcome":"+10","Keys":[],"TotalKeys":0,"Block":1,"Trial":38,"Robot":2,"Valence":"Win","Action":"No-Go","Sham":0,"Color":"blue","trial_type":"pit-trial","trial_index":53,"time_elapsed":647218,"internal_node_id":"0.0-42.0","task_version":"test-retest-t3"},{"Rune":"rune_05_tiwaz","Hex":"#ffcc3399","Correct":32,"Choice":32,"RT":813.2650000043213,"Accuracy":1,"Outcome":"-1","Keys":[2313.5699999984354],"TotalKeys":1,"Block":1,"Trial":39,"Robot":3,"Valence":"Lose","Action":"Go","Sham":0,"Color":"yellow","trial_type":"pit-trial","trial_index":54,"time_elapsed":650544,"internal_node_id":"0.0-43.0","task_version":"test-retest-t3"},{"Rune":"rune_05_jeran","Hex":"#ffcc3399","Correct":-1,"Choice":-1,"RT":-1,"Accuracy":1,"Outcome":"-1","Keys":[],"TotalKeys":0,"Block":1,"Trial":40,"Robot":4,"Valence":"Lose","Action":"No-Go","Sham":0,"Color":"yellow","trial_type":"pit-trial","trial_index":55,"time_elapsed":654564,"internal_node_id":"0.0-44.0","task_version":"test-retest-t3"},{"Rune":"rune_05_gebo","Hex":"#3366ff99","Correct":-1,"Choice":-1,"RT":-1,"Accuracy":1,"Outcome":"+10","Keys":[],"TotalKeys":0,"Block":1,"Trial":41,"Robot":2,"Valence":"Win","Action":"No-Go","Sham":0,"Color":"blue","trial_type":"pit-trial","trial_index":56,"time_elapsed":658584,"internal_node_id":"0.0-45.0","task_version":"test-retest-t3"},{"Rune":"rune_05_ior","Hex":"#3366ff99","Correct":32,"Choice":32,"RT":813.1650000577793,"Accuracy":1,"Outcome":"+10","Keys":[2313.899999950081],"TotalKeys":1,"Block":1,"Trial":42,"Robot":1,"Valence":"Win","Action":"Go","Sham":0,"Color":"blue","trial_type":"pit-trial","trial_index":57,"time_elapsed":661914,"internal_node_id":"0.0-46.0","task_version":"test-retest-t3"},{"Rune":"rune_05_jeran","Hex":"#ffcc3399","Correct":-1,"Choice":-1,"RT":-1,"Accuracy":1,"Outcome":"-1","Keys":[],"TotalKeys":0,"Block":1,"Trial":43,"Robot":4,"Valence":"Lose","Action":"No-Go","Sham":0,"Color":"yellow","trial_type":"pit-trial","trial_index":58,"time_elapsed":665926,"internal_node_id":"0.0-47.0","task_version":"test-retest-t3"},{"Rune":"rune_05_tiwaz","Hex":"#ffcc3399","Correct":32,"Choice":32,"RT":406.0899999458343,"Accuracy":1,"Outcome":"-1","Keys":[1907.850000075996],"TotalKeys":1,"Block":1,"Trial":44,"Robot":3,"Valence":"Lose","Action":"Go","Sham":0,"Color":"yellow","trial_type":"pit-trial","trial_index":59,"time_elapsed":668853,"internal_node_id":"0.0-48.0","task_version":"test-retest-t3"},{"Rune":"rune_05_jeran","Hex":"#ffcc3399","Correct":-1,"Choice":-1,"RT":-1,"Accuracy":1,"Outcome":"-1","Keys":[],"TotalKeys":0,"Block":1,"Trial":45,"Robot":4,"Valence":"Lose","Action":"No-Go","Sham":0,"Color":"yellow","trial_type":"pit-trial","trial_index":60,"time_elapsed":672864,"internal_node_id":"0.0-49.0","task_version":"test-retest-t3"},{"Rune":"rune_05_tiwaz","Hex":"#ffcc3399","Correct":32,"Choice":32,"RT":930.7999999728054,"Accuracy":1,"Outcome":"-1","Keys":[2431.1900000320747],"TotalKeys":1,"Block":1,"Trial":46,"Robot":3,"Valence":"Lose","Action":"Go","Sham":0,"Color":"yellow","trial_type":"pit-trial","trial_index":61,"time_elapsed":676307,"internal_node_id":"0.0-50.0","task_version":"test-retest-t3"},{"Rune":"rune_05_gebo","Hex":"#3366ff99","Correct":-1,"Choice":-1,"RT":-1,"Accuracy":1,"Outcome":"+1","Keys":[],"TotalKeys":0,"Block":1,"Trial":47,"Robot":2,"Valence":"Win","Action":"No-Go","Sham":1,"Color":"blue","trial_type":"pit-trial","trial_index":62,"time_elapsed":680324,"internal_node_id":"0.0-51.0","task_version":"test-retest-t3"},{"Rune":"rune_05_ior","Hex":"#3366ff99","Correct":32,"Choice":32,"RT":497.68500006757677,"Accuracy":1,"Outcome":"+10","Keys":[1998.5500000184402],"TotalKeys":1,"Block":1,"Trial":48,"Robot":1,"Valence":"Win","Action":"Go","Sham":0,"Color":"blue","trial_type":"pit-trial","trial_index":63,"time_elapsed":683334,"internal_node_id":"0.0-52.0","task_version":"test-retest-t3"},{"Rune":"rune_05_tiwaz","Hex":"#ffcc3399","Correct":32,"Choice":32,"RT":1023.769999970682,"Accuracy":1,"Outcome":"-1","Keys":[2524.3550000013784],"TotalKeys":1,"Block":1,"Trial":49,"Robot":3,"Valence":"Lose","Action":"Go","Sham":0,"Color":"yellow","trial_type":"pit-trial","trial_index":64,"time_elapsed":686875,"internal_node_id":"0.0-53.0","task_version":"test-retest-t3"},{"Rune":"rune_05_ior","Hex":"#3366ff99","Correct":32,"Choice":32,"RT":893.1449999799952,"Accuracy":1,"Outcome":"+10","Keys":[2393.170000053942],"TotalKeys":1,"Block":1,"Trial":50,"Robot":1,"Valence":"Win","Action":"Go","Sham":0,"Color":"blue","trial_type":"pit-trial","trial_index":65,"time_elapsed":690281,"internal_node_id":"0.0-54.0","task_version":"test-retest-t3"},{"Rune":"rune_05_jeran","Hex":"#ffcc3399","Correct":-1,"Choice":-1,"RT":-1,"Accuracy":1,"Outcome":"-1","Keys":[],"TotalKeys":0,"Block":1,"Trial":51,"Robot":4,"Valence":"Lose","Action":"No-Go","Sham":0,"Color":"yellow","trial_type":"pit-trial","trial_index":66,"time_elapsed":694299,"internal_node_id":"0.0-55.0","task_version":"test-retest-t3"},{"Rune":"rune_05_gebo","Hex":"#3366ff99","Correct":-1,"Choice":32,"RT":674.0149999968708,"Accuracy":0,"Outcome":"+1","Keys":[2178.3800000557676],"TotalKeys":1,"Block":1,"Trial":52,"Robot":2,"Valence":"Win","Action":"No-Go","Sham":0,"Color":"blue","trial_type":"pit-trial","trial_index":67,"time_elapsed":697491,"internal_node_id":"0.0-56.0","task_version":"test-retest-t3"},{"Rune":"rune_05_jeran","Hex":"#ffcc3399","Correct":-1,"Choice":-1,"RT":-1,"Accuracy":1,"Outcome":"-1","Keys":[],"TotalKeys":0,"Block":1,"Trial":53,"Robot":4,"Valence":"Lose","Action":"No-Go","Sham":0,"Color":"yellow","trial_type":"pit-trial","trial_index":68,"time_elapsed":701501,"internal_node_id":"0.0-57.0","task_version":"test-retest-t3"},{"Rune":"rune_05_tiwaz","Hex":"#ffcc3399","Correct":32,"Choice":32,"RT":835.1099999854341,"Accuracy":1,"Outcome":"-10","Keys":[2337.650000001304],"TotalKeys":1,"Block":1,"Trial":54,"Robot":3,"Valence":"Lose","Action":"Go","Sham":1,"Color":"yellow","trial_type":"pit-trial","trial_index":69,"time_elapsed":704851,"internal_node_id":"0.0-58.0","task_version":"test-retest-t3"},{"Rune":"rune_05_gebo","Hex":"#3366ff99","Correct":-1,"Choice":-1,"RT":-1,"Accuracy":1,"Outcome":"+10","Keys":[],"TotalKeys":0,"Block":1,"Trial":55,"Robot":2,"Valence":"Win","Action":"No-Go","Sham":0,"Color":"blue","trial_type":"pit-trial","trial_index":70,"time_elapsed":708870,"internal_node_id":"0.0-59.0","task_version":"test-retest-t3"},{"Rune":"rune_05_ior","Hex":"#3366ff99","Correct":32,"Choice":32,"RT":441.4600000018254,"Accuracy":1,"Outcome":"+1","Keys":[1942.1400000574067],"TotalKeys":1,"Block":1,"Trial":56,"Robot":1,"Valence":"Win","Action":"Go","Sham":1,"Color":"blue","trial_type":"pit-trial","trial_index":71,"time_elapsed":711830,"internal_node_id":"0.0-60.0","task_version":"test-retest-t3"},{"Rune":"rune_05_gebo","Hex":"#3366ff99","Correct":-1,"Choice":32,"RT":1357.7049999730662,"Accuracy":0,"Outcome":"+1","Keys":[2857.689999975264],"TotalKeys":1,"Block":1,"Trial":57,"Robot":2,"Valence":"Win","Action":"No-Go","Sham":0,"Color":"blue","trial_type":"pit-trial","trial_index":72,"time_elapsed":715703,"internal_node_id":"0.0-61.0","task_version":"test-retest-t3"},{"Rune":"rune_05_tiwaz","Hex":"#ffcc3399","Correct":32,"Choice":32,"RT":1070.5450000241399,"Accuracy":1,"Outcome":"-1","Keys":[2571.1949999677017],"TotalKeys":1,"Block":1,"Trial":58,"Robot":3,"Valence":"Lose","Action":"Go","Sham":0,"Color":"yellow","trial_type":"pit-trial","trial_index":73,"time_elapsed":719287,"internal_node_id":"0.0-62.0","task_version":"test-retest-t3"},{"Rune":"rune_05_jeran","Hex":"#ffcc3399","Correct":-1,"Choice":-1,"RT":-1,"Accuracy":1,"Outcome":"-10","Keys":[3653.9199999533594],"TotalKeys":1,"Block":1,"Trial":59,"Robot":4,"Valence":"Lose","Action":"No-Go","Sham":1,"Color":"yellow","trial_type":"pit-trial","trial_index":74,"time_elapsed":723303,"internal_node_id":"0.0-63.0","task_version":"test-retest-t3"},{"Rune":"rune_05_ior","Hex":"#3366ff99","Correct":32,"Choice":-1,"RT":-1,"Accuracy":0,"Outcome":"+1","Keys":[3717.7600000286475],"TotalKeys":1,"Block":1,"Trial":60,"Robot":1,"Valence":"Win","Action":"Go","Sham":0,"Color":"blue","trial_type":"pit-trial","trial_index":75,"time_elapsed":727321,"internal_node_id":"0.0-64.0","task_version":"test-retest-t3"},{"value":false,"trial_type":"call-function","trial_index":76,"time_elapsed":727338,"internal_node_id":"0.0-65.0","task_version":"test-retest-t3"},{"view_history":"[{\"page_index\":0,\"viewing_time\":102926.65499995928},{\"page_index\":1,\"viewing_time\":1590.074999956414}]","rt":104517.77999999467,"trial_type":"pit-instructions","trial_index":77,"time_elapsed":831864,"internal_node_id":"0.0-66.0","task_version":"test-retest-t3"},{"Rune":"rune_05_ior","Hex":"#3366ff99","Correct":32,"Choice":32,"RT":633.1050000153482,"Accuracy":1,"Outcome":"+10","Keys":[2133.5099999560043],"TotalKeys":1,"Block":1,"Trial":61,"Robot":1,"Valence":"Win","Action":"Go","Sham":0,"Color":"blue","trial_type":"pit-trial","trial_index":78,"time_elapsed":835008,"internal_node_id":"0.0-67.0","task_version":"test-retest-t3"},{"Rune":"rune_05_gebo","Hex":"#3366ff99","Correct":-1,"Choice":-1,"RT":-1,"Accuracy":1,"Outcome":"+10","Keys":[],"TotalKeys":0,"Block":1,"Trial":62,"Robot":2,"Valence":"Win","Action":"No-Go","Sham":0,"Color":"blue","trial_type":"pit-trial","trial_index":79,"time_elapsed":839026,"internal_node_id":"0.0-68.0","task_version":"test-retest-t3"},{"Rune":"rune_05_jeran","Hex":"#ffcc3399","Correct":-1,"Choice":-1,"RT":-1,"Accuracy":1,"Outcome":"-1","Keys":[],"TotalKeys":0,"Block":1,"Trial":63,"Robot":4,"Valence":"Lose","Action":"No-Go","Sham":0,"Color":"yellow","trial_type":"pit-trial","trial_index":80,"time_elapsed":843042,"internal_node_id":"0.0-69.0","task_version":"test-retest-t3"},{"Rune":"rune_05_tiwaz","Hex":"#ffcc3399","Correct":32,"Choice":32,"RT":514.4550000550225,"Accuracy":1,"Outcome":"-1","Keys":[2014.8150000022724],"TotalKeys":1,"Block":1,"Trial":64,"Robot":3,"Valence":"Lose","Action":"Go","Sham":0,"Color":"yellow","trial_type":"pit-trial","trial_index":81,"time_elapsed":846071,"internal_node_id":"0.0-70.0","task_version":"test-retest-t3"},{"Rune":"rune_05_tiwaz","Hex":"#ffcc3399","Correct":32,"Choice":32,"RT":1075.124999973923,"Accuracy":1,"Outcome":"-10","Keys":[2575.9850000031292],"TotalKeys":1,"Block":1,"Trial":65,"Robot":3,"Valence":"Lose","Action":"Go","Sham":1,"Color":"yellow","trial_type":"pit-trial","trial_index":82,"time_elapsed":849658,"internal_node_id":"0.0-71.0","task_version":"test-retest-t3"},{"Rune":"rune_05_jeran","Hex":"#ffcc3399","Correct":-1,"Choice":-1,"RT":-1,"Accuracy":1,"Outcome":"-10","Keys":[],"TotalKeys":0,"Block":1,"Trial":66,"Robot":4,"Valence":"Lose","Action":"No-Go","Sham":1,"Color":"yellow","trial_type":"pit-trial","trial_index":83,"time_elapsed":853677,"internal_node_id":"0.0-72.0","task_version":"test-retest-t3"},{"Rune":"rune_05_ior","Hex":"#3366ff99","Correct":32,"Choice":32,"RT":686.615000013262,"Accuracy":1,"Outcome":"+10","Keys":[2188.190000015311],"TotalKeys":1,"Block":1,"Trial":67,"Robot":1,"Valence":"Win","Action":"Go","Sham":0,"Color":"blue","trial_type":"pit-trial","trial_index":84,"time_elapsed":856880,"internal_node_id":"0.0-73.0","task_version":"test-retest-t3"},{"Rune":"rune_05_gebo","Hex":"#3366ff99","Correct":-1,"Choice":-1,"RT":-1,"Accuracy":1,"Outcome":"+10","Keys":[],"TotalKeys":0,"Block":1,"Trial":68,"Robot":2,"Valence":"Win","Action":"No-Go","Sham":0,"Color":"blue","trial_type":"pit-trial","trial_index":85,"time_elapsed":860886,"internal_node_id":"0.0-74.0","task_version":"test-retest-t3"},{"Rune":"rune_05_gebo","Hex":"#3366ff99","Correct":-1,"Choice":32,"RT":1056.704999995418,"Accuracy":0,"Outcome":"+10","Keys":[2558.474999968894],"TotalKeys":1,"Block":1,"Trial":69,"Robot":2,"Valence":"Win","Action":"No-Go","Sham":1,"Color":"blue","trial_type":"pit-trial","trial_index":86,"time_elapsed":864455,"internal_node_id":"0.0-75.0","task_version":"test-retest-t3"},{"Rune":"rune_05_jeran","Hex":"#ffcc3399","Correct":-1,"Choice":-1,"RT":-1,"Accuracy":1,"Outcome":"-1","Keys":[],"TotalKeys":0,"Block":1,"Trial":70,"Robot":4,"Valence":"Lose","Action":"No-Go","Sham":0,"Color":"yellow","trial_type":"pit-trial","trial_index":87,"time_elapsed":868473,"internal_node_id":"0.0-76.0","task_version":"test-retest-t3"},{"Rune":"rune_05_ior","Hex":"#3366ff99","Correct":32,"Choice":-1,"RT":-1,"Accuracy":0,"Outcome":"+10","Keys":[],"TotalKeys":0,"Block":1,"Trial":71,"Robot":1,"Valence":"Win","Action":"Go","Sham":1,"Color":"blue","trial_type":"pit-trial","trial_index":88,"time_elapsed":872491,"internal_node_id":"0.0-77.0","task_version":"test-retest-t3"},{"Rune":"rune_05_tiwaz","Hex":"#ffcc3399","Correct":32,"Choice":32,"RT":832.8099999343976,"Accuracy":1,"Outcome":"-1","Keys":[2333.3300000522286],"TotalKeys":1,"Block":1,"Trial":72,"Robot":3,"Valence":"Lose","Action":"Go","Sham":0,"Color":"yellow","trial_type":"pit-trial","trial_index":89,"time_elapsed":875841,"internal_node_id":"0.0-78.0","task_version":"test-retest-t3"},{"Rune":"rune_05_tiwaz","Hex":"#ffcc3399","Correct":32,"Choice":32,"RT":734.4100000336766,"Accuracy":1,"Outcome":"-1","Keys":[2234.7049999516457],"TotalKeys":1,"Block":1,"Trial":73,"Robot":3,"Valence":"Lose","Action":"Go","Sham":0,"Color":"yellow","trial_type":"pit-trial","trial_index":90,"time_elapsed":879089,"internal_node_id":"0.0-79.0","task_version":"test-retest-t3"},{"Rune":"rune_05_jeran","Hex":"#ffcc3399","Correct":-1,"Choice":-1,"RT":-1,"Accuracy":1,"Outcome":"-1","Keys":[],"TotalKeys":0,"Block":1,"Trial":74,"Robot":4,"Valence":"Lose","Action":"No-Go","Sham":0,"Color":"yellow","trial_type":"pit-trial","trial_index":91,"time_elapsed":883097,"internal_node_id":"0.0-80.0","task_version":"test-retest-t3"},{"Rune":"rune_05_gebo","Hex":"#3366ff99","Correct":-1,"Choice":32,"RT":667.6399999996647,"Accuracy":0,"Outcome":"+1","Keys":[2167.9299999959767],"TotalKeys":1,"Block":1,"Trial":75,"Robot":2,"Valence":"Win","Action":"No-Go","Sham":0,"Color":"blue","trial_type":"pit-trial","trial_index":92,"time_elapsed":886278,"internal_node_id":"0.0-81.0","task_version":"test-retest-t3"},{"Rune":"rune_05_ior","Hex":"#3366ff99","Correct":32,"Choice":32,"RT":742.3000000417233,"Accuracy":1,"Outcome":"+10","Keys":[2242.324999999255],"TotalKeys":1,"Block":1,"Trial":76,"Robot":1,"Valence":"Win","Action":"Go","Sham":0,"Color":"blue","trial_type":"pit-trial","trial_index":93,"time_elapsed":889534,"internal_node_id":"0.0-82.0","task_version":"test-retest-t3"},{"Rune":"rune_05_ior","Hex":"#3366ff99","Correct":32,"Choice":-1,"RT":-1,"Accuracy":0,"Outcome":"+1","Keys":[],"TotalKeys":0,"Block":1,"Trial":77,"Robot":1,"Valence":"Win","Action":"Go","Sham":0,"Color":"blue","trial_type":"pit-trial","trial_index":94,"time_elapsed":893545,"internal_node_id":"0.0-83.0","task_version":"test-retest-t3"},{"Rune":"rune_05_tiwaz","Hex":"#ffcc3399","Correct":32,"Choice":-1,"RT":-1,"Accuracy":0,"Outcome":"-10","Keys":[3809.0850000735372],"TotalKeys":1,"Block":1,"Trial":78,"Robot":3,"Valence":"Lose","Action":"Go","Sham":0,"Color":"yellow","trial_type":"pit-trial","trial_index":95,"time_elapsed":897570,"internal_node_id":"0.0-84.0","task_version":"test-retest-t3"},{"Rune":"rune_05_jeran","Hex":"#ffcc3399","Correct":-1,"Choice":32,"RT":812.8849999047816,"Accuracy":0,"Outcome":"-10","Keys":[2315.100000007078],"TotalKeys":1,"Block":1,"Trial":79,"Robot":4,"Valence":"Lose","Action":"No-Go","Sham":0,"Color":"yellow","trial_type":"pit-trial","trial_index":96,"time_elapsed":900919,"internal_node_id":"0.0-85.0","task_version":"test-retest-t3"},{"Rune":"rune_05_gebo","Hex":"#3366ff99","Correct":-1,"Choice":32,"RT":662.3949999921024,"Accuracy":0,"Outcome":"+1","Keys":[2164.420000044629],"TotalKeys":1,"Block":1,"Trial":80,"Robot":2,"Valence":"Win","Action":"No-Go","Sham":0,"Color":"blue","trial_type":"pit-trial","trial_index":97,"time_elapsed":904101,"internal_node_id":"0.0-86.0","task_version":"test-retest-t3"},{"Rune":"rune_05_ior","Hex":"#3366ff99","Correct":32,"Choice":32,"RT":1072.5950000341982,"Accuracy":1,"Outcome":"+10","Keys":[2573.039999930188],"TotalKeys":1,"Block":1,"Trial":81,"Robot":1,"Valence":"Win","Action":"Go","Sham":0,"Color":"blue","trial_type":"pit-trial","trial_index":98,"time_elapsed":907686,"internal_node_id":"0.0-87.0","task_version":"test-retest-t3"},{"Rune":"rune_05_gebo","Hex":"#3366ff99","Correct":-1,"Choice":-1,"RT":-1,"Accuracy":1,"Outcome":"+10","Keys":[],"TotalKeys":0,"Block":1,"Trial":82,"Robot":2,"Valence":"Win","Action":"No-Go","Sham":0,"Color":"blue","trial_type":"pit-trial","trial_index":99,"time_elapsed":911694,"internal_node_id":"0.0-88.0","task_version":"test-retest-t3"},{"Rune":"rune_05_jeran","Hex":"#ffcc3399","Correct":-1,"Choice":-1,"RT":-1,"Accuracy":1,"Outcome":"-1","Keys":[],"TotalKeys":0,"Block":1,"Trial":83,"Robot":4,"Valence":"Lose","Action":"No-Go","Sham":0,"Color":"yellow","trial_type":"pit-trial","trial_index":100,"time_elapsed":915706,"internal_node_id":"0.0-89.0","task_version":"test-retest-t3"},{"Rune":"rune_05_tiwaz","Hex":"#ffcc3399","Correct":32,"Choice":32,"RT":735.0550000555813,"Accuracy":1,"Outcome":"-1","Keys":[2235.5850000167266],"TotalKeys":1,"Block":1,"Trial":84,"Robot":3,"Valence":"Lose","Action":"Go","Sham":0,"Color":"yellow","trial_type":"pit-trial","trial_index":101,"time_elapsed":918959,"internal_node_id":"0.0-90.0","task_version":"test-retest-t3"},{"Rune":"rune_05_gebo","Hex":"#3366ff99","Correct":-1,"Choice":-1,"RT":-1,"Accuracy":1,"Outcome":"+1","Keys":[3226.725000073202],"TotalKeys":1,"Block":1,"Trial":85,"Robot":2,"Valence":"Win","Action":"No-Go","Sham":1,"Color":"blue","trial_type":"pit-trial","trial_index":102,"time_elapsed":922980,"internal_node_id":"0.0-91.0","task_version":"test-retest-t3"},{"Rune":"rune_05_ior","Hex":"#3366ff99","Correct":32,"Choice":32,"RT":855.31000001356,"Accuracy":1,"Outcome":"+1","Keys":[2356.6199999768287],"TotalKeys":1,"Block":1,"Trial":86,"Robot":1,"Valence":"Win","Action":"Go","Sham":1,"Color":"blue","trial_type":"pit-trial","trial_index":103,"time_elapsed":926350,"internal_node_id":"0.0-92.0","task_version":"test-retest-t3"},{"Rune":"rune_05_jeran","Hex":"#ffcc3399","Correct":-1,"Choice":-1,"RT":-1,"Accuracy":1,"Outcome":"-1","Keys":[],"TotalKeys":0,"Block":1,"Trial":87,"Robot":4,"Valence":"Lose","Action":"No-Go","Sham":0,"Color":"yellow","trial_type":"pit-trial","trial_index":104,"time_elapsed":930357,"internal_node_id":"0.0-93.0","task_version":"test-retest-t3"},{"Rune":"rune_05_tiwaz","Hex":"#ffcc3399","Correct":32,"Choice":32,"RT":814.0650000423193,"Accuracy":1,"Outcome":"-1","Keys":[2314.435000065714],"TotalKeys":1,"Block":1,"Trial":88,"Robot":3,"Valence":"Lose","Action":"Go","Sham":0,"Color":"yellow","trial_type":"pit-trial","trial_index":105,"time_elapsed":933688,"internal_node_id":"0.0-94.0","task_version":"test-retest-t3"},{"Rune":"rune_05_jeran","Hex":"#ffcc3399","Correct":-1,"Choice":-1,"RT":-1,"Accuracy":1,"Outcome":"-1","Keys":[],"TotalKeys":0,"Block":1,"Trial":89,"Robot":4,"Valence":"Lose","Action":"No-Go","Sham":0,"Color":"yellow","trial_type":"pit-trial","trial_index":106,"time_elapsed":937706,"internal_node_id":"0.0-95.0","task_version":"test-retest-t3"},{"Rune":"rune_05_ior","Hex":"#3366ff99","Correct":32,"Choice":32,"RT":756.6249999217689,"Accuracy":1,"Outcome":"+10","Keys":[2256.9450000301003],"TotalKeys":1,"Block":1,"Trial":90,"Robot":1,"Valence":"Win","Action":"Go","Sham":0,"Color":"blue","trial_type":"pit-trial","trial_index":107,"time_elapsed":940980,"internal_node_id":"0.0-96.0","task_version":"test-retest-t3"},{"Rune":"rune_05_tiwaz","Hex":"#ffcc3399","Correct":32,"Choice":32,"RT":1036.420000018552,"Accuracy":1,"Outcome":"-10","Keys":[2539.7200000006706],"TotalKeys":1,"Block":1,"Trial":91,"Robot":3,"Valence":"Lose","Action":"Go","Sham":1,"Color":"yellow","trial_type":"pit-trial","trial_index":108,"time_elapsed":944536,"internal_node_id":"0.0-97.0","task_version":"test-retest-t3"},{"Rune":"rune_05_gebo","Hex":"#3366ff99","Correct":-1,"Choice":32,"RT":926.9899999490008,"Accuracy":0,"Outcome":"+1","Keys":[2427.93000000529],"TotalKeys":1,"Block":1,"Trial":92,"Robot":2,"Valence":"Win","Action":"No-Go","Sham":0,"Color":"blue","trial_type":"pit-trial","trial_index":109,"time_elapsed":947981,"internal_node_id":"0.0-98.0","task_version":"test-retest-t3"},{"Rune":"rune_05_gebo","Hex":"#3366ff99","Correct":-1,"Choice":-1,"RT":-1,"Accuracy":1,"Outcome":"+10","Keys":[],"TotalKeys":0,"Block":1,"Trial":93,"Robot":2,"Valence":"Win","Action":"No-Go","Sham":0,"Color":"blue","trial_type":"pit-trial","trial_index":110,"time_elapsed":952000,"internal_node_id":"0.0-99.0","task_version":"test-retest-t3"},{"Rune":"rune_05_jeran","Hex":"#ffcc3399","Correct":-1,"Choice":32,"RT":949.9599999981001,"Accuracy":0,"Outcome":"-1","Keys":[2450.330000021495],"TotalKeys":1,"Block":1,"Trial":94,"Robot":4,"Valence":"Lose","Action":"No-Go","Sham":1,"Color":"yellow","trial_type":"pit-trial","trial_index":111,"time_elapsed":955467,"internal_node_id":"0.0-100.0","task_version":"test-retest-t3"},{"Rune":"rune_05_tiwaz","Hex":"#ffcc3399","Correct":32,"Choice":-1,"RT":-1,"Accuracy":0,"Outcome":"-10","Keys":[],"TotalKeys":0,"Block":1,"Trial":95,"Robot":3,"Valence":"Lose","Action":"Go","Sham":0,"Color":"yellow","trial_type":"pit-trial","trial_index":112,"time_elapsed":959485,"internal_node_id":"0.0-101.0","task_version":"test-retest-t3"},{"Rune":"rune_05_ior","Hex":"#3366ff99","Correct":32,"Choice":32,"RT":831.720000016503,"Accuracy":1,"Outcome":"+10","Keys":[2332.1400000713766],"TotalKeys":1,"Block":1,"Trial":96,"Robot":1,"Valence":"Win","Action":"Go","Sham":0,"Color":"blue","trial_type":"pit-trial","trial_index":113,"time_elapsed":962827,"internal_node_id":"0.0-102.0","task_version":"test-retest-t3"},{"Rune":"rune_05_jeran","Hex":"#ffcc3399","Correct":-1,"Choice":32,"RT":915.4499999713153,"Accuracy":0,"Outcome":"-10","Keys":[2415.6850000144914],"TotalKeys":1,"Block":1,"Trial":97,"Robot":4,"Valence":"Lose","Action":"No-Go","Sham":0,"Color":"yellow","trial_type":"pit-trial","trial_index":114,"time_elapsed":966251,"internal_node_id":"0.0-103.0","task_version":"test-retest-t3"},{"Rune":"rune_05_ior","Hex":"#3366ff99","Correct":32,"Choice":32,"RT":999.1950000403449,"Accuracy":1,"Outcome":"+10","Keys":[2499.4550000410527],"TotalKeys":1,"Block":1,"Trial":98,"Robot":1,"Valence":"Win","Action":"Go","Sham":0,"Color":"blue","trial_type":"pit-trial","trial_index":115,"time_elapsed":969762,"internal_node_id":"0.0-104.0","task_version":"test-retest-t3"},{"Rune":"rune_05_tiwaz","Hex":"#ffcc3399","Correct":32,"Choice":32,"RT":855.7749999454245,"Accuracy":1,"Outcome":"-1","Keys":[2356.1200000112876],"TotalKeys":1,"Block":1,"Trial":99,"Robot":3,"Valence":"Lose","Action":"Go","Sham":0,"Color":"yellow","trial_type":"pit-trial","trial_index":116,"time_elapsed":973132,"internal_node_id":"0.0-105.0","task_version":"test-retest-t3"},{"Rune":"rune_05_gebo","Hex":"#3366ff99","Correct":-1,"Choice":-1,"RT":-1,"Accuracy":1,"Outcome":"+10","Keys":[],"TotalKeys":0,"Block":1,"Trial":100,"Robot":2,"Valence":"Win","Action":"No-Go","Sham":0,"Color":"blue","trial_type":"pit-trial","trial_index":117,"time_elapsed":977140,"internal_node_id":"0.0-106.0","task_version":"test-retest-t3"},{"Rune":"rune_05_ior","Hex":"#3366ff99","Correct":32,"Choice":32,"RT":873.4699999913573,"Accuracy":1,"Outcome":"+10","Keys":[2373.795000021346],"TotalKeys":1,"Block":1,"Trial":101,"Robot":1,"Valence":"Win","Action":"Go","Sham":0,"Color":"blue","trial_type":"pit-trial","trial_index":118,"time_elapsed":980522,"internal_node_id":"0.0-107.0","task_version":"test-retest-t3"},{"Rune":"rune_05_jeran","Hex":"#ffcc3399","Correct":-1,"Choice":32,"RT":933.3150000311434,"Accuracy":0,"Outcome":"-10","Keys":[2434.0749999973923],"TotalKeys":1,"Block":1,"Trial":102,"Robot":4,"Valence":"Lose","Action":"No-Go","Sham":0,"Color":"yellow","trial_type":"pit-trial","trial_index":119,"time_elapsed":983972,"internal_node_id":"0.0-108.0","task_version":"test-retest-t3"},{"Rune":"rune_05_tiwaz","Hex":"#ffcc3399","Correct":32,"Choice":32,"RT":876.6400000313297,"Accuracy":1,"Outcome":"-1","Keys":[2377.3499999661],"TotalKeys":1,"Block":1,"Trial":103,"Robot":3,"Valence":"Lose","Action":"Go","Sham":0,"Color":"yellow","trial_type":"pit-trial","trial_index":120,"time_elapsed":987358,"internal_node_id":"0.0-109.0","task_version":"test-retest-t3"},{"Rune":"rune_05_gebo","Hex":"#3366ff99","Correct":-1,"Choice":-1,"RT":-1,"Accuracy":1,"Outcome":"+10","Keys":[],"TotalKeys":0,"Block":1,"Trial":104,"Robot":2,"Valence":"Win","Action":"No-Go","Sham":0,"Color":"blue","trial_type":"pit-trial","trial_index":121,"time_elapsed":991376,"internal_node_id":"0.0-110.0","task_version":"test-retest-t3"},{"Rune":"rune_05_ior","Hex":"#3366ff99","Correct":32,"Choice":32,"RT":982.6800000155345,"Accuracy":1,"Outcome":"+10","Keys":[2483.460000017658],"TotalKeys":1,"Block":1,"Trial":105,"Robot":1,"Valence":"Win","Action":"Go","Sham":0,"Color":"blue","trial_type":"pit-trial","trial_index":122,"time_elapsed":994879,"internal_node_id":"0.0-111.0","task_version":"test-retest-t3"},{"Rune":"rune_05_tiwaz","Hex":"#ffcc3399","Correct":32,"Choice":-1,"RT":-1,"Accuracy":0,"Outcome":"-10","Keys":[],"TotalKeys":0,"Block":1,"Trial":106,"Robot":3,"Valence":"Lose","Action":"Go","Sham":0,"Color":"yellow","trial_type":"pit-trial","trial_index":123,"time_elapsed":998895,"internal_node_id":"0.0-112.0","task_version":"test-retest-t3"},{"Rune":"rune_05_jeran","Hex":"#ffcc3399","Correct":-1,"Choice":32,"RT":688.6950000189245,"Accuracy":0,"Outcome":"-1","Keys":[2190.104999928735],"TotalKeys":1,"Block":1,"Trial":107,"Robot":4,"Valence":"Lose","Action":"No-Go","Sham":1,"Color":"yellow","trial_type":"pit-trial","trial_index":124,"time_elapsed":1002093,"internal_node_id":"0.0-113.0","task_version":"test-retest-t3"},{"Rune":"rune_05_gebo","Hex":"#3366ff99","Correct":-1,"Choice":32,"RT":1106.7000000039116,"Accuracy":0,"Outcome":"+10","Keys":[2608.280000044033],"TotalKeys":1,"Block":1,"Trial":108,"Robot":2,"Valence":"Win","Action":"No-Go","Sham":1,"Color":"blue","trial_type":"pit-trial","trial_index":125,"time_elapsed":1005709,"internal_node_id":"0.0-114.0","task_version":"test-retest-t3"},{"Rune":"rune_05_gebo","Hex":"#3366ff99","Correct":-1,"Choice":-1,"RT":-1,"Accuracy":1,"Outcome":"+10","Keys":[],"TotalKeys":0,"Block":1,"Trial":109,"Robot":2,"Valence":"Win","Action":"No-Go","Sham":0,"Color":"blue","trial_type":"pit-trial","trial_index":126,"time_elapsed":1009719,"internal_node_id":"0.0-115.0","task_version":"test-retest-t3"},{"Rune":"rune_05_ior","Hex":"#3366ff99","Correct":32,"Choice":32,"RT":659.6850000787526,"Accuracy":1,"Outcome":"+10","Keys":[2159.7799999872223],"TotalKeys":1,"Block":1,"Trial":110,"Robot":1,"Valence":"Win","Action":"Go","Sham":0,"Color":"blue","trial_type":"pit-trial","trial_index":127,"time_elapsed":1012889,"internal_node_id":"0.0-116.0","task_version":"test-retest-t3"},{"Rune":"rune_05_jeran","Hex":"#ffcc3399","Correct":-1,"Choice":-1,"RT":-1,"Accuracy":1,"Outcome":"-1","Keys":[],"TotalKeys":0,"Block":1,"Trial":111,"Robot":4,"Valence":"Lose","Action":"No-Go","Sham":0,"Color":"yellow","trial_type":"pit-trial","trial_index":128,"time_elapsed":1016903,"internal_node_id":"0.0-117.0","task_version":"test-retest-t3"},{"Rune":"rune_05_tiwaz","Hex":"#ffcc3399","Correct":32,"Choice":-1,"RT":-1,"Accuracy":0,"Outcome":"-10","Keys":[],"TotalKeys":0,"Block":1,"Trial":112,"Robot":3,"Valence":"Lose","Action":"Go","Sham":0,"Color":"yellow","trial_type":"pit-trial","trial_index":129,"time_elapsed":1020913,"internal_node_id":"0.0-118.0","task_version":"test-retest-t3"},{"Rune":"rune_05_tiwaz","Hex":"#ffcc3399","Correct":32,"Choice":32,"RT":750.8349999552593,"Accuracy":1,"Outcome":"-1","Keys":[2252.1349999587983],"TotalKeys":1,"Block":1,"Trial":113,"Robot":3,"Valence":"Lose","Action":"Go","Sham":0,"Color":"yellow","trial_type":"pit-trial","trial_index":130,"time_elapsed":1024171,"internal_node_id":"0.0-119.0","task_version":"test-retest-t3"},{"Rune":"rune_05_jeran","Hex":"#ffcc3399","Correct":-1,"Choice":-1,"RT":-1,"Accuracy":1,"Outcome":"-1","Keys":[3267.0149999903515],"TotalKeys":1,"Block":1,"Trial":114,"Robot":4,"Valence":"Lose","Action":"No-Go","Sham":0,"Color":"yellow","trial_type":"pit-trial","trial_index":131,"time_elapsed":1028180,"internal_node_id":"0.0-120.0","task_version":"test-retest-t3"},{"Rune":"rune_05_ior","Hex":"#3366ff99","Correct":32,"Choice":-1,"RT":-1,"Accuracy":0,"Outcome":"+1","Keys":[3254.0850000223145],"TotalKeys":1,"Block":1,"Trial":115,"Robot":1,"Valence":"Win","Action":"Go","Sham":0,"Color":"blue","trial_type":"pit-trial","trial_index":132,"time_elapsed":1032188,"internal_node_id":"0.0-121.0","task_version":"test-retest-t3"},{"Rune":"rune_05_gebo","Hex":"#3366ff99","Correct":-1,"Choice":-1,"RT":-1,"Accuracy":1,"Outcome":"+10","Keys":[],"TotalKeys":0,"Block":1,"Trial":116,"Robot":2,"Valence":"Win","Action":"No-Go","Sham":0,"Color":"blue","trial_type":"pit-trial","trial_index":133,"time_elapsed":1036198,"internal_node_id":"0.0-122.0","task_version":"test-retest-t3"},{"Rune":"rune_05_gebo","Hex":"#3366ff99","Correct":-1,"Choice":-1,"RT":-1,"Accuracy":1,"Outcome":"+10","Keys":[],"TotalKeys":0,"Block":1,"Trial":117,"Robot":2,"Valence":"Win","Action":"No-Go","Sham":0,"Color":"blue","trial_type":"pit-trial","trial_index":134,"time_elapsed":1040211,"internal_node_id":"0.0-123.0","task_version":"test-retest-t3"},{"Rune":"rune_05_ior","Hex":"#3366ff99","Correct":32,"Choice":32,"RT":744.1200000466779,"Accuracy":1,"Outcome":"+1","Keys":[2246.614999952726],"TotalKeys":1,"Block":1,"Trial":118,"Robot":1,"Valence":"Win","Action":"Go","Sham":1,"Color":"blue","trial_type":"pit-trial","trial_index":135,"time_elapsed":1043469,"internal_node_id":"0.0-124.0","task_version":"test-retest-t3"},{"Rune":"rune_05_tiwaz","Hex":"#ffcc3399","Correct":32,"Choice":32,"RT":598.3649999834597,"Accuracy":1,"Outcome":"-10","Keys":[2099.244999932125],"TotalKeys":1,"Block":1,"Trial":119,"Robot":3,"Valence":"Lose","Action":"Go","Sham":1,"Color":"yellow","trial_type":"pit-trial","trial_index":136,"time_elapsed":1046577,"internal_node_id":"0.0-125.0","task_version":"test-retest-t3"},{"Rune":"rune_05_jeran","Hex":"#ffcc3399","Correct":-1,"Choice":32,"RT":984.1750001069158,"Accuracy":0,"Outcome":"-10","Keys":[2485.095000010915],"TotalKeys":1,"Block":1,"Trial":120,"Robot":4,"Valence":"Lose","Action":"No-Go","Sham":0,"Color":"yellow","trial_type":"pit-trial","trial_index":137,"time_elapsed":1050069,"internal_node_id":"0.0-126.0","task_version":"test-retest-t3"},{"view_history":"[{\"page_index\":0,\"viewing_time\":134245.69000001065},{\"page_index\":1,\"viewing_time\":39321.065000025555},{\"page_index\":2,\"viewing_time\":1066.4749999996275}]","rt":174634.36000002548,"trial_type":"pit-instructions","trial_index":138,"time_elapsed":1224712,"internal_node_id":"0.0-127.0","task_version":"test-retest-t3"},{"Rune":"rune_06_berkanan","Hex":"#ffcc3399","Correct":-1,"Choice":-1,"RT":-1,"Accuracy":1,"Outcome":"-10","Keys":[],"TotalKeys":0,"Block":2,"Trial":121,"Robot":4,"Valence":"Lose","Action":"No-Go","Sham":1,"Color":"yellow","trial_type":"pit-trial","trial_index":139,"time_elapsed":1228729,"internal_node_id":"0.0-128.0","task_version":"test-retest-t3"},{"Rune":"rune_06_ehwaz","Hex":"#ffcc3399","Correct":32,"Choice":-1,"RT":-1,"Accuracy":0,"Outcome":"-10","Keys":[],"TotalKeys":0,"Block":2,"Trial":122,"Robot":3,"Valence":"Lose","Action":"Go","Sham":0,"Color":"yellow","trial_type":"pit-trial","trial_index":140,"time_elapsed":1232746,"internal_node_id":"0.0-129.0","task_version":"test-retest-t3"},{"Rune":"rune_06_ansuz","Hex":"#3366ff99","Correct":-1,"Choice":32,"RT":991.8749999487773,"Accuracy":0,"Outcome":"+1","Keys":[2492.1449999092147],"TotalKeys":1,"Block":2,"Trial":123,"Robot":2,"Valence":"Win","Action":"No-Go","Sham":0,"Color":"blue","trial_type":"pit-trial","trial_index":141,"time_elapsed":1236256,"internal_node_id":"0.0-130.0","task_version":"test-retest-t3"},{"Rune":"rune_06_cweord","Hex":"#3366ff99","Correct":32,"Choice":-1,"RT":-1,"Accuracy":0,"Outcome":"+1","Keys":[3475.555000011809],"TotalKeys":1,"Block":2,"Trial":124,"Robot":1,"Valence":"Win","Action":"Go","Sham":0,"Color":"blue","trial_type":"pit-trial","trial_index":142,"time_elapsed":1240274,"internal_node_id":"0.0-131.0","task_version":"test-retest-t3"},{"Rune":"rune_06_ehwaz","Hex":"#ffcc3399","Correct":32,"Choice":32,"RT":811.3799999700859,"Accuracy":1,"Outcome":"-1","Keys":[2311.4950000308454],"TotalKeys":1,"Block":2,"Trial":125,"Robot":3,"Valence":"Lose","Action":"Go","Sham":0,"Color":"yellow","trial_type":"pit-trial","trial_index":143,"time_elapsed":1243602,"internal_node_id":"0.0-132.0","task_version":"test-retest-t3"},{"Rune":"rune_06_cweord","Hex":"#3366ff99","Correct":32,"Choice":-1,"RT":-1,"Accuracy":0,"Outcome":"+1","Keys":[],"TotalKeys":0,"Block":2,"Trial":126,"Robot":1,"Valence":"Win","Action":"Go","Sham":0,"Color":"blue","trial_type":"pit-trial","trial_index":144,"time_elapsed":1247612,"internal_node_id":"0.0-133.0","task_version":"test-retest-t3"},{"Rune":"rune_06_berkanan","Hex":"#ffcc3399","Correct":-1,"Choice":32,"RT":549.9899999704212,"Accuracy":0,"Outcome":"-10","Keys":[2051.4599999878556,2600.860000005923],"TotalKeys":2,"Block":2,"Trial":127,"Robot":4,"Valence":"Lose","Action":"No-Go","Sham":0,"Color":"yellow","trial_type":"pit-trial","trial_index":145,"time_elapsed":1250674,"internal_node_id":"0.0-134.0","task_version":"test-retest-t3"},{"Rune":"rune_06_ansuz","Hex":"#3366ff99","Correct":-1,"Choice":-1,"RT":-1,"Accuracy":1,"Outcome":"+10","Keys":[],"TotalKeys":0,"Block":2,"Trial":128,"Robot":2,"Valence":"Win","Action":"No-Go","Sham":0,"Color":"blue","trial_type":"pit-trial","trial_index":146,"time_elapsed":1254691,"internal_node_id":"0.0-135.0","task_version":"test-retest-t3"},{"Rune":"rune_06_berkanan","Hex":"#ffcc3399","Correct":-1,"Choice":-1,"RT":-1,"Accuracy":1,"Outcome":"-1","Keys":[],"TotalKeys":0,"Block":2,"Trial":129,"Robot":4,"Valence":"Lose","Action":"No-Go","Sham":0,"Color":"yellow","trial_type":"pit-trial","trial_index":147,"time_elapsed":1258708,"internal_node_id":"0.0-136.0","task_version":"test-retest-t3"},{"Rune":"rune_06_ansuz","Hex":"#3366ff99","Correct":-1,"Choice":32,"RT":451.8000000389293,"Accuracy":0,"Outcome":"+1","Keys":[1953.1449999194592],"TotalKeys":1,"Block":2,"Trial":130,"Robot":2,"Valence":"Win","Action":"No-Go","Sham":0,"Color":"blue","trial_type":"pit-trial","trial_index":148,"time_elapsed":1261676,"internal_node_id":"0.0-137.0","task_version":"test-retest-t3"},{"Rune":"rune_06_cweord","Hex":"#3366ff99","Correct":32,"Choice":32,"RT":330.309999990277,"Accuracy":1,"Outcome":"+1","Keys":[1831.030000001192],"TotalKeys":1,"Block":2,"Trial":131,"Robot":1,"Valence":"Win","Action":"Go","Sham":1,"Color":"blue","trial_type":"pit-trial","trial_index":149,"time_elapsed":1264516,"internal_node_id":"0.0-138.0","task_version":"test-retest-t3"},{"Rune":"rune_06_ehwaz","Hex":"#ffcc3399","Correct":32,"Choice":32,"RT":1061.1700000008568,"Accuracy":1,"Outcome":"-1","Keys":[2561.489999992773],"TotalKeys":1,"Block":2,"Trial":132,"Robot":3,"Valence":"Lose","Action":"Go","Sham":0,"Color":"yellow","trial_type":"pit-trial","trial_index":150,"time_elapsed":1268094,"internal_node_id":"0.0-139.0","task_version":"test-retest-t3"},{"Rune":"rune_06_ehwaz","Hex":"#ffcc3399","Correct":32,"Choice":-1,"RT":-1,"Accuracy":0,"Outcome":"-1","Keys":[],"TotalKeys":0,"Block":2,"Trial":133,"Robot":3,"Valence":"Lose","Action":"Go","Sham":1,"Color":"yellow","trial_type":"pit-trial","trial_index":151,"time_elapsed":1272105,"internal_node_id":"0.0-140.0","task_version":"test-retest-t3"},{"Rune":"rune_06_cweord","Hex":"#3366ff99","Correct":32,"Choice":-1,"RT":-1,"Accuracy":0,"Outcome":"+1","Keys":[3608.0399999627843],"TotalKeys":1,"Block":2,"Trial":134,"Robot":1,"Valence":"Win","Action":"Go","Sham":0,"Color":"blue","trial_type":"pit-trial","trial_index":152,"time_elapsed":1276112,"internal_node_id":"0.0-141.0","task_version":"test-retest-t3"},{"Rune":"rune_06_ansuz","Hex":"#3366ff99","Correct":-1,"Choice":32,"RT":1007.1549999993294,"Accuracy":0,"Outcome":"+1","Keys":[2507.3199999751523],"TotalKeys":1,"Block":2,"Trial":135,"Robot":2,"Valence":"Win","Action":"No-Go","Sham":0,"Color":"blue","trial_type":"pit-trial","trial_index":153,"time_elapsed":1279627,"internal_node_id":"0.0-142.0","task_version":"test-retest-t3"},{"Rune":"rune_06_berkanan","Hex":"#ffcc3399","Correct":-1,"Choice":32,"RT":617.0799999963492,"Accuracy":0,"Outcome":"-10","Keys":[2117.835000040941],"TotalKeys":1,"Block":2,"Trial":136,"Robot":4,"Valence":"Lose","Action":"No-Go","Sham":0,"Color":"yellow","trial_type":"pit-trial","trial_index":154,"time_elapsed":1282757,"internal_node_id":"0.0-143.0","task_version":"test-retest-t3"},{"Rune":"rune_06_berkanan","Hex":"#ffcc3399","Correct":-1,"Choice":32,"RT":732.8199999174103,"Accuracy":0,"Outcome":"-10","Keys":[2233.695000060834],"TotalKeys":1,"Block":2,"Trial":137,"Robot":4,"Valence":"Lose","Action":"No-Go","Sham":0,"Color":"yellow","trial_type":"pit-trial","trial_index":155,"time_elapsed":1286008,"internal_node_id":"0.0-144.0","task_version":"test-retest-t3"},{"Rune":"rune_06_ansuz","Hex":"#3366ff99","Correct":-1,"Choice":-1,"RT":-1,"Accuracy":1,"Outcome":"+1","Keys":[],"TotalKeys":0,"Block":2,"Trial":138,"Robot":2,"Valence":"Win","Action":"No-Go","Sham":1,"Color":"blue","trial_type":"pit-trial","trial_index":156,"time_elapsed":1290027,"internal_node_id":"0.0-145.0","task_version":"test-retest-t3"},{"Rune":"rune_06_ehwaz","Hex":"#ffcc3399","Correct":32,"Choice":-1,"RT":-1,"Accuracy":0,"Outcome":"-10","Keys":[],"TotalKeys":0,"Block":2,"Trial":139,"Robot":3,"Valence":"Lose","Action":"Go","Sham":0,"Color":"yellow","trial_type":"pit-trial","trial_index":157,"time_elapsed":1294047,"internal_node_id":"0.0-146.0","task_version":"test-retest-t3"},{"Rune":"rune_06_cweord","Hex":"#3366ff99","Correct":32,"Choice":32,"RT":726.410000002943,"Accuracy":1,"Outcome":"+10","Keys":[2227.324999985285],"TotalKeys":1,"Block":2,"Trial":140,"Robot":1,"Valence":"Win","Action":"Go","Sham":0,"Color":"blue","trial_type":"pit-trial","trial_index":158,"time_elapsed":1297283,"internal_node_id":"0.0-147.0","task_version":"test-retest-t3"},{"Rune":"rune_06_ansuz","Hex":"#3366ff99","Correct":-1,"Choice":-1,"RT":-1,"Accuracy":1,"Outcome":"+10","Keys":[],"TotalKeys":0,"Block":2,"Trial":141,"Robot":2,"Valence":"Win","Action":"No-Go","Sham":0,"Color":"blue","trial_type":"pit-trial","trial_index":159,"time_elapsed":1301290,"internal_node_id":"0.0-148.0","task_version":"test-retest-t3"},{"Rune":"rune_06_ehwaz","Hex":"#ffcc3399","Correct":32,"Choice":-1,"RT":-1,"Accuracy":0,"Outcome":"-10","Keys":[],"TotalKeys":0,"Block":2,"Trial":142,"Robot":3,"Valence":"Lose","Action":"Go","Sham":0,"Color":"yellow","trial_type":"pit-trial","trial_index":160,"time_elapsed":1305298,"internal_node_id":"0.0-149.0","task_version":"test-retest-t3"},{"Rune":"rune_06_cweord","Hex":"#3366ff99","Correct":32,"Choice":-1,"RT":-1,"Accuracy":0,"Outcome":"+1","Keys":[],"TotalKeys":0,"Block":2,"Trial":143,"Robot":1,"Valence":"Win","Action":"Go","Sham":0,"Color":"blue","trial_type":"pit-trial","trial_index":161,"time_elapsed":1309309,"internal_node_id":"0.0-150.0","task_version":"test-retest-t3"},{"Rune":"rune_06_berkanan","Hex":"#ffcc3399","Correct":-1,"Choice":-1,"RT":-1,"Accuracy":1,"Outcome":"-1","Keys":[],"TotalKeys":0,"Block":2,"Trial":144,"Robot":4,"Valence":"Lose","Action":"No-Go","Sham":0,"Color":"yellow","trial_type":"pit-trial","trial_index":162,"time_elapsed":1313329,"internal_node_id":"0.0-151.0","task_version":"test-retest-t3"},{"Rune":"rune_06_cweord","Hex":"#3366ff99","Correct":32,"Choice":32,"RT":568.8150000059977,"Accuracy":1,"Outcome":"+10","Keys":[2069.4450000301003],"TotalKeys":1,"Block":2,"Trial":145,"Robot":1,"Valence":"Win","Action":"Go","Sham":0,"Color":"blue","trial_type":"pit-trial","trial_index":163,"time_elapsed":1316414,"internal_node_id":"0.0-152.0","task_version":"test-retest-t3"},{"Rune":"rune_06_ansuz","Hex":"#3366ff99","Correct":-1,"Choice":-1,"RT":-1,"Accuracy":1,"Outcome":"+1","Keys":[3565.709999995306],"TotalKeys":1,"Block":2,"Trial":146,"Robot":2,"Valence":"Win","Action":"No-Go","Sham":1,"Color":"blue","trial_type":"pit-trial","trial_index":164,"time_elapsed":1320428,"internal_node_id":"0.0-153.0","task_version":"test-retest-t3"},{"Rune":"rune_06_ehwaz","Hex":"#ffcc3399","Correct":32,"Choice":-1,"RT":-1,"Accuracy":0,"Outcome":"-1","Keys":[],"TotalKeys":0,"Block":2,"Trial":147,"Robot":3,"Valence":"Lose","Action":"Go","Sham":1,"Color":"yellow","trial_type":"pit-trial","trial_index":165,"time_elapsed":1324444,"internal_node_id":"0.0-154.0","task_version":"test-retest-t3"},{"Rune":"rune_06_berkanan","Hex":"#ffcc3399","Correct":-1,"Choice":32,"RT":1179.2549999663606,"Accuracy":0,"Outcome":"-1","Keys":[2679.9299999838695],"TotalKeys":1,"Block":2,"Trial":148,"Robot":4,"Valence":"Lose","Action":"No-Go","Sham":1,"Color":"yellow","trial_type":"pit-trial","trial_index":166,"time_elapsed":1328134,"internal_node_id":"0.0-155.0","task_version":"test-retest-t3"},{"Rune":"rune_06_berkanan","Hex":"#ffcc3399","Correct":-1,"Choice":-1,"RT":-1,"Accuracy":1,"Outcome":"-1","Keys":[],"TotalKeys":0,"Block":2,"Trial":149,"Robot":4,"Valence":"Lose","Action":"No-Go","Sham":0,"Color":"yellow","trial_type":"pit-trial","trial_index":167,"time_elapsed":1332142,"internal_node_id":"0.0-156.0","task_version":"test-retest-t3"},{"Rune":"rune_06_cweord","Hex":"#3366ff99","Correct":32,"Choice":32,"RT":1360.0700000533834,"Accuracy":1,"Outcome":"+10","Keys":[2861.045000026934],"TotalKeys":1,"Block":2,"Trial":150,"Robot":1,"Valence":"Win","Action":"Go","Sham":0,"Color":"blue","trial_type":"pit-trial","trial_index":168,"time_elapsed":1336012,"internal_node_id":"0.0-157.0","task_version":"test-retest-t3"},{"Rune":"rune_06_ansuz","Hex":"#3366ff99","Correct":-1,"Choice":-1,"RT":-1,"Accuracy":1,"Outcome":"+10","Keys":[],"TotalKeys":0,"Block":2,"Trial":151,"Robot":2,"Valence":"Win","Action":"No-Go","Sham":0,"Color":"blue","trial_type":"pit-trial","trial_index":169,"time_elapsed":1340031,"internal_node_id":"0.0-158.0","task_version":"test-retest-t3"},{"Rune":"rune_06_ehwaz","Hex":"#ffcc3399","Correct":32,"Choice":32,"RT":889.214999973774,"Accuracy":1,"Outcome":"-1","Keys":[2391.5150000248104],"TotalKeys":1,"Block":2,"Trial":152,"Robot":3,"Valence":"Lose","Action":"Go","Sham":0,"Color":"yellow","trial_type":"pit-trial","trial_index":170,"time_elapsed":1343439,"internal_node_id":"0.0-159.0","task_version":"test-retest-t3"},{"Rune":"rune_06_cweord","Hex":"#3366ff99","Correct":32,"Choice":32,"RT":1239.9150000419468,"Accuracy":1,"Outcome":"+10","Keys":[2741.2950000725687],"TotalKeys":1,"Block":2,"Trial":153,"Robot":1,"Valence":"Win","Action":"Go","Sham":0,"Color":"blue","trial_type":"pit-trial","trial_index":171,"time_elapsed":1347192,"internal_node_id":"0.0-160.0","task_version":"test-retest-t3"},{"Rune":"rune_06_berkanan","Hex":"#ffcc3399","Correct":-1,"Choice":-1,"RT":-1,"Accuracy":1,"Outcome":"-1","Keys":[],"TotalKeys":0,"Block":2,"Trial":154,"Robot":4,"Valence":"Lose","Action":"No-Go","Sham":0,"Color":"yellow","trial_type":"pit-trial","trial_index":172,"time_elapsed":1351203,"internal_node_id":"0.0-161.0","task_version":"test-retest-t3"},{"Rune":"rune_06_ehwaz","Hex":"#ffcc3399","Correct":32,"Choice":32,"RT":799.8699999880046,"Accuracy":1,"Outcome":"-1","Keys":[2301.7799999797717],"TotalKeys":1,"Block":2,"Trial":155,"Robot":3,"Valence":"Lose","Action":"Go","Sham":0,"Color":"yellow","trial_type":"pit-trial","trial_index":173,"time_elapsed":1354516,"internal_node_id":"0.0-162.0","task_version":"test-retest-t3"},{"Rune":"rune_06_ansuz","Hex":"#3366ff99","Correct":-1,"Choice":-1,"RT":-1,"Accuracy":1,"Outcome":"+10","Keys":[],"TotalKeys":0,"Block":2,"Trial":156,"Robot":2,"Valence":"Win","Action":"No-Go","Sham":0,"Color":"blue","trial_type":"pit-trial","trial_index":174,"time_elapsed":1358532,"internal_node_id":"0.0-163.0","task_version":"test-retest-t3"},{"Rune":"rune_06_ehwaz","Hex":"#ffcc3399","Correct":32,"Choice":32,"RT":915.4299999354407,"Accuracy":1,"Outcome":"-1","Keys":[2415.9249999793246],"TotalKeys":1,"Block":2,"Trial":157,"Robot":3,"Valence":"Lose","Action":"Go","Sham":0,"Color":"yellow","trial_type":"pit-trial","trial_index":175,"time_elapsed":1361960,"internal_node_id":"0.0-164.0","task_version":"test-retest-t3"},{"Rune":"rune_06_ansuz","Hex":"#3366ff99","Correct":-1,"Choice":32,"RT":1299.7299999697134,"Accuracy":0,"Outcome":"+1","Keys":[2800.3099999623373],"TotalKeys":1,"Block":2,"Trial":158,"Robot":2,"Valence":"Win","Action":"No-Go","Sham":0,"Color":"blue","trial_type":"pit-trial","trial_index":176,"time_elapsed":1365775,"internal_node_id":"0.0-165.0","task_version":"test-retest-t3"},{"Rune":"rune_06_cweord","Hex":"#3366ff99","Correct":32,"Choice":32,"RT":695.4850000329316,"Accuracy":1,"Outcome":"+1","Keys":[2196.265000035055],"TotalKeys":1,"Block":2,"Trial":159,"Robot":1,"Valence":"Win","Action":"Go","Sham":1,"Color":"blue","trial_type":"pit-trial","trial_index":177,"time_elapsed":1368987,"internal_node_id":"0.0-166.0","task_version":"test-retest-t3"},{"Rune":"rune_06_berkanan","Hex":"#ffcc3399","Correct":-1,"Choice":-1,"RT":-1,"Accuracy":1,"Outcome":"-1","Keys":[],"TotalKeys":0,"Block":2,"Trial":160,"Robot":4,"Valence":"Lose","Action":"No-Go","Sham":0,"Color":"yellow","trial_type":"pit-trial","trial_index":178,"time_elapsed":1373004,"internal_node_id":"0.0-167.0","task_version":"test-retest-t3"},{"Rune":"rune_06_ansuz","Hex":"#3366ff99","Correct":-1,"Choice":32,"RT":1040.485000004992,"Accuracy":0,"Outcome":"+1","Keys":[2541.28500004299],"TotalKeys":1,"Block":2,"Trial":161,"Robot":2,"Valence":"Win","Action":"No-Go","Sham":0,"Color":"blue","trial_type":"pit-trial","trial_index":179,"time_elapsed":1376560,"internal_node_id":"0.0-168.0","task_version":"test-retest-t3"},{"Rune":"rune_06_ehwaz","Hex":"#ffcc3399","Correct":32,"Choice":32,"RT":589.2549999989569,"Accuracy":1,"Outcome":"-1","Keys":[2090.345000033267],"TotalKeys":1,"Block":2,"Trial":162,"Robot":3,"Valence":"Lose","Action":"Go","Sham":0,"Color":"yellow","trial_type":"pit-trial","trial_index":180,"time_elapsed":1379656,"internal_node_id":"0.0-169.0","task_version":"test-retest-t3"},{"Rune":"rune_06_berkanan","Hex":"#ffcc3399","Correct":-1,"Choice":-1,"RT":-1,"Accuracy":1,"Outcome":"-1","Keys":[],"TotalKeys":0,"Block":2,"Trial":163,"Robot":4,"Valence":"Lose","Action":"No-Go","Sham":0,"Color":"yellow","trial_type":"pit-trial","trial_index":181,"time_elapsed":1383664,"internal_node_id":"0.0-170.0","task_version":"test-retest-t3"},{"Rune":"rune_06_cweord","Hex":"#3366ff99","Correct":32,"Choice":-1,"RT":-1,"Accuracy":0,"Outcome":"+1","Keys":[3556.034999899566],"TotalKeys":1,"Block":2,"Trial":164,"Robot":1,"Valence":"Win","Action":"Go","Sham":0,"Color":"blue","trial_type":"pit-trial","trial_index":182,"time_elapsed":1387674,"internal_node_id":"0.0-171.0","task_version":"test-retest-t3"},{"Rune":"rune_06_cweord","Hex":"#3366ff99","Correct":32,"Choice":32,"RT":826.230000006035,"Accuracy":1,"Outcome":"+10","Keys":[2327.1900000981987],"TotalKeys":1,"Block":2,"Trial":165,"Robot":1,"Valence":"Win","Action":"Go","Sham":0,"Color":"blue","trial_type":"pit-trial","trial_index":183,"time_elapsed":1391018,"internal_node_id":"0.0-172.0","task_version":"test-retest-t3"},{"Rune":"rune_06_ansuz","Hex":"#3366ff99","Correct":-1,"Choice":-1,"RT":-1,"Accuracy":1,"Outcome":"+1","Keys":[3496.7950000427663,3522.480000043288],"TotalKeys":2,"Block":2,"Trial":166,"Robot":2,"Valence":"Win","Action":"No-Go","Sham":1,"Color":"blue","trial_type":"pit-trial","trial_index":184,"time_elapsed":1395037,"internal_node_id":"0.0-173.0","task_version":"test-retest-t3"},{"Rune":"rune_06_berkanan","Hex":"#ffcc3399","Correct":-1,"Choice":32,"RT":614.6050000097603,"Accuracy":0,"Outcome":"-10","Keys":[2115.319999982603],"TotalKeys":1,"Block":2,"Trial":167,"Robot":4,"Valence":"Lose","Action":"No-Go","Sham":0,"Color":"yellow","trial_type":"pit-trial","trial_index":185,"time_elapsed":1398168,"internal_node_id":"0.0-174.0","task_version":"test-retest-t3"},{"Rune":"rune_06_ehwaz","Hex":"#ffcc3399","Correct":32,"Choice":-1,"RT":-1,"Accuracy":0,"Outcome":"-10","Keys":[3477.4949999991804,3508.879999979399],"TotalKeys":2,"Block":2,"Trial":168,"Robot":3,"Valence":"Lose","Action":"Go","Sham":0,"Color":"yellow","trial_type":"pit-trial","trial_index":186,"time_elapsed":1402178,"internal_node_id":"0.0-175.0","task_version":"test-retest-t3"},{"Rune":"rune_06_berkanan","Hex":"#ffcc3399","Correct":-1,"Choice":32,"RT":808.8749999878928,"Accuracy":0,"Outcome":"-10","Keys":[2308.9100000215694],"TotalKeys":1,"Block":2,"Trial":169,"Robot":4,"Valence":"Lose","Action":"No-Go","Sham":0,"Color":"yellow","trial_type":"pit-trial","trial_index":187,"time_elapsed":1405496,"internal_node_id":"0.0-176.0","task_version":"test-retest-t3"},{"Rune":"rune_06_ehwaz","Hex":"#ffcc3399","Correct":32,"Choice":-1,"RT":-1,"Accuracy":0,"Outcome":"-10","Keys":[3537.5050000147894],"TotalKeys":1,"Block":2,"Trial":170,"Robot":3,"Valence":"Lose","Action":"Go","Sham":0,"Color":"yellow","trial_type":"pit-trial","trial_index":188,"time_elapsed":1409519,"internal_node_id":"0.0-177.0","task_version":"test-retest-t3"},{"Rune":"rune_06_ansuz","Hex":"#3366ff99","Correct":-1,"Choice":-1,"RT":-1,"Accuracy":1,"Outcome":"+10","Keys":[],"TotalKeys":0,"Block":2,"Trial":171,"Robot":2,"Valence":"Win","Action":"No-Go","Sham":0,"Color":"blue","trial_type":"pit-trial","trial_index":189,"time_elapsed":1413548,"internal_node_id":"0.0-178.0","task_version":"test-retest-t3"},{"Rune":"rune_06_cweord","Hex":"#3366ff99","Correct":32,"Choice":32,"RT":574.3399999337271,"Accuracy":1,"Outcome":"+10","Keys":[2081.000000005588],"TotalKeys":1,"Block":2,"Trial":172,"Robot":1,"Valence":"Win","Action":"Go","Sham":0,"Color":"blue","trial_type":"pit-trial","trial_index":190,"time_elapsed":1416646,"internal_node_id":"0.0-179.0","task_version":"test-retest-t3"},{"Rune":"rune_06_ansuz","Hex":"#3366ff99","Correct":-1,"Choice":-1,"RT":-1,"Accuracy":1,"Outcome":"+10","Keys":[],"TotalKeys":0,"Block":2,"Trial":173,"Robot":2,"Valence":"Win","Action":"No-Go","Sham":0,"Color":"blue","trial_type":"pit-trial","trial_index":191,"time_elapsed":1420664,"internal_node_id":"0.0-180.0","task_version":"test-retest-t3"},{"Rune":"rune_06_berkanan","Hex":"#ffcc3399","Correct":-1,"Choice":32,"RT":864.1099999658763,"Accuracy":0,"Outcome":"-10","Keys":[2364.7999999811873],"TotalKeys":1,"Block":2,"Trial":174,"Robot":4,"Valence":"Lose","Action":"No-Go","Sham":0,"Color":"yellow","trial_type":"pit-trial","trial_index":192,"time_elapsed":1424043,"internal_node_id":"0.0-181.0","task_version":"test-retest-t3"},{"Rune":"rune_06_ehwaz","Hex":"#ffcc3399","Correct":32,"Choice":32,"RT":1116.1599999759346,"Accuracy":1,"Outcome":"-10","Keys":[2616.4300000527874],"TotalKeys":1,"Block":2,"Trial":175,"Robot":3,"Valence":"Lose","Action":"Go","Sham":1,"Color":"yellow","trial_type":"pit-trial","trial_index":193,"time_elapsed":1427666,"internal_node_id":"0.0-182.0","task_version":"test-retest-t3"},{"Rune":"rune_06_cweord","Hex":"#3366ff99","Correct":32,"Choice":-1,"RT":-1,"Accuracy":0,"Outcome":"+10","Keys":[3041.315000038594],"TotalKeys":1,"Block":2,"Trial":176,"Robot":1,"Valence":"Win","Action":"Go","Sham":1,"Color":"blue","trial_type":"pit-trial","trial_index":194,"time_elapsed":1431678,"internal_node_id":"0.0-183.0","task_version":"test-retest-t3"},{"Rune":"rune_06_berkanan","Hex":"#ffcc3399","Correct":-1,"Choice":-1,"RT":-1,"Accuracy":1,"Outcome":"-10","Keys":[],"TotalKeys":0,"Block":2,"Trial":177,"Robot":4,"Valence":"Lose","Action":"No-Go","Sham":1,"Color":"yellow","trial_type":"pit-trial","trial_index":195,"time_elapsed":1435697,"internal_node_id":"0.0-184.0","task_version":"test-retest-t3"},{"Rune":"rune_06_ansuz","Hex":"#3366ff99","Correct":-1,"Choice":-1,"RT":-1,"Accuracy":1,"Outcome":"+10","Keys":[],"TotalKeys":0,"Block":2,"Trial":178,"Robot":2,"Valence":"Win","Action":"No-Go","Sham":0,"Color":"blue","trial_type":"pit-trial","trial_index":196,"time_elapsed":1439713,"internal_node_id":"0.0-185.0","task_version":"test-retest-t3"},{"Rune":"rune_06_ehwaz","Hex":"#ffcc3399","Correct":32,"Choice":-1,"RT":-1,"Accuracy":0,"Outcome":"-10","Keys":[],"TotalKeys":0,"Block":2,"Trial":179,"Robot":3,"Valence":"Lose","Action":"Go","Sham":0,"Color":"yellow","trial_type":"pit-trial","trial_index":197,"time_elapsed":1443724,"internal_node_id":"0.0-186.0","task_version":"test-retest-t3"},{"Rune":"rune_06_cweord","Hex":"#3366ff99","Correct":32,"Choice":32,"RT":1369.9150000466034,"Accuracy":1,"Outcome":"+10","Keys":[2870.0599999865517],"TotalKeys":1,"Block":2,"Trial":180,"Robot":1,"Valence":"Win","Action":"Go","Sham":0,"Color":"blue","trial_type":"pit-trial","trial_index":198,"time_elapsed":1447610,"internal_node_id":"0.0-187.0","task_version":"test-retest-t3"},{"view_history":"[{\"page_index\":0,\"viewing_time\":11879.270000034012},{\"page_index\":1,\"viewing_time\":1056.0850000474602}]","rt":12936.530000064522,"trial_type":"pit-instructions","trial_index":199,"time_elapsed":1460559,"internal_node_id":"0.0-188.0","task_version":"test-retest-t3"},{"Rune":"rune_06_ehwaz","Hex":"#ffcc3399","Correct":32,"Choice":32,"RT":1025.46999999322,"Accuracy":1,"Outcome":"-1","Keys":[2525.7099999580532],"TotalKeys":1,"Block":2,"Trial":181,"Robot":3,"Valence":"Lose","Action":"Go","Sham":0,"Color":"yellow","trial_type":"pit-trial","trial_index":200,"time_elapsed":1464095,"internal_node_id":"0.0-189.0","task_version":"test-retest-t3"},{"Rune":"rune_06_ansuz","Hex":"#3366ff99","Correct":-1,"Choice":-1,"RT":-1,"Accuracy":1,"Outcome":"+10","Keys":[],"TotalKeys":0,"Block":2,"Trial":182,"Robot":2,"Valence":"Win","Action":"No-Go","Sham":0,"Color":"blue","trial_type":"pit-trial","trial_index":201,"time_elapsed":1468103,"internal_node_id":"0.0-190.0","task_version":"test-retest-t3"},{"Rune":"rune_06_cweord","Hex":"#3366ff99","Correct":32,"Choice":32,"RT":818.290000082925,"Accuracy":1,"Outcome":"+10","Keys":[2319.0850000828505],"TotalKeys":1,"Block":2,"Trial":183,"Robot":1,"Valence":"Win","Action":"Go","Sham":0,"Color":"blue","trial_type":"pit-trial","trial_index":202,"time_elapsed":1471431,"internal_node_id":"0.0-191.0","task_version":"test-retest-t3"},{"Rune":"rune_06_berkanan","Hex":"#ffcc3399","Correct":-1,"Choice":-1,"RT":-1,"Accuracy":1,"Outcome":"-1","Keys":[],"TotalKeys":0,"Block":2,"Trial":184,"Robot":4,"Valence":"Lose","Action":"No-Go","Sham":0,"Color":"yellow","trial_type":"pit-trial","trial_index":203,"time_elapsed":1475449,"internal_node_id":"0.0-192.0","task_version":"test-retest-t3"},{"Rune":"rune_06_cweord","Hex":"#3366ff99","Correct":32,"Choice":-1,"RT":-1,"Accuracy":0,"Outcome":"+1","Keys":[],"TotalKeys":0,"Block":2,"Trial":185,"Robot":1,"Valence":"Win","Action":"Go","Sham":0,"Color":"blue","trial_type":"pit-trial","trial_index":204,"time_elapsed":1479465,"internal_node_id":"0.0-193.0","task_version":"test-retest-t3"},{"Rune":"rune_06_berkanan","Hex":"#ffcc3399","Correct":-1,"Choice":-1,"RT":-1,"Accuracy":1,"Outcome":"-10","Keys":[],"TotalKeys":0,"Block":2,"Trial":186,"Robot":4,"Valence":"Lose","Action":"No-Go","Sham":1,"Color":"yellow","trial_type":"pit-trial","trial_index":205,"time_elapsed":1483483,"internal_node_id":"0.0-194.0","task_version":"test-retest-t3"},{"Rune":"rune_06_ansuz","Hex":"#3366ff99","Correct":-1,"Choice":32,"RT":1358.3450000733137,"Accuracy":0,"Outcome":"+1","Keys":[2858.8400000007823,3307.8899999381974],"TotalKeys":2,"Block":2,"Trial":187,"Robot":2,"Valence":"Win","Action":"No-Go","Sham":0,"Color":"blue","trial_type":"pit-trial","trial_index":206,"time_elapsed":1487357,"internal_node_id":"0.0-195.0","task_version":"test-retest-t3"},{"Rune":"rune_06_ehwaz","Hex":"#ffcc3399","Correct":32,"Choice":32,"RT":952.4049999890849,"Accuracy":1,"Outcome":"-10","Keys":[2452.9649999458343],"TotalKeys":1,"Block":2,"Trial":188,"Robot":3,"Valence":"Lose","Action":"Go","Sham":1,"Color":"yellow","trial_type":"pit-trial","trial_index":207,"time_elapsed":1490824,"internal_node_id":"0.0-196.0","task_version":"test-retest-t3"},{"Rune":"rune_06_cweord","Hex":"#3366ff99","Correct":32,"Choice":32,"RT":998.7749999854714,"Accuracy":1,"Outcome":"+1","Keys":[2499.5900000212714],"TotalKeys":1,"Block":2,"Trial":189,"Robot":1,"Valence":"Win","Action":"Go","Sham":1,"Color":"blue","trial_type":"pit-trial","trial_index":208,"time_elapsed":1494341,"internal_node_id":"0.0-197.0","task_version":"test-retest-t3"},{"Rune":"rune_06_berkanan","Hex":"#ffcc3399","Correct":-1,"Choice":-1,"RT":-1,"Accuracy":1,"Outcome":"-1","Keys":[],"TotalKeys":0,"Block":2,"Trial":190,"Robot":4,"Valence":"Lose","Action":"No-Go","Sham":0,"Color":"yellow","trial_type":"pit-trial","trial_index":209,"time_elapsed":1498358,"internal_node_id":"0.0-198.0","task_version":"test-retest-t3"},{"Rune":"rune_06_ehwaz","Hex":"#ffcc3399","Correct":32,"Choice":32,"RT":1027.2000000113621,"Accuracy":1,"Outcome":"-1","Keys":[2527.974999975413],"TotalKeys":1,"Block":2,"Trial":191,"Robot":3,"Valence":"Lose","Action":"Go","Sham":0,"Color":"yellow","trial_type":"pit-trial","trial_index":210,"time_elapsed":1501900,"internal_node_id":"0.0-199.0","task_version":"test-retest-t3"},{"Rune":"rune_06_ansuz","Hex":"#3366ff99","Correct":-1,"Choice":-1,"RT":-1,"Accuracy":1,"Outcome":"+1","Keys":[],"TotalKeys":0,"Block":2,"Trial":192,"Robot":2,"Valence":"Win","Action":"No-Go","Sham":1,"Color":"blue","trial_type":"pit-trial","trial_index":211,"time_elapsed":1505909,"internal_node_id":"0.0-200.0","task_version":"test-retest-t3"},{"Rune":"rune_06_berkanan","Hex":"#ffcc3399","Correct":-1,"Choice":-1,"RT":-1,"Accuracy":1,"Outcome":"-1","Keys":[],"TotalKeys":0,"Block":2,"Trial":193,"Robot":4,"Valence":"Lose","Action":"No-Go","Sham":0,"Color":"yellow","trial_type":"pit-trial","trial_index":212,"time_elapsed":1509920,"internal_node_id":"0.0-201.0","task_version":"test-retest-t3"},{"Rune":"rune_06_cweord","Hex":"#3366ff99","Correct":32,"Choice":-1,"RT":-1,"Accuracy":0,"Outcome":"+1","Keys":[],"TotalKeys":0,"Block":2,"Trial":194,"Robot":1,"Valence":"Win","Action":"Go","Sham":0,"Color":"blue","trial_type":"pit-trial","trial_index":213,"time_elapsed":1513934,"internal_node_id":"0.0-202.0","task_version":"test-retest-t3"},{"Rune":"rune_06_ehwaz","Hex":"#ffcc3399","Correct":32,"Choice":32,"RT":856.1850000405684,"Accuracy":1,"Outcome":"-1","Keys":[2356.3400000566617],"TotalKeys":1,"Block":2,"Trial":195,"Robot":3,"Valence":"Lose","Action":"Go","Sham":0,"Color":"yellow","trial_type":"pit-trial","trial_index":214,"time_elapsed":1517300,"internal_node_id":"0.0-203.0","task_version":"test-retest-t3"},{"Rune":"rune_06_ansuz","Hex":"#3366ff99","Correct":-1,"Choice":32,"RT":820.3600000124425,"Accuracy":0,"Outcome":"+1","Keys":[2320.520000066608],"TotalKeys":1,"Block":2,"Trial":196,"Robot":2,"Valence":"Win","Action":"No-Go","Sham":0,"Color":"blue","trial_type":"pit-trial","trial_index":215,"time_elapsed":1520635,"internal_node_id":"0.0-204.0","task_version":"test-retest-t3"},{"Rune":"rune_06_berkanan","Hex":"#ffcc3399","Correct":-1,"Choice":-1,"RT":-1,"Accuracy":1,"Outcome":"-1","Keys":[],"TotalKeys":0,"Block":2,"Trial":197,"Robot":4,"Valence":"Lose","Action":"No-Go","Sham":0,"Color":"yellow","trial_type":"pit-trial","trial_index":216,"time_elapsed":1524651,"internal_node_id":"0.0-205.0","task_version":"test-retest-t3"},{"Rune":"rune_06_cweord","Hex":"#3366ff99","Correct":32,"Choice":32,"RT":948.2299999799579,"Accuracy":1,"Outcome":"+10","Keys":[2448.629999998957],"TotalKeys":1,"Block":2,"Trial":198,"Robot":1,"Valence":"Win","Action":"Go","Sham":0,"Color":"blue","trial_type":"pit-trial","trial_index":217,"time_elapsed":1528112,"internal_node_id":"0.0-206.0","task_version":"test-retest-t3"},{"Rune":"rune_06_ehwaz","Hex":"#ffcc3399","Correct":32,"Choice":-1,"RT":-1,"Accuracy":0,"Outcome":"-10","Keys":[3862.319999956526],"TotalKeys":1,"Block":2,"Trial":199,"Robot":3,"Valence":"Lose","Action":"Go","Sham":0,"Color":"yellow","trial_type":"pit-trial","trial_index":218,"time_elapsed":1532119,"internal_node_id":"0.0-207.0","task_version":"test-retest-t3"},{"Rune":"rune_06_ansuz","Hex":"#3366ff99","Correct":-1,"Choice":32,"RT":962.9150000400841,"Accuracy":0,"Outcome":"+1","Keys":[2463.770000031218],"TotalKeys":1,"Block":2,"Trial":200,"Robot":2,"Valence":"Win","Action":"No-Go","Sham":0,"Color":"blue","trial_type":"pit-trial","trial_index":219,"time_elapsed":1535593,"internal_node_id":"0.0-208.0","task_version":"test-retest-t3"},{"Rune":"rune_06_ansuz","Hex":"#3366ff99","Correct":-1,"Choice":-1,"RT":-1,"Accuracy":1,"Outcome":"+10","Keys":[],"TotalKeys":0,"Block":2,"Trial":201,"Robot":2,"Valence":"Win","Action":"No-Go","Sham":0,"Color":"blue","trial_type":"pit-trial","trial_index":220,"time_elapsed":1539611,"internal_node_id":"0.0-209.0","task_version":"test-retest-t3"},{"Rune":"rune_06_berkanan","Hex":"#ffcc3399","Correct":-1,"Choice":-1,"RT":-1,"Accuracy":1,"Outcome":"-1","Keys":[],"TotalKeys":0,"Block":2,"Trial":202,"Robot":4,"Valence":"Lose","Action":"No-Go","Sham":0,"Color":"yellow","trial_type":"pit-trial","trial_index":221,"time_elapsed":1543628,"internal_node_id":"0.0-210.0","task_version":"test-retest-t3"},{"Rune":"rune_06_ehwaz","Hex":"#ffcc3399","Correct":32,"Choice":32,"RT":901.8399999476969,"Accuracy":1,"Outcome":"-1","Keys":[2402.5350000010803],"TotalKeys":1,"Block":2,"Trial":203,"Robot":3,"Valence":"Lose","Action":"Go","Sham":0,"Color":"yellow","trial_type":"pit-trial","trial_index":222,"time_elapsed":1547051,"internal_node_id":"0.0-211.0","task_version":"test-retest-t3"},{"Rune":"rune_06_cweord","Hex":"#3366ff99","Correct":32,"Choice":-1,"RT":-1,"Accuracy":0,"Outcome":"+1","Keys":[],"TotalKeys":0,"Block":2,"Trial":204,"Robot":1,"Valence":"Win","Action":"Go","Sham":0,"Color":"blue","trial_type":"pit-trial","trial_index":223,"time_elapsed":1551062,"internal_node_id":"0.0-212.0","task_version":"test-retest-t3"},{"Rune":"rune_06_cweord","Hex":"#3366ff99","Correct":32,"Choice":32,"RT":574.0500000538304,"Accuracy":1,"Outcome":"+1","Keys":[2074.754999950528],"TotalKeys":1,"Block":2,"Trial":205,"Robot":1,"Valence":"Win","Action":"Go","Sham":1,"Color":"blue","trial_type":"pit-trial","trial_index":224,"time_elapsed":1554144,"internal_node_id":"0.0-213.0","task_version":"test-retest-t3"},{"Rune":"rune_06_berkanan","Hex":"#ffcc3399","Correct":-1,"Choice":-1,"RT":-1,"Accuracy":1,"Outcome":"-1","Keys":[],"TotalKeys":0,"Block":2,"Trial":206,"Robot":4,"Valence":"Lose","Action":"No-Go","Sham":0,"Color":"yellow","trial_type":"pit-trial","trial_index":225,"time_elapsed":1558152,"internal_node_id":"0.0-214.0","task_version":"test-retest-t3"},{"Rune":"rune_06_ehwaz","Hex":"#ffcc3399","Correct":32,"Choice":32,"RT":665.0900000240654,"Accuracy":1,"Outcome":"-1","Keys":[2165.1399999391288],"TotalKeys":1,"Block":2,"Trial":207,"Robot":3,"Valence":"Lose","Action":"Go","Sham":0,"Color":"yellow","trial_type":"pit-trial","trial_index":226,"time_elapsed":1561323,"internal_node_id":"0.0-215.0","task_version":"test-retest-t3"},{"Rune":"rune_06_ansuz","Hex":"#3366ff99","Correct":-1,"Choice":32,"RT":1224.9849999789149,"Accuracy":0,"Outcome":"+10","Keys":[2725.3149999305606],"TotalKeys":1,"Block":2,"Trial":208,"Robot":2,"Valence":"Win","Action":"No-Go","Sham":1,"Color":"blue","trial_type":"pit-trial","trial_index":227,"time_elapsed":1565059,"internal_node_id":"0.0-216.0","task_version":"test-retest-t3"},{"Rune":"rune_06_ansuz","Hex":"#3366ff99","Correct":-1,"Choice":32,"RT":514.0200000023469,"Accuracy":0,"Outcome":"+1","Keys":[2014.3499999539927],"TotalKeys":1,"Block":2,"Trial":209,"Robot":2,"Valence":"Win","Action":"No-Go","Sham":0,"Color":"blue","trial_type":"pit-trial","trial_index":228,"time_elapsed":1568083,"internal_node_id":"0.0-217.0","task_version":"test-retest-t3"},{"Rune":"rune_06_cweord","Hex":"#3366ff99","Correct":32,"Choice":32,"RT":693.3250000001863,"Accuracy":1,"Outcome":"+10","Keys":[2193.9199999906123],"TotalKeys":1,"Block":2,"Trial":210,"Robot":1,"Valence":"Win","Action":"Go","Sham":0,"Color":"blue","trial_type":"pit-trial","trial_index":229,"time_elapsed":1571288,"internal_node_id":"0.0-218.0","task_version":"test-retest-t3"},{"Rune":"rune_06_ehwaz","Hex":"#ffcc3399","Correct":32,"Choice":32,"RT":853.1399999046698,"Accuracy":1,"Outcome":"-10","Keys":[2354.49499997776],"TotalKeys":1,"Block":2,"Trial":211,"Robot":3,"Valence":"Lose","Action":"Go","Sham":1,"Color":"yellow","trial_type":"pit-trial","trial_index":230,"time_elapsed":1574659,"internal_node_id":"0.0-219.0","task_version":"test-retest-t3"},{"Rune":"rune_06_berkanan","Hex":"#ffcc3399","Correct":-1,"Choice":32,"RT":1394.2000000970438,"Accuracy":0,"Outcome":"-10","Keys":[2894.205000018701],"TotalKeys":1,"Block":2,"Trial":212,"Robot":4,"Valence":"Lose","Action":"No-Go","Sham":0,"Color":"yellow","trial_type":"pit-trial","trial_index":231,"time_elapsed":1578571,"internal_node_id":"0.0-220.0","task_version":"test-retest-t3"},{"Rune":"rune_06_cweord","Hex":"#3366ff99","Correct":32,"Choice":32,"RT":855.5149999447167,"Accuracy":1,"Outcome":"+10","Keys":[2356.2849999871105],"TotalKeys":1,"Block":2,"Trial":213,"Robot":1,"Valence":"Win","Action":"Go","Sham":0,"Color":"blue","trial_type":"pit-trial","trial_index":232,"time_elapsed":1581946,"internal_node_id":"0.0-221.0","task_version":"test-retest-t3"},{"Rune":"rune_06_ansuz","Hex":"#3366ff99","Correct":-1,"Choice":-1,"RT":-1,"Accuracy":1,"Outcome":"+10","Keys":[],"TotalKeys":0,"Block":2,"Trial":214,"Robot":2,"Valence":"Win","Action":"No-Go","Sham":0,"Color":"blue","trial_type":"pit-trial","trial_index":233,"time_elapsed":1585963,"internal_node_id":"0.0-222.0","task_version":"test-retest-t3"},{"Rune":"rune_06_berkanan","Hex":"#ffcc3399","Correct":-1,"Choice":-1,"RT":-1,"Accuracy":1,"Outcome":"-10","Keys":[],"TotalKeys":0,"Block":2,"Trial":215,"Robot":4,"Valence":"Lose","Action":"No-Go","Sham":1,"Color":"yellow","trial_type":"pit-trial","trial_index":234,"time_elapsed":1589982,"internal_node_id":"0.0-223.0","task_version":"test-retest-t3"},{"Rune":"rune_06_ehwaz","Hex":"#ffcc3399","Correct":32,"Choice":-1,"RT":-1,"Accuracy":0,"Outcome":"-10","Keys":[],"TotalKeys":0,"Block":2,"Trial":216,"Robot":3,"Valence":"Lose","Action":"Go","Sham":0,"Color":"yellow","trial_type":"pit-trial","trial_index":235,"time_elapsed":1594001,"internal_node_id":"0.0-224.0","task_version":"test-retest-t3"},{"Rune":"rune_06_ansuz","Hex":"#3366ff99","Correct":-1,"Choice":-1,"RT":-1,"Accuracy":1,"Outcome":"+10","Keys":[],"TotalKeys":0,"Block":2,"Trial":217,"Robot":2,"Valence":"Win","Action":"No-Go","Sham":0,"Color":"blue","trial_type":"pit-trial","trial_index":236,"time_elapsed":1598019,"internal_node_id":"0.0-225.0","task_version":"test-retest-t3"},{"Rune":"rune_06_berkanan","Hex":"#ffcc3399","Correct":-1,"Choice":32,"RT":561.4549999590963,"Accuracy":0,"Outcome":"-10","Keys":[2062.0499999495223,2660.1599999703467],"TotalKeys":2,"Block":2,"Trial":218,"Robot":4,"Valence":"Lose","Action":"No-Go","Sham":0,"Color":"yellow","trial_type":"pit-trial","trial_index":237,"time_elapsed":1601097,"internal_node_id":"0.0-226.0","task_version":"test-retest-t3"},{"Rune":"rune_06_ehwaz","Hex":"#ffcc3399","Correct":32,"Choice":32,"RT":760.6799999484792,"Accuracy":1,"Outcome":"-1","Keys":[2261.089999927208],"TotalKeys":1,"Block":2,"Trial":219,"Robot":3,"Valence":"Lose","Action":"Go","Sham":0,"Color":"yellow","trial_type":"pit-trial","trial_index":238,"time_elapsed":1604365,"internal_node_id":"0.0-227.0","task_version":"test-retest-t3"},{"Rune":"rune_06_cweord","Hex":"#3366ff99","Correct":32,"Choice":32,"RT":743.4999999823049,"Accuracy":1,"Outcome":"+10","Keys":[2245.024999952875],"TotalKeys":1,"Block":2,"Trial":220,"Robot":1,"Valence":"Win","Action":"Go","Sham":0,"Color":"blue","trial_type":"pit-trial","trial_index":239,"time_elapsed":1607627,"internal_node_id":"0.0-228.0","task_version":"test-retest-t3"},{"Rune":"rune_06_berkanan","Hex":"#ffcc3399","Correct":-1,"Choice":-1,"RT":-1,"Accuracy":1,"Outcome":"-1","Keys":[],"TotalKeys":0,"Block":2,"Trial":221,"Robot":4,"Valence":"Lose","Action":"No-Go","Sham":0,"Color":"yellow","trial_type":"pit-trial","trial_index":240,"time_elapsed":1611642,"internal_node_id":"0.0-229.0","task_version":"test-retest-t3"},{"Rune":"rune_06_ehwaz","Hex":"#ffcc3399","Correct":32,"Choice":32,"RT":1130.5149999679998,"Accuracy":1,"Outcome":"-1","Keys":[2631.8100000498816],"TotalKeys":1,"Block":2,"Trial":222,"Robot":3,"Valence":"Lose","Action":"Go","Sham":0,"Color":"yellow","trial_type":"pit-trial","trial_index":241,"time_elapsed":1615283,"internal_node_id":"0.0-230.0","task_version":"test-retest-t3"},{"Rune":"rune_06_cweord","Hex":"#3366ff99","Correct":32,"Choice":-1,"RT":-1,"Accuracy":0,"Outcome":"+1","Keys":[],"TotalKeys":0,"Block":2,"Trial":223,"Robot":1,"Valence":"Win","Action":"Go","Sham":0,"Color":"blue","trial_type":"pit-trial","trial_index":242,"time_elapsed":1619292,"internal_node_id":"0.0-231.0","task_version":"test-retest-t3"},{"Rune":"rune_06_ansuz","Hex":"#3366ff99","Correct":-1,"Choice":-1,"RT":-1,"Accuracy":1,"Outcome":"+10","Keys":[],"TotalKeys":0,"Block":2,"Trial":224,"Robot":2,"Valence":"Win","Action":"No-Go","Sham":0,"Color":"blue","trial_type":"pit-trial","trial_index":243,"time_elapsed":1623300,"internal_node_id":"0.0-232.0","task_version":"test-retest-t3"},{"Rune":"rune_06_ehwaz","Hex":"#ffcc3399","Correct":32,"Choice":-1,"RT":-1,"Accuracy":0,"Outcome":"-10","Keys":[],"TotalKeys":0,"Block":2,"Trial":225,"Robot":3,"Valence":"Lose","Action":"Go","Sham":0,"Color":"yellow","trial_type":"pit-trial","trial_index":244,"time_elapsed":1627308,"internal_node_id":"0.0-233.0","task_version":"test-retest-t3"},{"Rune":"rune_06_ansuz","Hex":"#3366ff99","Correct":-1,"Choice":-1,"RT":-1,"Accuracy":1,"Outcome":"+1","Keys":[],"TotalKeys":0,"Block":2,"Trial":226,"Robot":2,"Valence":"Win","Action":"No-Go","Sham":1,"Color":"blue","trial_type":"pit-trial","trial_index":245,"time_elapsed":1631317,"internal_node_id":"0.0-234.0","task_version":"test-retest-t3"},{"Rune":"rune_06_cweord","Hex":"#3366ff99","Correct":32,"Choice":-1,"RT":-1,"Accuracy":0,"Outcome":"+1","Keys":[],"TotalKeys":0,"Block":2,"Trial":227,"Robot":1,"Valence":"Win","Action":"Go","Sham":0,"Color":"blue","trial_type":"pit-trial","trial_index":246,"time_elapsed":1635335,"internal_node_id":"0.0-235.0","task_version":"test-retest-t3"},{"Rune":"rune_06_berkanan","Hex":"#ffcc3399","Correct":-1,"Choice":-1,"RT":-1,"Accuracy":1,"Outcome":"-10","Keys":[],"TotalKeys":0,"Block":2,"Trial":228,"Robot":4,"Valence":"Lose","Action":"No-Go","Sham":1,"Color":"yellow","trial_type":"pit-trial","trial_index":247,"time_elapsed":1639350,"internal_node_id":"0.0-236.0","task_version":"test-retest-t3"},{"Rune":"rune_06_ehwaz","Hex":"#ffcc3399","Correct":32,"Choice":-1,"RT":-1,"Accuracy":0,"Outcome":"-10","Keys":[],"TotalKeys":0,"Block":2,"Trial":229,"Robot":3,"Valence":"Lose","Action":"Go","Sham":0,"Color":"yellow","trial_type":"pit-trial","trial_index":248,"time_elapsed":1643358,"internal_node_id":"0.0-237.0","task_version":"test-retest-t3"},{"Rune":"rune_06_ansuz","Hex":"#3366ff99","Correct":-1,"Choice":-1,"RT":-1,"Accuracy":1,"Outcome":"+10","Keys":[],"TotalKeys":0,"Block":2,"Trial":230,"Robot":2,"Valence":"Win","Action":"No-Go","Sham":0,"Color":"blue","trial_type":"pit-trial","trial_index":249,"time_elapsed":1647368,"internal_node_id":"0.0-238.0","task_version":"test-retest-t3"},{"Rune":"rune_06_berkanan","Hex":"#ffcc3399","Correct":-1,"Choice":-1,"RT":-1,"Accuracy":1,"Outcome":"-1","Keys":[],"TotalKeys":0,"Block":2,"Trial":231,"Robot":4,"Valence":"Lose","Action":"No-Go","Sham":0,"Color":"yellow","trial_type":"pit-trial","trial_index":250,"time_elapsed":1651383,"internal_node_id":"0.0-239.0","task_version":"test-retest-t3"},{"Rune":"rune_06_cweord","Hex":"#3366ff99","Correct":32,"Choice":-1,"RT":-1,"Accuracy":0,"Outcome":"+1","Keys":[],"TotalKeys":0,"Block":2,"Trial":232,"Robot":1,"Valence":"Win","Action":"Go","Sham":0,"Color":"blue","trial_type":"pit-trial","trial_index":251,"time_elapsed":1655403,"internal_node_id":"0.0-240.0","task_version":"test-retest-t3"},{"Rune":"rune_06_cweord","Hex":"#3366ff99","Correct":32,"Choice":32,"RT":1276.3050000648946,"Accuracy":1,"Outcome":"+10","Keys":[2777.144999941811],"TotalKeys":1,"Block":2,"Trial":233,"Robot":1,"Valence":"Win","Action":"Go","Sham":0,"Color":"blue","trial_type":"pit-trial","trial_index":252,"time_elapsed":1659207,"internal_node_id":"0.0-241.0","task_version":"test-retest-t3"},{"Rune":"rune_06_berkanan","Hex":"#ffcc3399","Correct":-1,"Choice":-1,"RT":-1,"Accuracy":1,"Outcome":"-1","Keys":[],"TotalKeys":0,"Block":2,"Trial":234,"Robot":4,"Valence":"Lose","Action":"No-Go","Sham":0,"Color":"yellow","trial_type":"pit-trial","trial_index":253,"time_elapsed":1663215,"internal_node_id":"0.0-242.0","task_version":"test-retest-t3"},{"Rune":"rune_06_ansuz","Hex":"#3366ff99","Correct":-1,"Choice":-1,"RT":-1,"Accuracy":1,"Outcome":"+10","Keys":[],"TotalKeys":0,"Block":2,"Trial":235,"Robot":2,"Valence":"Win","Action":"No-Go","Sham":0,"Color":"blue","trial_type":"pit-trial","trial_index":254,"time_elapsed":1667224,"internal_node_id":"0.0-243.0","task_version":"test-retest-t3"},{"Rune":"rune_06_ehwaz","Hex":"#ffcc3399","Correct":32,"Choice":-1,"RT":-1,"Accuracy":0,"Outcome":"-10","Keys":[],"TotalKeys":0,"Block":2,"Trial":236,"Robot":3,"Valence":"Lose","Action":"Go","Sham":0,"Color":"yellow","trial_type":"pit-trial","trial_index":255,"time_elapsed":1671234,"internal_node_id":"0.0-244.0","task_version":"test-retest-t3"},{"Rune":"rune_06_ehwaz","Hex":"#ffcc3399","Correct":32,"Choice":32,"RT":615.140000008978,"Accuracy":1,"Outcome":"-10","Keys":[2115.3100000228733],"TotalKeys":1,"Block":2,"Trial":237,"Robot":3,"Valence":"Lose","Action":"Go","Sham":1,"Color":"yellow","trial_type":"pit-trial","trial_index":256,"time_elapsed":1674366,"internal_node_id":"0.0-245.0","task_version":"test-retest-t3"},{"Rune":"rune_06_cweord","Hex":"#3366ff99","Correct":32,"Choice":-1,"RT":-1,"Accuracy":0,"Outcome":"+10","Keys":[],"TotalKeys":0,"Block":2,"Trial":238,"Robot":1,"Valence":"Win","Action":"Go","Sham":1,"Color":"blue","trial_type":"pit-trial","trial_index":257,"time_elapsed":1678384,"internal_node_id":"0.0-246.0","task_version":"test-retest-t3"},{"Rune":"rune_06_berkanan","Hex":"#ffcc3399","Correct":-1,"Choice":-1,"RT":-1,"Accuracy":1,"Outcome":"-1","Keys":[],"TotalKeys":0,"Block":2,"Trial":239,"Robot":4,"Valence":"Lose","Action":"No-Go","Sham":0,"Color":"yellow","trial_type":"pit-trial","trial_index":258,"time_elapsed":1682394,"internal_node_id":"0.0-247.0","task_version":"test-retest-t3"},{"Rune":"rune_06_ansuz","Hex":"#3366ff99","Correct":-1,"Choice":-1,"RT":-1,"Accuracy":1,"Outcome":"+10","Keys":[],"TotalKeys":0,"Block":2,"Trial":240,"Robot":2,"Valence":"Win","Action":"No-Go","Sham":0,"Color":"blue","trial_type":"pit-trial","trial_index":259,"time_elapsed":1686409,"internal_node_id":"0.0-248.0","task_version":"test-retest-t3"},{"view_history":"[{\"page_index\":0,\"viewing_time\":2239.8449999745935}]","rt":2241.014999919571,"trial_type":"pit-instructions","trial_index":260,"time_elapsed":1688662,"internal_node_id":"0.0-249.0","task_version":"test-retest-t3"},{"rt":47396.365000051446,"responses":{"difficulty":"4","fun":"5","clarity":"5","strategy":"focused on the light and the signs ","feedback":"very interactive and interesting study"},"survey":"debrief","trial_type":"survey-debrief","trial_index":261,"time_elapsed":1736073,"internal_node_id":"0.0-250.0","task_version":"test-retest-t3"},{"rt":5791.785000008531,"stimulus":"You earned a bonus of $0.98 out of $1.5.<br><br>Press any key to complete the experiment.","key_press":32,"trial_type":"html-keyboard-response","trial_index":262,"time_elapsed":1741872,"internal_node_id":"0.0-251.0","task_version":"test-retest-t3","accuracy":0.65,"bonus":0.98,"interactions":"[]"}]