[{"slider_type":"valence","raw_loc":645,"loc":0.79,"trial_type":"affective-slider","trial_index":0,"time_elapsed":5015,"internal_node_id":"0.0-0.0","task_version":"test-retest-t3"},{"responses":{"Q01":"1","Q04":"0","Q07":"0","Q06":"1","Q03":"0","Q05":"0","Q08":"0","Q02":"0"},"rt":25231.68500000611,"survey":"gad7","trial_type":"survey-template","trial_index":1,"time_elapsed":30253,"internal_node_id":"0.0-1.0","task_version":"test-retest-t3"},{"view_history":"[{\"page_index\":0,\"viewing_time\":27736.450000025798},{\"page_index\":1,\"viewing_time\":1728.6849999800324},{\"page_index\":2,\"viewing_time\":17442.99500004854},{\"page_index\":3,\"viewing_time\":10036.824999959208},{\"page_index\":4,\"viewing_time\":7143.035000015516},{\"page_index\":5,\"viewing_time\":2839.879999984987}]","rt":66928.78500005463,"trial_type":"pit-instructions","trial_index":2,"time_elapsed":97187,"internal_node_id":"0.0-2.0-0.0","task_version":"test-retest-t3"},{"Rune":"rune_00_ingz","Hex":"#FFFFF080","Correct":32,"Choice":32,"RT":413.3949999813922,"Accuracy":1,"Outcome":"+10","Keys":[1914.1349999699742],"TotalKeys":1,"Block":0,"Action":"Go","trial_type":"pit-trial","trial_index":3,"time_elapsed":100106,"internal_node_id":"0.0-2.0-1.0-0.0","task_version":"test-retest-t3"},{"Rune":"rune_00_ingz","Hex":"#FFFFF080","Correct":32,"Choice":32,"RT":578.3050000318326,"Accuracy":1,"Outcome":"+10","Keys":[2078.4850000054576],"TotalKeys":1,"Block":0,"Action":"Go","trial_type":"pit-trial","trial_index":4,"time_elapsed":103191,"internal_node_id":"0.0-2.0-1.0-0.1","task_version":"test-retest-t3"},{"Rune":"rune_00_ingz","Hex":"#FFFFF080","Correct":32,"Choice":32,"RT":527.0649999729358,"Accuracy":1,"Outcome":"+10","Keys":[2027.059999993071],"TotalKeys":1,"Block":0,"Action":"Go","trial_type":"pit-trial","trial_index":5,"time_elapsed":106223,"internal_node_id":"0.0-2.0-1.0-0.2","task_version":"test-retest-t3"},{"Rune":"rune_00_ingz","Hex":"#FFFFF080","Correct":32,"Choice":32,"RT":382.74000003002584,"Accuracy":1,"Outcome":"+10","Keys":[1883.0800000578165],"TotalKeys":1,"Block":0,"Action":"Go","trial_type":"pit-trial","trial_index":6,"time_elapsed":109110,"internal_node_id":"0.0-2.0-1.0-0.3","task_version":"test-retest-t3"},{"view_history":"[{\"page_index\":0,\"viewing_time\":4666.749999974854}]","rt":4667.1949999872595,"trial_type":"pit-instructions","trial_index":7,"time_elapsed":113779,"internal_node_id":"0.0-2.0-2.0","task_version":"test-retest-t3"},{"Rune":"rune_00_isaz","Hex":"#FFFFF080","Correct":-1,"Choice":-1,"RT":-1,"Accuracy":1,"Outcome":"+10","Keys":[],"TotalKeys":0,"Block":0,"Action":"No-Go","trial_type":"pit-trial","trial_index":8,"time_elapsed":117783,"internal_node_id":"0.0-2.0-3.0-0.0","task_version":"test-retest-t3"},{"Rune":"rune_00_isaz","Hex":"#FFFFF080","Correct":-1,"Choice":-1,"RT":-1,"Accuracy":1,"Outcome":"+10","Keys":[],"TotalKeys":0,"Block":0,"Action":"No-Go","trial_type":"pit-trial","trial_index":9,"time_elapsed":121789,"internal_node_id":"0.0-2.0-3.0-0.1","task_version":"test-retest-t3"},{"Rune":"rune_00_isaz","Hex":"#FFFFF080","Correct":-1,"Choice":-1,"RT":-1,"Accuracy":1,"Outcome":"+10","Keys":[],"TotalKeys":0,"Block":0,"Action":"No-Go","trial_type":"pit-trial","trial_index":10,"time_elapsed":125794,"internal_node_id":"0.0-2.0-3.0-0.2","task_version":"test-retest-t3"},{"Rune":"rune_00_isaz","Hex":"#FFFFF080","Correct":-1,"Choice":-1,"RT":-1,"Accuracy":1,"Outcome":"+10","Keys":[],"TotalKeys":0,"Block":0,"Action":"No-Go","trial_type":"pit-trial","trial_index":11,"time_elapsed":129799,"internal_node_id":"0.0-2.0-3.0-0.3","task_version":"test-retest-t3"},{"view_history":"[{\"page_index\":0,\"viewing_time\":3887.314999999944},{\"page_index\":1,\"viewing_time\":39711.56999998493},{\"page_index\":2,\"viewing_time\":24978.754999989178},{\"page_index\":3,\"viewing_time\":5248.024999978952},{\"page_index\":4,\"viewing_time\":4223.065000027418},{\"page_index\":5,\"viewing_time\":6424.750000005588},{\"page_index\":6,\"viewing_time\":2873.985000012908},{\"page_index\":7,\"viewing_time\":2685.055000009015}]","rt":90032.93499996653,"trial_type":"pit-instructions","trial_index":12,"time_elapsed":219834,"internal_node_id":"0.0-2.0-4.0","task_version":"test-retest-t3"},{"responses":["Do nothing","+10","-1","True","Yes"],"num_errors":0,"rt":32432.704999984708,"trial_type":"pit-comprehension","trial_index":13,"time_elapsed":252270,"internal_node_id":"0.0-2.0-5.0","task_version":"test-retest-t3"},{"trial_type":"call-function","trial_index":14,"time_elapsed":252275,"internal_node_id":"0.0-3.0","task_version":"test-retest-t3"},{"view_history":"[{\"page_index\":0,\"viewing_time\":1665.389999980107},{\"page_index\":1,\"viewing_time\":2572.890000010375},{\"page_index\":2,\"viewing_time\":3158.2349999807775}]","rt":7396.959999983665,"trial_type":"pit-instructions","trial_index":15,"time_elapsed":259672,"internal_node_id":"0.0-4.0","task_version":"test-retest-t3"},{"Rune":"rune_05_ior","Hex":"#3366ff99","Correct":-1,"Choice":32,"RT":658.8450000272132,"Accuracy":0,"Outcome":"+10","Keys":[2159.1900000348687],"TotalKeys":1,"Block":1,"Trial":1,"Robot":2,"Valence":"Win","Action":"No-Go","Sham":1,"Color":"blue","trial_type":"pit-trial","trial_index":16,"time_elapsed":262837,"internal_node_id":"0.0-5.0","task_version":"test-retest-t3"},{"Rune":"rune_05_gebo","Hex":"#ffcc3399","Correct":-1,"Choice":32,"RT":798.6050000181422,"Accuracy":0,"Outcome":"-10","Keys":[2299.020000034943],"TotalKeys":1,"Block":1,"Trial":2,"Robot":4,"Valence":"Lose","Action":"No-Go","Sham":0,"Color":"yellow","trial_type":"pit-trial","trial_index":17,"time_elapsed":266140,"internal_node_id":"0.0-6.0","task_version":"test-retest-t3"},{"Rune":"rune_05_tiwaz","Hex":"#3366ff99","Correct":32,"Choice":-1,"RT":-1,"Accuracy":0,"Outcome":"+1","Keys":[],"TotalKeys":0,"Block":1,"Trial":3,"Robot":1,"Valence":"Win","Action":"Go","Sham":0,"Color":"blue","trial_type":"pit-trial","trial_index":18,"time_elapsed":270145,"internal_node_id":"0.0-7.0","task_version":"test-retest-t3"},{"Rune":"rune_05_jeran","Hex":"#ffcc3399","Correct":32,"Choice":32,"RT":858.0650000367314,"Accuracy":1,"Outcome":"-10","Keys":[2359.3150000087917],"TotalKeys":1,"Block":1,"Trial":4,"Robot":3,"Valence":"Lose","Action":"Go","Sham":1,"Color":"yellow","trial_type":"pit-trial","trial_index":19,"time_elapsed":273509,"internal_node_id":"0.0-8.0","task_version":"test-retest-t3"},{"Rune":"rune_05_ior","Hex":"#3366ff99","Correct":-1,"Choice":32,"RT":622.5700000068173,"Accuracy":0,"Outcome":"+1","Keys":[2123.6899999785237],"TotalKeys":1,"Block":1,"Trial":5,"Robot":2,"Valence":"Win","Action":"No-Go","Sham":0,"Color":"blue","trial_type":"pit-trial","trial_index":20,"time_elapsed":276637,"internal_node_id":"0.0-9.0","task_version":"test-retest-t3"},{"Rune":"rune_05_tiwaz","Hex":"#3366ff99","Correct":32,"Choice":-1,"RT":-1,"Accuracy":0,"Outcome":"+1","Keys":[],"TotalKeys":0,"Block":1,"Trial":6,"Robot":1,"Valence":"Win","Action":"Go","Sham":0,"Color":"blue","trial_type":"pit-trial","trial_index":21,"time_elapsed":280641,"internal_node_id":"0.0-10.0","task_version":"test-retest-t3"},{"Rune":"rune_05_jeran","Hex":"#ffcc3399","Correct":32,"Choice":32,"RT":835.1249999832362,"Accuracy":1,"Outcome":"-1","Keys":[2335.6800000183284],"TotalKeys":1,"Block":1,"Trial":7,"Robot":3,"Valence":"Lose","Action":"Go","Sham":0,"Color":"yellow","trial_type":"pit-trial","trial_index":22,"time_elapsed":283981,"internal_node_id":"0.0-11.0","task_version":"test-retest-t3"},{"Rune":"rune_05_gebo","Hex":"#ffcc3399","Correct":-1,"Choice":-1,"RT":-1,"Accuracy":1,"Outcome":"-1","Keys":[],"TotalKeys":0,"Block":1,"Trial":8,"Robot":4,"Valence":"Lose","Action":"No-Go","Sham":0,"Color":"yellow","trial_type":"pit-trial","trial_index":23,"time_elapsed":287985,"internal_node_id":"0.0-12.0","task_version":"test-retest-t3"},{"Rune":"rune_05_jeran","Hex":"#ffcc3399","Correct":32,"Choice":-1,"RT":-1,"Accuracy":0,"Outcome":"-10","Keys":[],"TotalKeys":0,"Block":1,"Trial":9,"Robot":3,"Valence":"Lose","Action":"Go","Sham":0,"Color":"yellow","trial_type":"pit-trial","trial_index":24,"time_elapsed":291989,"internal_node_id":"0.0-13.0","task_version":"test-retest-t3"},{"Rune":"rune_05_ior","Hex":"#3366ff99","Correct":-1,"Choice":32,"RT":679.0899999905378,"Accuracy":0,"Outcome":"+1","Keys":[2179.665000003297],"TotalKeys":1,"Block":1,"Trial":10,"Robot":2,"Valence":"Win","Action":"No-Go","Sham":0,"Color":"blue","trial_type":"pit-trial","trial_index":25,"time_elapsed":295172,"internal_node_id":"0.0-14.0","task_version":"test-retest-t3"},{"Rune":"rune_05_tiwaz","Hex":"#3366ff99","Correct":32,"Choice":32,"RT":687.4749999842606,"Accuracy":1,"Outcome":"+1","Keys":[2188.0399999790825],"TotalKeys":1,"Block":1,"Trial":11,"Robot":1,"Valence":"Win","Action":"Go","Sham":1,"Color":"blue","trial_type":"pit-trial","trial_index":26,"time_elapsed":298364,"internal_node_id":"0.0-15.0","task_version":"test-retest-t3"},{"Rune":"rune_05_gebo","Hex":"#ffcc3399","Correct":-1,"Choice":-1,"RT":-1,"Accuracy":1,"Outcome":"-10","Keys":[],"TotalKeys":0,"Block":1,"Trial":12,"Robot":4,"Valence":"Lose","Action":"No-Go","Sham":1,"Color":"yellow","trial_type":"pit-trial","trial_index":27,"time_elapsed":302370,"internal_node_id":"0.0-16.0","task_version":"test-retest-t3"},{"Rune":"rune_05_jeran","Hex":"#ffcc3399","Correct":32,"Choice":32,"RT":497.13500001234934,"Accuracy":1,"Outcome":"-1","Keys":[1998.6649999627843],"TotalKeys":1,"Block":1,"Trial":13,"Robot":3,"Valence":"Lose","Action":"Go","Sham":0,"Color":"yellow","trial_type":"pit-trial","trial_index":28,"time_elapsed":305373,"internal_node_id":"0.0-17.0","task_version":"test-retest-t3"},{"Rune":"rune_05_ior","Hex":"#3366ff99","Correct":-1,"Choice":32,"RT":695.0849999557249,"Accuracy":0,"Outcome":"+1","Keys":[2195.5849999794737],"TotalKeys":1,"Block":1,"Trial":14,"Robot":2,"Valence":"Win","Action":"No-Go","Sham":0,"Color":"blue","trial_type":"pit-trial","trial_index":29,"time_elapsed":308572,"internal_node_id":"0.0-18.0","task_version":"test-retest-t3"},{"Rune":"rune_05_gebo","Hex":"#ffcc3399","Correct":-1,"Choice":-1,"RT":-1,"Accuracy":1,"Outcome":"-1","Keys":[],"TotalKeys":0,"Block":1,"Trial":15,"Robot":4,"Valence":"Lose","Action":"No-Go","Sham":0,"Color":"yellow","trial_type":"pit-trial","trial_index":30,"time_elapsed":312577,"internal_node_id":"0.0-19.0","task_version":"test-retest-t3"},{"Rune":"rune_05_tiwaz","Hex":"#3366ff99","Correct":32,"Choice":32,"RT":810.2499999804422,"Accuracy":1,"Outcome":"+10","Keys":[2311.2550000078045],"TotalKeys":1,"Block":1,"Trial":16,"Robot":1,"Valence":"Win","Action":"Go","Sham":0,"Color":"blue","trial_type":"pit-trial","trial_index":31,"time_elapsed":315892,"internal_node_id":"0.0-20.0","task_version":"test-retest-t3"},{"Rune":"rune_05_jeran","Hex":"#ffcc3399","Correct":32,"Choice":32,"RT":743.5700000496581,"Accuracy":1,"Outcome":"-1","Keys":[2244.3249999778345],"TotalKeys":1,"Block":1,"Trial":17,"Robot":3,"Valence":"Lose","Action":"Go","Sham":0,"Color":"yellow","trial_type":"pit-trial","trial_index":32,"time_elapsed":319141,"internal_node_id":"0.0-21.0","task_version":"test-retest-t3"},{"Rune":"rune_05_ior","Hex":"#3366ff99","Correct":-1,"Choice":-1,"RT":-1,"Accuracy":1,"Outcome":"+10","Keys":[],"TotalKeys":0,"Block":1,"Trial":18,"Robot":2,"Valence":"Win","Action":"No-Go","Sham":0,"Color":"blue","trial_type":"pit-trial","trial_index":33,"time_elapsed":323146,"internal_node_id":"0.0-22.0","task_version":"test-retest-t3"},{"Rune":"rune_05_gebo","Hex":"#ffcc3399","Correct":-1,"Choice":-1,"RT":-1,"Accuracy":1,"Outcome":"-1","Keys":[],"TotalKeys":0,"Block":1,"Trial":19,"Robot":4,"Valence":"Lose","Action":"No-Go","Sham":0,"Color":"yellow","trial_type":"pit-trial","trial_index":34,"time_elapsed":327151,"internal_node_id":"0.0-23.0","task_version":"test-retest-t3"},{"Rune":"rune_05_tiwaz","Hex":"#3366ff99","Correct":32,"Choice":32,"RT":471.4399999938905,"Accuracy":1,"Outcome":"+10","Keys":[1972.5549999857321],"TotalKeys":1,"Block":1,"Trial":20,"Robot":1,"Valence":"Win","Action":"Go","Sham":0,"Color":"blue","trial_type":"pit-trial","trial_index":35,"time_elapsed":330127,"internal_node_id":"0.0-24.0","task_version":"test-retest-t3"},{"Rune":"rune_05_tiwaz","Hex":"#3366ff99","Correct":32,"Choice":32,"RT":1236.5850000060163,"Accuracy":1,"Outcome":"+10","Keys":[2737.269999983255],"TotalKeys":1,"Block":1,"Trial":21,"Robot":1,"Valence":"Win","Action":"Go","Sham":0,"Color":"blue","trial_type":"pit-trial","trial_index":36,"time_elapsed":333869,"internal_node_id":"0.0-25.0","task_version":"test-retest-t3"},{"Rune":"rune_05_ior","Hex":"#3366ff99","Correct":-1,"Choice":-1,"RT":-1,"Accuracy":1,"Outcome":"+10","Keys":[],"TotalKeys":0,"Block":1,"Trial":22,"Robot":2,"Valence":"Win","Action":"No-Go","Sham":0,"Color":"blue","trial_type":"pit-trial","trial_index":37,"time_elapsed":337873,"internal_node_id":"0.0-26.0","task_version":"test-retest-t3"},{"Rune":"rune_05_jeran","Hex":"#ffcc3399","Correct":32,"Choice":32,"RT":596.2650000001304,"Accuracy":1,"Outcome":"-1","Keys":[2097.4999999743886],"TotalKeys":1,"Block":1,"Trial":23,"Robot":3,"Valence":"Lose","Action":"Go","Sham":0,"Color":"yellow","trial_type":"pit-trial","trial_index":38,"time_elapsed":340975,"internal_node_id":"0.0-27.0","task_version":"test-retest-t3"},{"Rune":"rune_05_gebo","Hex":"#ffcc3399","Correct":-1,"Choice":-1,"RT":-1,"Accuracy":1,"Outcome":"-1","Keys":[],"TotalKeys":0,"Block":1,"Trial":24,"Robot":4,"Valence":"Lose","Action":"No-Go","Sham":0,"Color":"yellow","trial_type":"pit-trial","trial_index":39,"time_elapsed":344979,"internal_node_id":"0.0-28.0","task_version":"test-retest-t3"},{"Rune":"rune_05_jeran","Hex":"#ffcc3399","Correct":32,"Choice":32,"RT":744.0700000151992,"Accuracy":1,"Outcome":"-1","Keys":[2245.404999994207],"TotalKeys":1,"Block":1,"Trial":25,"Robot":3,"Valence":"Lose","Action":"Go","Sham":0,"Color":"yellow","trial_type":"pit-trial","trial_index":40,"time_elapsed":348229,"internal_node_id":"0.0-29.0","task_version":"test-retest-t3"},{"Rune":"rune_05_tiwaz","Hex":"#3366ff99","Correct":32,"Choice":32,"RT":546.2999999872409,"Accuracy":1,"Outcome":"+1","Keys":[2046.6000000014901],"TotalKeys":1,"Block":1,"Trial":26,"Robot":1,"Valence":"Win","Action":"Go","Sham":1,"Color":"blue","trial_type":"pit-trial","trial_index":41,"time_elapsed":351279,"internal_node_id":"0.0-30.0","task_version":"test-retest-t3"},{"Rune":"rune_05_gebo","Hex":"#ffcc3399","Correct":-1,"Choice":-1,"RT":-1,"Accuracy":1,"Outcome":"-1","Keys":[],"TotalKeys":0,"Block":1,"Trial":27,"Robot":4,"Valence":"Lose","Action":"No-Go","Sham":0,"Color":"yellow","trial_type":"pit-trial","trial_index":42,"time_elapsed":355283,"internal_node_id":"0.0-31.0","task_version":"test-retest-t3"},{"Rune":"rune_05_ior","Hex":"#3366ff99","Correct":-1,"Choice":-1,"RT":-1,"Accuracy":1,"Outcome":"+10","Keys":[],"TotalKeys":0,"Block":1,"Trial":28,"Robot":2,"Valence":"Win","Action":"No-Go","Sham":0,"Color":"blue","trial_type":"pit-trial","trial_index":43,"time_elapsed":359289,"internal_node_id":"0.0-32.0","task_version":"test-retest-t3"},{"Rune":"rune_05_gebo","Hex":"#ffcc3399","Correct":-1,"Choice":-1,"RT":-1,"Accuracy":1,"Outcome":"-10","Keys":[],"TotalKeys":0,"Block":1,"Trial":29,"Robot":4,"Valence":"Lose","Action":"No-Go","Sham":1,"Color":"yellow","trial_type":"pit-trial","trial_index":44,"time_elapsed":363294,"internal_node_id":"0.0-33.0","task_version":"test-retest-t3"},{"Rune":"rune_05_jeran","Hex":"#ffcc3399","Correct":32,"Choice":32,"RT":678.0400000279769,"Accuracy":1,"Outcome":"-1","Keys":[2178.425000049174],"TotalKeys":1,"Block":1,"Trial":30,"Robot":3,"Valence":"Lose","Action":"Go","Sham":0,"Color":"yellow","trial_type":"pit-trial","trial_index":45,"time_elapsed":366477,"internal_node_id":"0.0-34.0","task_version":"test-retest-t3"},{"Rune":"rune_05_ior","Hex":"#3366ff99","Correct":-1,"Choice":-1,"RT":-1,"Accuracy":1,"Outcome":"+1","Keys":[],"TotalKeys":0,"Block":1,"Trial":31,"Robot":2,"Valence":"Win","Action":"No-Go","Sham":1,"Color":"blue","trial_type":"pit-trial","trial_index":46,"time_elapsed":370482,"internal_node_id":"0.0-35.0","task_version":"test-retest-t3"},{"Rune":"rune_05_tiwaz","Hex":"#3366ff99","Correct":32,"Choice":32,"RT":578.7750000017695,"Accuracy":1,"Outcome":"+10","Keys":[2078.9150000200607],"TotalKeys":1,"Block":1,"Trial":32,"Robot":1,"Valence":"Win","Action":"Go","Sham":0,"Color":"blue","trial_type":"pit-trial","trial_index":47,"time_elapsed":373564,"internal_node_id":"0.0-36.0","task_version":"test-retest-t3"},{"Rune":"rune_05_gebo","Hex":"#ffcc3399","Correct":-1,"Choice":-1,"RT":-1,"Accuracy":1,"Outcome":"-1","Keys":[],"TotalKeys":0,"Block":1,"Trial":33,"Robot":4,"Valence":"Lose","Action":"No-Go","Sham":0,"Color":"yellow","trial_type":"pit-trial","trial_index":48,"time_elapsed":377567,"internal_node_id":"0.0-37.0","task_version":"test-retest-t3"},{"Rune":"rune_05_tiwaz","Hex":"#3366ff99","Correct":32,"Choice":32,"RT":542.3950000549667,"Accuracy":1,"Outcome":"+10","Keys":[2043.6899999622256],"TotalKeys":1,"Block":1,"Trial":34,"Robot":1,"Valence":"Win","Action":"Go","Sham":0,"Color":"blue","trial_type":"pit-trial","trial_index":49,"time_elapsed":380614,"internal_node_id":"0.0-38.0","task_version":"test-retest-t3"},{"Rune":"rune_05_jeran","Hex":"#ffcc3399","Correct":32,"Choice":32,"RT":677.239999989979,"Accuracy":1,"Outcome":"-10","Keys":[2178.029999951832],"TotalKeys":1,"Block":1,"Trial":35,"Robot":3,"Valence":"Lose","Action":"Go","Sham":1,"Color":"yellow","trial_type":"pit-trial","trial_index":50,"time_elapsed":383796,"internal_node_id":"0.0-39.0","task_version":"test-retest-t3"},{"Rune":"rune_05_ior","Hex":"#3366ff99","Correct":-1,"Choice":-1,"RT":-1,"Accuracy":1,"Outcome":"+10","Keys":[],"TotalKeys":0,"Block":1,"Trial":36,"Robot":2,"Valence":"Win","Action":"No-Go","Sham":0,"Color":"blue","trial_type":"pit-trial","trial_index":51,"time_elapsed":387801,"internal_node_id":"0.0-40.0","task_version":"test-retest-t3"},{"Rune":"rune_05_jeran","Hex":"#ffcc3399","Correct":32,"Choice":32,"RT":614.0249999589287,"Accuracy":1,"Outcome":"-1","Keys":[2114.0550000127405],"TotalKeys":1,"Block":1,"Trial":37,"Robot":3,"Valence":"Lose","Action":"Go","Sham":0,"Color":"yellow","trial_type":"pit-trial","trial_index":52,"time_elapsed":390919,"internal_node_id":"0.0-41.0","task_version":"test-retest-t3"},{"Rune":"rune_05_tiwaz","Hex":"#3366ff99","Correct":32,"Choice":32,"RT":547.9000000050291,"Accuracy":1,"Outcome":"+10","Keys":[2049.2649999796413],"TotalKeys":1,"Block":1,"Trial":38,"Robot":1,"Valence":"Win","Action":"Go","Sham":0,"Color":"blue","trial_type":"pit-trial","trial_index":53,"time_elapsed":393973,"internal_node_id":"0.0-42.0","task_version":"test-retest-t3"},{"Rune":"rune_05_ior","Hex":"#3366ff99","Correct":-1,"Choice":-1,"RT":-1,"Accuracy":1,"Outcome":"+10","Keys":[],"TotalKeys":0,"Block":1,"Trial":39,"Robot":2,"Valence":"Win","Action":"No-Go","Sham":0,"Color":"blue","trial_type":"pit-trial","trial_index":54,"time_elapsed":397977,"internal_node_id":"0.0-43.0","task_version":"test-retest-t3"},{"Rune":"rune_05_gebo","Hex":"#ffcc3399","Correct":-1,"Choice":-1,"RT":-1,"Accuracy":1,"Outcome":"-1","Keys":[],"TotalKeys":0,"Block":1,"Trial":40,"Robot":4,"Valence":"Lose","Action":"No-Go","Sham":0,"Color":"yellow","trial_type":"pit-trial","trial_index":55,"time_elapsed":401982,"internal_node_id":"0.0-44.0","task_version":"test-retest-t3"},{"Rune":"rune_05_tiwaz","Hex":"#3366ff99","Correct":32,"Choice":32,"RT":461.3849999732338,"Accuracy":1,"Outcome":"+10","Keys":[1962.07000000868],"TotalKeys":1,"Block":1,"Trial":41,"Robot":1,"Valence":"Win","Action":"Go","Sham":0,"Color":"blue","trial_type":"pit-trial","trial_index":56,"time_elapsed":404949,"internal_node_id":"0.0-45.0","task_version":"test-retest-t3"},{"Rune":"rune_05_ior","Hex":"#3366ff99","Correct":-1,"Choice":-1,"RT":-1,"Accuracy":1,"Outcome":"+10","Keys":[],"TotalKeys":0,"Block":1,"Trial":42,"Robot":2,"Valence":"Win","Action":"No-Go","Sham":0,"Color":"blue","trial_type":"pit-trial","trial_index":57,"time_elapsed":408954,"internal_node_id":"0.0-46.0","task_version":"test-retest-t3"},{"Rune":"rune_05_gebo","Hex":"#ffcc3399","Correct":-1,"Choice":-1,"RT":-1,"Accuracy":1,"Outcome":"-1","Keys":[],"TotalKeys":0,"Block":1,"Trial":43,"Robot":4,"Valence":"Lose","Action":"No-Go","Sham":0,"Color":"yellow","trial_type":"pit-trial","trial_index":58,"time_elapsed":412959,"internal_node_id":"0.0-47.0","task_version":"test-retest-t3"},{"Rune":"rune_05_jeran","Hex":"#ffcc3399","Correct":32,"Choice":32,"RT":532.5899999588728,"Accuracy":1,"Outcome":"-1","Keys":[2033.9350000140257],"TotalKeys":1,"Block":1,"Trial":44,"Robot":3,"Valence":"Lose","Action":"Go","Sham":0,"Color":"yellow","trial_type":"pit-trial","trial_index":59,"time_elapsed":415997,"internal_node_id":"0.0-48.0","task_version":"test-retest-t3"},{"Rune":"rune_05_gebo","Hex":"#ffcc3399","Correct":-1,"Choice":-1,"RT":-1,"Accuracy":1,"Outcome":"-1","Keys":[],"TotalKeys":0,"Block":1,"Trial":45,"Robot":4,"Valence":"Lose","Action":"No-Go","Sham":0,"Color":"yellow","trial_type":"pit-trial","trial_index":60,"time_elapsed":420003,"internal_node_id":"0.0-49.0","task_version":"test-retest-t3"},{"Rune":"rune_05_ior","Hex":"#3366ff99","Correct":-1,"Choice":-1,"RT":-1,"Accuracy":1,"Outcome":"+10","Keys":[],"TotalKeys":0,"Block":1,"Trial":46,"Robot":2,"Valence":"Win","Action":"No-Go","Sham":0,"Color":"blue","trial_type":"pit-trial","trial_index":61,"time_elapsed":424007,"internal_node_id":"0.0-50.0","task_version":"test-retest-t3"},{"Rune":"rune_05_tiwaz","Hex":"#3366ff99","Correct":32,"Choice":32,"RT":427.96000000089407,"Accuracy":1,"Outcome":"+10","Keys":[1929.149999981746],"TotalKeys":1,"Block":1,"Trial":47,"Robot":1,"Valence":"Win","Action":"Go","Sham":0,"Color":"blue","trial_type":"pit-trial","trial_index":62,"time_elapsed":426941,"internal_node_id":"0.0-51.0","task_version":"test-retest-t3"},{"Rune":"rune_05_jeran","Hex":"#ffcc3399","Correct":32,"Choice":32,"RT":566.2000000011176,"Accuracy":1,"Outcome":"-1","Keys":[2067.2599999816157],"TotalKeys":1,"Block":1,"Trial":48,"Robot":3,"Valence":"Lose","Action":"Go","Sham":0,"Color":"yellow","trial_type":"pit-trial","trial_index":63,"time_elapsed":430012,"internal_node_id":"0.0-52.0","task_version":"test-retest-t3"},{"Rune":"rune_05_tiwaz","Hex":"#3366ff99","Correct":32,"Choice":32,"RT":414.4300000043586,"Accuracy":1,"Outcome":"+10","Keys":[1915.8300000126474],"TotalKeys":1,"Block":1,"Trial":49,"Robot":1,"Valence":"Win","Action":"Go","Sham":0,"Color":"blue","trial_type":"pit-trial","trial_index":64,"time_elapsed":432932,"internal_node_id":"0.0-53.0","task_version":"test-retest-t3"},{"Rune":"rune_05_gebo","Hex":"#ffcc3399","Correct":-1,"Choice":-1,"RT":-1,"Accuracy":1,"Outcome":"-1","Keys":[],"TotalKeys":0,"Block":1,"Trial":50,"Robot":4,"Valence":"Lose","Action":"No-Go","Sham":0,"Color":"yellow","trial_type":"pit-trial","trial_index":65,"time_elapsed":436937,"internal_node_id":"0.0-54.0","task_version":"test-retest-t3"},{"Rune":"rune_05_ior","Hex":"#3366ff99","Correct":-1,"Choice":-1,"RT":-1,"Accuracy":1,"Outcome":"+10","Keys":[],"TotalKeys":0,"Block":1,"Trial":51,"Robot":2,"Valence":"Win","Action":"No-Go","Sham":0,"Color":"blue","trial_type":"pit-trial","trial_index":66,"time_elapsed":440941,"internal_node_id":"0.0-55.0","task_version":"test-retest-t3"},{"Rune":"rune_05_jeran","Hex":"#ffcc3399","Correct":32,"Choice":32,"RT":493.7400000053458,"Accuracy":1,"Outcome":"-1","Keys":[1994.5049999514595],"TotalKeys":1,"Block":1,"Trial":52,"Robot":3,"Valence":"Lose","Action":"Go","Sham":0,"Color":"yellow","trial_type":"pit-trial","trial_index":67,"time_elapsed":443939,"internal_node_id":"0.0-56.0","task_version":"test-retest-t3"},{"Rune":"rune_05_jeran","Hex":"#ffcc3399","Correct":32,"Choice":32,"RT":640.5800000065938,"Accuracy":1,"Outcome":"-10","Keys":[2140.5899999663234],"TotalKeys":1,"Block":1,"Trial":53,"Robot":3,"Valence":"Lose","Action":"Go","Sham":1,"Color":"yellow","trial_type":"pit-trial","trial_index":68,"time_elapsed":447083,"internal_node_id":"0.0-57.0","task_version":"test-retest-t3"},{"Rune":"rune_05_gebo","Hex":"#ffcc3399","Correct":-1,"Choice":-1,"RT":-1,"Accuracy":1,"Outcome":"-1","Keys":[],"TotalKeys":0,"Block":1,"Trial":54,"Robot":4,"Valence":"Lose","Action":"No-Go","Sham":0,"Color":"yellow","trial_type":"pit-trial","trial_index":69,"time_elapsed":451089,"internal_node_id":"0.0-58.0","task_version":"test-retest-t3"},{"Rune":"rune_05_ior","Hex":"#3366ff99","Correct":-1,"Choice":-1,"RT":-1,"Accuracy":1,"Outcome":"+10","Keys":[],"TotalKeys":0,"Block":1,"Trial":55,"Robot":2,"Valence":"Win","Action":"No-Go","Sham":0,"Color":"blue","trial_type":"pit-trial","trial_index":70,"time_elapsed":455095,"internal_node_id":"0.0-59.0","task_version":"test-retest-t3"},{"Rune":"rune_05_tiwaz","Hex":"#3366ff99","Correct":32,"Choice":32,"RT":518.2800000184216,"Accuracy":1,"Outcome":"+1","Keys":[2019.5049999747425],"TotalKeys":1,"Block":1,"Trial":56,"Robot":1,"Valence":"Win","Action":"Go","Sham":1,"Color":"blue","trial_type":"pit-trial","trial_index":71,"time_elapsed":458118,"internal_node_id":"0.0-60.0","task_version":"test-retest-t3"},{"Rune":"rune_05_ior","Hex":"#3366ff99","Correct":-1,"Choice":-1,"RT":-1,"Accuracy":1,"Outcome":"+1","Keys":[],"TotalKeys":0,"Block":1,"Trial":57,"Robot":2,"Valence":"Win","Action":"No-Go","Sham":1,"Color":"blue","trial_type":"pit-trial","trial_index":72,"time_elapsed":462124,"internal_node_id":"0.0-61.0","task_version":"test-retest-t3"},{"Rune":"rune_05_jeran","Hex":"#ffcc3399","Correct":32,"Choice":32,"RT":613.8950000167824,"Accuracy":1,"Outcome":"-1","Keys":[2115.3449999983422],"TotalKeys":1,"Block":1,"Trial":58,"Robot":3,"Valence":"Lose","Action":"Go","Sham":0,"Color":"yellow","trial_type":"pit-trial","trial_index":73,"time_elapsed":465243,"internal_node_id":"0.0-62.0","task_version":"test-retest-t3"},{"Rune":"rune_05_tiwaz","Hex":"#3366ff99","Correct":32,"Choice":32,"RT":481.0999999754131,"Accuracy":1,"Outcome":"+10","Keys":[1983.3850000286475],"TotalKeys":1,"Block":1,"Trial":59,"Robot":1,"Valence":"Win","Action":"Go","Sham":0,"Color":"blue","trial_type":"pit-trial","trial_index":74,"time_elapsed":468230,"internal_node_id":"0.0-63.0","task_version":"test-retest-t3"},{"Rune":"rune_05_gebo","Hex":"#ffcc3399","Correct":-1,"Choice":-1,"RT":-1,"Accuracy":1,"Outcome":"-10","Keys":[],"TotalKeys":0,"Block":1,"Trial":60,"Robot":4,"Valence":"Lose","Action":"No-Go","Sham":1,"Color":"yellow","trial_type":"pit-trial","trial_index":75,"time_elapsed":472235,"internal_node_id":"0.0-64.0","task_version":"test-retest-t3"},{"value":false,"trial_type":"call-function","trial_index":76,"time_elapsed":472238,"internal_node_id":"0.0-65.0","task_version":"test-retest-t3"},{"view_history":"[{\"page_index\":0,\"viewing_time\":3812.32500000624},{\"page_index\":1,\"viewing_time\":1753.9300000062212}]","rt":5566.680000047199,"trial_type":"pit-instructions","trial_index":77,"time_elapsed":477806,"internal_node_id":"0.0-66.0","task_version":"test-retest-t3"},{"Rune":"rune_05_jeran","Hex":"#ffcc3399","Correct":32,"Choice":32,"RT":772.6150000235066,"Accuracy":1,"Outcome":"-10","Keys":[2272.6649999967776],"TotalKeys":1,"Block":1,"Trial":61,"Robot":3,"Valence":"Lose","Action":"Go","Sham":1,"Color":"yellow","trial_type":"pit-trial","trial_index":78,"time_elapsed":481083,"internal_node_id":"0.0-67.0","task_version":"test-retest-t3"},{"Rune":"rune_05_gebo","Hex":"#ffcc3399","Correct":-1,"Choice":32,"RT":1159.1199999675155,"Accuracy":0,"Outcome":"-10","Keys":[2659.5999999553896],"TotalKeys":1,"Block":1,"Trial":62,"Robot":4,"Valence":"Lose","Action":"No-Go","Sham":0,"Color":"yellow","trial_type":"pit-trial","trial_index":79,"time_elapsed":484748,"internal_node_id":"0.0-68.0","task_version":"test-retest-t3"},{"Rune":"rune_05_tiwaz","Hex":"#3366ff99","Correct":32,"Choice":32,"RT":750.545000017155,"Accuracy":1,"Outcome":"+1","Keys":[2251.445000001695],"TotalKeys":1,"Block":1,"Trial":63,"Robot":1,"Valence":"Win","Action":"Go","Sham":1,"Color":"blue","trial_type":"pit-trial","trial_index":80,"time_elapsed":488003,"internal_node_id":"0.0-69.0","task_version":"test-retest-t3"},{"Rune":"rune_05_ior","Hex":"#3366ff99","Correct":-1,"Choice":32,"RT":1018.7150000128895,"Accuracy":0,"Outcome":"+1","Keys":[2518.7600000062957],"TotalKeys":1,"Block":1,"Trial":64,"Robot":2,"Valence":"Win","Action":"No-Go","Sham":0,"Color":"blue","trial_type":"pit-trial","trial_index":81,"time_elapsed":491525,"internal_node_id":"0.0-70.0","task_version":"test-retest-t3"},{"Rune":"rune_05_gebo","Hex":"#ffcc3399","Correct":-1,"Choice":-1,"RT":-1,"Accuracy":1,"Outcome":"-10","Keys":[],"TotalKeys":0,"Block":1,"Trial":65,"Robot":4,"Valence":"Lose","Action":"No-Go","Sham":1,"Color":"yellow","trial_type":"pit-trial","trial_index":82,"time_elapsed":495530,"internal_node_id":"0.0-71.0","task_version":"test-retest-t3"},{"Rune":"rune_05_ior","Hex":"#3366ff99","Correct":-1,"Choice":-1,"RT":-1,"Accuracy":1,"Outcome":"+10","Keys":[],"TotalKeys":0,"Block":1,"Trial":66,"Robot":2,"Valence":"Win","Action":"No-Go","Sham":0,"Color":"blue","trial_type":"pit-trial","trial_index":83,"time_elapsed":499536,"internal_node_id":"0.0-72.0","task_version":"test-retest-t3"},{"Rune":"rune_05_jeran","Hex":"#ffcc3399","Correct":32,"Choice":-1,"RT":-1,"Accuracy":0,"Outcome":"-10","Keys":[],"TotalKeys":0,"Block":1,"Trial":67,"Robot":3,"Valence":"Lose","Action":"Go","Sham":0,"Color":"yellow","trial_type":"pit-trial","trial_index":84,"time_elapsed":503540,"internal_node_id":"0.0-73.0","task_version":"test-retest-t3"},{"Rune":"rune_05_tiwaz","Hex":"#3366ff99","Correct":32,"Choice":-1,"RT":-1,"Accuracy":0,"Outcome":"+1","Keys":[],"TotalKeys":0,"Block":1,"Trial":68,"Robot":1,"Valence":"Win","Action":"Go","Sham":0,"Color":"blue","trial_type":"pit-trial","trial_index":85,"time_elapsed":507545,"internal_node_id":"0.0-74.0","task_version":"test-retest-t3"},{"Rune":"rune_05_jeran","Hex":"#ffcc3399","Correct":32,"Choice":-1,"RT":-1,"Accuracy":0,"Outcome":"-10","Keys":[],"TotalKeys":0,"Block":1,"Trial":69,"Robot":3,"Valence":"Lose","Action":"Go","Sham":0,"Color":"yellow","trial_type":"pit-trial","trial_index":86,"time_elapsed":511551,"internal_node_id":"0.0-75.0","task_version":"test-retest-t3"},{"Rune":"rune_05_gebo","Hex":"#ffcc3399","Correct":-1,"Choice":-1,"RT":-1,"Accuracy":1,"Outcome":"-1","Keys":[],"TotalKeys":0,"Block":1,"Trial":70,"Robot":4,"Valence":"Lose","Action":"No-Go","Sham":0,"Color":"yellow","trial_type":"pit-trial","trial_index":87,"time_elapsed":515555,"internal_node_id":"0.0-76.0","task_version":"test-retest-t3"},{"Rune":"rune_05_tiwaz","Hex":"#3366ff99","Correct":32,"Choice":32,"RT":840.6199999735691,"Accuracy":1,"Outcome":"+10","Keys":[2341.9749999884516],"TotalKeys":1,"Block":1,"Trial":71,"Robot":1,"Valence":"Win","Action":"Go","Sham":0,"Color":"blue","trial_type":"pit-trial","trial_index":88,"time_elapsed":518901,"internal_node_id":"0.0-77.0","task_version":"test-retest-t3"},{"Rune":"rune_05_ior","Hex":"#3366ff99","Correct":-1,"Choice":-1,"RT":-1,"Accuracy":1,"Outcome":"+10","Keys":[],"TotalKeys":0,"Block":1,"Trial":72,"Robot":2,"Valence":"Win","Action":"No-Go","Sham":0,"Color":"blue","trial_type":"pit-trial","trial_index":89,"time_elapsed":522905,"internal_node_id":"0.0-78.0","task_version":"test-retest-t3"},{"Rune":"rune_05_ior","Hex":"#3366ff99","Correct":-1,"Choice":-1,"RT":-1,"Accuracy":1,"Outcome":"+10","Keys":[],"TotalKeys":0,"Block":1,"Trial":73,"Robot":2,"Valence":"Win","Action":"No-Go","Sham":0,"Color":"blue","trial_type":"pit-trial","trial_index":90,"time_elapsed":526911,"internal_node_id":"0.0-79.0","task_version":"test-retest-t3"},{"Rune":"rune_05_tiwaz","Hex":"#3366ff99","Correct":32,"Choice":32,"RT":765.9899999853224,"Accuracy":1,"Outcome":"+10","Keys":[2266.2100000306964],"TotalKeys":1,"Block":1,"Trial":74,"Robot":1,"Valence":"Win","Action":"Go","Sham":0,"Color":"blue","trial_type":"pit-trial","trial_index":91,"time_elapsed":530180,"internal_node_id":"0.0-80.0","task_version":"test-retest-t3"},{"Rune":"rune_05_gebo","Hex":"#ffcc3399","Correct":-1,"Choice":-1,"RT":-1,"Accuracy":1,"Outcome":"-1","Keys":[],"TotalKeys":0,"Block":1,"Trial":75,"Robot":4,"Valence":"Lose","Action":"No-Go","Sham":0,"Color":"yellow","trial_type":"pit-trial","trial_index":92,"time_elapsed":534185,"internal_node_id":"0.0-81.0","task_version":"test-retest-t3"},{"Rune":"rune_05_jeran","Hex":"#ffcc3399","Correct":32,"Choice":32,"RT":615.810000046622,"Accuracy":1,"Outcome":"-1","Keys":[2117.279999947641],"TotalKeys":1,"Block":1,"Trial":76,"Robot":3,"Valence":"Lose","Action":"Go","Sham":0,"Color":"yellow","trial_type":"pit-trial","trial_index":93,"time_elapsed":537307,"internal_node_id":"0.0-82.0","task_version":"test-retest-t3"},{"Rune":"rune_05_ior","Hex":"#3366ff99","Correct":-1,"Choice":-1,"RT":-1,"Accuracy":1,"Outcome":"+1","Keys":[],"TotalKeys":0,"Block":1,"Trial":77,"Robot":2,"Valence":"Win","Action":"No-Go","Sham":1,"Color":"blue","trial_type":"pit-trial","trial_index":94,"time_elapsed":541312,"internal_node_id":"0.0-83.0","task_version":"test-retest-t3"},{"Rune":"rune_05_jeran","Hex":"#ffcc3399","Correct":32,"Choice":32,"RT":666.365000011865,"Accuracy":1,"Outcome":"-1","Keys":[2166.989999997895],"TotalKeys":1,"Block":1,"Trial":78,"Robot":3,"Valence":"Lose","Action":"Go","Sham":0,"Color":"yellow","trial_type":"pit-trial","trial_index":95,"time_elapsed":544483,"internal_node_id":"0.0-84.0","task_version":"test-retest-t3"},{"Rune":"rune_05_gebo","Hex":"#ffcc3399","Correct":-1,"Choice":-1,"RT":-1,"Accuracy":1,"Outcome":"-1","Keys":[],"TotalKeys":0,"Block":1,"Trial":79,"Robot":4,"Valence":"Lose","Action":"No-Go","Sham":0,"Color":"yellow","trial_type":"pit-trial","trial_index":96,"time_elapsed":548486,"internal_node_id":"0.0-85.0","task_version":"test-retest-t3"},{"Rune":"rune_05_tiwaz","Hex":"#3366ff99","Correct":32,"Choice":32,"RT":491.93999997805804,"Accuracy":1,"Outcome":"+10","Keys":[1992.2749999677762],"TotalKeys":1,"Block":1,"Trial":80,"Robot":1,"Valence":"Win","Action":"Go","Sham":0,"Color":"blue","trial_type":"pit-trial","trial_index":97,"time_elapsed":551482,"internal_node_id":"0.0-86.0","task_version":"test-retest-t3"},{"Rune":"rune_05_jeran","Hex":"#ffcc3399","Correct":32,"Choice":32,"RT":751.9399999873713,"Accuracy":1,"Outcome":"-1","Keys":[2252.6400000206195],"TotalKeys":1,"Block":1,"Trial":81,"Robot":3,"Valence":"Lose","Action":"Go","Sham":0,"Color":"yellow","trial_type":"pit-trial","trial_index":98,"time_elapsed":554739,"internal_node_id":"0.0-87.0","task_version":"test-retest-t3"},{"Rune":"rune_05_tiwaz","Hex":"#3366ff99","Correct":32,"Choice":32,"RT":629.9100000178441,"Accuracy":1,"Outcome":"+10","Keys":[2131.77999999607],"TotalKeys":1,"Block":1,"Trial":82,"Robot":1,"Valence":"Win","Action":"Go","Sham":0,"Color":"blue","trial_type":"pit-trial","trial_index":99,"time_elapsed":557875,"internal_node_id":"0.0-88.0","task_version":"test-retest-t3"},{"Rune":"rune_05_gebo","Hex":"#ffcc3399","Correct":-1,"Choice":-1,"RT":-1,"Accuracy":1,"Outcome":"-1","Keys":[],"TotalKeys":0,"Block":1,"Trial":83,"Robot":4,"Valence":"Lose","Action":"No-Go","Sham":0,"Color":"yellow","trial_type":"pit-trial","trial_index":100,"time_elapsed":561881,"internal_node_id":"0.0-89.0","task_version":"test-retest-t3"},{"Rune":"rune_05_ior","Hex":"#3366ff99","Correct":-1,"Choice":-1,"RT":-1,"Accuracy":1,"Outcome":"+10","Keys":[],"TotalKeys":0,"Block":1,"Trial":84,"Robot":2,"Valence":"Win","Action":"No-Go","Sham":0,"Color":"blue","trial_type":"pit-trial","trial_index":101,"time_elapsed":565886,"internal_node_id":"0.0-90.0","task_version":"test-retest-t3"},{"Rune":"rune_05_gebo","Hex":"#ffcc3399","Correct":-1,"Choice":-1,"RT":-1,"Accuracy":1,"Outcome":"-1","Keys":[],"TotalKeys":0,"Block":1,"Trial":85,"Robot":4,"Valence":"Lose","Action":"No-Go","Sham":0,"Color":"yellow","trial_type":"pit-trial","trial_index":102,"time_elapsed":569893,"internal_node_id":"0.0-91.0","task_version":"test-retest-t3"},{"Rune":"rune_05_ior","Hex":"#3366ff99","Correct":-1,"Choice":-1,"RT":-1,"Accuracy":1,"Outcome":"+1","Keys":[],"TotalKeys":0,"Block":1,"Trial":86,"Robot":2,"Valence":"Win","Action":"No-Go","Sham":1,"Color":"blue","trial_type":"pit-trial","trial_index":103,"time_elapsed":573898,"internal_node_id":"0.0-92.0","task_version":"test-retest-t3"},{"Rune":"rune_05_tiwaz","Hex":"#3366ff99","Correct":32,"Choice":32,"RT":448.00999999279156,"Accuracy":1,"Outcome":"+10","Keys":[1948.7250000238419],"TotalKeys":1,"Block":1,"Trial":87,"Robot":1,"Valence":"Win","Action":"Go","Sham":0,"Color":"blue","trial_type":"pit-trial","trial_index":104,"time_elapsed":576851,"internal_node_id":"0.0-93.0","task_version":"test-retest-t3"},{"Rune":"rune_05_jeran","Hex":"#ffcc3399","Correct":32,"Choice":32,"RT":662.0200000470504,"Accuracy":1,"Outcome":"-1","Keys":[2163.3900000015274],"TotalKeys":1,"Block":1,"Trial":88,"Robot":3,"Valence":"Lose","Action":"Go","Sham":0,"Color":"yellow","trial_type":"pit-trial","trial_index":105,"time_elapsed":580018,"internal_node_id":"0.0-94.0","task_version":"test-retest-t3"},{"Rune":"rune_05_jeran","Hex":"#ffcc3399","Correct":32,"Choice":32,"RT":735.2100000134669,"Accuracy":1,"Outcome":"-1","Keys":[2236.399999994319],"TotalKeys":1,"Block":1,"Trial":89,"Robot":3,"Valence":"Lose","Action":"Go","Sham":0,"Color":"yellow","trial_type":"pit-trial","trial_index":106,"time_elapsed":583259,"internal_node_id":"0.0-95.0","task_version":"test-retest-t3"},{"Rune":"rune_05_tiwaz","Hex":"#3366ff99","Correct":32,"Choice":32,"RT":599.2649999679998,"Accuracy":1,"Outcome":"+10","Keys":[2100.044999970123],"TotalKeys":1,"Block":1,"Trial":90,"Robot":1,"Valence":"Win","Action":"Go","Sham":0,"Color":"blue","trial_type":"pit-trial","trial_index":107,"time_elapsed":586363,"internal_node_id":"0.0-96.0","task_version":"test-retest-t3"},{"Rune":"rune_05_ior","Hex":"#3366ff99","Correct":-1,"Choice":-1,"RT":-1,"Accuracy":1,"Outcome":"+10","Keys":[],"TotalKeys":0,"Block":1,"Trial":91,"Robot":2,"Valence":"Win","Action":"No-Go","Sham":0,"Color":"blue","trial_type":"pit-trial","trial_index":108,"time_elapsed":590368,"internal_node_id":"0.0-97.0","task_version":"test-retest-t3"},{"Rune":"rune_05_gebo","Hex":"#ffcc3399","Correct":-1,"Choice":-1,"RT":-1,"Accuracy":1,"Outcome":"-10","Keys":[],"TotalKeys":0,"Block":1,"Trial":92,"Robot":4,"Valence":"Lose","Action":"No-Go","Sham":1,"Color":"yellow","trial_type":"pit-trial","trial_index":109,"time_elapsed":594371,"internal_node_id":"0.0-98.0","task_version":"test-retest-t3"},{"Rune":"rune_05_gebo","Hex":"#ffcc3399","Correct":-1,"Choice":-1,"RT":-1,"Accuracy":1,"Outcome":"-1","Keys":[],"TotalKeys":0,"Block":1,"Trial":93,"Robot":4,"Valence":"Lose","Action":"No-Go","Sham":0,"Color":"yellow","trial_type":"pit-trial","trial_index":110,"time_elapsed":598376,"internal_node_id":"0.0-99.0","task_version":"test-retest-t3"},{"Rune":"rune_05_jeran","Hex":"#ffcc3399","Correct":32,"Choice":32,"RT":620.554999972228,"Accuracy":1,"Outcome":"-1","Keys":[2121.6349999886006],"TotalKeys":1,"Block":1,"Trial":94,"Robot":3,"Valence":"Lose","Action":"Go","Sham":0,"Color":"yellow","trial_type":"pit-trial","trial_index":111,"time_elapsed":601501,"internal_node_id":"0.0-100.0","task_version":"test-retest-t3"},{"Rune":"rune_05_tiwaz","Hex":"#3366ff99","Correct":32,"Choice":32,"RT":515.7749999780208,"Accuracy":1,"Outcome":"+1","Keys":[2017.3199999844655],"TotalKeys":1,"Block":1,"Trial":95,"Robot":1,"Valence":"Win","Action":"Go","Sham":1,"Color":"blue","trial_type":"pit-trial","trial_index":112,"time_elapsed":604522,"internal_node_id":"0.0-101.0","task_version":"test-retest-t3"},{"Rune":"rune_05_ior","Hex":"#3366ff99","Correct":-1,"Choice":-1,"RT":-1,"Accuracy":1,"Outcome":"+10","Keys":[],"TotalKeys":0,"Block":1,"Trial":96,"Robot":2,"Valence":"Win","Action":"No-Go","Sham":0,"Color":"blue","trial_type":"pit-trial","trial_index":113,"time_elapsed":608528,"internal_node_id":"0.0-102.0","task_version":"test-retest-t3"},{"Rune":"rune_05_jeran","Hex":"#ffcc3399","Correct":32,"Choice":32,"RT":586.6449999739416,"Accuracy":1,"Outcome":"-10","Keys":[2087.480000045616],"TotalKeys":1,"Block":1,"Trial":97,"Robot":3,"Valence":"Lose","Action":"Go","Sham":1,"Color":"yellow","trial_type":"pit-trial","trial_index":114,"time_elapsed":611620,"internal_node_id":"0.0-103.0","task_version":"test-retest-t3"},{"Rune":"rune_05_gebo","Hex":"#ffcc3399","Correct":-1,"Choice":-1,"RT":-1,"Accuracy":1,"Outcome":"-1","Keys":[],"TotalKeys":0,"Block":1,"Trial":98,"Robot":4,"Valence":"Lose","Action":"No-Go","Sham":0,"Color":"yellow","trial_type":"pit-trial","trial_index":115,"time_elapsed":615626,"internal_node_id":"0.0-104.0","task_version":"test-retest-t3"},{"Rune":"rune_05_ior","Hex":"#3366ff99","Correct":-1,"Choice":-1,"RT":-1,"Accuracy":1,"Outcome":"+10","Keys":[],"TotalKeys":0,"Block":1,"Trial":99,"Robot":2,"Valence":"Win","Action":"No-Go","Sham":0,"Color":"blue","trial_type":"pit-trial","trial_index":116,"time_elapsed":619630,"internal_node_id":"0.0-105.0","task_version":"test-retest-t3"},{"Rune":"rune_05_tiwaz","Hex":"#3366ff99","Correct":32,"Choice":32,"RT":556.685000017751,"Accuracy":1,"Outcome":"+10","Keys":[2056.8650000495836],"TotalKeys":1,"Block":1,"Trial":100,"Robot":1,"Valence":"Win","Action":"Go","Sham":0,"Color":"blue","trial_type":"pit-trial","trial_index":117,"time_elapsed":622691,"internal_node_id":"0.0-106.0","task_version":"test-retest-t3"},{"Rune":"rune_05_tiwaz","Hex":"#3366ff99","Correct":32,"Choice":32,"RT":749.9599999864586,"Accuracy":1,"Outcome":"+1","Keys":[2251.155000005383],"TotalKeys":1,"Block":1,"Trial":101,"Robot":1,"Valence":"Win","Action":"Go","Sham":1,"Color":"blue","trial_type":"pit-trial","trial_index":118,"time_elapsed":625946,"internal_node_id":"0.0-107.0","task_version":"test-retest-t3"},{"Rune":"rune_05_ior","Hex":"#3366ff99","Correct":-1,"Choice":-1,"RT":-1,"Accuracy":1,"Outcome":"+10","Keys":[],"TotalKeys":0,"Block":1,"Trial":102,"Robot":2,"Valence":"Win","Action":"No-Go","Sham":0,"Color":"blue","trial_type":"pit-trial","trial_index":119,"time_elapsed":629951,"internal_node_id":"0.0-108.0","task_version":"test-retest-t3"},{"Rune":"rune_05_gebo","Hex":"#ffcc3399","Correct":-1,"Choice":-1,"RT":-1,"Accuracy":1,"Outcome":"-1","Keys":[],"TotalKeys":0,"Block":1,"Trial":103,"Robot":4,"Valence":"Lose","Action":"No-Go","Sham":0,"Color":"yellow","trial_type":"pit-trial","trial_index":120,"time_elapsed":633956,"internal_node_id":"0.0-109.0","task_version":"test-retest-t3"},{"Rune":"rune_05_jeran","Hex":"#ffcc3399","Correct":32,"Choice":32,"RT":620.5750000081025,"Accuracy":1,"Outcome":"-1","Keys":[2121.4250000193715],"TotalKeys":1,"Block":1,"Trial":104,"Robot":3,"Valence":"Lose","Action":"Go","Sham":0,"Color":"yellow","trial_type":"pit-trial","trial_index":121,"time_elapsed":637082,"internal_node_id":"0.0-110.0","task_version":"test-retest-t3"},{"Rune":"rune_05_ior","Hex":"#3366ff99","Correct":-1,"Choice":-1,"RT":-1,"Accuracy":1,"Outcome":"+1","Keys":[],"TotalKeys":0,"Block":1,"Trial":105,"Robot":2,"Valence":"Win","Action":"No-Go","Sham":1,"Color":"blue","trial_type":"pit-trial","trial_index":122,"time_elapsed":641086,"internal_node_id":"0.0-111.0","task_version":"test-retest-t3"},{"Rune":"rune_05_jeran","Hex":"#ffcc3399","Correct":32,"Choice":32,"RT":681.5800000331365,"Accuracy":1,"Outcome":"-1","Keys":[2183.08500002604],"TotalKeys":1,"Block":1,"Trial":106,"Robot":3,"Valence":"Lose","Action":"Go","Sham":0,"Color":"yellow","trial_type":"pit-trial","trial_index":123,"time_elapsed":644275,"internal_node_id":"0.0-112.0","task_version":"test-retest-t3"},{"Rune":"rune_05_gebo","Hex":"#ffcc3399","Correct":-1,"Choice":-1,"RT":-1,"Accuracy":1,"Outcome":"-1","Keys":[],"TotalKeys":0,"Block":1,"Trial":107,"Robot":4,"Valence":"Lose","Action":"No-Go","Sham":0,"Color":"yellow","trial_type":"pit-trial","trial_index":124,"time_elapsed":648279,"internal_node_id":"0.0-113.0","task_version":"test-retest-t3"},{"Rune":"rune_05_tiwaz","Hex":"#3366ff99","Correct":32,"Choice":32,"RT":531.7000000504777,"Accuracy":1,"Outcome":"+10","Keys":[2032.7200000174344],"TotalKeys":1,"Block":1,"Trial":108,"Robot":1,"Valence":"Win","Action":"Go","Sham":0,"Color":"blue","trial_type":"pit-trial","trial_index":125,"time_elapsed":651316,"internal_node_id":"0.0-114.0","task_version":"test-retest-t3"},{"Rune":"rune_05_jeran","Hex":"#ffcc3399","Correct":32,"Choice":32,"RT":685.2700000163168,"Accuracy":1,"Outcome":"-10","Keys":[2185.760000022128],"TotalKeys":1,"Block":1,"Trial":109,"Robot":3,"Valence":"Lose","Action":"Go","Sham":1,"Color":"yellow","trial_type":"pit-trial","trial_index":126,"time_elapsed":654505,"internal_node_id":"0.0-115.0","task_version":"test-retest-t3"},{"Rune":"rune_05_ior","Hex":"#3366ff99","Correct":-1,"Choice":-1,"RT":-1,"Accuracy":1,"Outcome":"+10","Keys":[],"TotalKeys":0,"Block":1,"Trial":110,"Robot":2,"Valence":"Win","Action":"No-Go","Sham":0,"Color":"blue","trial_type":"pit-trial","trial_index":127,"time_elapsed":658509,"internal_node_id":"0.0-116.0","task_version":"test-retest-t3"},{"Rune":"rune_05_tiwaz","Hex":"#3366ff99","Correct":32,"Choice":32,"RT":501.5500000445172,"Accuracy":1,"Outcome":"+10","Keys":[2002.8150000143796],"TotalKeys":1,"Block":1,"Trial":111,"Robot":1,"Valence":"Win","Action":"Go","Sham":0,"Color":"blue","trial_type":"pit-trial","trial_index":128,"time_elapsed":661516,"internal_node_id":"0.0-117.0","task_version":"test-retest-t3"},{"Rune":"rune_05_gebo","Hex":"#ffcc3399","Correct":-1,"Choice":-1,"RT":-1,"Accuracy":1,"Outcome":"-1","Keys":[],"TotalKeys":0,"Block":1,"Trial":112,"Robot":4,"Valence":"Lose","Action":"No-Go","Sham":0,"Color":"yellow","trial_type":"pit-trial","trial_index":129,"time_elapsed":665521,"internal_node_id":"0.0-118.0","task_version":"test-retest-t3"},{"Rune":"rune_05_jeran","Hex":"#ffcc3399","Correct":32,"Choice":32,"RT":687.9550000303425,"Accuracy":1,"Outcome":"-1","Keys":[2189.060000004247],"TotalKeys":1,"Block":1,"Trial":113,"Robot":3,"Valence":"Lose","Action":"Go","Sham":0,"Color":"yellow","trial_type":"pit-trial","trial_index":130,"time_elapsed":668714,"internal_node_id":"0.0-119.0","task_version":"test-retest-t3"},{"Rune":"rune_05_tiwaz","Hex":"#3366ff99","Correct":32,"Choice":32,"RT":625.789999961853,"Accuracy":1,"Outcome":"+10","Keys":[2126.155000005383],"TotalKeys":1,"Block":1,"Trial":114,"Robot":1,"Valence":"Win","Action":"Go","Sham":0,"Color":"blue","trial_type":"pit-trial","trial_index":131,"time_elapsed":671844,"internal_node_id":"0.0-120.0","task_version":"test-retest-t3"},{"Rune":"rune_05_ior","Hex":"#3366ff99","Correct":-1,"Choice":-1,"RT":-1,"Accuracy":1,"Outcome":"+10","Keys":[],"TotalKeys":0,"Block":1,"Trial":115,"Robot":2,"Valence":"Win","Action":"No-Go","Sham":0,"Color":"blue","trial_type":"pit-trial","trial_index":132,"time_elapsed":675849,"internal_node_id":"0.0-121.0","task_version":"test-retest-t3"},{"Rune":"rune_05_gebo","Hex":"#ffcc3399","Correct":-1,"Choice":-1,"RT":-1,"Accuracy":1,"Outcome":"-10","Keys":[],"TotalKeys":0,"Block":1,"Trial":116,"Robot":4,"Valence":"Lose","Action":"No-Go","Sham":1,"Color":"yellow","trial_type":"pit-trial","trial_index":133,"time_elapsed":679854,"internal_node_id":"0.0-122.0","task_version":"test-retest-t3"},{"Rune":"rune_05_ior","Hex":"#3366ff99","Correct":-1,"Choice":-1,"RT":-1,"Accuracy":1,"Outcome":"+10","Keys":[],"TotalKeys":0,"Block":1,"Trial":117,"Robot":2,"Valence":"Win","Action":"No-Go","Sham":0,"Color":"blue","trial_type":"pit-trial","trial_index":134,"time_elapsed":683859,"internal_node_id":"0.0-123.0","task_version":"test-retest-t3"},{"Rune":"rune_05_tiwaz","Hex":"#3366ff99","Correct":32,"Choice":32,"RT":549.2649999796413,"Accuracy":1,"Outcome":"+10","Keys":[2050.779999990482],"TotalKeys":1,"Block":1,"Trial":118,"Robot":1,"Valence":"Win","Action":"Go","Sham":0,"Color":"blue","trial_type":"pit-trial","trial_index":135,"time_elapsed":686914,"internal_node_id":"0.0-124.0","task_version":"test-retest-t3"},{"Rune":"rune_05_gebo","Hex":"#ffcc3399","Correct":-1,"Choice":-1,"RT":-1,"Accuracy":1,"Outcome":"-1","Keys":[],"TotalKeys":0,"Block":1,"Trial":119,"Robot":4,"Valence":"Lose","Action":"No-Go","Sham":0,"Color":"yellow","trial_type":"pit-trial","trial_index":136,"time_elapsed":690921,"internal_node_id":"0.0-125.0","task_version":"test-retest-t3"},{"Rune":"rune_05_jeran","Hex":"#ffcc3399","Correct":32,"Choice":32,"RT":608.2900000037625,"Accuracy":1,"Outcome":"-1","Keys":[2108.940000005532],"TotalKeys":1,"Block":1,"Trial":120,"Robot":3,"Valence":"Lose","Action":"Go","Sham":0,"Color":"yellow","trial_type":"pit-trial","trial_index":137,"time_elapsed":694035,"internal_node_id":"0.0-126.0","task_version":"test-retest-t3"},{"view_history":"[{\"page_index\":0,\"viewing_time\":2801.824999973178},{\"page_index\":1,\"viewing_time\":3280.8250000234693},{\"page_index\":2,\"viewing_time\":1186.0849999939092}]","rt":7269.1650000051595,"trial_type":"pit-instructions","trial_index":138,"time_elapsed":701307,"internal_node_id":"0.0-127.0","task_version":"test-retest-t3"},{"Rune":"rune_06_ehwaz","Hex":"#3366ff99","Correct":-1,"Choice":32,"RT":772.4799999850802,"Accuracy":0,"Outcome":"+10","Keys":[2274.9349999940023],"TotalKeys":1,"Block":2,"Trial":121,"Robot":2,"Valence":"Win","Action":"No-Go","Sham":1,"Color":"blue","trial_type":"pit-trial","trial_index":139,"time_elapsed":704586,"internal_node_id":"0.0-128.0","task_version":"test-retest-t3"},{"Rune":"rune_06_berkanan","Hex":"#ffcc3399","Correct":32,"Choice":32,"RT":882.5100000249222,"Accuracy":1,"Outcome":"-10","Keys":[2383.5499999695458],"TotalKeys":1,"Block":2,"Trial":122,"Robot":3,"Valence":"Lose","Action":"Go","Sham":1,"Color":"yellow","trial_type":"pit-trial","trial_index":140,"time_elapsed":707972,"internal_node_id":"0.0-129.0","task_version":"test-retest-t3"},{"Rune":"rune_06_cweord","Hex":"#ffcc3399","Correct":-1,"Choice":32,"RT":804.3450000113808,"Accuracy":0,"Outcome":"-10","Keys":[2304.385000024922],"TotalKeys":1,"Block":2,"Trial":123,"Robot":4,"Valence":"Lose","Action":"No-Go","Sham":0,"Color":"yellow","trial_type":"pit-trial","trial_index":141,"time_elapsed":711282,"internal_node_id":"0.0-130.0","task_version":"test-retest-t3"},{"Rune":"rune_06_ansuz","Hex":"#3366ff99","Correct":32,"Choice":-1,"RT":-1,"Accuracy":0,"Outcome":"+1","Keys":[],"TotalKeys":0,"Block":2,"Trial":124,"Robot":1,"Valence":"Win","Action":"Go","Sham":0,"Color":"blue","trial_type":"pit-trial","trial_index":142,"time_elapsed":715286,"internal_node_id":"0.0-131.0","task_version":"test-retest-t3"},{"Rune":"rune_06_ansuz","Hex":"#3366ff99","Correct":32,"Choice":-1,"RT":-1,"Accuracy":0,"Outcome":"+1","Keys":[],"TotalKeys":0,"Block":2,"Trial":125,"Robot":1,"Valence":"Win","Action":"Go","Sham":0,"Color":"blue","trial_type":"pit-trial","trial_index":143,"time_elapsed":719290,"internal_node_id":"0.0-132.0","task_version":"test-retest-t3"},{"Rune":"rune_06_berkanan","Hex":"#ffcc3399","Correct":32,"Choice":-1,"RT":-1,"Accuracy":0,"Outcome":"-10","Keys":[],"TotalKeys":0,"Block":2,"Trial":126,"Robot":3,"Valence":"Lose","Action":"Go","Sham":0,"Color":"yellow","trial_type":"pit-trial","trial_index":144,"time_elapsed":723295,"internal_node_id":"0.0-133.0","task_version":"test-retest-t3"},{"Rune":"rune_06_cweord","Hex":"#ffcc3399","Correct":-1,"Choice":32,"RT":1066.8050000094809,"Accuracy":0,"Outcome":"-10","Keys":[2567.18999997247],"TotalKeys":1,"Block":2,"Trial":127,"Robot":4,"Valence":"Lose","Action":"No-Go","Sham":0,"Color":"yellow","trial_type":"pit-trial","trial_index":145,"time_elapsed":726866,"internal_node_id":"0.0-134.0","task_version":"test-retest-t3"},{"Rune":"rune_06_ehwaz","Hex":"#3366ff99","Correct":-1,"Choice":32,"RT":702.7600000146776,"Accuracy":0,"Outcome":"+1","Keys":[2203.110000002198],"TotalKeys":1,"Block":2,"Trial":128,"Robot":2,"Valence":"Win","Action":"No-Go","Sham":0,"Color":"blue","trial_type":"pit-trial","trial_index":146,"time_elapsed":730073,"internal_node_id":"0.0-135.0","task_version":"test-retest-t3"},{"Rune":"rune_06_cweord","Hex":"#ffcc3399","Correct":-1,"Choice":32,"RT":920.1100000063889,"Accuracy":0,"Outcome":"-1","Keys":[2420.4400000162423],"TotalKeys":1,"Block":2,"Trial":129,"Robot":4,"Valence":"Lose","Action":"No-Go","Sham":1,"Color":"yellow","trial_type":"pit-trial","trial_index":147,"time_elapsed":733497,"internal_node_id":"0.0-136.0","task_version":"test-retest-t3"},{"Rune":"rune_06_ehwaz","Hex":"#3366ff99","Correct":-1,"Choice":-1,"RT":-1,"Accuracy":1,"Outcome":"+10","Keys":[],"TotalKeys":0,"Block":2,"Trial":130,"Robot":2,"Valence":"Win","Action":"No-Go","Sham":0,"Color":"blue","trial_type":"pit-trial","trial_index":148,"time_elapsed":737501,"internal_node_id":"0.0-137.0","task_version":"test-retest-t3"},{"Rune":"rune_06_berkanan","Hex":"#ffcc3399","Correct":32,"Choice":32,"RT":1174.7749999631196,"Accuracy":1,"Outcome":"-1","Keys":[2675.58000003919],"TotalKeys":1,"Block":2,"Trial":131,"Robot":3,"Valence":"Lose","Action":"Go","Sham":0,"Color":"yellow","trial_type":"pit-trial","trial_index":149,"time_elapsed":741180,"internal_node_id":"0.0-138.0","task_version":"test-retest-t3"},{"Rune":"rune_06_ansuz","Hex":"#3366ff99","Correct":32,"Choice":32,"RT":947.4999999511056,"Accuracy":1,"Outcome":"+1","Keys":[2449.0349999978207],"TotalKeys":1,"Block":2,"Trial":132,"Robot":1,"Valence":"Win","Action":"Go","Sham":1,"Color":"blue","trial_type":"pit-trial","trial_index":150,"time_elapsed":744632,"internal_node_id":"0.0-139.0","task_version":"test-retest-t3"},{"Rune":"rune_06_ehwaz","Hex":"#3366ff99","Correct":-1,"Choice":-1,"RT":-1,"Accuracy":1,"Outcome":"+10","Keys":[],"TotalKeys":0,"Block":2,"Trial":133,"Robot":2,"Valence":"Win","Action":"No-Go","Sham":0,"Color":"blue","trial_type":"pit-trial","trial_index":151,"time_elapsed":748638,"internal_node_id":"0.0-140.0","task_version":"test-retest-t3"},{"Rune":"rune_06_ansuz","Hex":"#3366ff99","Correct":32,"Choice":-1,"RT":-1,"Accuracy":0,"Outcome":"+1","Keys":[],"TotalKeys":0,"Block":2,"Trial":134,"Robot":1,"Valence":"Win","Action":"Go","Sham":0,"Color":"blue","trial_type":"pit-trial","trial_index":152,"time_elapsed":752645,"internal_node_id":"0.0-141.0","task_version":"test-retest-t3"},{"Rune":"rune_06_cweord","Hex":"#ffcc3399","Correct":-1,"Choice":32,"RT":772.1149999997579,"Accuracy":0,"Outcome":"-10","Keys":[2272.5349999964237],"TotalKeys":1,"Block":2,"Trial":135,"Robot":4,"Valence":"Lose","Action":"No-Go","Sham":0,"Color":"yellow","trial_type":"pit-trial","trial_index":153,"time_elapsed":755922,"internal_node_id":"0.0-142.0","task_version":"test-retest-t3"},{"Rune":"rune_06_berkanan","Hex":"#ffcc3399","Correct":32,"Choice":-1,"RT":-1,"Accuracy":0,"Outcome":"-10","Keys":[],"TotalKeys":0,"Block":2,"Trial":136,"Robot":3,"Valence":"Lose","Action":"Go","Sham":0,"Color":"yellow","trial_type":"pit-trial","trial_index":154,"time_elapsed":759925,"internal_node_id":"0.0-143.0","task_version":"test-retest-t3"},{"Rune":"rune_06_ansuz","Hex":"#3366ff99","Correct":32,"Choice":32,"RT":803.5500000114553,"Accuracy":1,"Outcome":"+10","Keys":[2304.00499998359],"TotalKeys":1,"Block":2,"Trial":137,"Robot":1,"Valence":"Win","Action":"Go","Sham":0,"Color":"blue","trial_type":"pit-trial","trial_index":155,"time_elapsed":763232,"internal_node_id":"0.0-144.0","task_version":"test-retest-t3"},{"Rune":"rune_06_ehwaz","Hex":"#3366ff99","Correct":-1,"Choice":-1,"RT":-1,"Accuracy":1,"Outcome":"+10","Keys":[],"TotalKeys":0,"Block":2,"Trial":138,"Robot":2,"Valence":"Win","Action":"No-Go","Sham":0,"Color":"blue","trial_type":"pit-trial","trial_index":156,"time_elapsed":767237,"internal_node_id":"0.0-145.0","task_version":"test-retest-t3"},{"Rune":"rune_06_cweord","Hex":"#ffcc3399","Correct":-1,"Choice":-1,"RT":-1,"Accuracy":1,"Outcome":"-1","Keys":[],"TotalKeys":0,"Block":2,"Trial":139,"Robot":4,"Valence":"Lose","Action":"No-Go","Sham":0,"Color":"yellow","trial_type":"pit-trial","trial_index":157,"time_elapsed":771244,"internal_node_id":"0.0-146.0","task_version":"test-retest-t3"},{"Rune":"rune_06_berkanan","Hex":"#ffcc3399","Correct":32,"Choice":32,"RT":1012.4050000449643,"Accuracy":1,"Outcome":"-1","Keys":[2513.120000017807],"TotalKeys":1,"Block":2,"Trial":140,"Robot":3,"Valence":"Lose","Action":"Go","Sham":0,"Color":"yellow","trial_type":"pit-trial","trial_index":158,"time_elapsed":774761,"internal_node_id":"0.0-147.0","task_version":"test-retest-t3"},{"Rune":"rune_06_berkanan","Hex":"#ffcc3399","Correct":32,"Choice":32,"RT":853.4600000130013,"Accuracy":1,"Outcome":"-1","Keys":[2355.280000017956],"TotalKeys":1,"Block":2,"Trial":141,"Robot":3,"Valence":"Lose","Action":"Go","Sham":0,"Color":"yellow","trial_type":"pit-trial","trial_index":159,"time_elapsed":778120,"internal_node_id":"0.0-148.0","task_version":"test-retest-t3"},{"Rune":"rune_06_ansuz","Hex":"#3366ff99","Correct":32,"Choice":32,"RT":784.2649999656714,"Accuracy":1,"Outcome":"+10","Keys":[2284.3749999883585],"TotalKeys":1,"Block":2,"Trial":142,"Robot":1,"Valence":"Win","Action":"Go","Sham":0,"Color":"blue","trial_type":"pit-trial","trial_index":160,"time_elapsed":781408,"internal_node_id":"0.0-149.0","task_version":"test-retest-t3"},{"Rune":"rune_06_cweord","Hex":"#ffcc3399","Correct":-1,"Choice":-1,"RT":-1,"Accuracy":1,"Outcome":"-1","Keys":[],"TotalKeys":0,"Block":2,"Trial":143,"Robot":4,"Valence":"Lose","Action":"No-Go","Sham":0,"Color":"yellow","trial_type":"pit-trial","trial_index":161,"time_elapsed":785413,"internal_node_id":"0.0-150.0","task_version":"test-retest-t3"},{"Rune":"rune_06_ehwaz","Hex":"#3366ff99","Correct":-1,"Choice":-1,"RT":-1,"Accuracy":1,"Outcome":"+10","Keys":[],"TotalKeys":0,"Block":2,"Trial":144,"Robot":2,"Valence":"Win","Action":"No-Go","Sham":0,"Color":"blue","trial_type":"pit-trial","trial_index":162,"time_elapsed":789418,"internal_node_id":"0.0-151.0","task_version":"test-retest-t3"},{"Rune":"rune_06_berkanan","Hex":"#ffcc3399","Correct":32,"Choice":32,"RT":885.9950000187382,"Accuracy":1,"Outcome":"-1","Keys":[2387.329999997746],"TotalKeys":1,"Block":2,"Trial":145,"Robot":3,"Valence":"Lose","Action":"Go","Sham":0,"Color":"yellow","trial_type":"pit-trial","trial_index":163,"time_elapsed":792808,"internal_node_id":"0.0-152.0","task_version":"test-retest-t3"},{"Rune":"rune_06_ansuz","Hex":"#3366ff99","Correct":32,"Choice":32,"RT":726.569999998901,"Accuracy":1,"Outcome":"+1","Keys":[2228.324999974575],"TotalKeys":1,"Block":2,"Trial":146,"Robot":1,"Valence":"Win","Action":"Go","Sham":1,"Color":"blue","trial_type":"pit-trial","trial_index":164,"time_elapsed":796041,"internal_node_id":"0.0-153.0","task_version":"test-retest-t3"},{"Rune":"rune_06_cweord","Hex":"#ffcc3399","Correct":-1,"Choice":-1,"RT":-1,"Accuracy":1,"Outcome":"-1","Keys":[],"TotalKeys":0,"Block":2,"Trial":147,"Robot":4,"Valence":"Lose","Action":"No-Go","Sham":0,"Color":"yellow","trial_type":"pit-trial","trial_index":165,"time_elapsed":800046,"internal_node_id":"0.0-154.0","task_version":"test-retest-t3"},{"Rune":"rune_06_ehwaz","Hex":"#3366ff99","Correct":-1,"Choice":-1,"RT":-1,"Accuracy":1,"Outcome":"+10","Keys":[],"TotalKeys":0,"Block":2,"Trial":148,"Robot":2,"Valence":"Win","Action":"No-Go","Sham":0,"Color":"blue","trial_type":"pit-trial","trial_index":166,"time_elapsed":804051,"internal_node_id":"0.0-155.0","task_version":"test-retest-t3"},{"Rune":"rune_06_berkanan","Hex":"#ffcc3399","Correct":32,"Choice":32,"RT":749.0899999975227,"Accuracy":1,"Outcome":"-1","Keys":[2250.3149999538437],"TotalKeys":1,"Block":2,"Trial":149,"Robot":3,"Valence":"Lose","Action":"Go","Sham":0,"Color":"yellow","trial_type":"pit-trial","trial_index":167,"time_elapsed":807305,"internal_node_id":"0.0-156.0","task_version":"test-retest-t3"},{"Rune":"rune_06_ansuz","Hex":"#3366ff99","Correct":32,"Choice":32,"RT":671.5049999766052,"Accuracy":1,"Outcome":"+10","Keys":[2172.225000045728],"TotalKeys":1,"Block":2,"Trial":150,"Robot":1,"Valence":"Win","Action":"Go","Sham":0,"Color":"blue","trial_type":"pit-trial","trial_index":168,"time_elapsed":810480,"internal_node_id":"0.0-157.0","task_version":"test-retest-t3"},{"Rune":"rune_06_cweord","Hex":"#ffcc3399","Correct":-1,"Choice":-1,"RT":-1,"Accuracy":1,"Outcome":"-10","Keys":[],"TotalKeys":0,"Block":2,"Trial":151,"Robot":4,"Valence":"Lose","Action":"No-Go","Sham":1,"Color":"yellow","trial_type":"pit-trial","trial_index":169,"time_elapsed":814485,"internal_node_id":"0.0-158.0","task_version":"test-retest-t3"},{"Rune":"rune_06_ehwaz","Hex":"#3366ff99","Correct":-1,"Choice":-1,"RT":-1,"Accuracy":1,"Outcome":"+1","Keys":[],"TotalKeys":0,"Block":2,"Trial":152,"Robot":2,"Valence":"Win","Action":"No-Go","Sham":1,"Color":"blue","trial_type":"pit-trial","trial_index":170,"time_elapsed":818491,"internal_node_id":"0.0-159.0","task_version":"test-retest-t3"},{"Rune":"rune_06_ansuz","Hex":"#3366ff99","Correct":32,"Choice":32,"RT":743.9449999947101,"Accuracy":1,"Outcome":"+10","Keys":[2244.509999989532],"TotalKeys":1,"Block":2,"Trial":153,"Robot":1,"Valence":"Win","Action":"Go","Sham":0,"Color":"blue","trial_type":"pit-trial","trial_index":171,"time_elapsed":821739,"internal_node_id":"0.0-160.0","task_version":"test-retest-t3"},{"Rune":"rune_06_cweord","Hex":"#ffcc3399","Correct":-1,"Choice":-1,"RT":-1,"Accuracy":1,"Outcome":"-1","Keys":[],"TotalKeys":0,"Block":2,"Trial":154,"Robot":4,"Valence":"Lose","Action":"No-Go","Sham":0,"Color":"yellow","trial_type":"pit-trial","trial_index":172,"time_elapsed":825743,"internal_node_id":"0.0-161.0","task_version":"test-retest-t3"},{"Rune":"rune_06_ehwaz","Hex":"#3366ff99","Correct":-1,"Choice":-1,"RT":-1,"Accuracy":1,"Outcome":"+10","Keys":[],"TotalKeys":0,"Block":2,"Trial":155,"Robot":2,"Valence":"Win","Action":"No-Go","Sham":0,"Color":"blue","trial_type":"pit-trial","trial_index":173,"time_elapsed":829749,"internal_node_id":"0.0-162.0","task_version":"test-retest-t3"},{"Rune":"rune_06_berkanan","Hex":"#ffcc3399","Correct":32,"Choice":32,"RT":778.3799999742769,"Accuracy":1,"Outcome":"-10","Keys":[2279.034999955911],"TotalKeys":1,"Block":2,"Trial":156,"Robot":3,"Valence":"Lose","Action":"Go","Sham":1,"Color":"yellow","trial_type":"pit-trial","trial_index":174,"time_elapsed":833033,"internal_node_id":"0.0-163.0","task_version":"test-retest-t3"},{"Rune":"rune_06_cweord","Hex":"#ffcc3399","Correct":-1,"Choice":-1,"RT":-1,"Accuracy":1,"Outcome":"-1","Keys":[],"TotalKeys":0,"Block":2,"Trial":157,"Robot":4,"Valence":"Lose","Action":"No-Go","Sham":0,"Color":"yellow","trial_type":"pit-trial","trial_index":175,"time_elapsed":837038,"internal_node_id":"0.0-164.0","task_version":"test-retest-t3"},{"Rune":"rune_06_ehwaz","Hex":"#3366ff99","Correct":-1,"Choice":-1,"RT":-1,"Accuracy":1,"Outcome":"+10","Keys":[],"TotalKeys":0,"Block":2,"Trial":158,"Robot":2,"Valence":"Win","Action":"No-Go","Sham":0,"Color":"blue","trial_type":"pit-trial","trial_index":176,"time_elapsed":841044,"internal_node_id":"0.0-165.0","task_version":"test-retest-t3"},{"Rune":"rune_06_berkanan","Hex":"#ffcc3399","Correct":32,"Choice":32,"RT":772.9650000110269,"Accuracy":1,"Outcome":"-1","Keys":[2272.999999986496],"TotalKeys":1,"Block":2,"Trial":159,"Robot":3,"Valence":"Lose","Action":"Go","Sham":0,"Color":"yellow","trial_type":"pit-trial","trial_index":177,"time_elapsed":844321,"internal_node_id":"0.0-166.0","task_version":"test-retest-t3"},{"Rune":"rune_06_ansuz","Hex":"#3366ff99","Correct":32,"Choice":32,"RT":645.879999967292,"Accuracy":1,"Outcome":"+10","Keys":[2147.545000014361],"TotalKeys":1,"Block":2,"Trial":160,"Robot":1,"Valence":"Win","Action":"Go","Sham":0,"Color":"blue","trial_type":"pit-trial","trial_index":178,"time_elapsed":847473,"internal_node_id":"0.0-167.0","task_version":"test-retest-t3"},{"Rune":"rune_06_ansuz","Hex":"#3366ff99","Correct":32,"Choice":32,"RT":702.9249999905005,"Accuracy":1,"Outcome":"+10","Keys":[2203.7450000061654],"TotalKeys":1,"Block":2,"Trial":161,"Robot":1,"Valence":"Win","Action":"Go","Sham":0,"Color":"blue","trial_type":"pit-trial","trial_index":179,"time_elapsed":850680,"internal_node_id":"0.0-168.0","task_version":"test-retest-t3"},{"Rune":"rune_06_cweord","Hex":"#ffcc3399","Correct":-1,"Choice":-1,"RT":-1,"Accuracy":1,"Outcome":"-1","Keys":[],"TotalKeys":0,"Block":2,"Trial":162,"Robot":4,"Valence":"Lose","Action":"No-Go","Sham":0,"Color":"yellow","trial_type":"pit-trial","trial_index":180,"time_elapsed":854685,"internal_node_id":"0.0-169.0","task_version":"test-retest-t3"},{"Rune":"rune_06_berkanan","Hex":"#ffcc3399","Correct":32,"Choice":32,"RT":749.2549999733455,"Accuracy":1,"Outcome":"-1","Keys":[2249.7199999634176],"TotalKeys":1,"Block":2,"Trial":163,"Robot":3,"Valence":"Lose","Action":"Go","Sham":0,"Color":"yellow","trial_type":"pit-trial","trial_index":181,"time_elapsed":857939,"internal_node_id":"0.0-170.0","task_version":"test-retest-t3"},{"Rune":"rune_06_ehwaz","Hex":"#3366ff99","Correct":-1,"Choice":-1,"RT":-1,"Accuracy":1,"Outcome":"+10","Keys":[],"TotalKeys":0,"Block":2,"Trial":164,"Robot":2,"Valence":"Win","Action":"No-Go","Sham":0,"Color":"blue","trial_type":"pit-trial","trial_index":182,"time_elapsed":861944,"internal_node_id":"0.0-171.0","task_version":"test-retest-t3"},{"Rune":"rune_06_ansuz","Hex":"#3366ff99","Correct":32,"Choice":32,"RT":678.3050000085495,"Accuracy":1,"Outcome":"+10","Keys":[2179.625000047963],"TotalKeys":1,"Block":2,"Trial":165,"Robot":1,"Valence":"Win","Action":"Go","Sham":0,"Color":"blue","trial_type":"pit-trial","trial_index":183,"time_elapsed":865128,"internal_node_id":"0.0-172.0","task_version":"test-retest-t3"},{"Rune":"rune_06_berkanan","Hex":"#ffcc3399","Correct":32,"Choice":32,"RT":802.1949999965727,"Accuracy":1,"Outcome":"-1","Keys":[2302.6750000426546],"TotalKeys":1,"Block":2,"Trial":166,"Robot":3,"Valence":"Lose","Action":"Go","Sham":0,"Color":"yellow","trial_type":"pit-trial","trial_index":184,"time_elapsed":868435,"internal_node_id":"0.0-173.0","task_version":"test-retest-t3"},{"Rune":"rune_06_ehwaz","Hex":"#3366ff99","Correct":-1,"Choice":-1,"RT":-1,"Accuracy":1,"Outcome":"+10","Keys":[],"TotalKeys":0,"Block":2,"Trial":167,"Robot":2,"Valence":"Win","Action":"No-Go","Sham":0,"Color":"blue","trial_type":"pit-trial","trial_index":185,"time_elapsed":872440,"internal_node_id":"0.0-174.0","task_version":"test-retest-t3"},{"Rune":"rune_06_cweord","Hex":"#ffcc3399","Correct":-1,"Choice":-1,"RT":-1,"Accuracy":1,"Outcome":"-1","Keys":[],"TotalKeys":0,"Block":2,"Trial":168,"Robot":4,"Valence":"Lose","Action":"No-Go","Sham":0,"Color":"yellow","trial_type":"pit-trial","trial_index":186,"time_elapsed":876444,"internal_node_id":"0.0-175.0","task_version":"test-retest-t3"},{"Rune":"rune_06_berkanan","Hex":"#ffcc3399","Correct":32,"Choice":32,"RT":716.2200000020675,"Accuracy":1,"Outcome":"-1","Keys":[2217.880000011064],"TotalKeys":1,"Block":2,"Trial":169,"Robot":3,"Valence":"Lose","Action":"Go","Sham":0,"Color":"yellow","trial_type":"pit-trial","trial_index":187,"time_elapsed":879666,"internal_node_id":"0.0-176.0","task_version":"test-retest-t3"},{"Rune":"rune_06_cweord","Hex":"#ffcc3399","Correct":-1,"Choice":-1,"RT":-1,"Accuracy":1,"Outcome":"-1","Keys":[],"TotalKeys":0,"Block":2,"Trial":170,"Robot":4,"Valence":"Lose","Action":"No-Go","Sham":0,"Color":"yellow","trial_type":"pit-trial","trial_index":188,"time_elapsed":883671,"internal_node_id":"0.0-177.0","task_version":"test-retest-t3"},{"Rune":"rune_06_ansuz","Hex":"#3366ff99","Correct":32,"Choice":32,"RT":591.8299999902956,"Accuracy":1,"Outcome":"+10","Keys":[2092.145000002347],"TotalKeys":1,"Block":2,"Trial":171,"Robot":1,"Valence":"Win","Action":"Go","Sham":0,"Color":"blue","trial_type":"pit-trial","trial_index":189,"time_elapsed":886768,"internal_node_id":"0.0-178.0","task_version":"test-retest-t3"},{"Rune":"rune_06_ehwaz","Hex":"#3366ff99","Correct":-1,"Choice":-1,"RT":-1,"Accuracy":1,"Outcome":"+10","Keys":[],"TotalKeys":0,"Block":2,"Trial":172,"Robot":2,"Valence":"Win","Action":"No-Go","Sham":0,"Color":"blue","trial_type":"pit-trial","trial_index":190,"time_elapsed":890775,"internal_node_id":"0.0-179.0","task_version":"test-retest-t3"},{"Rune":"rune_06_cweord","Hex":"#ffcc3399","Correct":-1,"Choice":-1,"RT":-1,"Accuracy":1,"Outcome":"-1","Keys":[],"TotalKeys":0,"Block":2,"Trial":173,"Robot":4,"Valence":"Lose","Action":"No-Go","Sham":0,"Color":"yellow","trial_type":"pit-trial","trial_index":191,"time_elapsed":894781,"internal_node_id":"0.0-180.0","task_version":"test-retest-t3"},{"Rune":"rune_06_ansuz","Hex":"#3366ff99","Correct":32,"Choice":32,"RT":500.75000000651926,"Accuracy":1,"Outcome":"+1","Keys":[2001.0550000006333],"TotalKeys":1,"Block":2,"Trial":174,"Robot":1,"Valence":"Win","Action":"Go","Sham":1,"Color":"blue","trial_type":"pit-trial","trial_index":192,"time_elapsed":897787,"internal_node_id":"0.0-181.0","task_version":"test-retest-t3"},{"Rune":"rune_06_ehwaz","Hex":"#3366ff99","Correct":-1,"Choice":-1,"RT":-1,"Accuracy":1,"Outcome":"+10","Keys":[],"TotalKeys":0,"Block":2,"Trial":175,"Robot":2,"Valence":"Win","Action":"No-Go","Sham":0,"Color":"blue","trial_type":"pit-trial","trial_index":193,"time_elapsed":901792,"internal_node_id":"0.0-182.0","task_version":"test-retest-t3"},{"Rune":"rune_06_berkanan","Hex":"#ffcc3399","Correct":32,"Choice":32,"RT":598.9399999962188,"Accuracy":1,"Outcome":"-10","Keys":[2099.1749999811873],"TotalKeys":1,"Block":2,"Trial":176,"Robot":3,"Valence":"Lose","Action":"Go","Sham":1,"Color":"yellow","trial_type":"pit-trial","trial_index":194,"time_elapsed":904896,"internal_node_id":"0.0-183.0","task_version":"test-retest-t3"},{"Rune":"rune_06_cweord","Hex":"#ffcc3399","Correct":-1,"Choice":-1,"RT":-1,"Accuracy":1,"Outcome":"-10","Keys":[],"TotalKeys":0,"Block":2,"Trial":177,"Robot":4,"Valence":"Lose","Action":"No-Go","Sham":1,"Color":"yellow","trial_type":"pit-trial","trial_index":195,"time_elapsed":908903,"internal_node_id":"0.0-184.0","task_version":"test-retest-t3"},{"Rune":"rune_06_ehwaz","Hex":"#3366ff99","Correct":-1,"Choice":-1,"RT":-1,"Accuracy":1,"Outcome":"+1","Keys":[],"TotalKeys":0,"Block":2,"Trial":178,"Robot":2,"Valence":"Win","Action":"No-Go","Sham":1,"Color":"blue","trial_type":"pit-trial","trial_index":196,"time_elapsed":912908,"internal_node_id":"0.0-185.0","task_version":"test-retest-t3"},{"Rune":"rune_06_berkanan","Hex":"#ffcc3399","Correct":32,"Choice":32,"RT":666.6250000125729,"Accuracy":1,"Outcome":"-1","Keys":[2167.959999991581],"TotalKeys":1,"Block":2,"Trial":179,"Robot":3,"Valence":"Lose","Action":"Go","Sham":0,"Color":"yellow","trial_type":"pit-trial","trial_index":197,"time_elapsed":916080,"internal_node_id":"0.0-186.0","task_version":"test-retest-t3"},{"Rune":"rune_06_ansuz","Hex":"#3366ff99","Correct":32,"Choice":32,"RT":599.1349999676459,"Accuracy":1,"Outcome":"+10","Keys":[2099.7600000118837],"TotalKeys":1,"Block":2,"Trial":180,"Robot":1,"Valence":"Win","Action":"Go","Sham":0,"Color":"blue","trial_type":"pit-trial","trial_index":198,"time_elapsed":919183,"internal_node_id":"0.0-187.0","task_version":"test-retest-t3"},{"view_history":"[{\"page_index\":0,\"viewing_time\":2253.3299999777228},{\"page_index\":1,\"viewing_time\":733.9000000501983}]","rt":2987.670000002254,"trial_type":"pit-instructions","trial_index":199,"time_elapsed":922174,"internal_node_id":"0.0-188.0","task_version":"test-retest-t3"},{"Rune":"rune_06_cweord","Hex":"#ffcc3399","Correct":-1,"Choice":32,"RT":857.3749999632128,"Accuracy":0,"Outcome":"-10","Keys":[2357.5999999884516],"TotalKeys":1,"Block":2,"Trial":181,"Robot":4,"Valence":"Lose","Action":"No-Go","Sham":0,"Color":"yellow","trial_type":"pit-trial","trial_index":200,"time_elapsed":925536,"internal_node_id":"0.0-189.0","task_version":"test-retest-t3"},{"Rune":"rune_06_berkanan","Hex":"#ffcc3399","Correct":32,"Choice":32,"RT":1033.3349999855272,"Accuracy":1,"Outcome":"-10","Keys":[2534.875000012107],"TotalKeys":1,"Block":2,"Trial":182,"Robot":3,"Valence":"Lose","Action":"Go","Sham":1,"Color":"yellow","trial_type":"pit-trial","trial_index":201,"time_elapsed":929075,"internal_node_id":"0.0-190.0","task_version":"test-retest-t3"},{"Rune":"rune_06_ansuz","Hex":"#3366ff99","Correct":32,"Choice":32,"RT":908.3650000393391,"Accuracy":1,"Outcome":"+1","Keys":[2408.9949999470264],"TotalKeys":1,"Block":2,"Trial":183,"Robot":1,"Valence":"Win","Action":"Go","Sham":1,"Color":"blue","trial_type":"pit-trial","trial_index":202,"time_elapsed":932488,"internal_node_id":"0.0-191.0","task_version":"test-retest-t3"},{"Rune":"rune_06_ehwaz","Hex":"#3366ff99","Correct":-1,"Choice":32,"RT":782.2300000116229,"Accuracy":0,"Outcome":"+1","Keys":[2284.029999980703],"TotalKeys":1,"Block":2,"Trial":184,"Robot":2,"Valence":"Win","Action":"No-Go","Sham":0,"Color":"blue","trial_type":"pit-trial","trial_index":203,"time_elapsed":935776,"internal_node_id":"0.0-192.0","task_version":"test-retest-t3"},{"Rune":"rune_06_cweord","Hex":"#ffcc3399","Correct":-1,"Choice":-1,"RT":-1,"Accuracy":1,"Outcome":"-10","Keys":[],"TotalKeys":0,"Block":2,"Trial":185,"Robot":4,"Valence":"Lose","Action":"No-Go","Sham":1,"Color":"yellow","trial_type":"pit-trial","trial_index":204,"time_elapsed":939782,"internal_node_id":"0.0-193.0","task_version":"test-retest-t3"},{"Rune":"rune_06_ansuz","Hex":"#3366ff99","Correct":32,"Choice":-1,"RT":-1,"Accuracy":0,"Outcome":"+1","Keys":[],"TotalKeys":0,"Block":2,"Trial":186,"Robot":1,"Valence":"Win","Action":"Go","Sham":0,"Color":"blue","trial_type":"pit-trial","trial_index":205,"time_elapsed":943786,"internal_node_id":"0.0-194.0","task_version":"test-retest-t3"},{"Rune":"rune_06_berkanan","Hex":"#ffcc3399","Correct":32,"Choice":-1,"RT":-1,"Accuracy":0,"Outcome":"-10","Keys":[],"TotalKeys":0,"Block":2,"Trial":187,"Robot":3,"Valence":"Lose","Action":"Go","Sham":0,"Color":"yellow","trial_type":"pit-trial","trial_index":206,"time_elapsed":947792,"internal_node_id":"0.0-195.0","task_version":"test-retest-t3"},{"Rune":"rune_06_ehwaz","Hex":"#3366ff99","Correct":-1,"Choice":32,"RT":848.8499999511987,"Accuracy":0,"Outcome":"+1","Keys":[2350.1999999862164],"TotalKeys":1,"Block":2,"Trial":188,"Robot":2,"Valence":"Win","Action":"No-Go","Sham":0,"Color":"blue","trial_type":"pit-trial","trial_index":207,"time_elapsed":951146,"internal_node_id":"0.0-196.0","task_version":"test-retest-t3"},{"Rune":"rune_06_berkanan","Hex":"#ffcc3399","Correct":32,"Choice":32,"RT":836.1400000285357,"Accuracy":1,"Outcome":"-1","Keys":[2337.134999979753],"TotalKeys":1,"Block":2,"Trial":189,"Robot":3,"Valence":"Lose","Action":"Go","Sham":0,"Color":"yellow","trial_type":"pit-trial","trial_index":208,"time_elapsed":954488,"internal_node_id":"0.0-197.0","task_version":"test-retest-t3"},{"Rune":"rune_06_ansuz","Hex":"#3366ff99","Correct":32,"Choice":32,"RT":822.8150000213645,"Accuracy":1,"Outcome":"+10","Keys":[2323.43500002753],"TotalKeys":1,"Block":2,"Trial":190,"Robot":1,"Valence":"Win","Action":"Go","Sham":0,"Color":"blue","trial_type":"pit-trial","trial_index":209,"time_elapsed":957816,"internal_node_id":"0.0-198.0","task_version":"test-retest-t3"},{"Rune":"rune_06_ehwaz","Hex":"#3366ff99","Correct":-1,"Choice":-1,"RT":-1,"Accuracy":1,"Outcome":"+10","Keys":[],"TotalKeys":0,"Block":2,"Trial":191,"Robot":2,"Valence":"Win","Action":"No-Go","Sham":0,"Color":"blue","trial_type":"pit-trial","trial_index":210,"time_elapsed":961820,"internal_node_id":"0.0-199.0","task_version":"test-retest-t3"},{"Rune":"rune_06_cweord","Hex":"#ffcc3399","Correct":-1,"Choice":-1,"RT":-1,"Accuracy":1,"Outcome":"-1","Keys":[],"TotalKeys":0,"Block":2,"Trial":192,"Robot":4,"Valence":"Lose","Action":"No-Go","Sham":0,"Color":"yellow","trial_type":"pit-trial","trial_index":211,"time_elapsed":965825,"internal_node_id":"0.0-200.0","task_version":"test-retest-t3"},{"Rune":"rune_06_berkanan","Hex":"#ffcc3399","Correct":32,"Choice":32,"RT":816.9899999629706,"Accuracy":1,"Outcome":"-1","Keys":[2317.365000024438],"TotalKeys":1,"Block":2,"Trial":193,"Robot":3,"Valence":"Lose","Action":"Go","Sham":0,"Color":"yellow","trial_type":"pit-trial","trial_index":212,"time_elapsed":969146,"internal_node_id":"0.0-201.0","task_version":"test-retest-t3"},{"Rune":"rune_06_ehwaz","Hex":"#3366ff99","Correct":-1,"Choice":-1,"RT":-1,"Accuracy":1,"Outcome":"+10","Keys":[],"TotalKeys":0,"Block":2,"Trial":194,"Robot":2,"Valence":"Win","Action":"No-Go","Sham":0,"Color":"blue","trial_type":"pit-trial","trial_index":213,"time_elapsed":973151,"internal_node_id":"0.0-202.0","task_version":"test-retest-t3"},{"Rune":"rune_06_ansuz","Hex":"#3366ff99","Correct":32,"Choice":32,"RT":768.694999977015,"Accuracy":1,"Outcome":"+10","Keys":[2269.845000002533],"TotalKeys":1,"Block":2,"Trial":195,"Robot":1,"Valence":"Win","Action":"Go","Sham":0,"Color":"blue","trial_type":"pit-trial","trial_index":214,"time_elapsed":976424,"internal_node_id":"0.0-203.0","task_version":"test-retest-t3"},{"Rune":"rune_06_cweord","Hex":"#ffcc3399","Correct":-1,"Choice":-1,"RT":-1,"Accuracy":1,"Outcome":"-1","Keys":[],"TotalKeys":0,"Block":2,"Trial":196,"Robot":4,"Valence":"Lose","Action":"No-Go","Sham":0,"Color":"yellow","trial_type":"pit-trial","trial_index":215,"time_elapsed":980429,"internal_node_id":"0.0-204.0","task_version":"test-retest-t3"},{"Rune":"rune_06_cweord","Hex":"#ffcc3399","Correct":-1,"Choice":-1,"RT":-1,"Accuracy":1,"Outcome":"-1","Keys":[],"TotalKeys":0,"Block":2,"Trial":197,"Robot":4,"Valence":"Lose","Action":"No-Go","Sham":0,"Color":"yellow","trial_type":"pit-trial","trial_index":216,"time_elapsed":984433,"internal_node_id":"0.0-205.0","task_version":"test-retest-t3"},{"Rune":"rune_06_ansuz","Hex":"#3366ff99","Correct":32,"Choice":32,"RT":733.9750000392087,"Accuracy":1,"Outcome":"+10","Keys":[2234.2550000175834],"TotalKeys":1,"Block":2,"Trial":198,"Robot":1,"Valence":"Win","Action":"Go","Sham":0,"Color":"blue","trial_type":"pit-trial","trial_index":217,"time_elapsed":987671,"internal_node_id":"0.0-206.0","task_version":"test-retest-t3"},{"Rune":"rune_06_berkanan","Hex":"#ffcc3399","Correct":32,"Choice":32,"RT":711.6899999673478,"Accuracy":1,"Outcome":"-1","Keys":[2212.5299999606796],"TotalKeys":1,"Block":2,"Trial":199,"Robot":3,"Valence":"Lose","Action":"Go","Sham":0,"Color":"yellow","trial_type":"pit-trial","trial_index":218,"time_elapsed":990887,"internal_node_id":"0.0-207.0","task_version":"test-retest-t3"},{"Rune":"rune_06_ehwaz","Hex":"#3366ff99","Correct":-1,"Choice":-1,"RT":-1,"Accuracy":1,"Outcome":"+1","Keys":[],"TotalKeys":0,"Block":2,"Trial":200,"Robot":2,"Valence":"Win","Action":"No-Go","Sham":1,"Color":"blue","trial_type":"pit-trial","trial_index":219,"time_elapsed":994894,"internal_node_id":"0.0-208.0","task_version":"test-retest-t3"},{"Rune":"rune_06_ehwaz","Hex":"#3366ff99","Correct":-1,"Choice":-1,"RT":-1,"Accuracy":1,"Outcome":"+10","Keys":[],"TotalKeys":0,"Block":2,"Trial":201,"Robot":2,"Valence":"Win","Action":"No-Go","Sham":0,"Color":"blue","trial_type":"pit-trial","trial_index":220,"time_elapsed":998900,"internal_node_id":"0.0-209.0","task_version":"test-retest-t3"},{"Rune":"rune_06_cweord","Hex":"#ffcc3399","Correct":-1,"Choice":-1,"RT":-1,"Accuracy":1,"Outcome":"-1","Keys":[],"TotalKeys":0,"Block":2,"Trial":202,"Robot":4,"Valence":"Lose","Action":"No-Go","Sham":0,"Color":"yellow","trial_type":"pit-trial","trial_index":221,"time_elapsed":1002905,"internal_node_id":"0.0-210.0","task_version":"test-retest-t3"},{"Rune":"rune_06_berkanan","Hex":"#ffcc3399","Correct":32,"Choice":32,"RT":1116.8399999733083,"Accuracy":1,"Outcome":"-1","Keys":[2617.819999984931],"TotalKeys":1,"Block":2,"Trial":203,"Robot":3,"Valence":"Lose","Action":"Go","Sham":0,"Color":"yellow","trial_type":"pit-trial","trial_index":222,"time_elapsed":1006528,"internal_node_id":"0.0-211.0","task_version":"test-retest-t3"},{"Rune":"rune_06_ansuz","Hex":"#3366ff99","Correct":32,"Choice":32,"RT":750.6350000039674,"Accuracy":1,"Outcome":"+10","Keys":[2251.0550000006333],"TotalKeys":1,"Block":2,"Trial":204,"Robot":1,"Valence":"Win","Action":"Go","Sham":0,"Color":"blue","trial_type":"pit-trial","trial_index":223,"time_elapsed":1009784,"internal_node_id":"0.0-212.0","task_version":"test-retest-t3"},{"Rune":"rune_06_ehwaz","Hex":"#3366ff99","Correct":-1,"Choice":-1,"RT":-1,"Accuracy":1,"Outcome":"+1","Keys":[],"TotalKeys":0,"Block":2,"Trial":205,"Robot":2,"Valence":"Win","Action":"No-Go","Sham":1,"Color":"blue","trial_type":"pit-trial","trial_index":224,"time_elapsed":1013789,"internal_node_id":"0.0-213.0","task_version":"test-retest-t3"},{"Rune":"rune_06_cweord","Hex":"#ffcc3399","Correct":-1,"Choice":-1,"RT":-1,"Accuracy":1,"Outcome":"-1","Keys":[],"TotalKeys":0,"Block":2,"Trial":206,"Robot":4,"Valence":"Lose","Action":"No-Go","Sham":0,"Color":"yellow","trial_type":"pit-trial","trial_index":225,"time_elapsed":1017794,"internal_node_id":"0.0-214.0","task_version":"test-retest-t3"},{"Rune":"rune_06_berkanan","Hex":"#ffcc3399","Correct":32,"Choice":32,"RT":621.9699999783188,"Accuracy":1,"Outcome":"-1","Keys":[2123.2599999639206],"TotalKeys":1,"Block":2,"Trial":207,"Robot":3,"Valence":"Lose","Action":"Go","Sham":0,"Color":"yellow","trial_type":"pit-trial","trial_index":226,"time_elapsed":1020922,"internal_node_id":"0.0-215.0","task_version":"test-retest-t3"},{"Rune":"rune_06_ansuz","Hex":"#3366ff99","Correct":32,"Choice":32,"RT":699.2849999805912,"Accuracy":1,"Outcome":"+10","Keys":[2200.055000022985],"TotalKeys":1,"Block":2,"Trial":208,"Robot":1,"Valence":"Win","Action":"Go","Sham":0,"Color":"blue","trial_type":"pit-trial","trial_index":227,"time_elapsed":1024128,"internal_node_id":"0.0-216.0","task_version":"test-retest-t3"},{"Rune":"rune_06_berkanan","Hex":"#ffcc3399","Correct":32,"Choice":32,"RT":630.4399999789894,"Accuracy":1,"Outcome":"-1","Keys":[2131.180000025779],"TotalKeys":1,"Block":2,"Trial":209,"Robot":3,"Valence":"Lose","Action":"Go","Sham":0,"Color":"yellow","trial_type":"pit-trial","trial_index":228,"time_elapsed":1027264,"internal_node_id":"0.0-217.0","task_version":"test-retest-t3"},{"Rune":"rune_06_cweord","Hex":"#ffcc3399","Correct":-1,"Choice":-1,"RT":-1,"Accuracy":1,"Outcome":"-10","Keys":[],"TotalKeys":0,"Block":2,"Trial":210,"Robot":4,"Valence":"Lose","Action":"No-Go","Sham":1,"Color":"yellow","trial_type":"pit-trial","trial_index":229,"time_elapsed":1031269,"internal_node_id":"0.0-218.0","task_version":"test-retest-t3"},{"Rune":"rune_06_ansuz","Hex":"#3366ff99","Correct":32,"Choice":32,"RT":609.7200000076555,"Accuracy":1,"Outcome":"+10","Keys":[2109.9599999724887],"TotalKeys":1,"Block":2,"Trial":211,"Robot":1,"Valence":"Win","Action":"Go","Sham":0,"Color":"blue","trial_type":"pit-trial","trial_index":230,"time_elapsed":1034383,"internal_node_id":"0.0-219.0","task_version":"test-retest-t3"},{"Rune":"rune_06_ehwaz","Hex":"#3366ff99","Correct":-1,"Choice":-1,"RT":-1,"Accuracy":1,"Outcome":"+10","Keys":[],"TotalKeys":0,"Block":2,"Trial":212,"Robot":2,"Valence":"Win","Action":"No-Go","Sham":0,"Color":"blue","trial_type":"pit-trial","trial_index":231,"time_elapsed":1038388,"internal_node_id":"0.0-220.0","task_version":"test-retest-t3"},{"Rune":"rune_06_berkanan","Hex":"#ffcc3399","Correct":32,"Choice":32,"RT":570.7849999889731,"Accuracy":1,"Outcome":"-1","Keys":[2071.219999983441],"TotalKeys":1,"Block":2,"Trial":213,"Robot":3,"Valence":"Lose","Action":"Go","Sham":0,"Color":"yellow","trial_type":"pit-trial","trial_index":232,"time_elapsed":1041463,"internal_node_id":"0.0-221.0","task_version":"test-retest-t3"},{"Rune":"rune_06_ehwaz","Hex":"#3366ff99","Correct":-1,"Choice":-1,"RT":-1,"Accuracy":1,"Outcome":"+10","Keys":[],"TotalKeys":0,"Block":2,"Trial":214,"Robot":2,"Valence":"Win","Action":"No-Go","Sham":0,"Color":"blue","trial_type":"pit-trial","trial_index":233,"time_elapsed":1045468,"internal_node_id":"0.0-222.0","task_version":"test-retest-t3"},{"Rune":"rune_06_cweord","Hex":"#ffcc3399","Correct":-1,"Choice":-1,"RT":-1,"Accuracy":1,"Outcome":"-1","Keys":[],"TotalKeys":0,"Block":2,"Trial":215,"Robot":4,"Valence":"Lose","Action":"No-Go","Sham":0,"Color":"yellow","trial_type":"pit-trial","trial_index":234,"time_elapsed":1049471,"internal_node_id":"0.0-223.0","task_version":"test-retest-t3"},{"Rune":"rune_06_ansuz","Hex":"#3366ff99","Correct":32,"Choice":32,"RT":578.0850000446662,"Accuracy":1,"Outcome":"+1","Keys":[2078.640000021551],"TotalKeys":1,"Block":2,"Trial":216,"Robot":1,"Valence":"Win","Action":"Go","Sham":1,"Color":"blue","trial_type":"pit-trial","trial_index":235,"time_elapsed":1052554,"internal_node_id":"0.0-224.0","task_version":"test-retest-t3"},{"Rune":"rune_06_cweord","Hex":"#ffcc3399","Correct":-1,"Choice":-1,"RT":-1,"Accuracy":1,"Outcome":"-1","Keys":[],"TotalKeys":0,"Block":2,"Trial":217,"Robot":4,"Valence":"Lose","Action":"No-Go","Sham":0,"Color":"yellow","trial_type":"pit-trial","trial_index":236,"time_elapsed":1056560,"internal_node_id":"0.0-225.0","task_version":"test-retest-t3"},{"Rune":"rune_06_berkanan","Hex":"#ffcc3399","Correct":32,"Choice":32,"RT":670.5650000367314,"Accuracy":1,"Outcome":"-10","Keys":[2171.115000033751],"TotalKeys":1,"Block":2,"Trial":218,"Robot":3,"Valence":"Lose","Action":"Go","Sham":1,"Color":"yellow","trial_type":"pit-trial","trial_index":237,"time_elapsed":1059736,"internal_node_id":"0.0-226.0","task_version":"test-retest-t3"},{"Rune":"rune_06_ehwaz","Hex":"#3366ff99","Correct":-1,"Choice":-1,"RT":-1,"Accuracy":1,"Outcome":"+10","Keys":[],"TotalKeys":0,"Block":2,"Trial":219,"Robot":2,"Valence":"Win","Action":"No-Go","Sham":0,"Color":"blue","trial_type":"pit-trial","trial_index":238,"time_elapsed":1063742,"internal_node_id":"0.0-227.0","task_version":"test-retest-t3"},{"Rune":"rune_06_ansuz","Hex":"#3366ff99","Correct":32,"Choice":32,"RT":632.9099999857135,"Accuracy":1,"Outcome":"+10","Keys":[2133.2099999999627],"TotalKeys":1,"Block":2,"Trial":220,"Robot":1,"Valence":"Win","Action":"Go","Sham":0,"Color":"blue","trial_type":"pit-trial","trial_index":239,"time_elapsed":1066879,"internal_node_id":"0.0-228.0","task_version":"test-retest-t3"},{"Rune":"rune_06_berkanan","Hex":"#ffcc3399","Correct":32,"Choice":32,"RT":735.4899999918416,"Accuracy":1,"Outcome":"-1","Keys":[2235.739999974612],"TotalKeys":1,"Block":2,"Trial":221,"Robot":3,"Valence":"Lose","Action":"Go","Sham":0,"Color":"yellow","trial_type":"pit-trial","trial_index":240,"time_elapsed":1070119,"internal_node_id":"0.0-229.0","task_version":"test-retest-t3"},{"Rune":"rune_06_ehwaz","Hex":"#3366ff99","Correct":-1,"Choice":-1,"RT":-1,"Accuracy":1,"Outcome":"+10","Keys":[],"TotalKeys":0,"Block":2,"Trial":222,"Robot":2,"Valence":"Win","Action":"No-Go","Sham":0,"Color":"blue","trial_type":"pit-trial","trial_index":241,"time_elapsed":1074124,"internal_node_id":"0.0-230.0","task_version":"test-retest-t3"},{"Rune":"rune_06_cweord","Hex":"#ffcc3399","Correct":-1,"Choice":-1,"RT":-1,"Accuracy":1,"Outcome":"-1","Keys":[],"TotalKeys":0,"Block":2,"Trial":223,"Robot":4,"Valence":"Lose","Action":"No-Go","Sham":0,"Color":"yellow","trial_type":"pit-trial","trial_index":242,"time_elapsed":1078128,"internal_node_id":"0.0-231.0","task_version":"test-retest-t3"},{"Rune":"rune_06_ansuz","Hex":"#3366ff99","Correct":32,"Choice":32,"RT":639.4100000034086,"Accuracy":1,"Outcome":"+1","Keys":[2140.094999980647],"TotalKeys":1,"Block":2,"Trial":224,"Robot":1,"Valence":"Win","Action":"Go","Sham":1,"Color":"blue","trial_type":"pit-trial","trial_index":243,"time_elapsed":1081271,"internal_node_id":"0.0-232.0","task_version":"test-retest-t3"},{"Rune":"rune_06_ansuz","Hex":"#3366ff99","Correct":32,"Choice":32,"RT":774.3999999947846,"Accuracy":1,"Outcome":"+10","Keys":[2275.1249999855645],"TotalKeys":1,"Block":2,"Trial":225,"Robot":1,"Valence":"Win","Action":"Go","Sham":0,"Color":"blue","trial_type":"pit-trial","trial_index":244,"time_elapsed":1084550,"internal_node_id":"0.0-233.0","task_version":"test-retest-t3"},{"Rune":"rune_06_cweord","Hex":"#ffcc3399","Correct":-1,"Choice":-1,"RT":-1,"Accuracy":1,"Outcome":"-1","Keys":[],"TotalKeys":0,"Block":2,"Trial":226,"Robot":4,"Valence":"Lose","Action":"No-Go","Sham":0,"Color":"yellow","trial_type":"pit-trial","trial_index":245,"time_elapsed":1088555,"internal_node_id":"0.0-234.0","task_version":"test-retest-t3"},{"Rune":"rune_06_berkanan","Hex":"#ffcc3399","Correct":32,"Choice":32,"RT":714.9899999494664,"Accuracy":1,"Outcome":"-1","Keys":[2216.4049999555573],"TotalKeys":1,"Block":2,"Trial":227,"Robot":3,"Valence":"Lose","Action":"Go","Sham":0,"Color":"yellow","trial_type":"pit-trial","trial_index":246,"time_elapsed":1091776,"internal_node_id":"0.0-235.0","task_version":"test-retest-t3"},{"Rune":"rune_06_ehwaz","Hex":"#3366ff99","Correct":-1,"Choice":-1,"RT":-1,"Accuracy":1,"Outcome":"+1","Keys":[],"TotalKeys":0,"Block":2,"Trial":228,"Robot":2,"Valence":"Win","Action":"No-Go","Sham":1,"Color":"blue","trial_type":"pit-trial","trial_index":247,"time_elapsed":1095780,"internal_node_id":"0.0-236.0","task_version":"test-retest-t3"},{"Rune":"rune_06_cweord","Hex":"#ffcc3399","Correct":-1,"Choice":-1,"RT":-1,"Accuracy":1,"Outcome":"-1","Keys":[],"TotalKeys":0,"Block":2,"Trial":229,"Robot":4,"Valence":"Lose","Action":"No-Go","Sham":0,"Color":"yellow","trial_type":"pit-trial","trial_index":248,"time_elapsed":1099785,"internal_node_id":"0.0-237.0","task_version":"test-retest-t3"},{"Rune":"rune_06_berkanan","Hex":"#ffcc3399","Correct":32,"Choice":32,"RT":539.3299999996088,"Accuracy":1,"Outcome":"-10","Keys":[2041.2099999957718],"TotalKeys":1,"Block":2,"Trial":230,"Robot":3,"Valence":"Lose","Action":"Go","Sham":1,"Color":"yellow","trial_type":"pit-trial","trial_index":249,"time_elapsed":1102830,"internal_node_id":"0.0-238.0","task_version":"test-retest-t3"},{"Rune":"rune_06_ansuz","Hex":"#3366ff99","Correct":32,"Choice":32,"RT":695.6549999886192,"Accuracy":1,"Outcome":"+10","Keys":[2196.064999967348],"TotalKeys":1,"Block":2,"Trial":231,"Robot":1,"Valence":"Win","Action":"Go","Sham":0,"Color":"blue","trial_type":"pit-trial","trial_index":250,"time_elapsed":1106030,"internal_node_id":"0.0-239.0","task_version":"test-retest-t3"},{"Rune":"rune_06_ehwaz","Hex":"#3366ff99","Correct":-1,"Choice":-1,"RT":-1,"Accuracy":1,"Outcome":"+10","Keys":[],"TotalKeys":0,"Block":2,"Trial":232,"Robot":2,"Valence":"Win","Action":"No-Go","Sham":0,"Color":"blue","trial_type":"pit-trial","trial_index":251,"time_elapsed":1110036,"internal_node_id":"0.0-240.0","task_version":"test-retest-t3"},{"Rune":"rune_06_berkanan","Hex":"#ffcc3399","Correct":32,"Choice":32,"RT":674.9500000150874,"Accuracy":1,"Outcome":"-1","Keys":[2175.195000017993],"TotalKeys":1,"Block":2,"Trial":233,"Robot":3,"Valence":"Lose","Action":"Go","Sham":0,"Color":"yellow","trial_type":"pit-trial","trial_index":252,"time_elapsed":1113215,"internal_node_id":"0.0-241.0","task_version":"test-retest-t3"},{"Rune":"rune_06_ehwaz","Hex":"#3366ff99","Correct":-1,"Choice":-1,"RT":-1,"Accuracy":1,"Outcome":"+10","Keys":[],"TotalKeys":0,"Block":2,"Trial":234,"Robot":2,"Valence":"Win","Action":"No-Go","Sham":0,"Color":"blue","trial_type":"pit-trial","trial_index":253,"time_elapsed":1117220,"internal_node_id":"0.0-242.0","task_version":"test-retest-t3"},{"Rune":"rune_06_cweord","Hex":"#ffcc3399","Correct":-1,"Choice":-1,"RT":-1,"Accuracy":1,"Outcome":"-10","Keys":[],"TotalKeys":0,"Block":2,"Trial":235,"Robot":4,"Valence":"Lose","Action":"No-Go","Sham":1,"Color":"yellow","trial_type":"pit-trial","trial_index":254,"time_elapsed":1121224,"internal_node_id":"0.0-243.0","task_version":"test-retest-t3"},{"Rune":"rune_06_ansuz","Hex":"#3366ff99","Correct":32,"Choice":32,"RT":565.7000000355765,"Accuracy":1,"Outcome":"+10","Keys":[2066.6249999776483],"TotalKeys":1,"Block":2,"Trial":236,"Robot":1,"Valence":"Win","Action":"Go","Sham":0,"Color":"blue","trial_type":"pit-trial","trial_index":255,"time_elapsed":1124294,"internal_node_id":"0.0-244.0","task_version":"test-retest-t3"},{"Rune":"rune_06_ehwaz","Hex":"#3366ff99","Correct":-1,"Choice":-1,"RT":-1,"Accuracy":1,"Outcome":"+10","Keys":[],"TotalKeys":0,"Block":2,"Trial":237,"Robot":2,"Valence":"Win","Action":"No-Go","Sham":0,"Color":"blue","trial_type":"pit-trial","trial_index":256,"time_elapsed":1128298,"internal_node_id":"0.0-245.0","task_version":"test-retest-t3"},{"Rune":"rune_06_berkanan","Hex":"#ffcc3399","Correct":32,"Choice":32,"RT":602.1449999534525,"Accuracy":1,"Outcome":"-1","Keys":[2103.7149999756366],"TotalKeys":1,"Block":2,"Trial":238,"Robot":3,"Valence":"Lose","Action":"Go","Sham":0,"Color":"yellow","trial_type":"pit-trial","trial_index":257,"time_elapsed":1131407,"internal_node_id":"0.0-246.0","task_version":"test-retest-t3"},{"Rune":"rune_06_ansuz","Hex":"#3366ff99","Correct":32,"Choice":32,"RT":615.6750000081956,"Accuracy":1,"Outcome":"+10","Keys":[2115.8550000400282],"TotalKeys":1,"Block":2,"Trial":239,"Robot":1,"Valence":"Win","Action":"Go","Sham":0,"Color":"blue","trial_type":"pit-trial","trial_index":258,"time_elapsed":1134527,"internal_node_id":"0.0-247.0","task_version":"test-retest-t3"},{"Rune":"rune_06_cweord","Hex":"#ffcc3399","Correct":-1,"Choice":-1,"RT":-1,"Accuracy":1,"Outcome":"-1","Keys":[],"TotalKeys":0,"Block":2,"Trial":240,"Robot":4,"Valence":"Lose","Action":"No-Go","Sham":0,"Color":"yellow","trial_type":"pit-trial","trial_index":259,"time_elapsed":1138532,"internal_node_id":"0.0-248.0","task_version":"test-retest-t3"},{"view_history":"[{\"page_index\":0,\"viewing_time\":2089.7750000003725}]","rt":2090.1750000193715,"trial_type":"pit-instructions","trial_index":260,"time_elapsed":1140624,"internal_node_id":"0.0-249.0","task_version":"test-retest-t3"},{"rt":36244.965000019874,"responses":{"difficulty":"5","fun":"5","clarity":"5","strategy":"I only used my memorization of which robots were complete and which ones were incomplete to complete the task.","feedback":""},"survey":"debrief","trial_type":"survey-debrief","trial_index":261,"time_elapsed":1176872,"internal_node_id":"0.0-250.0","task_version":"test-retest-t3"},{"rt":4033.86500000488,"stimulus":"You earned a bonus of $1.32 out of $1.5.<br><br>Press any key to complete the experiment.","key_press":71,"trial_type":"html-keyboard-response","trial_index":262,"time_elapsed":1180908,"internal_node_id":"0.0-251.0","task_version":"test-retest-t3","accuracy":0.8791666666666667,"bonus":1.32,"interactions":"[{\"event\":\"blur\",\"trial\":2,\"time\":66959},{\"event\":\"focus\",\"trial\":2,\"time\":68965},{\"event\":\"blur\",\"trial\":2,\"time\":68971},{\"event\":\"focus\",\"trial\":2,\"time\":76024}]"}]