[{"view_history":"[{\"page_index\":0,\"viewing_time\":6407.86500001559},{\"page_index\":1,\"viewing_time\":5447.69499998074},{\"page_index\":2,\"viewing_time\":11145.470000046771},{\"page_index\":3,\"viewing_time\":7974.3999999482185},{\"page_index\":4,\"viewing_time\":6457.600000023376}]","rt":37434.01000002632,"trial_type":"pit-instructions","trial_index":0,"time_elapsed":37435,"internal_node_id":"0.0-0.0"},{"Valence":"Practice","Color":"#fffff080","Rune":"01","Correct":32,"Choice":32,"RT":389.54000000376254,"Accuracy":1,"Sham":0,"Outcome":"+10","Keys":[1889.9700000183657],"TotalKeys":1,"trial_type":"pit-trial","trial_index":1,"time_elapsed":40330,"internal_node_id":"0.0-1.0"},{"Valence":"Practice","Color":"#fffff080","Rune":"01","Correct":32,"Choice":32,"RT":207.20999996410683,"Accuracy":1,"Sham":0,"Outcome":"+10","Keys":[1707.9399999929592],"TotalKeys":1,"trial_type":"pit-trial","trial_index":2,"time_elapsed":43041,"internal_node_id":"0.0-2.0"},{"Valence":"Practice","Color":"#fffff080","Rune":"01","Correct":32,"Choice":32,"RT":279.83499999390915,"Accuracy":1,"Sham":0,"Outcome":"+10","Keys":[1780.2850000443868],"TotalKeys":1,"trial_type":"pit-trial","trial_index":3,"time_elapsed":45825,"internal_node_id":"0.0-3.0"},{"Valence":"Practice","Color":"#fffff080","Rune":"01","Correct":32,"Choice":32,"RT":272.5850000279024,"Accuracy":1,"Sham":0,"Outcome":"+10","Keys":[1774.1750000277534],"TotalKeys":1,"trial_type":"pit-trial","trial_index":4,"time_elapsed":48602,"internal_node_id":"0.0-4.0"},{"view_history":"[{\"page_index\":0,\"viewing_time\":4326.219999988098}]","rt":4326.620000007097,"trial_type":"pit-instructions","trial_index":5,"time_elapsed":52931,"internal_node_id":"0.0-5.0"},{"Valence":"Practice","Color":"#fffff080","Rune":"02","Correct":-1,"Choice":-1,"RT":-1,"Accuracy":1,"Sham":0,"Outcome":"+10","Keys":[],"TotalKeys":0,"trial_type":"pit-trial","trial_index":6,"time_elapsed":56935,"internal_node_id":"0.0-6.0"},{"Valence":"Practice","Color":"#fffff080","Rune":"02","Correct":-1,"Choice":-1,"RT":-1,"Accuracy":1,"Sham":0,"Outcome":"+10","Keys":[],"TotalKeys":0,"trial_type":"pit-trial","trial_index":7,"time_elapsed":60940,"internal_node_id":"0.0-7.0"},{"Valence":"Practice","Color":"#fffff080","Rune":"02","Correct":-1,"Choice":-1,"RT":-1,"Accuracy":1,"Sham":0,"Outcome":"+10","Keys":[],"TotalKeys":0,"trial_type":"pit-trial","trial_index":8,"time_elapsed":64944,"internal_node_id":"0.0-8.0"},{"Valence":"Practice","Color":"#fffff080","Rune":"02","Correct":-1,"Choice":-1,"RT":-1,"Accuracy":1,"Sham":0,"Outcome":"+10","Keys":[],"TotalKeys":0,"trial_type":"pit-trial","trial_index":9,"time_elapsed":68947,"internal_node_id":"0.0-9.0"},{"view_history":"[{\"page_index\":0,\"viewing_time\":3987.5100000062957},{\"page_index\":1,\"viewing_time\":12802.064999996219},{\"page_index\":2,\"viewing_time\":8519.744999997783},{\"page_index\":3,\"viewing_time\":5547.840000013821},{\"page_index\":4,\"viewing_time\":4724.240000010468},{\"page_index\":5,\"viewing_time\":5693.6599999899045},{\"page_index\":6,\"viewing_time\":2788.1799999740906},{\"page_index\":7,\"viewing_time\":1128.145000024233}]","rt":45191.77999999374,"trial_type":"pit-instructions","trial_index":10,"time_elapsed":114141,"internal_node_id":"0.0-10.0"},{"rt":19845.96500004409,"responses":"{\"no-press\":\"Do nothing\",\"context-win\":\"+10\",\"context-lose\":\"-1\",\"feedback\":\"True\"}","errors":0,"trial_type":"pit-comprehension","trial_index":11,"time_elapsed":133991,"internal_node_id":"0.0-11.0"},{"view_history":"[{\"page_index\":0,\"viewing_time\":7688.59000003431}]","rt":7688.910000026226,"trial_type":"pit-instructions","trial_index":12,"time_elapsed":141683,"internal_node_id":"0.0-12.0"},{"Valence":"Win","Color":"#ffcc3399","Rune":"06","Correct":-1,"Choice":32,"RT":640.3750000172295,"Accuracy":0,"Sham":0,"Outcome":"+1","Keys":[2140.4299999703653],"TotalKeys":1,"Block":1,"Trial":1,"Action":"No-Go","Robot":2,"trial_type":"pit-trial","trial_index":13,"time_elapsed":144827,"internal_node_id":"0.0-13.0"},{"Valence":"Lose","Color":"#3366ff99","Rune":"04","Correct":32,"Choice":32,"RT":662.7499999594875,"Accuracy":1,"Sham":0,"Outcome":"-1","Keys":[2163.384999963455],"TotalKeys":1,"Block":1,"Trial":2,"Action":"Go","Robot":3,"trial_type":"pit-trial","trial_index":14,"time_elapsed":147994,"internal_node_id":"0.0-14.0"},{"Valence":"Lose","Color":"#3366ff99","Rune":"03","Correct":-1,"Choice":32,"RT":944.0700000268407,"Accuracy":0,"Sham":0,"Outcome":"-10","Keys":[2444.789999979548],"TotalKeys":1,"Block":1,"Trial":3,"Action":"No-Go","Robot":4,"trial_type":"pit-trial","trial_index":15,"time_elapsed":151442,"internal_node_id":"0.0-15.0"},{"Valence":"Win","Color":"#ffcc3399","Rune":"05","Correct":32,"Choice":32,"RT":1105.8949999860488,"Accuracy":1,"Sham":0,"Outcome":"+10","Keys":[2606.8950000335462],"TotalKeys":1,"Block":1,"Trial":4,"Action":"Go","Robot":1,"trial_type":"pit-trial","trial_index":16,"time_elapsed":155052,"internal_node_id":"0.0-16.0"},{"Valence":"Lose","Color":"#3366ff99","Rune":"04","Correct":32,"Choice":32,"RT":725.5349999759346,"Accuracy":1,"Sham":1,"Outcome":"-10","Keys":[2226.2599999667145],"TotalKeys":1,"Block":1,"Trial":5,"Action":"Go","Robot":3,"trial_type":"pit-trial","trial_index":17,"time_elapsed":158282,"internal_node_id":"0.0-17.0"},{"Valence":"Lose","Color":"#3366ff99","Rune":"03","Correct":-1,"Choice":32,"RT":767.5499999895692,"Accuracy":0,"Sham":0,"Outcome":"-10","Keys":[2268.4250000165775],"TotalKeys":1,"Block":1,"Trial":6,"Action":"No-Go","Robot":4,"trial_type":"pit-trial","trial_index":18,"time_elapsed":161554,"internal_node_id":"0.0-18.0"},{"Valence":"Win","Color":"#ffcc3399","Rune":"05","Correct":32,"Choice":32,"RT":607.6049999683164,"Accuracy":1,"Sham":0,"Outcome":"+10","Keys":[2108.669999986887],"TotalKeys":1,"Block":1,"Trial":7,"Action":"Go","Robot":1,"trial_type":"pit-trial","trial_index":19,"time_elapsed":164665,"internal_node_id":"0.0-19.0"},{"Valence":"Win","Color":"#ffcc3399","Rune":"06","Correct":-1,"Choice":-1,"RT":-1,"Accuracy":1,"Sham":0,"Outcome":"+10","Keys":[],"TotalKeys":0,"Block":1,"Trial":8,"Action":"No-Go","Robot":2,"trial_type":"pit-trial","trial_index":20,"time_elapsed":168670,"internal_node_id":"0.0-20.0"},{"Valence":"Win","Color":"#ffcc3399","Rune":"05","Correct":32,"Choice":32,"RT":572.9099999880418,"Accuracy":1,"Sham":0,"Outcome":"+10","Keys":[2073.6399999586865],"TotalKeys":1,"Block":1,"Trial":9,"Action":"Go","Robot":1,"trial_type":"pit-trial","trial_index":21,"time_elapsed":171748,"internal_node_id":"0.0-21.0"},{"Valence":"Lose","Color":"#3366ff99","Rune":"04","Correct":32,"Choice":-1,"RT":-1,"Accuracy":0,"Sham":0,"Outcome":"-10","Keys":[],"TotalKeys":0,"Block":1,"Trial":10,"Action":"Go","Robot":3,"trial_type":"pit-trial","trial_index":22,"time_elapsed":175753,"internal_node_id":"0.0-22.0"},{"Valence":"Win","Color":"#ffcc3399","Rune":"06","Correct":-1,"Choice":-1,"RT":-1,"Accuracy":1,"Sham":0,"Outcome":"+10","Keys":[],"TotalKeys":0,"Block":1,"Trial":11,"Action":"No-Go","Robot":2,"trial_type":"pit-trial","trial_index":23,"time_elapsed":179757,"internal_node_id":"0.0-23.0"},{"Valence":"Lose","Color":"#3366ff99","Rune":"03","Correct":-1,"Choice":32,"RT":831.0849999543279,"Accuracy":0,"Sham":0,"Outcome":"-10","Keys":[2331.2000000150874],"TotalKeys":1,"Block":1,"Trial":12,"Action":"No-Go","Robot":4,"trial_type":"pit-trial","trial_index":24,"time_elapsed":183091,"internal_node_id":"0.0-24.0"},{"Valence":"Win","Color":"#ffcc3399","Rune":"05","Correct":32,"Choice":32,"RT":558.904999983497,"Accuracy":1,"Sham":0,"Outcome":"+10","Keys":[2059.52500004787],"TotalKeys":1,"Block":1,"Trial":13,"Action":"Go","Robot":1,"trial_type":"pit-trial","trial_index":25,"time_elapsed":186153,"internal_node_id":"0.0-25.0"},{"Valence":"Win","Color":"#ffcc3399","Rune":"06","Correct":-1,"Choice":-1,"RT":-1,"Accuracy":1,"Sham":0,"Outcome":"+10","Keys":[],"TotalKeys":0,"Block":1,"Trial":14,"Action":"No-Go","Robot":2,"trial_type":"pit-trial","trial_index":26,"time_elapsed":190156,"internal_node_id":"0.0-26.0"},{"Valence":"Lose","Color":"#3366ff99","Rune":"04","Correct":32,"Choice":-1,"RT":-1,"Accuracy":0,"Sham":0,"Outcome":"-10","Keys":[],"TotalKeys":0,"Block":1,"Trial":15,"Action":"Go","Robot":3,"trial_type":"pit-trial","trial_index":27,"time_elapsed":194160,"internal_node_id":"0.0-27.0"},{"Valence":"Lose","Color":"#3366ff99","Rune":"03","Correct":-1,"Choice":-1,"RT":-1,"Accuracy":1,"Sham":1,"Outcome":"-10","Keys":[],"TotalKeys":0,"Block":1,"Trial":16,"Action":"No-Go","Robot":4,"trial_type":"pit-trial","trial_index":28,"time_elapsed":198165,"internal_node_id":"0.0-28.0"},{"Valence":"Win","Color":"#ffcc3399","Rune":"05","Correct":32,"Choice":32,"RT":671.7250000219792,"Accuracy":1,"Sham":1,"Outcome":"1","Keys":[2171.879999979865],"TotalKeys":1,"Block":1,"Trial":17,"Action":"Go","Robot":1,"trial_type":"pit-trial","trial_index":29,"time_elapsed":201339,"internal_node_id":"0.0-29.0"},{"Valence":"Lose","Color":"#3366ff99","Rune":"04","Correct":32,"Choice":32,"RT":622.5699999486096,"Accuracy":1,"Sham":0,"Outcome":"-1","Keys":[2122.879999980796],"TotalKeys":1,"Block":1,"Trial":18,"Action":"Go","Robot":3,"trial_type":"pit-trial","trial_index":30,"time_elapsed":204465,"internal_node_id":"0.0-30.0"},{"Valence":"Win","Color":"#ffcc3399","Rune":"06","Correct":-1,"Choice":-1,"RT":-1,"Accuracy":1,"Sham":1,"Outcome":"1","Keys":[],"TotalKeys":0,"Block":1,"Trial":19,"Action":"No-Go","Robot":2,"trial_type":"pit-trial","trial_index":31,"time_elapsed":208474,"internal_node_id":"0.0-31.0"},{"Valence":"Lose","Color":"#3366ff99","Rune":"03","Correct":-1,"Choice":32,"RT":858.6099999956787,"Accuracy":0,"Sham":0,"Outcome":"-10","Keys":[2358.905000030063],"TotalKeys":1,"Block":1,"Trial":20,"Action":"No-Go","Robot":4,"trial_type":"pit-trial","trial_index":32,"time_elapsed":211836,"internal_node_id":"0.0-32.0"},{"Valence":"Lose","Color":"#3366ff99","Rune":"03","Correct":-1,"Choice":-1,"RT":-1,"Accuracy":1,"Sham":0,"Outcome":"-1","Keys":[],"TotalKeys":0,"Block":1,"Trial":21,"Action":"No-Go","Robot":4,"trial_type":"pit-trial","trial_index":33,"time_elapsed":215839,"internal_node_id":"0.0-33.0"},{"Valence":"Win","Color":"#ffcc3399","Rune":"06","Correct":-1,"Choice":-1,"RT":-1,"Accuracy":1,"Sham":0,"Outcome":"+10","Keys":[],"TotalKeys":0,"Block":1,"Trial":22,"Action":"No-Go","Robot":2,"trial_type":"pit-trial","trial_index":34,"time_elapsed":219843,"internal_node_id":"0.0-34.0"},{"Valence":"Win","Color":"#ffcc3399","Rune":"05","Correct":32,"Choice":32,"RT":584.0449999668635,"Accuracy":1,"Sham":0,"Outcome":"+10","Keys":[2085.0550000322983],"TotalKeys":1,"Block":1,"Trial":23,"Action":"Go","Robot":1,"trial_type":"pit-trial","trial_index":35,"time_elapsed":222931,"internal_node_id":"0.0-35.0"},{"Valence":"Lose","Color":"#3366ff99","Rune":"04","Correct":32,"Choice":-1,"RT":-1,"Accuracy":0,"Sham":0,"Outcome":"-10","Keys":[],"TotalKeys":0,"Block":1,"Trial":24,"Action":"Go","Robot":3,"trial_type":"pit-trial","trial_index":36,"time_elapsed":226935,"internal_node_id":"0.0-36.0"},{"Valence":"Lose","Color":"#3366ff99","Rune":"03","Correct":-1,"Choice":-1,"RT":-1,"Accuracy":1,"Sham":0,"Outcome":"-1","Keys":[],"TotalKeys":0,"Block":1,"Trial":25,"Action":"No-Go","Robot":4,"trial_type":"pit-trial","trial_index":37,"time_elapsed":230938,"internal_node_id":"0.0-37.0"},{"Valence":"Win","Color":"#ffcc3399","Rune":"05","Correct":32,"Choice":32,"RT":496.7799999867566,"Accuracy":1,"Sham":0,"Outcome":"+10","Keys":[1997.544999991078],"TotalKeys":1,"Block":1,"Trial":26,"Action":"Go","Robot":1,"trial_type":"pit-trial","trial_index":38,"time_elapsed":233940,"internal_node_id":"0.0-38.0"},{"Valence":"Lose","Color":"#3366ff99","Rune":"04","Correct":32,"Choice":-1,"RT":-1,"Accuracy":0,"Sham":0,"Outcome":"-10","Keys":[],"TotalKeys":0,"Block":1,"Trial":27,"Action":"Go","Robot":3,"trial_type":"pit-trial","trial_index":39,"time_elapsed":237944,"internal_node_id":"0.0-39.0"},{"Valence":"Win","Color":"#ffcc3399","Rune":"06","Correct":-1,"Choice":-1,"RT":-1,"Accuracy":1,"Sham":0,"Outcome":"+10","Keys":[],"TotalKeys":0,"Block":1,"Trial":28,"Action":"No-Go","Robot":2,"trial_type":"pit-trial","trial_index":40,"time_elapsed":241947,"internal_node_id":"0.0-40.0"},{"Valence":"Lose","Color":"#3366ff99","Rune":"04","Correct":32,"Choice":32,"RT":416.16000002250075,"Accuracy":1,"Sham":0,"Outcome":"-1","Keys":[1916.8199999839999],"TotalKeys":1,"Block":1,"Trial":29,"Action":"Go","Robot":3,"trial_type":"pit-trial","trial_index":41,"time_elapsed":244867,"internal_node_id":"0.0-41.0"},{"Valence":"Win","Color":"#ffcc3399","Rune":"06","Correct":-1,"Choice":-1,"RT":-1,"Accuracy":1,"Sham":1,"Outcome":"1","Keys":[],"TotalKeys":0,"Block":1,"Trial":30,"Action":"No-Go","Robot":2,"trial_type":"pit-trial","trial_index":42,"time_elapsed":248871,"internal_node_id":"0.0-42.0"},{"Valence":"Win","Color":"#ffcc3399","Rune":"05","Correct":32,"Choice":32,"RT":490.50500005250797,"Accuracy":1,"Sham":1,"Outcome":"1","Keys":[1990.9500000067055],"TotalKeys":1,"Block":1,"Trial":31,"Action":"Go","Robot":1,"trial_type":"pit-trial","trial_index":43,"time_elapsed":251865,"internal_node_id":"0.0-43.0"},{"Valence":"Lose","Color":"#3366ff99","Rune":"03","Correct":-1,"Choice":-1,"RT":-1,"Accuracy":1,"Sham":0,"Outcome":"-1","Keys":[],"TotalKeys":0,"Block":1,"Trial":32,"Action":"No-Go","Robot":4,"trial_type":"pit-trial","trial_index":44,"time_elapsed":255869,"internal_node_id":"0.0-44.0"},{"Valence":"Lose","Color":"#3366ff99","Rune":"03","Correct":-1,"Choice":-1,"RT":-1,"Accuracy":1,"Sham":0,"Outcome":"-1","Keys":[],"TotalKeys":0,"Block":1,"Trial":33,"Action":"No-Go","Robot":4,"trial_type":"pit-trial","trial_index":45,"time_elapsed":259872,"internal_node_id":"0.0-45.0"},{"Valence":"Win","Color":"#ffcc3399","Rune":"06","Correct":-1,"Choice":-1,"RT":-1,"Accuracy":1,"Sham":0,"Outcome":"+10","Keys":[],"TotalKeys":0,"Block":1,"Trial":34,"Action":"No-Go","Robot":2,"trial_type":"pit-trial","trial_index":46,"time_elapsed":263876,"internal_node_id":"0.0-46.0"},{"Valence":"Win","Color":"#ffcc3399","Rune":"05","Correct":32,"Choice":32,"RT":455.06499998737127,"Accuracy":1,"Sham":0,"Outcome":"+10","Keys":[1955.7499999646097],"TotalKeys":1,"Block":1,"Trial":35,"Action":"Go","Robot":1,"trial_type":"pit-trial","trial_index":47,"time_elapsed":266835,"internal_node_id":"0.0-47.0"},{"Valence":"Lose","Color":"#3366ff99","Rune":"04","Correct":32,"Choice":32,"RT":479.1099999565631,"Accuracy":1,"Sham":1,"Outcome":"-10","Keys":[1979.3250000220723],"TotalKeys":1,"Block":1,"Trial":36,"Action":"Go","Robot":3,"trial_type":"pit-trial","trial_index":48,"time_elapsed":269818,"internal_node_id":"0.0-48.0"},{"Valence":"Lose","Color":"#3366ff99","Rune":"03","Correct":-1,"Choice":-1,"RT":-1,"Accuracy":1,"Sham":1,"Outcome":"-10","Keys":[],"TotalKeys":0,"Block":1,"Trial":37,"Action":"No-Go","Robot":4,"trial_type":"pit-trial","trial_index":49,"time_elapsed":273822,"internal_node_id":"0.0-49.0"},{"Valence":"Lose","Color":"#3366ff99","Rune":"04","Correct":32,"Choice":32,"RT":580.2050000056624,"Accuracy":1,"Sham":0,"Outcome":"-1","Keys":[2080.9550000121817],"TotalKeys":1,"Block":1,"Trial":38,"Action":"Go","Robot":3,"trial_type":"pit-trial","trial_index":50,"time_elapsed":276908,"internal_node_id":"0.0-50.0"},{"Valence":"Win","Color":"#ffcc3399","Rune":"05","Correct":32,"Choice":32,"RT":518.2649999624118,"Accuracy":1,"Sham":0,"Outcome":"+10","Keys":[2018.4499999741092],"TotalKeys":1,"Block":1,"Trial":39,"Action":"Go","Robot":1,"trial_type":"pit-trial","trial_index":51,"time_elapsed":279930,"internal_node_id":"0.0-51.0"},{"Valence":"Win","Color":"#ffcc3399","Rune":"06","Correct":-1,"Choice":-1,"RT":-1,"Accuracy":1,"Sham":0,"Outcome":"+10","Keys":[],"TotalKeys":0,"Block":1,"Trial":40,"Action":"No-Go","Robot":2,"trial_type":"pit-trial","trial_index":52,"time_elapsed":283935,"internal_node_id":"0.0-52.0"},{"Valence":"Lose","Color":"#3366ff99","Rune":"04","Correct":32,"Choice":32,"RT":844.6200000471435,"Accuracy":1,"Sham":1,"Outcome":"-10","Keys":[2345.195000001695],"TotalKeys":1,"Block":1,"Trial":41,"Action":"Go","Robot":3,"trial_type":"pit-trial","trial_index":53,"time_elapsed":287284,"internal_node_id":"0.0-53.0"},{"Valence":"Win","Color":"#ffcc3399","Rune":"06","Correct":-1,"Choice":-1,"RT":-1,"Accuracy":1,"Sham":0,"Outcome":"+10","Keys":[],"TotalKeys":0,"Block":1,"Trial":42,"Action":"No-Go","Robot":2,"trial_type":"pit-trial","trial_index":54,"time_elapsed":291287,"internal_node_id":"0.0-54.0"},{"Valence":"Lose","Color":"#3366ff99","Rune":"03","Correct":-1,"Choice":32,"RT":1002.8750000055879,"Accuracy":0,"Sham":0,"Outcome":"-10","Keys":[2503.469999996014],"TotalKeys":1,"Block":1,"Trial":43,"Action":"No-Go","Robot":4,"trial_type":"pit-trial","trial_index":55,"time_elapsed":294794,"internal_node_id":"0.0-55.0"},{"Valence":"Win","Color":"#ffcc3399","Rune":"05","Correct":32,"Choice":32,"RT":482.5399999972433,"Accuracy":1,"Sham":0,"Outcome":"+10","Keys":[1982.75000002468],"TotalKeys":1,"Block":1,"Trial":44,"Action":"Go","Robot":1,"trial_type":"pit-trial","trial_index":56,"time_elapsed":297780,"internal_node_id":"0.0-56.0"},{"Valence":"Lose","Color":"#3366ff99","Rune":"03","Correct":-1,"Choice":32,"RT":614.0899999882095,"Accuracy":0,"Sham":0,"Outcome":"-10","Keys":[2114.629999967292],"TotalKeys":1,"Block":1,"Trial":45,"Action":"No-Go","Robot":4,"trial_type":"pit-trial","trial_index":57,"time_elapsed":300898,"internal_node_id":"0.0-57.0"},{"Valence":"Win","Color":"#ffcc3399","Rune":"06","Correct":-1,"Choice":-1,"RT":-1,"Accuracy":1,"Sham":1,"Outcome":"1","Keys":[],"TotalKeys":0,"Block":1,"Trial":46,"Action":"No-Go","Robot":2,"trial_type":"pit-trial","trial_index":58,"time_elapsed":304902,"internal_node_id":"0.0-58.0"},{"Valence":"Lose","Color":"#3366ff99","Rune":"04","Correct":32,"Choice":-1,"RT":-1,"Accuracy":0,"Sham":0,"Outcome":"-10","Keys":[],"TotalKeys":0,"Block":1,"Trial":47,"Action":"Go","Robot":3,"trial_type":"pit-trial","trial_index":59,"time_elapsed":308907,"internal_node_id":"0.0-59.0"},{"Valence":"Win","Color":"#ffcc3399","Rune":"05","Correct":32,"Choice":32,"RT":552.9600000008941,"Accuracy":1,"Sham":0,"Outcome":"+10","Keys":[2053.825000009965],"TotalKeys":1,"Block":1,"Trial":48,"Action":"Go","Robot":1,"trial_type":"pit-trial","trial_index":60,"time_elapsed":311963,"internal_node_id":"0.0-60.0"},{"Valence":"Lose","Color":"#3366ff99","Rune":"03","Correct":-1,"Choice":-1,"RT":-1,"Accuracy":1,"Sham":0,"Outcome":"-1","Keys":[],"TotalKeys":0,"Block":1,"Trial":49,"Action":"No-Go","Robot":4,"trial_type":"pit-trial","trial_index":61,"time_elapsed":315968,"internal_node_id":"0.0-61.0"},{"Valence":"Win","Color":"#ffcc3399","Rune":"05","Correct":32,"Choice":32,"RT":498.3199999551289,"Accuracy":1,"Sham":0,"Outcome":"+10","Keys":[1998.7700000056066],"TotalKeys":1,"Block":1,"Trial":50,"Action":"Go","Robot":1,"trial_type":"pit-trial","trial_index":62,"time_elapsed":318969,"internal_node_id":"0.0-62.0"},{"Valence":"Win","Color":"#ffcc3399","Rune":"06","Correct":-1,"Choice":-1,"RT":-1,"Accuracy":1,"Sham":0,"Outcome":"+10","Keys":[],"TotalKeys":0,"Block":1,"Trial":51,"Action":"No-Go","Robot":2,"trial_type":"pit-trial","trial_index":63,"time_elapsed":322973,"internal_node_id":"0.0-63.0"},{"Valence":"Lose","Color":"#3366ff99","Rune":"04","Correct":32,"Choice":32,"RT":342.5050000078045,"Accuracy":1,"Sham":0,"Outcome":"-1","Keys":[1843.0200000293553],"TotalKeys":1,"Block":1,"Trial":52,"Action":"Go","Robot":3,"trial_type":"pit-trial","trial_index":64,"time_elapsed":325820,"internal_node_id":"0.0-64.0"},{"Valence":"Win","Color":"#ffcc3399","Rune":"06","Correct":-1,"Choice":-1,"RT":-1,"Accuracy":1,"Sham":0,"Outcome":"+10","Keys":[],"TotalKeys":0,"Block":1,"Trial":53,"Action":"No-Go","Robot":2,"trial_type":"pit-trial","trial_index":65,"time_elapsed":329824,"internal_node_id":"0.0-65.0"},{"Valence":"Lose","Color":"#3366ff99","Rune":"04","Correct":32,"Choice":32,"RT":537.2000000206754,"Accuracy":1,"Sham":0,"Outcome":"-1","Keys":[2038.0149999982677],"TotalKeys":1,"Block":1,"Trial":54,"Action":"Go","Robot":3,"trial_type":"pit-trial","trial_index":66,"time_elapsed":332866,"internal_node_id":"0.0-66.0"},{"Valence":"Lose","Color":"#3366ff99","Rune":"03","Correct":-1,"Choice":-1,"RT":-1,"Accuracy":1,"Sham":0,"Outcome":"-1","Keys":[],"TotalKeys":0,"Block":1,"Trial":55,"Action":"No-Go","Robot":4,"trial_type":"pit-trial","trial_index":67,"time_elapsed":336871,"internal_node_id":"0.0-67.0"},{"Valence":"Win","Color":"#ffcc3399","Rune":"05","Correct":32,"Choice":32,"RT":444.6800000150688,"Accuracy":1,"Sham":0,"Outcome":"+10","Keys":[1945.479999994859],"TotalKeys":1,"Block":1,"Trial":56,"Action":"Go","Robot":1,"trial_type":"pit-trial","trial_index":68,"time_elapsed":339819,"internal_node_id":"0.0-68.0"},{"Valence":"Win","Color":"#ffcc3399","Rune":"05","Correct":32,"Choice":32,"RT":462.6150000258349,"Accuracy":1,"Sham":1,"Outcome":"1","Keys":[1962.6700000371784],"TotalKeys":1,"Block":1,"Trial":57,"Action":"Go","Robot":1,"trial_type":"pit-trial","trial_index":69,"time_elapsed":342785,"internal_node_id":"0.0-69.0"},{"Valence":"Lose","Color":"#3366ff99","Rune":"04","Correct":32,"Choice":32,"RT":345.03999998560175,"Accuracy":1,"Sham":0,"Outcome":"-1","Keys":[1845.305000024382],"TotalKeys":1,"Block":1,"Trial":58,"Action":"Go","Robot":3,"trial_type":"pit-trial","trial_index":70,"time_elapsed":345633,"internal_node_id":"0.0-70.0"},{"Valence":"Lose","Color":"#3366ff99","Rune":"03","Correct":-1,"Choice":-1,"RT":-1,"Accuracy":1,"Sham":1,"Outcome":"-10","Keys":[],"TotalKeys":0,"Block":1,"Trial":59,"Action":"No-Go","Robot":4,"trial_type":"pit-trial","trial_index":71,"time_elapsed":349638,"internal_node_id":"0.0-71.0"},{"Valence":"Win","Color":"#ffcc3399","Rune":"06","Correct":-1,"Choice":-1,"RT":-1,"Accuracy":1,"Sham":0,"Outcome":"+10","Keys":[],"TotalKeys":0,"Block":1,"Trial":60,"Action":"No-Go","Robot":2,"trial_type":"pit-trial","trial_index":72,"time_elapsed":353642,"internal_node_id":"0.0-72.0"},{"Valence":"Win","Color":"#ffcc3399","Rune":"06","Correct":-1,"Choice":-1,"RT":-1,"Accuracy":1,"Sham":0,"Outcome":"+10","Keys":[],"TotalKeys":0,"Block":1,"Trial":61,"Action":"No-Go","Robot":2,"trial_type":"pit-trial","trial_index":73,"time_elapsed":357647,"internal_node_id":"0.0-73.0"},{"Valence":"Lose","Color":"#3366ff99","Rune":"04","Correct":32,"Choice":32,"RT":301.00999999558553,"Accuracy":1,"Sham":0,"Outcome":"-1","Keys":[1801.8400000291876],"TotalKeys":1,"Block":1,"Trial":62,"Action":"Go","Robot":3,"trial_type":"pit-trial","trial_index":74,"time_elapsed":360452,"internal_node_id":"0.0-74.0"},{"Valence":"Lose","Color":"#3366ff99","Rune":"03","Correct":-1,"Choice":32,"RT":661.7449999903329,"Accuracy":0,"Sham":0,"Outcome":"-10","Keys":[2163.1699999561533],"TotalKeys":1,"Block":1,"Trial":63,"Action":"No-Go","Robot":4,"trial_type":"pit-trial","trial_index":75,"time_elapsed":363618,"internal_node_id":"0.0-75.0"},{"Valence":"Win","Color":"#ffcc3399","Rune":"05","Correct":32,"Choice":32,"RT":488.4650000021793,"Accuracy":1,"Sham":0,"Outcome":"+10","Keys":[1988.80500002997],"TotalKeys":1,"Block":1,"Trial":64,"Action":"Go","Robot":1,"trial_type":"pit-trial","trial_index":76,"time_elapsed":366611,"internal_node_id":"0.0-76.0"},{"Valence":"Win","Color":"#ffcc3399","Rune":"06","Correct":-1,"Choice":-1,"RT":-1,"Accuracy":1,"Sham":0,"Outcome":"+10","Keys":[],"TotalKeys":0,"Block":1,"Trial":65,"Action":"No-Go","Robot":2,"trial_type":"pit-trial","trial_index":77,"time_elapsed":370615,"internal_node_id":"0.0-77.0"},{"Valence":"Lose","Color":"#3366ff99","Rune":"03","Correct":-1,"Choice":-1,"RT":-1,"Accuracy":1,"Sham":0,"Outcome":"-1","Keys":[],"TotalKeys":0,"Block":1,"Trial":66,"Action":"No-Go","Robot":4,"trial_type":"pit-trial","trial_index":78,"time_elapsed":374619,"internal_node_id":"0.0-78.0"},{"Valence":"Win","Color":"#ffcc3399","Rune":"05","Correct":32,"Choice":32,"RT":487.9400000208989,"Accuracy":1,"Sham":1,"Outcome":"1","Keys":[1989.2049999907613],"TotalKeys":1,"Block":1,"Trial":67,"Action":"Go","Robot":1,"trial_type":"pit-trial","trial_index":79,"time_elapsed":377611,"internal_node_id":"0.0-79.0"},{"Valence":"Lose","Color":"#3366ff99","Rune":"04","Correct":32,"Choice":32,"RT":479.38999999314547,"Accuracy":1,"Sham":0,"Outcome":"-1","Keys":[1979.5699999667704],"TotalKeys":1,"Block":1,"Trial":68,"Action":"Go","Robot":3,"trial_type":"pit-trial","trial_index":80,"time_elapsed":380594,"internal_node_id":"0.0-80.0"},{"Valence":"Lose","Color":"#3366ff99","Rune":"03","Correct":-1,"Choice":-1,"RT":-1,"Accuracy":1,"Sham":1,"Outcome":"-10","Keys":[],"TotalKeys":0,"Block":1,"Trial":69,"Action":"No-Go","Robot":4,"trial_type":"pit-trial","trial_index":81,"time_elapsed":384598,"internal_node_id":"0.0-81.0"},{"Valence":"Lose","Color":"#3366ff99","Rune":"04","Correct":32,"Choice":32,"RT":1069.1349999979138,"Accuracy":1,"Sham":0,"Outcome":"-1","Keys":[2570.5099999904633],"TotalKeys":1,"Block":1,"Trial":70,"Action":"Go","Robot":3,"trial_type":"pit-trial","trial_index":82,"time_elapsed":388172,"internal_node_id":"0.0-82.0"},{"Valence":"Win","Color":"#ffcc3399","Rune":"05","Correct":32,"Choice":32,"RT":549.9000000418164,"Accuracy":1,"Sham":0,"Outcome":"+10","Keys":[2050.8849999750964],"TotalKeys":1,"Block":1,"Trial":71,"Action":"Go","Robot":1,"trial_type":"pit-trial","trial_index":83,"time_elapsed":391226,"internal_node_id":"0.0-83.0"},{"Valence":"Win","Color":"#ffcc3399","Rune":"06","Correct":-1,"Choice":-1,"RT":-1,"Accuracy":1,"Sham":0,"Outcome":"+10","Keys":[],"TotalKeys":0,"Block":1,"Trial":72,"Action":"No-Go","Robot":2,"trial_type":"pit-trial","trial_index":84,"time_elapsed":395229,"internal_node_id":"0.0-84.0"},{"Valence":"Win","Color":"#ffcc3399","Rune":"06","Correct":-1,"Choice":-1,"RT":-1,"Accuracy":1,"Sham":0,"Outcome":"+10","Keys":[],"TotalKeys":0,"Block":1,"Trial":73,"Action":"No-Go","Robot":2,"trial_type":"pit-trial","trial_index":85,"time_elapsed":399234,"internal_node_id":"0.0-85.0"},{"Valence":"Lose","Color":"#3366ff99","Rune":"04","Correct":32,"Choice":32,"RT":345.9150000126101,"Accuracy":1,"Sham":1,"Outcome":"-10","Keys":[1846.2099999887869],"TotalKeys":1,"Block":1,"Trial":74,"Action":"Go","Robot":3,"trial_type":"pit-trial","trial_index":86,"time_elapsed":402083,"internal_node_id":"0.0-86.0"},{"Valence":"Win","Color":"#ffcc3399","Rune":"05","Correct":32,"Choice":32,"RT":758.6250000167638,"Accuracy":1,"Sham":0,"Outcome":"+10","Keys":[2259.684999997262],"TotalKeys":1,"Block":1,"Trial":75,"Action":"Go","Robot":1,"trial_type":"pit-trial","trial_index":87,"time_elapsed":405346,"internal_node_id":"0.0-87.0"},{"Valence":"Lose","Color":"#3366ff99","Rune":"03","Correct":-1,"Choice":-1,"RT":-1,"Accuracy":1,"Sham":0,"Outcome":"-1","Keys":[],"TotalKeys":0,"Block":1,"Trial":76,"Action":"No-Go","Robot":4,"trial_type":"pit-trial","trial_index":88,"time_elapsed":409349,"internal_node_id":"0.0-88.0"},{"Valence":"Win","Color":"#ffcc3399","Rune":"06","Correct":-1,"Choice":-1,"RT":-1,"Accuracy":1,"Sham":1,"Outcome":"1","Keys":[],"TotalKeys":0,"Block":1,"Trial":77,"Action":"No-Go","Robot":2,"trial_type":"pit-trial","trial_index":89,"time_elapsed":413354,"internal_node_id":"0.0-89.0"},{"Valence":"Win","Color":"#ffcc3399","Rune":"05","Correct":32,"Choice":32,"RT":361.94499995326623,"Accuracy":1,"Sham":0,"Outcome":"+10","Keys":[1862.639999948442],"TotalKeys":1,"Block":1,"Trial":78,"Action":"Go","Robot":1,"trial_type":"pit-trial","trial_index":90,"time_elapsed":416220,"internal_node_id":"0.0-90.0"},{"Valence":"Lose","Color":"#3366ff99","Rune":"03","Correct":-1,"Choice":-1,"RT":-1,"Accuracy":1,"Sham":0,"Outcome":"-1","Keys":[],"TotalKeys":0,"Block":1,"Trial":79,"Action":"No-Go","Robot":4,"trial_type":"pit-trial","trial_index":91,"time_elapsed":420224,"internal_node_id":"0.0-91.0"},{"Valence":"Lose","Color":"#3366ff99","Rune":"04","Correct":32,"Choice":32,"RT":443.13000002875924,"Accuracy":1,"Sham":0,"Outcome":"-1","Keys":[1943.1650000042282],"TotalKeys":1,"Block":1,"Trial":80,"Action":"Go","Robot":3,"trial_type":"pit-trial","trial_index":92,"time_elapsed":423170,"internal_node_id":"0.0-92.0"},{"value":false,"trial_type":"call-function","trial_index":93,"time_elapsed":423172,"internal_node_id":"0.0-93.0"},{"RT":1736.3100000075065,"trial_type":"pit-pause","trial_index":94,"time_elapsed":428377,"internal_node_id":"0.0-94.0"},{"Valence":"Win","Color":"#ffcc3399","Rune":"05","Correct":32,"Choice":32,"RT":393.4449999942444,"Accuracy":1,"Sham":0,"Outcome":"+10","Keys":[1894.1549999872223],"TotalKeys":1,"Block":2,"Trial":81,"Action":"Go","Robot":1,"trial_type":"pit-trial","trial_index":95,"time_elapsed":431275,"internal_node_id":"0.0-95.0"},{"Valence":"Win","Color":"#ffcc3399","Rune":"06","Correct":-1,"Choice":-1,"RT":-1,"Accuracy":1,"Sham":0,"Outcome":"+10","Keys":[],"TotalKeys":0,"Block":2,"Trial":82,"Action":"No-Go","Robot":2,"trial_type":"pit-trial","trial_index":96,"time_elapsed":435278,"internal_node_id":"0.0-96.0"},{"Valence":"Lose","Color":"#3366ff99","Rune":"03","Correct":-1,"Choice":-1,"RT":-1,"Accuracy":1,"Sham":0,"Outcome":"-1","Keys":[],"TotalKeys":0,"Block":2,"Trial":83,"Action":"No-Go","Robot":4,"trial_type":"pit-trial","trial_index":97,"time_elapsed":439281,"internal_node_id":"0.0-97.0"},{"Valence":"Lose","Color":"#3366ff99","Rune":"04","Correct":32,"Choice":32,"RT":330.6150000425987,"Accuracy":1,"Sham":0,"Outcome":"-1","Keys":[1831.2750000040978],"TotalKeys":1,"Block":2,"Trial":84,"Action":"Go","Robot":3,"trial_type":"pit-trial","trial_index":98,"time_elapsed":442115,"internal_node_id":"0.0-98.0"},{"Valence":"Win","Color":"#ffcc3399","Rune":"05","Correct":32,"Choice":32,"RT":502.20000004628673,"Accuracy":1,"Sham":0,"Outcome":"+10","Keys":[2002.3200000287034],"TotalKeys":1,"Block":2,"Trial":85,"Action":"Go","Robot":1,"trial_type":"pit-trial","trial_index":99,"time_elapsed":445121,"internal_node_id":"0.0-99.0"},{"Valence":"Win","Color":"#ffcc3399","Rune":"06","Correct":-1,"Choice":-1,"RT":-1,"Accuracy":1,"Sham":0,"Outcome":"+10","Keys":[],"TotalKeys":0,"Block":2,"Trial":86,"Action":"No-Go","Robot":2,"trial_type":"pit-trial","trial_index":100,"time_elapsed":449125,"internal_node_id":"0.0-100.0"},{"Valence":"Lose","Color":"#3366ff99","Rune":"04","Correct":32,"Choice":32,"RT":308.63500002305955,"Accuracy":1,"Sham":0,"Outcome":"-1","Keys":[1808.980000030715],"TotalKeys":1,"Block":2,"Trial":87,"Action":"Go","Robot":3,"trial_type":"pit-trial","trial_index":101,"time_elapsed":451938,"internal_node_id":"0.0-101.0"},{"Valence":"Lose","Color":"#3366ff99","Rune":"03","Correct":-1,"Choice":-1,"RT":-1,"Accuracy":1,"Sham":0,"Outcome":"-1","Keys":[],"TotalKeys":0,"Block":2,"Trial":88,"Action":"No-Go","Robot":4,"trial_type":"pit-trial","trial_index":102,"time_elapsed":455942,"internal_node_id":"0.0-102.0"},{"Valence":"Lose","Color":"#3366ff99","Rune":"04","Correct":32,"Choice":32,"RT":397.98999996855855,"Accuracy":1,"Sham":1,"Outcome":"-10","Keys":[1898.410000023432],"TotalKeys":1,"Block":2,"Trial":89,"Action":"Go","Robot":3,"trial_type":"pit-trial","trial_index":103,"time_elapsed":458844,"internal_node_id":"0.0-103.0"},{"Valence":"Win","Color":"#ffcc3399","Rune":"05","Correct":32,"Choice":32,"RT":446.17499999003485,"Accuracy":1,"Sham":1,"Outcome":"1","Keys":[1947.0450000371784],"TotalKeys":1,"Block":2,"Trial":90,"Action":"Go","Robot":1,"trial_type":"pit-trial","trial_index":104,"time_elapsed":461793,"internal_node_id":"0.0-104.0"},{"Valence":"Win","Color":"#ffcc3399","Rune":"06","Correct":-1,"Choice":-1,"RT":-1,"Accuracy":1,"Sham":0,"Outcome":"+10","Keys":[],"TotalKeys":0,"Block":2,"Trial":91,"Action":"No-Go","Robot":2,"trial_type":"pit-trial","trial_index":105,"time_elapsed":465798,"internal_node_id":"0.0-105.0"},{"Valence":"Lose","Color":"#3366ff99","Rune":"03","Correct":-1,"Choice":-1,"RT":-1,"Accuracy":1,"Sham":0,"Outcome":"-1","Keys":[],"TotalKeys":0,"Block":2,"Trial":92,"Action":"No-Go","Robot":4,"trial_type":"pit-trial","trial_index":106,"time_elapsed":469800,"internal_node_id":"0.0-106.0"},{"Valence":"Lose","Color":"#3366ff99","Rune":"03","Correct":-1,"Choice":-1,"RT":-1,"Accuracy":1,"Sham":0,"Outcome":"-1","Keys":[],"TotalKeys":0,"Block":2,"Trial":93,"Action":"No-Go","Robot":4,"trial_type":"pit-trial","trial_index":107,"time_elapsed":473804,"internal_node_id":"0.0-107.0"},{"Valence":"Win","Color":"#ffcc3399","Rune":"05","Correct":32,"Choice":32,"RT":334.74999997997656,"Accuracy":1,"Sham":0,"Outcome":"+10","Keys":[1835.6449999846518],"TotalKeys":1,"Block":2,"Trial":94,"Action":"Go","Robot":1,"trial_type":"pit-trial","trial_index":108,"time_elapsed":476644,"internal_node_id":"0.0-108.0"},{"Valence":"Lose","Color":"#3366ff99","Rune":"04","Correct":32,"Choice":32,"RT":541.6400000103749,"Accuracy":1,"Sham":0,"Outcome":"-1","Keys":[2042.4899999634363],"TotalKeys":1,"Block":2,"Trial":95,"Action":"Go","Robot":3,"trial_type":"pit-trial","trial_index":109,"time_elapsed":479691,"internal_node_id":"0.0-109.0"},{"Valence":"Win","Color":"#ffcc3399","Rune":"06","Correct":-1,"Choice":-1,"RT":-1,"Accuracy":1,"Sham":1,"Outcome":"1","Keys":[],"TotalKeys":0,"Block":2,"Trial":96,"Action":"No-Go","Robot":2,"trial_type":"pit-trial","trial_index":110,"time_elapsed":483695,"internal_node_id":"0.0-110.0"},{"Valence":"Lose","Color":"#3366ff99","Rune":"03","Correct":-1,"Choice":-1,"RT":-1,"Accuracy":1,"Sham":1,"Outcome":"-10","Keys":[],"TotalKeys":0,"Block":2,"Trial":97,"Action":"No-Go","Robot":4,"trial_type":"pit-trial","trial_index":111,"time_elapsed":487698,"internal_node_id":"0.0-111.0"},{"Valence":"Win","Color":"#ffcc3399","Rune":"05","Correct":32,"Choice":32,"RT":473.2450000010431,"Accuracy":1,"Sham":0,"Outcome":"+10","Keys":[1974.53000000678],"TotalKeys":1,"Block":2,"Trial":98,"Action":"Go","Robot":1,"trial_type":"pit-trial","trial_index":112,"time_elapsed":490676,"internal_node_id":"0.0-112.0"},{"Valence":"Lose","Color":"#3366ff99","Rune":"04","Correct":32,"Choice":32,"RT":316.8399999849498,"Accuracy":1,"Sham":0,"Outcome":"-1","Keys":[1818.3150000404567],"TotalKeys":1,"Block":2,"Trial":99,"Action":"Go","Robot":3,"trial_type":"pit-trial","trial_index":113,"time_elapsed":493497,"internal_node_id":"0.0-113.0"},{"Valence":"Win","Color":"#ffcc3399","Rune":"06","Correct":-1,"Choice":-1,"RT":-1,"Accuracy":1,"Sham":0,"Outcome":"+10","Keys":[],"TotalKeys":0,"Block":2,"Trial":100,"Action":"No-Go","Robot":2,"trial_type":"pit-trial","trial_index":114,"time_elapsed":497501,"internal_node_id":"0.0-114.0"},{"Valence":"Lose","Color":"#3366ff99","Rune":"03","Correct":-1,"Choice":-1,"RT":-1,"Accuracy":1,"Sham":0,"Outcome":"-1","Keys":[],"TotalKeys":0,"Block":2,"Trial":101,"Action":"No-Go","Robot":4,"trial_type":"pit-trial","trial_index":115,"time_elapsed":501506,"internal_node_id":"0.0-115.0"},{"Valence":"Lose","Color":"#3366ff99","Rune":"04","Correct":32,"Choice":32,"RT":336.6050000186078,"Accuracy":1,"Sham":0,"Outcome":"-1","Keys":[1838.385000010021],"TotalKeys":1,"Block":2,"Trial":102,"Action":"Go","Robot":3,"trial_type":"pit-trial","trial_index":116,"time_elapsed":504347,"internal_node_id":"0.0-116.0"},{"Valence":"Win","Color":"#ffcc3399","Rune":"05","Correct":32,"Choice":32,"RT":384.64500004192814,"Accuracy":1,"Sham":1,"Outcome":"1","Keys":[1891.1899999948218],"TotalKeys":1,"Block":2,"Trial":103,"Action":"Go","Robot":1,"trial_type":"pit-trial","trial_index":117,"time_elapsed":507242,"internal_node_id":"0.0-117.0"},{"Valence":"Win","Color":"#ffcc3399","Rune":"06","Correct":-1,"Choice":-1,"RT":-1,"Accuracy":1,"Sham":1,"Outcome":"1","Keys":[],"TotalKeys":0,"Block":2,"Trial":104,"Action":"No-Go","Robot":2,"trial_type":"pit-trial","trial_index":118,"time_elapsed":511247,"internal_node_id":"0.0-118.0"},{"Valence":"Lose","Color":"#3366ff99","Rune":"04","Correct":32,"Choice":32,"RT":514.5949999568984,"Accuracy":1,"Sham":0,"Outcome":"-1","Keys":[2015.9450000501238],"TotalKeys":1,"Block":2,"Trial":105,"Action":"Go","Robot":3,"trial_type":"pit-trial","trial_index":119,"time_elapsed":514265,"internal_node_id":"0.0-119.0"},{"Valence":"Win","Color":"#ffcc3399","Rune":"05","Correct":32,"Choice":32,"RT":370.5049999989569,"Accuracy":1,"Sham":0,"Outcome":"+10","Keys":[1870.8050000132062],"TotalKeys":1,"Block":2,"Trial":106,"Action":"Go","Robot":1,"trial_type":"pit-trial","trial_index":120,"time_elapsed":517139,"internal_node_id":"0.0-120.0"},{"Valence":"Win","Color":"#ffcc3399","Rune":"06","Correct":-1,"Choice":-1,"RT":-1,"Accuracy":1,"Sham":0,"Outcome":"+10","Keys":[],"TotalKeys":0,"Block":2,"Trial":107,"Action":"No-Go","Robot":2,"trial_type":"pit-trial","trial_index":121,"time_elapsed":521144,"internal_node_id":"0.0-121.0"},{"Valence":"Lose","Color":"#3366ff99","Rune":"03","Correct":-1,"Choice":-1,"RT":-1,"Accuracy":1,"Sham":0,"Outcome":"-1","Keys":[],"TotalKeys":0,"Block":2,"Trial":108,"Action":"No-Go","Robot":4,"trial_type":"pit-trial","trial_index":122,"time_elapsed":525149,"internal_node_id":"0.0-122.0"},{"Valence":"Win","Color":"#ffcc3399","Rune":"06","Correct":-1,"Choice":-1,"RT":-1,"Accuracy":1,"Sham":0,"Outcome":"+10","Keys":[],"TotalKeys":0,"Block":2,"Trial":109,"Action":"No-Go","Robot":2,"trial_type":"pit-trial","trial_index":123,"time_elapsed":529153,"internal_node_id":"0.0-123.0"},{"Valence":"Lose","Color":"#3366ff99","Rune":"03","Correct":-1,"Choice":-1,"RT":-1,"Accuracy":1,"Sham":0,"Outcome":"-1","Keys":[],"TotalKeys":0,"Block":2,"Trial":110,"Action":"No-Go","Robot":4,"trial_type":"pit-trial","trial_index":124,"time_elapsed":533158,"internal_node_id":"0.0-124.0"},{"Valence":"Win","Color":"#ffcc3399","Rune":"05","Correct":32,"Choice":32,"RT":446.0550000076182,"Accuracy":1,"Sham":0,"Outcome":"+10","Keys":[1946.590000006836],"TotalKeys":1,"Block":2,"Trial":111,"Action":"Go","Robot":1,"trial_type":"pit-trial","trial_index":125,"time_elapsed":536109,"internal_node_id":"0.0-125.0"},{"Valence":"Lose","Color":"#3366ff99","Rune":"04","Correct":32,"Choice":32,"RT":501.6349999932572,"Accuracy":1,"Sham":0,"Outcome":"-1","Keys":[2002.0500000100583],"TotalKeys":1,"Block":2,"Trial":112,"Action":"Go","Robot":3,"trial_type":"pit-trial","trial_index":126,"time_elapsed":539114,"internal_node_id":"0.0-126.0"},{"Valence":"Win","Color":"#ffcc3399","Rune":"06","Correct":-1,"Choice":-1,"RT":-1,"Accuracy":1,"Sham":0,"Outcome":"+10","Keys":[],"TotalKeys":0,"Block":2,"Trial":113,"Action":"No-Go","Robot":2,"trial_type":"pit-trial","trial_index":127,"time_elapsed":543118,"internal_node_id":"0.0-127.0"},{"Valence":"Lose","Color":"#3366ff99","Rune":"03","Correct":-1,"Choice":-1,"RT":-1,"Accuracy":1,"Sham":0,"Outcome":"-1","Keys":[],"TotalKeys":0,"Block":2,"Trial":114,"Action":"No-Go","Robot":4,"trial_type":"pit-trial","trial_index":128,"time_elapsed":547122,"internal_node_id":"0.0-128.0"},{"Valence":"Lose","Color":"#3366ff99","Rune":"04","Correct":32,"Choice":32,"RT":369.87500003306195,"Accuracy":1,"Sham":1,"Outcome":"-10","Keys":[1870.314999949187],"TotalKeys":1,"Block":2,"Trial":115,"Action":"Go","Robot":3,"trial_type":"pit-trial","trial_index":129,"time_elapsed":549996,"internal_node_id":"0.0-129.0"},{"Valence":"Win","Color":"#ffcc3399","Rune":"05","Correct":32,"Choice":32,"RT":565.9250000026077,"Accuracy":1,"Sham":0,"Outcome":"+10","Keys":[2067.0150000369176],"TotalKeys":1,"Block":2,"Trial":116,"Action":"Go","Robot":1,"trial_type":"pit-trial","trial_index":130,"time_elapsed":553066,"internal_node_id":"0.0-130.0"},{"Valence":"Lose","Color":"#3366ff99","Rune":"03","Correct":-1,"Choice":-1,"RT":-1,"Accuracy":1,"Sham":1,"Outcome":"-10","Keys":[],"TotalKeys":0,"Block":2,"Trial":117,"Action":"No-Go","Robot":4,"trial_type":"pit-trial","trial_index":131,"time_elapsed":557070,"internal_node_id":"0.0-131.0"},{"Valence":"Lose","Color":"#3366ff99","Rune":"04","Correct":32,"Choice":32,"RT":299.28500001551583,"Accuracy":1,"Sham":0,"Outcome":"-1","Keys":[1799.5499999960884],"TotalKeys":1,"Block":2,"Trial":118,"Action":"Go","Robot":3,"trial_type":"pit-trial","trial_index":132,"time_elapsed":559873,"internal_node_id":"0.0-132.0"},{"Valence":"Win","Color":"#ffcc3399","Rune":"06","Correct":-1,"Choice":-1,"RT":-1,"Accuracy":1,"Sham":0,"Outcome":"+10","Keys":[],"TotalKeys":0,"Block":2,"Trial":119,"Action":"No-Go","Robot":2,"trial_type":"pit-trial","trial_index":133,"time_elapsed":563877,"internal_node_id":"0.0-133.0"},{"Valence":"Win","Color":"#ffcc3399","Rune":"05","Correct":32,"Choice":32,"RT":502.67000001622364,"Accuracy":1,"Sham":0,"Outcome":"+10","Keys":[2003.725000016857],"TotalKeys":1,"Block":2,"Trial":120,"Action":"Go","Robot":1,"trial_type":"pit-trial","trial_index":134,"time_elapsed":566884,"internal_node_id":"0.0-134.0"},{"Valence":"Win","Color":"#ffcc3399","Rune":"06","Correct":-1,"Choice":-1,"RT":-1,"Accuracy":1,"Sham":0,"Outcome":"+10","Keys":[],"TotalKeys":0,"Block":2,"Trial":121,"Action":"No-Go","Robot":2,"trial_type":"pit-trial","trial_index":135,"time_elapsed":570887,"internal_node_id":"0.0-135.0"},{"Valence":"Lose","Color":"#3366ff99","Rune":"03","Correct":-1,"Choice":-1,"RT":-1,"Accuracy":1,"Sham":0,"Outcome":"-1","Keys":[],"TotalKeys":0,"Block":2,"Trial":122,"Action":"No-Go","Robot":4,"trial_type":"pit-trial","trial_index":136,"time_elapsed":574892,"internal_node_id":"0.0-136.0"},{"Valence":"Lose","Color":"#3366ff99","Rune":"04","Correct":32,"Choice":32,"RT":430.60000002151355,"Accuracy":1,"Sham":0,"Outcome":"-1","Keys":[1931.589999992866],"TotalKeys":1,"Block":2,"Trial":123,"Action":"Go","Robot":3,"trial_type":"pit-trial","trial_index":137,"time_elapsed":577828,"internal_node_id":"0.0-137.0"},{"Valence":"Win","Color":"#ffcc3399","Rune":"05","Correct":32,"Choice":32,"RT":470.3350000199862,"Accuracy":1,"Sham":1,"Outcome":"1","Keys":[1970.7850000122562],"TotalKeys":1,"Block":2,"Trial":124,"Action":"Go","Robot":1,"trial_type":"pit-trial","trial_index":138,"time_elapsed":580802,"internal_node_id":"0.0-138.0"},{"Valence":"Lose","Color":"#3366ff99","Rune":"04","Correct":32,"Choice":32,"RT":447.4400000181049,"Accuracy":1,"Sham":1,"Outcome":"-10","Keys":[1948.8499999861233],"TotalKeys":1,"Block":2,"Trial":125,"Action":"Go","Robot":3,"trial_type":"pit-trial","trial_index":139,"time_elapsed":583754,"internal_node_id":"0.0-139.0"},{"Valence":"Lose","Color":"#3366ff99","Rune":"03","Correct":-1,"Choice":-1,"RT":-1,"Accuracy":1,"Sham":0,"Outcome":"-1","Keys":[],"TotalKeys":0,"Block":2,"Trial":126,"Action":"No-Go","Robot":4,"trial_type":"pit-trial","trial_index":140,"time_elapsed":587756,"internal_node_id":"0.0-140.0"},{"Valence":"Win","Color":"#ffcc3399","Rune":"06","Correct":-1,"Choice":-1,"RT":-1,"Accuracy":1,"Sham":0,"Outcome":"+10","Keys":[],"TotalKeys":0,"Block":2,"Trial":127,"Action":"No-Go","Robot":2,"trial_type":"pit-trial","trial_index":141,"time_elapsed":591759,"internal_node_id":"0.0-141.0"},{"Valence":"Win","Color":"#ffcc3399","Rune":"05","Correct":32,"Choice":32,"RT":563.6950000189245,"Accuracy":1,"Sham":0,"Outcome":"+10","Keys":[2064.4399999873713],"TotalKeys":1,"Block":2,"Trial":128,"Action":"Go","Robot":1,"trial_type":"pit-trial","trial_index":142,"time_elapsed":594832,"internal_node_id":"0.0-142.0"},{"Valence":"Lose","Color":"#3366ff99","Rune":"03","Correct":-1,"Choice":-1,"RT":-1,"Accuracy":1,"Sham":0,"Outcome":"-1","Keys":[],"TotalKeys":0,"Block":2,"Trial":129,"Action":"No-Go","Robot":4,"trial_type":"pit-trial","trial_index":143,"time_elapsed":598836,"internal_node_id":"0.0-143.0"},{"Valence":"Win","Color":"#ffcc3399","Rune":"05","Correct":32,"Choice":32,"RT":526.2600000132807,"Accuracy":1,"Sham":0,"Outcome":"+10","Keys":[2026.6000000410713],"TotalKeys":1,"Block":2,"Trial":130,"Action":"Go","Robot":1,"trial_type":"pit-trial","trial_index":144,"time_elapsed":601865,"internal_node_id":"0.0-144.0"},{"Valence":"Lose","Color":"#3366ff99","Rune":"04","Correct":32,"Choice":32,"RT":545.6300000078045,"Accuracy":1,"Sham":0,"Outcome":"-1","Keys":[2047.5549999973737],"TotalKeys":1,"Block":2,"Trial":131,"Action":"Go","Robot":3,"trial_type":"pit-trial","trial_index":145,"time_elapsed":604915,"internal_node_id":"0.0-145.0"},{"Valence":"Win","Color":"#ffcc3399","Rune":"06","Correct":-1,"Choice":-1,"RT":-1,"Accuracy":1,"Sham":0,"Outcome":"+10","Keys":[],"TotalKeys":0,"Block":2,"Trial":132,"Action":"No-Go","Robot":2,"trial_type":"pit-trial","trial_index":146,"time_elapsed":608919,"internal_node_id":"0.0-146.0"},{"Valence":"Lose","Color":"#3366ff99","Rune":"03","Correct":-1,"Choice":-1,"RT":-1,"Accuracy":1,"Sham":0,"Outcome":"-1","Keys":[],"TotalKeys":0,"Block":2,"Trial":133,"Action":"No-Go","Robot":4,"trial_type":"pit-trial","trial_index":147,"time_elapsed":612922,"internal_node_id":"0.0-147.0"},{"Valence":"Win","Color":"#ffcc3399","Rune":"05","Correct":32,"Choice":32,"RT":425.5600000033155,"Accuracy":1,"Sham":0,"Outcome":"+10","Keys":[1926.6000000061467],"TotalKeys":1,"Block":2,"Trial":134,"Action":"Go","Robot":1,"trial_type":"pit-trial","trial_index":148,"time_elapsed":615851,"internal_node_id":"0.0-148.0"},{"Valence":"Lose","Color":"#3366ff99","Rune":"04","Correct":32,"Choice":32,"RT":526.030000008177,"Accuracy":1,"Sham":0,"Outcome":"-1","Keys":[2027.0149999996647],"TotalKeys":1,"Block":2,"Trial":135,"Action":"Go","Robot":3,"trial_type":"pit-trial","trial_index":149,"time_elapsed":618882,"internal_node_id":"0.0-149.0"},{"Valence":"Win","Color":"#ffcc3399","Rune":"06","Correct":-1,"Choice":-1,"RT":-1,"Accuracy":1,"Sham":0,"Outcome":"+10","Keys":[],"TotalKeys":0,"Block":2,"Trial":136,"Action":"No-Go","Robot":2,"trial_type":"pit-trial","trial_index":150,"time_elapsed":622886,"internal_node_id":"0.0-150.0"},{"Valence":"Lose","Color":"#3366ff99","Rune":"03","Correct":-1,"Choice":-1,"RT":-1,"Accuracy":1,"Sham":1,"Outcome":"-10","Keys":[],"TotalKeys":0,"Block":2,"Trial":137,"Action":"No-Go","Robot":4,"trial_type":"pit-trial","trial_index":151,"time_elapsed":626891,"internal_node_id":"0.0-151.0"},{"Valence":"Win","Color":"#ffcc3399","Rune":"05","Correct":32,"Choice":32,"RT":528.6949999863282,"Accuracy":1,"Sham":0,"Outcome":"+10","Keys":[2029.3999999994412],"TotalKeys":1,"Block":2,"Trial":138,"Action":"Go","Robot":1,"trial_type":"pit-trial","trial_index":152,"time_elapsed":629923,"internal_node_id":"0.0-152.0"},{"Valence":"Lose","Color":"#3366ff99","Rune":"04","Correct":32,"Choice":32,"RT":438.38000000687316,"Accuracy":1,"Sham":0,"Outcome":"-1","Keys":[1939.5800000056624],"TotalKeys":1,"Block":2,"Trial":139,"Action":"Go","Robot":3,"trial_type":"pit-trial","trial_index":153,"time_elapsed":632866,"internal_node_id":"0.0-153.0"},{"Valence":"Win","Color":"#ffcc3399","Rune":"06","Correct":-1,"Choice":-1,"RT":-1,"Accuracy":1,"Sham":1,"Outcome":"1","Keys":[],"TotalKeys":0,"Block":2,"Trial":140,"Action":"No-Go","Robot":2,"trial_type":"pit-trial","trial_index":154,"time_elapsed":636871,"internal_node_id":"0.0-154.0"},{"Valence":"Win","Color":"#ffcc3399","Rune":"06","Correct":-1,"Choice":-1,"RT":-1,"Accuracy":1,"Sham":1,"Outcome":"1","Keys":[],"TotalKeys":0,"Block":2,"Trial":141,"Action":"No-Go","Robot":2,"trial_type":"pit-trial","trial_index":155,"time_elapsed":640874,"internal_node_id":"0.0-155.0"},{"Valence":"Lose","Color":"#3366ff99","Rune":"04","Correct":32,"Choice":32,"RT":466.080000041984,"Accuracy":1,"Sham":0,"Outcome":"-1","Keys":[1966.405000013765],"TotalKeys":1,"Block":2,"Trial":142,"Action":"Go","Robot":3,"trial_type":"pit-trial","trial_index":156,"time_elapsed":643843,"internal_node_id":"0.0-156.0"},{"Valence":"Win","Color":"#ffcc3399","Rune":"05","Correct":32,"Choice":32,"RT":367.1500000054948,"Accuracy":1,"Sham":0,"Outcome":"+10","Keys":[1867.7000000025146],"TotalKeys":1,"Block":2,"Trial":143,"Action":"Go","Robot":1,"trial_type":"pit-trial","trial_index":157,"time_elapsed":646713,"internal_node_id":"0.0-157.0"},{"Valence":"Lose","Color":"#3366ff99","Rune":"03","Correct":-1,"Choice":-1,"RT":-1,"Accuracy":1,"Sham":0,"Outcome":"-1","Keys":[],"TotalKeys":0,"Block":2,"Trial":144,"Action":"No-Go","Robot":4,"trial_type":"pit-trial","trial_index":158,"time_elapsed":650717,"internal_node_id":"0.0-158.0"},{"Valence":"Lose","Color":"#3366ff99","Rune":"03","Correct":-1,"Choice":-1,"RT":-1,"Accuracy":1,"Sham":0,"Outcome":"-1","Keys":[],"TotalKeys":0,"Block":2,"Trial":145,"Action":"No-Go","Robot":4,"trial_type":"pit-trial","trial_index":159,"time_elapsed":654722,"internal_node_id":"0.0-159.0"},{"Valence":"Win","Color":"#ffcc3399","Rune":"05","Correct":32,"Choice":32,"RT":289.7749999538064,"Accuracy":1,"Sham":0,"Outcome":"+10","Keys":[1790.3800000203773],"TotalKeys":1,"Block":2,"Trial":146,"Action":"Go","Robot":1,"trial_type":"pit-trial","trial_index":160,"time_elapsed":657515,"internal_node_id":"0.0-160.0"},{"Valence":"Lose","Color":"#3366ff99","Rune":"04","Correct":32,"Choice":32,"RT":510.74499997776,"Accuracy":1,"Sham":0,"Outcome":"-1","Keys":[2011.4199999952689],"TotalKeys":1,"Block":2,"Trial":147,"Action":"Go","Robot":3,"trial_type":"pit-trial","trial_index":161,"time_elapsed":660531,"internal_node_id":"0.0-161.0"},{"Valence":"Win","Color":"#ffcc3399","Rune":"06","Correct":-1,"Choice":-1,"RT":-1,"Accuracy":1,"Sham":0,"Outcome":"+10","Keys":[],"TotalKeys":0,"Block":2,"Trial":148,"Action":"No-Go","Robot":2,"trial_type":"pit-trial","trial_index":162,"time_elapsed":664535,"internal_node_id":"0.0-162.0"},{"Valence":"Win","Color":"#ffcc3399","Rune":"06","Correct":-1,"Choice":-1,"RT":-1,"Accuracy":1,"Sham":0,"Outcome":"+10","Keys":[],"TotalKeys":0,"Block":2,"Trial":149,"Action":"No-Go","Robot":2,"trial_type":"pit-trial","trial_index":163,"time_elapsed":668545,"internal_node_id":"0.0-163.0"},{"Valence":"Lose","Color":"#3366ff99","Rune":"03","Correct":-1,"Choice":-1,"RT":-1,"Accuracy":1,"Sham":0,"Outcome":"-1","Keys":[],"TotalKeys":0,"Block":2,"Trial":150,"Action":"No-Go","Robot":4,"trial_type":"pit-trial","trial_index":164,"time_elapsed":672550,"internal_node_id":"0.0-164.0"},{"Valence":"Lose","Color":"#3366ff99","Rune":"04","Correct":32,"Choice":32,"RT":276.92500001285225,"Accuracy":1,"Sham":0,"Outcome":"-1","Keys":[1777.7849999838509],"TotalKeys":1,"Block":2,"Trial":151,"Action":"Go","Robot":3,"trial_type":"pit-trial","trial_index":165,"time_elapsed":675332,"internal_node_id":"0.0-165.0"},{"Valence":"Win","Color":"#ffcc3399","Rune":"05","Correct":32,"Choice":32,"RT":622.3199999658391,"Accuracy":1,"Sham":0,"Outcome":"+10","Keys":[2123.005000001285],"TotalKeys":1,"Block":2,"Trial":152,"Action":"Go","Robot":1,"trial_type":"pit-trial","trial_index":166,"time_elapsed":678458,"internal_node_id":"0.0-166.0"},{"Valence":"Win","Color":"#ffcc3399","Rune":"05","Correct":32,"Choice":32,"RT":479.9099999945611,"Accuracy":1,"Sham":0,"Outcome":"+10","Keys":[1980.3949999623],"TotalKeys":1,"Block":2,"Trial":153,"Action":"Go","Robot":1,"trial_type":"pit-trial","trial_index":167,"time_elapsed":681441,"internal_node_id":"0.0-167.0"},{"Valence":"Lose","Color":"#3366ff99","Rune":"03","Correct":-1,"Choice":-1,"RT":-1,"Accuracy":1,"Sham":0,"Outcome":"-1","Keys":[],"TotalKeys":0,"Block":2,"Trial":154,"Action":"No-Go","Robot":4,"trial_type":"pit-trial","trial_index":168,"time_elapsed":685445,"internal_node_id":"0.0-168.0"},{"Valence":"Lose","Color":"#3366ff99","Rune":"04","Correct":32,"Choice":32,"RT":430.3100000252016,"Accuracy":1,"Sham":0,"Outcome":"-1","Keys":[1931.3250000122935],"TotalKeys":1,"Block":2,"Trial":155,"Action":"Go","Robot":3,"trial_type":"pit-trial","trial_index":169,"time_elapsed":688379,"internal_node_id":"0.0-169.0"},{"Valence":"Win","Color":"#ffcc3399","Rune":"06","Correct":-1,"Choice":-1,"RT":-1,"Accuracy":1,"Sham":0,"Outcome":"+10","Keys":[],"TotalKeys":0,"Block":2,"Trial":156,"Action":"No-Go","Robot":2,"trial_type":"pit-trial","trial_index":170,"time_elapsed":692384,"internal_node_id":"0.0-170.0"},{"Valence":"Lose","Color":"#3366ff99","Rune":"04","Correct":32,"Choice":32,"RT":489.9299999815412,"Accuracy":1,"Sham":1,"Outcome":"-10","Keys":[1990.2550000115298],"TotalKeys":1,"Block":2,"Trial":157,"Action":"Go","Robot":3,"trial_type":"pit-trial","trial_index":171,"time_elapsed":695378,"internal_node_id":"0.0-171.0"},{"Valence":"Lose","Color":"#3366ff99","Rune":"03","Correct":-1,"Choice":-1,"RT":-1,"Accuracy":1,"Sham":1,"Outcome":"-10","Keys":[],"TotalKeys":0,"Block":2,"Trial":158,"Action":"No-Go","Robot":4,"trial_type":"pit-trial","trial_index":172,"time_elapsed":699381,"internal_node_id":"0.0-172.0"},{"Valence":"Win","Color":"#ffcc3399","Rune":"06","Correct":-1,"Choice":-1,"RT":-1,"Accuracy":1,"Sham":0,"Outcome":"+10","Keys":[],"TotalKeys":0,"Block":2,"Trial":159,"Action":"No-Go","Robot":2,"trial_type":"pit-trial","trial_index":173,"time_elapsed":703386,"internal_node_id":"0.0-173.0"},{"Valence":"Win","Color":"#ffcc3399","Rune":"05","Correct":32,"Choice":32,"RT":497.7450000005774,"Accuracy":1,"Sham":1,"Outcome":"1","Keys":[1998.4849999891594],"TotalKeys":1,"Block":2,"Trial":160,"Action":"Go","Robot":1,"trial_type":"pit-trial","trial_index":174,"time_elapsed":706388,"internal_node_id":"0.0-174.0"},{"rt":17435.590000008233,"demographics":{"age":"56","gender-categorical":"Male","ethnicity":"Not Hispanic or Latino","race":"White","english":"Yes","fluency":"Very well"},"trial_type":"survey-demo","trial_index":175,"time_elapsed":723827,"internal_node_id":"0.0-175.0"},{"rt":20311.270000005607,"debriefgraphics":{"difficulty":"4","fun":"3","clarity":"5","strategy":"No","feedback":""},"trial_type":"survey-debrief","trial_index":176,"time_elapsed":744141,"internal_node_id":"0.0-176.0","interactions":"[]"}]