[{"view_history":"[{\"page_index\":0,\"viewing_time\":2054.710000054911},{\"page_index\":1,\"viewing_time\":3265.644999919459},{\"page_index\":2,\"viewing_time\":16977.62000001967},{\"page_index\":3,\"viewing_time\":7743.634999962524},{\"page_index\":4,\"viewing_time\":4640.865000197664}]","rt":34684.589999960735,"trial_type":"pit-instructions","trial_index":0,"time_elapsed":34689,"internal_node_id":"0.0-0.0"},{"Valence":"Practice","Color":"#fffff080","Rune":"01","Correct":32,"Choice":32,"RT":491.209999890998,"Accuracy":1,"Sham":0,"Outcome":"+10","Keys":[1992.8699999582022],"TotalKeys":1,"trial_type":"pit-trial","trial_index":1,"time_elapsed":37704,"internal_node_id":"0.0-1.0"},{"Valence":"Practice","Color":"#fffff080","Rune":"01","Correct":32,"Choice":32,"RT":345.509999897331,"Accuracy":1,"Sham":0,"Outcome":"+10","Keys":[1847.5550001021475],"TotalKeys":1,"trial_type":"pit-trial","trial_index":2,"time_elapsed":40574,"internal_node_id":"0.0-2.0"},{"Valence":"Practice","Color":"#fffff080","Rune":"01","Correct":32,"Choice":32,"RT":43.800000101327896,"Accuracy":1,"Sham":0,"Outcome":"+10","Keys":[1544.370000017807],"TotalKeys":1,"trial_type":"pit-trial","trial_index":3,"time_elapsed":43140,"internal_node_id":"0.0-3.0"},{"Valence":"Practice","Color":"#fffff080","Rune":"01","Correct":32,"Choice":32,"RT":274.3650001939386,"Accuracy":1,"Sham":0,"Outcome":"+10","Keys":[1776.2050000019372],"TotalKeys":1,"trial_type":"pit-trial","trial_index":4,"time_elapsed":45940,"internal_node_id":"0.0-4.0"},{"view_history":"[{\"page_index\":0,\"viewing_time\":7470.849999925122}]","rt":7471.764999907464,"trial_type":"pit-instructions","trial_index":5,"time_elapsed":53428,"internal_node_id":"0.0-5.0"},{"Valence":"Practice","Color":"#fffff080","Rune":"02","Correct":-1,"Choice":-1,"RT":-1,"Accuracy":1,"Sham":0,"Outcome":"+10","Keys":[],"TotalKeys":0,"trial_type":"pit-trial","trial_index":6,"time_elapsed":57459,"internal_node_id":"0.0-6.0"},{"Valence":"Practice","Color":"#fffff080","Rune":"02","Correct":-1,"Choice":-1,"RT":-1,"Accuracy":1,"Sham":0,"Outcome":"+10","Keys":[],"TotalKeys":0,"trial_type":"pit-trial","trial_index":7,"time_elapsed":61486,"internal_node_id":"0.0-7.0"},{"Valence":"Practice","Color":"#fffff080","Rune":"02","Correct":-1,"Choice":-1,"RT":-1,"Accuracy":1,"Sham":0,"Outcome":"+10","Keys":[],"TotalKeys":0,"trial_type":"pit-trial","trial_index":8,"time_elapsed":65549,"internal_node_id":"0.0-8.0"},{"Valence":"Practice","Color":"#fffff080","Rune":"02","Correct":-1,"Choice":-1,"RT":-1,"Accuracy":1,"Sham":0,"Outcome":"+10","Keys":[],"TotalKeys":0,"trial_type":"pit-trial","trial_index":9,"time_elapsed":69578,"internal_node_id":"0.0-9.0"},{"view_history":"[{\"page_index\":0,\"viewing_time\":3597.9150000493973},{\"page_index\":1,\"viewing_time\":6089.674999937415},{\"page_index\":2,\"viewing_time\":1471.4650001842529},{\"page_index\":3,\"viewing_time\":6849.844999844208},{\"page_index\":4,\"viewing_time\":8686.740000033751},{\"page_index\":5,\"viewing_time\":3297.874999931082},{\"page_index\":6,\"viewing_time\":2521.3050001766533},{\"page_index\":7,\"viewing_time\":1871.809999924153}]","rt":34387.38000020385,"trial_type":"pit-instructions","trial_index":10,"time_elapsed":103984,"internal_node_id":"0.0-10.0"},{"rt":23475.300000049174,"responses":"{\"no-press\":\"Do nothing\",\"context-win\":\"+10\",\"context-lose\":\"-1\",\"feedback\":\"True\"}","errors":1,"trial_type":"pit-comprehension","trial_index":11,"time_elapsed":127401,"internal_node_id":"0.0-11.0"},{"view_history":"[{\"page_index\":0,\"viewing_time\":4480.345000047237}]","rt":4481.090000132099,"trial_type":"pit-instructions","trial_index":12,"time_elapsed":131903,"internal_node_id":"0.0-12.0"},{"Valence":"Win","Color":"#3366ff99","Rune":"03","Correct":-1,"Choice":32,"RT":666.2850000429899,"Accuracy":0,"Sham":0,"Outcome":"+1","Keys":[2167.284999974072],"TotalKeys":1,"Block":1,"Trial":1,"Action":"No-Go","Robot":2,"trial_type":"pit-trial","trial_index":13,"time_elapsed":135095,"internal_node_id":"0.0-13.0"},{"Valence":"Lose","Color":"#ffcc3399","Rune":"06","Correct":32,"Choice":32,"RT":637.0500000193715,"Accuracy":1,"Sham":0,"Outcome":"-1","Keys":[2141.3900000043213],"TotalKeys":1,"Block":1,"Trial":2,"Action":"Go","Robot":3,"trial_type":"pit-trial","trial_index":14,"time_elapsed":138258,"internal_node_id":"0.0-14.0"},{"Valence":"Lose","Color":"#ffcc3399","Rune":"05","Correct":-1,"Choice":-1,"RT":-1,"Accuracy":1,"Sham":0,"Outcome":"-1","Keys":[],"TotalKeys":0,"Block":1,"Trial":3,"Action":"No-Go","Robot":4,"trial_type":"pit-trial","trial_index":15,"time_elapsed":142282,"internal_node_id":"0.0-15.0"},{"Valence":"Win","Color":"#3366ff99","Rune":"04","Correct":32,"Choice":32,"RT":748.5150001011789,"Accuracy":1,"Sham":0,"Outcome":"+10","Keys":[2249.0599998272955],"TotalKeys":1,"Block":1,"Trial":4,"Action":"Go","Robot":1,"trial_type":"pit-trial","trial_index":16,"time_elapsed":145559,"internal_node_id":"0.0-16.0"},{"Valence":"Lose","Color":"#ffcc3399","Rune":"06","Correct":32,"Choice":-1,"RT":-1,"Accuracy":0,"Sham":1,"Outcome":"-1","Keys":[],"TotalKeys":0,"Block":1,"Trial":5,"Action":"Go","Robot":3,"trial_type":"pit-trial","trial_index":17,"time_elapsed":149585,"internal_node_id":"0.0-17.0"},{"Valence":"Lose","Color":"#ffcc3399","Rune":"05","Correct":-1,"Choice":32,"RT":916.8100000824779,"Accuracy":0,"Sham":0,"Outcome":"-10","Keys":[2417.030000127852],"TotalKeys":1,"Block":1,"Trial":6,"Action":"No-Go","Robot":4,"trial_type":"pit-trial","trial_index":18,"time_elapsed":153027,"internal_node_id":"0.0-18.0"},{"Valence":"Win","Color":"#3366ff99","Rune":"04","Correct":32,"Choice":32,"RT":566.690000006929,"Accuracy":1,"Sham":0,"Outcome":"+10","Keys":[2068.459999980405],"TotalKeys":1,"Block":1,"Trial":7,"Action":"Go","Robot":1,"trial_type":"pit-trial","trial_index":19,"time_elapsed":156115,"internal_node_id":"0.0-19.0"},{"Valence":"Win","Color":"#3366ff99","Rune":"03","Correct":-1,"Choice":32,"RT":587.5650001689792,"Accuracy":0,"Sham":0,"Outcome":"+1","Keys":[2087.7200001850724],"TotalKeys":1,"Block":1,"Trial":8,"Action":"No-Go","Robot":2,"trial_type":"pit-trial","trial_index":20,"time_elapsed":159228,"internal_node_id":"0.0-20.0"},{"Valence":"Win","Color":"#3366ff99","Rune":"04","Correct":32,"Choice":32,"RT":568.6699999496341,"Accuracy":1,"Sham":0,"Outcome":"+10","Keys":[2068.995000096038],"TotalKeys":1,"Block":1,"Trial":9,"Action":"Go","Robot":1,"trial_type":"pit-trial","trial_index":21,"time_elapsed":162319,"internal_node_id":"0.0-21.0"},{"Valence":"Lose","Color":"#ffcc3399","Rune":"06","Correct":32,"Choice":-1,"RT":-1,"Accuracy":0,"Sham":0,"Outcome":"-10","Keys":[],"TotalKeys":0,"Block":1,"Trial":10,"Action":"Go","Robot":3,"trial_type":"pit-trial","trial_index":22,"time_elapsed":166346,"internal_node_id":"0.0-22.0"},{"Valence":"Win","Color":"#3366ff99","Rune":"03","Correct":-1,"Choice":32,"RT":690.6350001227111,"Accuracy":0,"Sham":0,"Outcome":"+1","Keys":[2191.4800000377],"TotalKeys":1,"Block":1,"Trial":11,"Action":"No-Go","Robot":2,"trial_type":"pit-trial","trial_index":23,"time_elapsed":169563,"internal_node_id":"0.0-23.0"},{"Valence":"Lose","Color":"#ffcc3399","Rune":"05","Correct":-1,"Choice":32,"RT":965.4249998275191,"Accuracy":0,"Sham":0,"Outcome":"-10","Keys":[2466.444999910891],"TotalKeys":1,"Block":1,"Trial":12,"Action":"No-Go","Robot":4,"trial_type":"pit-trial","trial_index":24,"time_elapsed":173051,"internal_node_id":"0.0-24.0"},{"Valence":"Win","Color":"#3366ff99","Rune":"04","Correct":32,"Choice":32,"RT":464.6450001746416,"Accuracy":1,"Sham":0,"Outcome":"+10","Keys":[1965.5349999666214],"TotalKeys":1,"Block":1,"Trial":13,"Action":"Go","Robot":1,"trial_type":"pit-trial","trial_index":25,"time_elapsed":176037,"internal_node_id":"0.0-25.0"},{"Valence":"Win","Color":"#3366ff99","Rune":"03","Correct":-1,"Choice":32,"RT":1019.5750000420958,"Accuracy":0,"Sham":0,"Outcome":"+1","Keys":[2519.8749999981374],"TotalKeys":1,"Block":1,"Trial":14,"Action":"No-Go","Robot":2,"trial_type":"pit-trial","trial_index":26,"time_elapsed":179583,"internal_node_id":"0.0-26.0"},{"Valence":"Lose","Color":"#ffcc3399","Rune":"06","Correct":32,"Choice":32,"RT":837.5999999698251,"Accuracy":1,"Sham":0,"Outcome":"-1","Keys":[2341.264999937266],"TotalKeys":1,"Block":1,"Trial":15,"Action":"Go","Robot":3,"trial_type":"pit-trial","trial_index":27,"time_elapsed":182948,"internal_node_id":"0.0-27.0"},{"Valence":"Lose","Color":"#ffcc3399","Rune":"05","Correct":-1,"Choice":32,"RT":820.890000090003,"Accuracy":0,"Sham":1,"Outcome":"-1","Keys":[2323.1500000692904],"TotalKeys":1,"Block":1,"Trial":16,"Action":"No-Go","Robot":4,"trial_type":"pit-trial","trial_index":28,"time_elapsed":186290,"internal_node_id":"0.0-28.0"},{"Valence":"Win","Color":"#3366ff99","Rune":"04","Correct":32,"Choice":32,"RT":495.1949999667704,"Accuracy":1,"Sham":1,"Outcome":"1","Keys":[1998.484999872744],"TotalKeys":1,"Block":1,"Trial":17,"Action":"Go","Robot":1,"trial_type":"pit-trial","trial_index":29,"time_elapsed":189312,"internal_node_id":"0.0-29.0"},{"Valence":"Lose","Color":"#ffcc3399","Rune":"06","Correct":32,"Choice":32,"RT":1088.5449999477714,"Accuracy":1,"Sham":0,"Outcome":"-1","Keys":[2588.854999979958],"TotalKeys":1,"Block":1,"Trial":18,"Action":"Go","Robot":3,"trial_type":"pit-trial","trial_index":30,"time_elapsed":192923,"internal_node_id":"0.0-30.0"},{"Valence":"Win","Color":"#3366ff99","Rune":"03","Correct":-1,"Choice":32,"RT":791.8749998789281,"Accuracy":0,"Sham":1,"Outcome":"+10","Keys":[2292.399999918416],"TotalKeys":1,"Block":1,"Trial":19,"Action":"No-Go","Robot":2,"trial_type":"pit-trial","trial_index":31,"time_elapsed":196240,"internal_node_id":"0.0-31.0"},{"Valence":"Lose","Color":"#ffcc3399","Rune":"05","Correct":-1,"Choice":-1,"RT":-1,"Accuracy":1,"Sham":0,"Outcome":"-1","Keys":[],"TotalKeys":0,"Block":1,"Trial":20,"Action":"No-Go","Robot":4,"trial_type":"pit-trial","trial_index":32,"time_elapsed":200266,"internal_node_id":"0.0-32.0"},{"Valence":"Lose","Color":"#ffcc3399","Rune":"05","Correct":-1,"Choice":32,"RT":822.7900001220405,"Accuracy":0,"Sham":0,"Outcome":"-10","Keys":[2323.835000162944],"TotalKeys":1,"Block":1,"Trial":21,"Action":"No-Go","Robot":4,"trial_type":"pit-trial","trial_index":33,"time_elapsed":203615,"internal_node_id":"0.0-33.0"},{"Valence":"Win","Color":"#3366ff99","Rune":"03","Correct":-1,"Choice":32,"RT":449.070000089705,"Accuracy":0,"Sham":0,"Outcome":"+1","Keys":[1949.5299998670816],"TotalKeys":1,"Block":1,"Trial":22,"Action":"No-Go","Robot":2,"trial_type":"pit-trial","trial_index":34,"time_elapsed":206587,"internal_node_id":"0.0-34.0"},{"Valence":"Win","Color":"#3366ff99","Rune":"04","Correct":32,"Choice":32,"RT":338.26999994926155,"Accuracy":1,"Sham":0,"Outcome":"+10","Keys":[1838.4599999990314],"TotalKeys":1,"Block":1,"Trial":23,"Action":"Go","Robot":1,"trial_type":"pit-trial","trial_index":35,"time_elapsed":209450,"internal_node_id":"0.0-35.0"},{"Valence":"Lose","Color":"#ffcc3399","Rune":"06","Correct":32,"Choice":32,"RT":867.2449998557568,"Accuracy":1,"Sham":0,"Outcome":"-1","Keys":[2369.674999965355],"TotalKeys":1,"Block":1,"Trial":24,"Action":"Go","Robot":3,"trial_type":"pit-trial","trial_index":36,"time_elapsed":212845,"internal_node_id":"0.0-36.0"},{"Valence":"Lose","Color":"#ffcc3399","Rune":"05","Correct":-1,"Choice":-1,"RT":-1,"Accuracy":1,"Sham":0,"Outcome":"-1","Keys":[],"TotalKeys":0,"Block":1,"Trial":25,"Action":"No-Go","Robot":4,"trial_type":"pit-trial","trial_index":37,"time_elapsed":216869,"internal_node_id":"0.0-37.0"},{"Valence":"Win","Color":"#3366ff99","Rune":"04","Correct":32,"Choice":32,"RT":287.0399998500943,"Accuracy":1,"Sham":0,"Outcome":"+10","Keys":[1787.8449999261647],"TotalKeys":1,"Block":1,"Trial":26,"Action":"Go","Robot":1,"trial_type":"pit-trial","trial_index":38,"time_elapsed":219674,"internal_node_id":"0.0-38.0"},{"Valence":"Lose","Color":"#ffcc3399","Rune":"06","Correct":32,"Choice":-1,"RT":-1,"Accuracy":0,"Sham":0,"Outcome":"-10","Keys":[],"TotalKeys":0,"Block":1,"Trial":27,"Action":"Go","Robot":3,"trial_type":"pit-trial","trial_index":39,"time_elapsed":223697,"internal_node_id":"0.0-39.0"},{"Valence":"Win","Color":"#3366ff99","Rune":"03","Correct":-1,"Choice":32,"RT":495.80999999307096,"Accuracy":0,"Sham":0,"Outcome":"+1","Keys":[1997.535000089556],"TotalKeys":1,"Block":1,"Trial":28,"Action":"No-Go","Robot":2,"trial_type":"pit-trial","trial_index":40,"time_elapsed":226719,"internal_node_id":"0.0-40.0"},{"Valence":"Lose","Color":"#ffcc3399","Rune":"06","Correct":32,"Choice":32,"RT":813.7199999764562,"Accuracy":1,"Sham":0,"Outcome":"-1","Keys":[2314.364999998361],"TotalKeys":1,"Block":1,"Trial":29,"Action":"Go","Robot":3,"trial_type":"pit-trial","trial_index":41,"time_elapsed":230059,"internal_node_id":"0.0-41.0"},{"Valence":"Win","Color":"#3366ff99","Rune":"03","Correct":-1,"Choice":32,"RT":543.0199999827892,"Accuracy":0,"Sham":1,"Outcome":"+10","Keys":[2043.949999846518],"TotalKeys":1,"Block":1,"Trial":30,"Action":"No-Go","Robot":2,"trial_type":"pit-trial","trial_index":42,"time_elapsed":233121,"internal_node_id":"0.0-42.0"},{"Valence":"Win","Color":"#3366ff99","Rune":"04","Correct":32,"Choice":32,"RT":700.8500001393259,"Accuracy":1,"Sham":1,"Outcome":"1","Keys":[2202.9699999839067],"TotalKeys":1,"Block":1,"Trial":31,"Action":"Go","Robot":1,"trial_type":"pit-trial","trial_index":43,"time_elapsed":236350,"internal_node_id":"0.0-43.0"},{"Valence":"Lose","Color":"#ffcc3399","Rune":"05","Correct":-1,"Choice":-1,"RT":-1,"Accuracy":1,"Sham":0,"Outcome":"-1","Keys":[],"TotalKeys":0,"Block":1,"Trial":32,"Action":"No-Go","Robot":4,"trial_type":"pit-trial","trial_index":44,"time_elapsed":240372,"internal_node_id":"0.0-44.0"},{"Valence":"Lose","Color":"#ffcc3399","Rune":"05","Correct":-1,"Choice":-1,"RT":-1,"Accuracy":1,"Sham":0,"Outcome":"-1","Keys":[],"TotalKeys":0,"Block":1,"Trial":33,"Action":"No-Go","Robot":4,"trial_type":"pit-trial","trial_index":45,"time_elapsed":244401,"internal_node_id":"0.0-45.0"},{"Valence":"Win","Color":"#3366ff99","Rune":"03","Correct":-1,"Choice":32,"RT":649.0299999713898,"Accuracy":0,"Sham":0,"Outcome":"+1","Keys":[2149.205000139773],"TotalKeys":1,"Block":1,"Trial":34,"Action":"No-Go","Robot":2,"trial_type":"pit-trial","trial_index":46,"time_elapsed":247575,"internal_node_id":"0.0-46.0"},{"Valence":"Win","Color":"#3366ff99","Rune":"04","Correct":32,"Choice":32,"RT":424.9299999792129,"Accuracy":1,"Sham":0,"Outcome":"+10","Keys":[1926.2250000610948],"TotalKeys":1,"Block":1,"Trial":35,"Action":"Go","Robot":1,"trial_type":"pit-trial","trial_index":47,"time_elapsed":250526,"internal_node_id":"0.0-47.0"},{"Valence":"Lose","Color":"#ffcc3399","Rune":"06","Correct":32,"Choice":-1,"RT":-1,"Accuracy":0,"Sham":1,"Outcome":"-1","Keys":[],"TotalKeys":0,"Block":1,"Trial":36,"Action":"Go","Robot":3,"trial_type":"pit-trial","trial_index":48,"time_elapsed":254552,"internal_node_id":"0.0-48.0"},{"Valence":"Lose","Color":"#ffcc3399","Rune":"05","Correct":-1,"Choice":-1,"RT":-1,"Accuracy":1,"Sham":1,"Outcome":"-10","Keys":[],"TotalKeys":0,"Block":1,"Trial":37,"Action":"No-Go","Robot":4,"trial_type":"pit-trial","trial_index":49,"time_elapsed":258581,"internal_node_id":"0.0-49.0"},{"Valence":"Lose","Color":"#ffcc3399","Rune":"06","Correct":32,"Choice":-1,"RT":-1,"Accuracy":0,"Sham":0,"Outcome":"-10","Keys":[],"TotalKeys":0,"Block":1,"Trial":38,"Action":"Go","Robot":3,"trial_type":"pit-trial","trial_index":50,"time_elapsed":262605,"internal_node_id":"0.0-50.0"},{"Valence":"Win","Color":"#3366ff99","Rune":"04","Correct":32,"Choice":32,"RT":381.8500000052154,"Accuracy":1,"Sham":0,"Outcome":"+10","Keys":[1882.0350000169128],"TotalKeys":1,"Block":1,"Trial":39,"Action":"Go","Robot":1,"trial_type":"pit-trial","trial_index":51,"time_elapsed":265508,"internal_node_id":"0.0-51.0"},{"Valence":"Win","Color":"#3366ff99","Rune":"03","Correct":-1,"Choice":32,"RT":405.5800000205636,"Accuracy":0,"Sham":0,"Outcome":"+1","Keys":[1905.670000007376],"TotalKeys":1,"Block":1,"Trial":40,"Action":"No-Go","Robot":2,"trial_type":"pit-trial","trial_index":52,"time_elapsed":268437,"internal_node_id":"0.0-52.0"},{"Valence":"Lose","Color":"#ffcc3399","Rune":"06","Correct":32,"Choice":32,"RT":631.7000000271946,"Accuracy":1,"Sham":1,"Outcome":"-10","Keys":[2134.8600001074374],"TotalKeys":1,"Block":1,"Trial":41,"Action":"Go","Robot":3,"trial_type":"pit-trial","trial_index":53,"time_elapsed":271597,"internal_node_id":"0.0-53.0"},{"Valence":"Win","Color":"#3366ff99","Rune":"03","Correct":-1,"Choice":32,"RT":550.0599998049438,"Accuracy":0,"Sham":0,"Outcome":"+1","Keys":[2051.3949999585748],"TotalKeys":1,"Block":1,"Trial":42,"Action":"No-Go","Robot":2,"trial_type":"pit-trial","trial_index":54,"time_elapsed":274671,"internal_node_id":"0.0-54.0"},{"Valence":"Lose","Color":"#ffcc3399","Rune":"05","Correct":-1,"Choice":32,"RT":571.3899999391288,"Accuracy":0,"Sham":0,"Outcome":"-10","Keys":[2071.5699999127537],"TotalKeys":1,"Block":1,"Trial":43,"Action":"No-Go","Robot":4,"trial_type":"pit-trial","trial_index":55,"time_elapsed":277767,"internal_node_id":"0.0-55.0"},{"Valence":"Win","Color":"#3366ff99","Rune":"04","Correct":32,"Choice":32,"RT":585.844999877736,"Accuracy":1,"Sham":0,"Outcome":"+10","Keys":[2088.5199999902397],"TotalKeys":1,"Block":1,"Trial":44,"Action":"Go","Robot":1,"trial_type":"pit-trial","trial_index":56,"time_elapsed":280878,"internal_node_id":"0.0-56.0"},{"Valence":"Lose","Color":"#ffcc3399","Rune":"05","Correct":-1,"Choice":-1,"RT":-1,"Accuracy":1,"Sham":0,"Outcome":"-1","Keys":[],"TotalKeys":0,"Block":1,"Trial":45,"Action":"No-Go","Robot":4,"trial_type":"pit-trial","trial_index":57,"time_elapsed":284901,"internal_node_id":"0.0-57.0"},{"Valence":"Win","Color":"#3366ff99","Rune":"03","Correct":-1,"Choice":32,"RT":483.40000002644956,"Accuracy":0,"Sham":1,"Outcome":"+10","Keys":[1984.9150001537055],"TotalKeys":1,"Block":1,"Trial":46,"Action":"No-Go","Robot":2,"trial_type":"pit-trial","trial_index":58,"time_elapsed":287910,"internal_node_id":"0.0-58.0"},{"Valence":"Lose","Color":"#ffcc3399","Rune":"06","Correct":32,"Choice":-1,"RT":-1,"Accuracy":0,"Sham":0,"Outcome":"-10","Keys":[],"TotalKeys":0,"Block":1,"Trial":47,"Action":"Go","Robot":3,"trial_type":"pit-trial","trial_index":59,"time_elapsed":291933,"internal_node_id":"0.0-59.0"},{"Valence":"Win","Color":"#3366ff99","Rune":"04","Correct":32,"Choice":32,"RT":339.81999987736344,"Accuracy":1,"Sham":0,"Outcome":"+10","Keys":[1841.234999941662],"TotalKeys":1,"Block":1,"Trial":48,"Action":"Go","Robot":1,"trial_type":"pit-trial","trial_index":60,"time_elapsed":294793,"internal_node_id":"0.0-60.0"},{"Valence":"Lose","Color":"#ffcc3399","Rune":"05","Correct":-1,"Choice":32,"RT":628.9749999996275,"Accuracy":0,"Sham":0,"Outcome":"-10","Keys":[2129.274999955669],"TotalKeys":1,"Block":1,"Trial":49,"Action":"No-Go","Robot":4,"trial_type":"pit-trial","trial_index":61,"time_elapsed":297945,"internal_node_id":"0.0-61.0"},{"Valence":"Win","Color":"#3366ff99","Rune":"04","Correct":32,"Choice":32,"RT":407.90500002913177,"Accuracy":1,"Sham":0,"Outcome":"+10","Keys":[1908.49499986507],"TotalKeys":1,"Block":1,"Trial":50,"Action":"Go","Robot":1,"trial_type":"pit-trial","trial_index":62,"time_elapsed":300877,"internal_node_id":"0.0-62.0"},{"Valence":"Win","Color":"#3366ff99","Rune":"03","Correct":-1,"Choice":32,"RT":429.31500007398427,"Accuracy":0,"Sham":0,"Outcome":"+1","Keys":[1931.4099999610335],"TotalKeys":1,"Block":1,"Trial":51,"Action":"No-Go","Robot":2,"trial_type":"pit-trial","trial_index":63,"time_elapsed":303830,"internal_node_id":"0.0-63.0"},{"Valence":"Lose","Color":"#ffcc3399","Rune":"06","Correct":32,"Choice":-1,"RT":-1,"Accuracy":0,"Sham":0,"Outcome":"-10","Keys":[],"TotalKeys":0,"Block":1,"Trial":52,"Action":"Go","Robot":3,"trial_type":"pit-trial","trial_index":64,"time_elapsed":307859,"internal_node_id":"0.0-64.0"},{"Valence":"Win","Color":"#3366ff99","Rune":"03","Correct":-1,"Choice":32,"RT":493.1449999567121,"Accuracy":0,"Sham":0,"Outcome":"+1","Keys":[1993.7950000166893],"TotalKeys":1,"Block":1,"Trial":53,"Action":"No-Go","Robot":2,"trial_type":"pit-trial","trial_index":65,"time_elapsed":310877,"internal_node_id":"0.0-65.0"},{"Valence":"Lose","Color":"#ffcc3399","Rune":"06","Correct":32,"Choice":32,"RT":441.26500003039837,"Accuracy":1,"Sham":0,"Outcome":"-1","Keys":[1941.5049999952316],"TotalKeys":1,"Block":1,"Trial":54,"Action":"Go","Robot":3,"trial_type":"pit-trial","trial_index":66,"time_elapsed":313836,"internal_node_id":"0.0-66.0"},{"Valence":"Lose","Color":"#ffcc3399","Rune":"05","Correct":-1,"Choice":32,"RT":524.7849998995662,"Accuracy":0,"Sham":0,"Outcome":"-10","Keys":[2027.500000083819],"TotalKeys":1,"Block":1,"Trial":55,"Action":"No-Go","Robot":4,"trial_type":"pit-trial","trial_index":67,"time_elapsed":316883,"internal_node_id":"0.0-67.0"},{"Valence":"Win","Color":"#3366ff99","Rune":"04","Correct":32,"Choice":32,"RT":334.7300000023097,"Accuracy":1,"Sham":0,"Outcome":"+10","Keys":[1837.2250001411885],"TotalKeys":1,"Block":1,"Trial":56,"Action":"Go","Robot":1,"trial_type":"pit-trial","trial_index":68,"time_elapsed":319749,"internal_node_id":"0.0-68.0"},{"Valence":"Win","Color":"#3366ff99","Rune":"04","Correct":32,"Choice":32,"RT":231.8399997893721,"Accuracy":1,"Sham":1,"Outcome":"1","Keys":[1733.2200000528246],"TotalKeys":1,"Block":1,"Trial":57,"Action":"Go","Robot":1,"trial_type":"pit-trial","trial_index":69,"time_elapsed":322540,"internal_node_id":"0.0-69.0"},{"Valence":"Lose","Color":"#ffcc3399","Rune":"06","Correct":32,"Choice":32,"RT":736.8149999529123,"Accuracy":1,"Sham":0,"Outcome":"-1","Keys":[2237.9050001036376],"TotalKeys":1,"Block":1,"Trial":58,"Action":"Go","Robot":3,"trial_type":"pit-trial","trial_index":70,"time_elapsed":325798,"internal_node_id":"0.0-70.0"},{"Valence":"Lose","Color":"#ffcc3399","Rune":"05","Correct":-1,"Choice":32,"RT":553.4300000872463,"Accuracy":0,"Sham":1,"Outcome":"-1","Keys":[2058.839999837801],"TotalKeys":1,"Block":1,"Trial":59,"Action":"No-Go","Robot":4,"trial_type":"pit-trial","trial_index":71,"time_elapsed":328876,"internal_node_id":"0.0-71.0"},{"Valence":"Win","Color":"#3366ff99","Rune":"03","Correct":-1,"Choice":32,"RT":367.6549999509007,"Accuracy":0,"Sham":0,"Outcome":"+1","Keys":[1868.2300001382828],"TotalKeys":1,"Block":1,"Trial":60,"Action":"No-Go","Robot":2,"trial_type":"pit-trial","trial_index":72,"time_elapsed":331759,"internal_node_id":"0.0-72.0"},{"Valence":"Win","Color":"#3366ff99","Rune":"03","Correct":-1,"Choice":32,"RT":330.2150000818074,"Accuracy":0,"Sham":0,"Outcome":"+1","Keys":[1831.0899999924004],"TotalKeys":1,"Block":1,"Trial":61,"Action":"No-Go","Robot":2,"trial_type":"pit-trial","trial_index":73,"time_elapsed":334611,"internal_node_id":"0.0-73.0"},{"Valence":"Lose","Color":"#ffcc3399","Rune":"06","Correct":32,"Choice":32,"RT":694.3800000008196,"Accuracy":1,"Sham":0,"Outcome":"-1","Keys":[2196.8350000679493],"TotalKeys":1,"Block":1,"Trial":62,"Action":"Go","Robot":3,"trial_type":"pit-trial","trial_index":74,"time_elapsed":337830,"internal_node_id":"0.0-74.0"},{"Valence":"Lose","Color":"#ffcc3399","Rune":"05","Correct":-1,"Choice":32,"RT":676.6199998091906,"Accuracy":0,"Sham":0,"Outcome":"-10","Keys":[2178.689999971539],"TotalKeys":1,"Block":1,"Trial":63,"Action":"No-Go","Robot":4,"trial_type":"pit-trial","trial_index":75,"time_elapsed":341028,"internal_node_id":"0.0-75.0"},{"Valence":"Win","Color":"#3366ff99","Rune":"04","Correct":32,"Choice":32,"RT":323.4600001014769,"Accuracy":1,"Sham":0,"Outcome":"+10","Keys":[1824.06000001356],"TotalKeys":1,"Block":1,"Trial":64,"Action":"Go","Robot":1,"trial_type":"pit-trial","trial_index":76,"time_elapsed":343870,"internal_node_id":"0.0-76.0"},{"Valence":"Win","Color":"#3366ff99","Rune":"03","Correct":-1,"Choice":32,"RT":291.6399999521673,"Accuracy":0,"Sham":0,"Outcome":"+1","Keys":[1792.179999873042],"TotalKeys":1,"Block":1,"Trial":65,"Action":"No-Go","Robot":2,"trial_type":"pit-trial","trial_index":77,"time_elapsed":346678,"internal_node_id":"0.0-77.0"},{"Valence":"Lose","Color":"#ffcc3399","Rune":"05","Correct":-1,"Choice":32,"RT":525.7050001528114,"Accuracy":0,"Sham":0,"Outcome":"-10","Keys":[2026.3600000180304],"TotalKeys":1,"Block":1,"Trial":66,"Action":"No-Go","Robot":4,"trial_type":"pit-trial","trial_index":78,"time_elapsed":349725,"internal_node_id":"0.0-78.0"},{"Valence":"Win","Color":"#3366ff99","Rune":"04","Correct":32,"Choice":32,"RT":383.11000005342066,"Accuracy":1,"Sham":1,"Outcome":"1","Keys":[1883.4150000475347],"TotalKeys":1,"Block":1,"Trial":67,"Action":"Go","Robot":1,"trial_type":"pit-trial","trial_index":79,"time_elapsed":352630,"internal_node_id":"0.0-79.0"},{"Valence":"Lose","Color":"#ffcc3399","Rune":"06","Correct":32,"Choice":32,"RT":522.0749999862164,"Accuracy":1,"Sham":0,"Outcome":"-1","Keys":[2022.1700000111014],"TotalKeys":1,"Block":1,"Trial":68,"Action":"Go","Robot":3,"trial_type":"pit-trial","trial_index":80,"time_elapsed":355676,"internal_node_id":"0.0-80.0"},{"Valence":"Lose","Color":"#ffcc3399","Rune":"05","Correct":-1,"Choice":-1,"RT":-1,"Accuracy":1,"Sham":1,"Outcome":"-10","Keys":[],"TotalKeys":0,"Block":1,"Trial":69,"Action":"No-Go","Robot":4,"trial_type":"pit-trial","trial_index":81,"time_elapsed":359704,"internal_node_id":"0.0-81.0"},{"Valence":"Lose","Color":"#ffcc3399","Rune":"06","Correct":32,"Choice":32,"RT":307.52000003121793,"Accuracy":1,"Sham":0,"Outcome":"-1","Keys":[1808.204999892041],"TotalKeys":1,"Block":1,"Trial":70,"Action":"Go","Robot":3,"trial_type":"pit-trial","trial_index":82,"time_elapsed":362536,"internal_node_id":"0.0-82.0"},{"Valence":"Win","Color":"#3366ff99","Rune":"04","Correct":32,"Choice":32,"RT":264.9649998638779,"Accuracy":1,"Sham":0,"Outcome":"+10","Keys":[1772.0999999437481],"TotalKeys":1,"Block":1,"Trial":71,"Action":"Go","Robot":1,"trial_type":"pit-trial","trial_index":83,"time_elapsed":365333,"internal_node_id":"0.0-83.0"},{"Valence":"Win","Color":"#3366ff99","Rune":"03","Correct":-1,"Choice":32,"RT":574.860000051558,"Accuracy":0,"Sham":0,"Outcome":"+1","Keys":[2076.399999903515],"TotalKeys":1,"Block":1,"Trial":72,"Action":"No-Go","Robot":2,"trial_type":"pit-trial","trial_index":84,"time_elapsed":368435,"internal_node_id":"0.0-84.0"},{"Valence":"Win","Color":"#3366ff99","Rune":"03","Correct":-1,"Choice":32,"RT":353.75499981455505,"Accuracy":0,"Sham":0,"Outcome":"+1","Keys":[1860.080000013113],"TotalKeys":1,"Block":1,"Trial":73,"Action":"No-Go","Robot":2,"trial_type":"pit-trial","trial_index":85,"time_elapsed":371317,"internal_node_id":"0.0-85.0"},{"Valence":"Lose","Color":"#ffcc3399","Rune":"06","Correct":32,"Choice":32,"RT":572.9399998672307,"Accuracy":1,"Sham":1,"Outcome":"-10","Keys":[2075.914999935776],"TotalKeys":1,"Block":1,"Trial":74,"Action":"Go","Robot":3,"trial_type":"pit-trial","trial_index":86,"time_elapsed":374420,"internal_node_id":"0.0-86.0"},{"Valence":"Win","Color":"#3366ff99","Rune":"04","Correct":32,"Choice":32,"RT":311.3700000103563,"Accuracy":1,"Sham":0,"Outcome":"+10","Keys":[1815.6300000846386],"TotalKeys":1,"Block":1,"Trial":75,"Action":"Go","Robot":1,"trial_type":"pit-trial","trial_index":87,"time_elapsed":377258,"internal_node_id":"0.0-87.0"},{"Valence":"Lose","Color":"#ffcc3399","Rune":"05","Correct":-1,"Choice":-1,"RT":-1,"Accuracy":1,"Sham":0,"Outcome":"-1","Keys":[],"TotalKeys":0,"Block":1,"Trial":76,"Action":"No-Go","Robot":4,"trial_type":"pit-trial","trial_index":88,"time_elapsed":381281,"internal_node_id":"0.0-88.0"},{"Valence":"Win","Color":"#3366ff99","Rune":"03","Correct":-1,"Choice":32,"RT":460.85500018671155,"Accuracy":0,"Sham":1,"Outcome":"+10","Keys":[1961.8299999274313],"TotalKeys":1,"Block":1,"Trial":77,"Action":"No-Go","Robot":2,"trial_type":"pit-trial","trial_index":89,"time_elapsed":384267,"internal_node_id":"0.0-89.0"},{"Valence":"Win","Color":"#3366ff99","Rune":"04","Correct":32,"Choice":32,"RT":345.4550001770258,"Accuracy":1,"Sham":0,"Outcome":"+10","Keys":[1847.4699999205768],"TotalKeys":1,"Block":1,"Trial":78,"Action":"Go","Robot":1,"trial_type":"pit-trial","trial_index":90,"time_elapsed":387139,"internal_node_id":"0.0-90.0"},{"Valence":"Lose","Color":"#ffcc3399","Rune":"05","Correct":-1,"Choice":-1,"RT":-1,"Accuracy":1,"Sham":0,"Outcome":"-1","Keys":[],"TotalKeys":0,"Block":1,"Trial":79,"Action":"No-Go","Robot":4,"trial_type":"pit-trial","trial_index":91,"time_elapsed":391168,"internal_node_id":"0.0-91.0"},{"Valence":"Lose","Color":"#ffcc3399","Rune":"06","Correct":32,"Choice":-1,"RT":-1,"Accuracy":0,"Sham":0,"Outcome":"-10","Keys":[],"TotalKeys":0,"Block":1,"Trial":80,"Action":"Go","Robot":3,"trial_type":"pit-trial","trial_index":92,"time_elapsed":395195,"internal_node_id":"0.0-92.0"},{"value":false,"trial_type":"call-function","trial_index":93,"time_elapsed":395214,"internal_node_id":"0.0-93.0"},{"RT":1058.405000017956,"trial_type":"pit-pause","trial_index":94,"time_elapsed":398353,"internal_node_id":"0.0-94.0"},{"Valence":"Win","Color":"#3366ff99","Rune":"04","Correct":32,"Choice":32,"RT":295.5599999986589,"Accuracy":1,"Sham":0,"Outcome":"+10","Keys":[1796.8399999663234],"TotalKeys":1,"Block":2,"Trial":81,"Action":"Go","Robot":1,"trial_type":"pit-trial","trial_index":95,"time_elapsed":401169,"internal_node_id":"0.0-95.0"},{"Valence":"Win","Color":"#3366ff99","Rune":"03","Correct":-1,"Choice":32,"RT":343.5049999970943,"Accuracy":0,"Sham":0,"Outcome":"+1","Keys":[1845.4799999017268],"TotalKeys":1,"Block":2,"Trial":82,"Action":"No-Go","Robot":2,"trial_type":"pit-trial","trial_index":96,"time_elapsed":404048,"internal_node_id":"0.0-96.0"},{"Valence":"Lose","Color":"#ffcc3399","Rune":"05","Correct":-1,"Choice":32,"RT":246.77999992854893,"Accuracy":0,"Sham":0,"Outcome":"-10","Keys":[1749.420000007376],"TotalKeys":1,"Block":2,"Trial":83,"Action":"No-Go","Robot":4,"trial_type":"pit-trial","trial_index":97,"time_elapsed":406822,"internal_node_id":"0.0-97.0"},{"Valence":"Lose","Color":"#ffcc3399","Rune":"06","Correct":32,"Choice":32,"RT":738.43999998644,"Accuracy":1,"Sham":0,"Outcome":"-1","Keys":[2238.9849999453872],"TotalKeys":1,"Block":2,"Trial":84,"Action":"Go","Robot":3,"trial_type":"pit-trial","trial_index":98,"time_elapsed":410079,"internal_node_id":"0.0-98.0"},{"Valence":"Win","Color":"#3366ff99","Rune":"04","Correct":32,"Choice":32,"RT":252.94000003486872,"Accuracy":1,"Sham":0,"Outcome":"+10","Keys":[1754.6099999453872],"TotalKeys":1,"Block":2,"Trial":85,"Action":"Go","Robot":1,"trial_type":"pit-trial","trial_index":99,"time_elapsed":412856,"internal_node_id":"0.0-99.0"},{"Valence":"Win","Color":"#3366ff99","Rune":"03","Correct":-1,"Choice":32,"RT":267.62499986216426,"Accuracy":0,"Sham":0,"Outcome":"+1","Keys":[1768.3249998372048],"TotalKeys":1,"Block":2,"Trial":86,"Action":"No-Go","Robot":2,"trial_type":"pit-trial","trial_index":100,"time_elapsed":415641,"internal_node_id":"0.0-100.0"},{"Valence":"Lose","Color":"#ffcc3399","Rune":"06","Correct":32,"Choice":32,"RT":905.009999871254,"Accuracy":1,"Sham":0,"Outcome":"-1","Keys":[2405.294999945909],"TotalKeys":1,"Block":2,"Trial":87,"Action":"Go","Robot":3,"trial_type":"pit-trial","trial_index":101,"time_elapsed":419068,"internal_node_id":"0.0-101.0"},{"Valence":"Lose","Color":"#ffcc3399","Rune":"05","Correct":-1,"Choice":-1,"RT":-1,"Accuracy":1,"Sham":0,"Outcome":"-1","Keys":[],"TotalKeys":0,"Block":2,"Trial":88,"Action":"No-Go","Robot":4,"trial_type":"pit-trial","trial_index":102,"time_elapsed":423089,"internal_node_id":"0.0-102.0"},{"Valence":"Lose","Color":"#ffcc3399","Rune":"06","Correct":32,"Choice":32,"RT":1182.1850000414997,"Accuracy":1,"Sham":1,"Outcome":"-10","Keys":[2684.2749998904765],"TotalKeys":1,"Block":2,"Trial":89,"Action":"Go","Robot":3,"trial_type":"pit-trial","trial_index":103,"time_elapsed":426794,"internal_node_id":"0.0-103.0"},{"Valence":"Win","Color":"#3366ff99","Rune":"04","Correct":32,"Choice":32,"RT":732.5850001070648,"Accuracy":1,"Sham":1,"Outcome":"1","Keys":[2234.839999815449],"TotalKeys":1,"Block":2,"Trial":90,"Action":"Go","Robot":1,"trial_type":"pit-trial","trial_index":104,"time_elapsed":430051,"internal_node_id":"0.0-104.0"},{"Valence":"Win","Color":"#3366ff99","Rune":"03","Correct":-1,"Choice":32,"RT":322.3399999551475,"Accuracy":0,"Sham":0,"Outcome":"+1","Keys":[1823.2050000224262],"TotalKeys":1,"Block":2,"Trial":91,"Action":"No-Go","Robot":2,"trial_type":"pit-trial","trial_index":105,"time_elapsed":432891,"internal_node_id":"0.0-105.0"},{"Valence":"Lose","Color":"#ffcc3399","Rune":"05","Correct":-1,"Choice":-1,"RT":-1,"Accuracy":1,"Sham":0,"Outcome":"-1","Keys":[],"TotalKeys":0,"Block":2,"Trial":92,"Action":"No-Go","Robot":4,"trial_type":"pit-trial","trial_index":106,"time_elapsed":436909,"internal_node_id":"0.0-106.0"},{"Valence":"Lose","Color":"#ffcc3399","Rune":"05","Correct":-1,"Choice":-1,"RT":-1,"Accuracy":1,"Sham":0,"Outcome":"-1","Keys":[],"TotalKeys":0,"Block":2,"Trial":93,"Action":"No-Go","Robot":4,"trial_type":"pit-trial","trial_index":107,"time_elapsed":440937,"internal_node_id":"0.0-107.0"},{"Valence":"Win","Color":"#3366ff99","Rune":"04","Correct":32,"Choice":32,"RT":615.2449999935925,"Accuracy":1,"Sham":0,"Outcome":"+10","Keys":[2116.630000062287],"TotalKeys":1,"Block":2,"Trial":94,"Action":"Go","Robot":1,"trial_type":"pit-trial","trial_index":108,"time_elapsed":444078,"internal_node_id":"0.0-108.0"},{"Valence":"Lose","Color":"#ffcc3399","Rune":"06","Correct":32,"Choice":32,"RT":1355.8549999725074,"Accuracy":1,"Sham":0,"Outcome":"-1","Keys":[2855.9499999973923],"TotalKeys":1,"Block":2,"Trial":95,"Action":"Go","Robot":3,"trial_type":"pit-trial","trial_index":109,"time_elapsed":447955,"internal_node_id":"0.0-109.0"},{"Valence":"Win","Color":"#3366ff99","Rune":"03","Correct":-1,"Choice":32,"RT":619.2749999463558,"Accuracy":0,"Sham":1,"Outcome":"+10","Keys":[2119.66499988921],"TotalKeys":1,"Block":2,"Trial":96,"Action":"No-Go","Robot":2,"trial_type":"pit-trial","trial_index":110,"time_elapsed":451097,"internal_node_id":"0.0-110.0"},{"Valence":"Lose","Color":"#ffcc3399","Rune":"05","Correct":-1,"Choice":-1,"RT":-1,"Accuracy":1,"Sham":1,"Outcome":"-10","Keys":[],"TotalKeys":0,"Block":2,"Trial":97,"Action":"No-Go","Robot":4,"trial_type":"pit-trial","trial_index":111,"time_elapsed":455123,"internal_node_id":"0.0-111.0"},{"Valence":"Win","Color":"#3366ff99","Rune":"04","Correct":32,"Choice":32,"RT":478.59499999322,"Accuracy":1,"Sham":0,"Outcome":"+10","Keys":[1982.6500001363456],"TotalKeys":1,"Block":2,"Trial":98,"Action":"Go","Robot":1,"trial_type":"pit-trial","trial_index":112,"time_elapsed":458130,"internal_node_id":"0.0-112.0"},{"Valence":"Lose","Color":"#ffcc3399","Rune":"06","Correct":32,"Choice":32,"RT":1098.689999897033,"Accuracy":1,"Sham":0,"Outcome":"-1","Keys":[2598.854999989271],"TotalKeys":1,"Block":2,"Trial":99,"Action":"Go","Robot":3,"trial_type":"pit-trial","trial_index":113,"time_elapsed":461751,"internal_node_id":"0.0-113.0"},{"Valence":"Win","Color":"#3366ff99","Rune":"03","Correct":-1,"Choice":32,"RT":765.6849999912083,"Accuracy":0,"Sham":0,"Outcome":"+1","Keys":[2267.3899999354035],"TotalKeys":1,"Block":2,"Trial":100,"Action":"No-Go","Robot":2,"trial_type":"pit-trial","trial_index":114,"time_elapsed":465045,"internal_node_id":"0.0-114.0"},{"Valence":"Lose","Color":"#ffcc3399","Rune":"05","Correct":-1,"Choice":32,"RT":808.9400001335889,"Accuracy":0,"Sham":0,"Outcome":"-10","Keys":[2308.9999998919666],"TotalKeys":1,"Block":2,"Trial":101,"Action":"No-Go","Robot":4,"trial_type":"pit-trial","trial_index":115,"time_elapsed":468376,"internal_node_id":"0.0-115.0"},{"Valence":"Lose","Color":"#ffcc3399","Rune":"06","Correct":32,"Choice":32,"RT":758.0100002232939,"Accuracy":1,"Sham":0,"Outcome":"-1","Keys":[2259.2599999625236],"TotalKeys":1,"Block":2,"Trial":102,"Action":"Go","Robot":3,"trial_type":"pit-trial","trial_index":116,"time_elapsed":471658,"internal_node_id":"0.0-116.0"},{"Valence":"Win","Color":"#3366ff99","Rune":"04","Correct":32,"Choice":32,"RT":284.95500003919005,"Accuracy":1,"Sham":1,"Outcome":"1","Keys":[1785.3749999776483],"TotalKeys":1,"Block":2,"Trial":103,"Action":"Go","Robot":1,"trial_type":"pit-trial","trial_index":117,"time_elapsed":474466,"internal_node_id":"0.0-117.0"},{"Valence":"Win","Color":"#3366ff99","Rune":"03","Correct":-1,"Choice":32,"RT":334.9800000432879,"Accuracy":0,"Sham":1,"Outcome":"+10","Keys":[1836.6249999962747],"TotalKeys":1,"Block":2,"Trial":104,"Action":"No-Go","Robot":2,"trial_type":"pit-trial","trial_index":118,"time_elapsed":477326,"internal_node_id":"0.0-118.0"},{"Valence":"Lose","Color":"#ffcc3399","Rune":"06","Correct":32,"Choice":32,"RT":1346.540000056848,"Accuracy":1,"Sham":0,"Outcome":"-1","Keys":[2850.3049998544157],"TotalKeys":1,"Block":2,"Trial":105,"Action":"Go","Robot":3,"trial_type":"pit-trial","trial_index":119,"time_elapsed":481196,"internal_node_id":"0.0-119.0"},{"Valence":"Win","Color":"#3366ff99","Rune":"04","Correct":32,"Choice":32,"RT":417.43499995209277,"Accuracy":1,"Sham":0,"Outcome":"+10","Keys":[1918.7999998684973],"TotalKeys":1,"Block":2,"Trial":106,"Action":"Go","Robot":1,"trial_type":"pit-trial","trial_index":120,"time_elapsed":484139,"internal_node_id":"0.0-120.0"},{"Valence":"Win","Color":"#3366ff99","Rune":"03","Correct":-1,"Choice":-1,"RT":-1,"Accuracy":1,"Sham":0,"Outcome":"+10","Keys":[3205.3000000305474],"TotalKeys":1,"Block":2,"Trial":107,"Action":"No-Go","Robot":2,"trial_type":"pit-trial","trial_index":121,"time_elapsed":488169,"internal_node_id":"0.0-121.0"},{"Valence":"Lose","Color":"#ffcc3399","Rune":"05","Correct":-1,"Choice":32,"RT":818.1000000331551,"Accuracy":0,"Sham":0,"Outcome":"-10","Keys":[2327.5849998462945],"TotalKeys":1,"Block":2,"Trial":108,"Action":"No-Go","Robot":4,"trial_type":"pit-trial","trial_index":122,"time_elapsed":491514,"internal_node_id":"0.0-122.0"},{"Valence":"Win","Color":"#3366ff99","Rune":"03","Correct":-1,"Choice":32,"RT":1048.3999999705702,"Accuracy":0,"Sham":0,"Outcome":"+1","Keys":[2550.1499997917563],"TotalKeys":1,"Block":2,"Trial":109,"Action":"No-Go","Robot":2,"trial_type":"pit-trial","trial_index":123,"time_elapsed":495085,"internal_node_id":"0.0-123.0"},{"Valence":"Lose","Color":"#ffcc3399","Rune":"05","Correct":-1,"Choice":-1,"RT":-1,"Accuracy":1,"Sham":0,"Outcome":"-1","Keys":[],"TotalKeys":0,"Block":2,"Trial":110,"Action":"No-Go","Robot":4,"trial_type":"pit-trial","trial_index":124,"time_elapsed":499109,"internal_node_id":"0.0-124.0"},{"Valence":"Win","Color":"#3366ff99","Rune":"04","Correct":32,"Choice":32,"RT":294.31500006467104,"Accuracy":1,"Sham":0,"Outcome":"+10","Keys":[1796.5949999634176],"TotalKeys":1,"Block":2,"Trial":111,"Action":"Go","Robot":1,"trial_type":"pit-trial","trial_index":125,"time_elapsed":501925,"internal_node_id":"0.0-125.0"},{"Valence":"Lose","Color":"#ffcc3399","Rune":"06","Correct":32,"Choice":32,"RT":628.084999974817,"Accuracy":1,"Sham":0,"Outcome":"-1","Keys":[2128.5249998327345],"TotalKeys":1,"Block":2,"Trial":112,"Action":"Go","Robot":3,"trial_type":"pit-trial","trial_index":126,"time_elapsed":505077,"internal_node_id":"0.0-126.0"},{"Valence":"Win","Color":"#3366ff99","Rune":"03","Correct":-1,"Choice":32,"RT":322.93999986723065,"Accuracy":0,"Sham":0,"Outcome":"+1","Keys":[1823.229999979958],"TotalKeys":1,"Block":2,"Trial":113,"Action":"No-Go","Robot":2,"trial_type":"pit-trial","trial_index":127,"time_elapsed":507921,"internal_node_id":"0.0-127.0"},{"Valence":"Lose","Color":"#ffcc3399","Rune":"05","Correct":-1,"Choice":32,"RT":698.8249998539686,"Accuracy":0,"Sham":0,"Outcome":"-10","Keys":[2199.1449999623],"TotalKeys":1,"Block":2,"Trial":114,"Action":"No-Go","Robot":4,"trial_type":"pit-trial","trial_index":128,"time_elapsed":511143,"internal_node_id":"0.0-128.0"},{"Valence":"Lose","Color":"#ffcc3399","Rune":"06","Correct":32,"Choice":-1,"RT":-1,"Accuracy":0,"Sham":1,"Outcome":"-1","Keys":[3118.135000113398],"TotalKeys":1,"Block":2,"Trial":115,"Action":"Go","Robot":3,"trial_type":"pit-trial","trial_index":129,"time_elapsed":515170,"internal_node_id":"0.0-129.0"},{"Valence":"Win","Color":"#3366ff99","Rune":"04","Correct":32,"Choice":32,"RT":711.6199999582022,"Accuracy":1,"Sham":0,"Outcome":"+10","Keys":[2212.1349999215454],"TotalKeys":1,"Block":2,"Trial":116,"Action":"Go","Robot":1,"trial_type":"pit-trial","trial_index":130,"time_elapsed":518406,"internal_node_id":"0.0-130.0"},{"Valence":"Lose","Color":"#ffcc3399","Rune":"05","Correct":-1,"Choice":-1,"RT":-1,"Accuracy":1,"Sham":1,"Outcome":"-10","Keys":[3100.205000024289],"TotalKeys":1,"Block":2,"Trial":117,"Action":"No-Go","Robot":4,"trial_type":"pit-trial","trial_index":131,"time_elapsed":522433,"internal_node_id":"0.0-131.0"},{"Valence":"Lose","Color":"#ffcc3399","Rune":"06","Correct":32,"Choice":32,"RT":791.7400000151247,"Accuracy":1,"Sham":0,"Outcome":"-1","Keys":[2295.570000074804],"TotalKeys":1,"Block":2,"Trial":118,"Action":"Go","Robot":3,"trial_type":"pit-trial","trial_index":132,"time_elapsed":525752,"internal_node_id":"0.0-132.0"},{"Valence":"Win","Color":"#3366ff99","Rune":"03","Correct":-1,"Choice":32,"RT":786.5849998779595,"Accuracy":0,"Sham":0,"Outcome":"+1","Keys":[2286.805000156164],"TotalKeys":1,"Block":2,"Trial":119,"Action":"No-Go","Robot":2,"trial_type":"pit-trial","trial_index":133,"time_elapsed":529066,"internal_node_id":"0.0-133.0"},{"Valence":"Win","Color":"#3366ff99","Rune":"04","Correct":32,"Choice":32,"RT":304.12499979138374,"Accuracy":1,"Sham":0,"Outcome":"+10","Keys":[1804.9299998674542],"TotalKeys":1,"Block":2,"Trial":120,"Action":"Go","Robot":1,"trial_type":"pit-trial","trial_index":134,"time_elapsed":531892,"internal_node_id":"0.0-134.0"},{"Valence":"Win","Color":"#3366ff99","Rune":"03","Correct":-1,"Choice":32,"RT":335.1400000974536,"Accuracy":0,"Sham":0,"Outcome":"+1","Keys":[1835.7299999333918],"TotalKeys":1,"Block":2,"Trial":121,"Action":"No-Go","Robot":2,"trial_type":"pit-trial","trial_index":135,"time_elapsed":534755,"internal_node_id":"0.0-135.0"},{"Valence":"Lose","Color":"#ffcc3399","Rune":"05","Correct":-1,"Choice":32,"RT":348.8900000229478,"Accuracy":0,"Sham":0,"Outcome":"-10","Keys":[1848.9950001239777],"TotalKeys":1,"Block":2,"Trial":122,"Action":"No-Go","Robot":4,"trial_type":"pit-trial","trial_index":136,"time_elapsed":537652,"internal_node_id":"0.0-136.0"},{"Valence":"Lose","Color":"#ffcc3399","Rune":"06","Correct":32,"Choice":32,"RT":861.0950000584126,"Accuracy":1,"Sham":0,"Outcome":"-1","Keys":[2362.015000078827],"TotalKeys":1,"Block":2,"Trial":123,"Action":"Go","Robot":3,"trial_type":"pit-trial","trial_index":137,"time_elapsed":541033,"internal_node_id":"0.0-137.0"},{"Valence":"Win","Color":"#3366ff99","Rune":"04","Correct":32,"Choice":32,"RT":318.80000000819564,"Accuracy":1,"Sham":1,"Outcome":"1","Keys":[1821.0749998688698],"TotalKeys":1,"Block":2,"Trial":124,"Action":"Go","Robot":1,"trial_type":"pit-trial","trial_index":138,"time_elapsed":543873,"internal_node_id":"0.0-138.0"},{"Valence":"Lose","Color":"#ffcc3399","Rune":"06","Correct":32,"Choice":32,"RT":582.715000025928,"Accuracy":1,"Sham":1,"Outcome":"-10","Keys":[2083.399999886751],"TotalKeys":1,"Block":2,"Trial":125,"Action":"Go","Robot":3,"trial_type":"pit-trial","trial_index":139,"time_elapsed":546983,"internal_node_id":"0.0-139.0"},{"Valence":"Lose","Color":"#ffcc3399","Rune":"05","Correct":-1,"Choice":32,"RT":886.7849998641759,"Accuracy":0,"Sham":0,"Outcome":"-10","Keys":[2387.8949999343604],"TotalKeys":1,"Block":2,"Trial":126,"Action":"No-Go","Robot":4,"trial_type":"pit-trial","trial_index":140,"time_elapsed":550396,"internal_node_id":"0.0-140.0"},{"Valence":"Win","Color":"#3366ff99","Rune":"03","Correct":-1,"Choice":32,"RT":350.6550001911819,"Accuracy":0,"Sham":0,"Outcome":"+1","Keys":[1851.3199998997152],"TotalKeys":1,"Block":2,"Trial":127,"Action":"No-Go","Robot":2,"trial_type":"pit-trial","trial_index":141,"time_elapsed":553273,"internal_node_id":"0.0-141.0"},{"Valence":"Win","Color":"#3366ff99","Rune":"04","Correct":32,"Choice":32,"RT":321.89499982632697,"Accuracy":1,"Sham":0,"Outcome":"+10","Keys":[1822.5849999580532],"TotalKeys":1,"Block":2,"Trial":128,"Action":"Go","Robot":1,"trial_type":"pit-trial","trial_index":142,"time_elapsed":556145,"internal_node_id":"0.0-142.0"},{"Valence":"Lose","Color":"#ffcc3399","Rune":"05","Correct":-1,"Choice":32,"RT":816.4850000757724,"Accuracy":0,"Sham":0,"Outcome":"-10","Keys":[2316.5700000245124],"TotalKeys":1,"Block":2,"Trial":129,"Action":"No-Go","Robot":4,"trial_type":"pit-trial","trial_index":143,"time_elapsed":559485,"internal_node_id":"0.0-143.0"},{"Valence":"Win","Color":"#3366ff99","Rune":"04","Correct":32,"Choice":32,"RT":263.6750000528991,"Accuracy":1,"Sham":0,"Outcome":"+10","Keys":[1764.7049999795854],"TotalKeys":1,"Block":2,"Trial":130,"Action":"Go","Robot":1,"trial_type":"pit-trial","trial_index":144,"time_elapsed":562274,"internal_node_id":"0.0-144.0"},{"Valence":"Lose","Color":"#ffcc3399","Rune":"06","Correct":32,"Choice":32,"RT":588.6250000912696,"Accuracy":1,"Sham":0,"Outcome":"-1","Keys":[2109.235000098124],"TotalKeys":1,"Block":2,"Trial":131,"Action":"Go","Robot":3,"trial_type":"pit-trial","trial_index":145,"time_elapsed":565408,"internal_node_id":"0.0-145.0"},{"Valence":"Win","Color":"#3366ff99","Rune":"03","Correct":-1,"Choice":32,"RT":378.1300000846386,"Accuracy":0,"Sham":0,"Outcome":"+1","Keys":[1878.4549999982119],"TotalKeys":1,"Block":2,"Trial":132,"Action":"No-Go","Robot":2,"trial_type":"pit-trial","trial_index":146,"time_elapsed":568308,"internal_node_id":"0.0-146.0"},{"Valence":"Lose","Color":"#ffcc3399","Rune":"05","Correct":-1,"Choice":32,"RT":538.6250000447035,"Accuracy":0,"Sham":0,"Outcome":"-10","Keys":[2039.2650000285357],"TotalKeys":1,"Block":2,"Trial":133,"Action":"No-Go","Robot":4,"trial_type":"pit-trial","trial_index":147,"time_elapsed":571371,"internal_node_id":"0.0-147.0"},{"Valence":"Win","Color":"#3366ff99","Rune":"04","Correct":32,"Choice":32,"RT":293.5999999754131,"Accuracy":1,"Sham":0,"Outcome":"+10","Keys":[1793.959999922663],"TotalKeys":1,"Block":2,"Trial":134,"Action":"Go","Robot":1,"trial_type":"pit-trial","trial_index":148,"time_elapsed":574188,"internal_node_id":"0.0-148.0"},{"Valence":"Lose","Color":"#ffcc3399","Rune":"06","Correct":32,"Choice":32,"RT":734.6499999985099,"Accuracy":1,"Sham":0,"Outcome":"-1","Keys":[2235.4949999134988],"TotalKeys":1,"Block":2,"Trial":135,"Action":"Go","Robot":3,"trial_type":"pit-trial","trial_index":149,"time_elapsed":577445,"internal_node_id":"0.0-149.0"},{"Valence":"Win","Color":"#3366ff99","Rune":"03","Correct":-1,"Choice":32,"RT":462.9300001543015,"Accuracy":0,"Sham":0,"Outcome":"+1","Keys":[1965.339999878779],"TotalKeys":1,"Block":2,"Trial":136,"Action":"No-Go","Robot":2,"trial_type":"pit-trial","trial_index":150,"time_elapsed":580434,"internal_node_id":"0.0-150.0"},{"Valence":"Lose","Color":"#ffcc3399","Rune":"05","Correct":-1,"Choice":32,"RT":952.409999910742,"Accuracy":0,"Sham":1,"Outcome":"-1","Keys":[2454.5100000686944],"TotalKeys":1,"Block":2,"Trial":137,"Action":"No-Go","Robot":4,"trial_type":"pit-trial","trial_index":151,"time_elapsed":583914,"internal_node_id":"0.0-151.0"},{"Valence":"Win","Color":"#3366ff99","Rune":"04","Correct":32,"Choice":32,"RT":579.4550001155585,"Accuracy":1,"Sham":0,"Outcome":"+10","Keys":[2080.060000065714],"TotalKeys":1,"Block":2,"Trial":138,"Action":"Go","Robot":1,"trial_type":"pit-trial","trial_index":152,"time_elapsed":587021,"internal_node_id":"0.0-152.0"},{"Valence":"Lose","Color":"#ffcc3399","Rune":"06","Correct":32,"Choice":32,"RT":1007.4599999934435,"Accuracy":1,"Sham":0,"Outcome":"-1","Keys":[2507.8900000080466],"TotalKeys":1,"Block":2,"Trial":139,"Action":"Go","Robot":3,"trial_type":"pit-trial","trial_index":153,"time_elapsed":590551,"internal_node_id":"0.0-153.0"},{"Valence":"Win","Color":"#3366ff99","Rune":"03","Correct":-1,"Choice":32,"RT":330.15500009059906,"Accuracy":0,"Sham":1,"Outcome":"+10","Keys":[1835.2050001267344],"TotalKeys":1,"Block":2,"Trial":140,"Action":"No-Go","Robot":2,"trial_type":"pit-trial","trial_index":154,"time_elapsed":593414,"internal_node_id":"0.0-154.0"},{"Valence":"Win","Color":"#3366ff99","Rune":"03","Correct":-1,"Choice":32,"RT":290.59999994933605,"Accuracy":0,"Sham":1,"Outcome":"+10","Keys":[1797.7799999061972],"TotalKeys":1,"Block":2,"Trial":141,"Action":"No-Go","Robot":2,"trial_type":"pit-trial","trial_index":155,"time_elapsed":596236,"internal_node_id":"0.0-155.0"},{"Valence":"Lose","Color":"#ffcc3399","Rune":"06","Correct":32,"Choice":32,"RT":589.9249999783933,"Accuracy":1,"Sham":0,"Outcome":"-1","Keys":[2091.9349999167025],"TotalKeys":1,"Block":2,"Trial":142,"Action":"Go","Robot":3,"trial_type":"pit-trial","trial_index":156,"time_elapsed":599351,"internal_node_id":"0.0-156.0"},{"Valence":"Win","Color":"#3366ff99","Rune":"04","Correct":32,"Choice":32,"RT":263.1200000178069,"Accuracy":1,"Sham":0,"Outcome":"+10","Keys":[1763.55000003241],"TotalKeys":1,"Block":2,"Trial":143,"Action":"Go","Robot":1,"trial_type":"pit-trial","trial_index":157,"time_elapsed":602137,"internal_node_id":"0.0-157.0"},{"Valence":"Lose","Color":"#ffcc3399","Rune":"05","Correct":-1,"Choice":32,"RT":724.6100001502782,"Accuracy":0,"Sham":0,"Outcome":"-10","Keys":[2225.6000000052154],"TotalKeys":1,"Block":2,"Trial":144,"Action":"No-Go","Robot":4,"trial_type":"pit-trial","trial_index":158,"time_elapsed":605385,"internal_node_id":"0.0-158.0"},{"Valence":"Lose","Color":"#ffcc3399","Rune":"05","Correct":-1,"Choice":-1,"RT":-1,"Accuracy":1,"Sham":0,"Outcome":"-1","Keys":[],"TotalKeys":0,"Block":2,"Trial":145,"Action":"No-Go","Robot":4,"trial_type":"pit-trial","trial_index":159,"time_elapsed":609412,"internal_node_id":"0.0-159.0"},{"Valence":"Win","Color":"#3366ff99","Rune":"04","Correct":32,"Choice":32,"RT":380.4250000976026,"Accuracy":1,"Sham":0,"Outcome":"+10","Keys":[1881.9750000257045],"TotalKeys":1,"Block":2,"Trial":146,"Action":"Go","Robot":1,"trial_type":"pit-trial","trial_index":160,"time_elapsed":612317,"internal_node_id":"0.0-160.0"},{"Valence":"Lose","Color":"#ffcc3399","Rune":"06","Correct":32,"Choice":32,"RT":629.8599999863654,"Accuracy":1,"Sham":0,"Outcome":"-1","Keys":[2130.945000099018],"TotalKeys":1,"Block":2,"Trial":147,"Action":"Go","Robot":3,"trial_type":"pit-trial","trial_index":161,"time_elapsed":615470,"internal_node_id":"0.0-161.0"},{"Valence":"Win","Color":"#3366ff99","Rune":"03","Correct":-1,"Choice":32,"RT":361.219999846071,"Accuracy":0,"Sham":0,"Outcome":"+1","Keys":[1861.7499999236315],"TotalKeys":1,"Block":2,"Trial":148,"Action":"No-Go","Robot":2,"trial_type":"pit-trial","trial_index":162,"time_elapsed":618354,"internal_node_id":"0.0-162.0"},{"Valence":"Win","Color":"#3366ff99","Rune":"03","Correct":-1,"Choice":32,"RT":413.3750000037253,"Accuracy":0,"Sham":0,"Outcome":"+1","Keys":[1915.6599999405444],"TotalKeys":1,"Block":2,"Trial":149,"Action":"No-Go","Robot":2,"trial_type":"pit-trial","trial_index":163,"time_elapsed":621295,"internal_node_id":"0.0-163.0"},{"Valence":"Lose","Color":"#ffcc3399","Rune":"05","Correct":-1,"Choice":32,"RT":724.6650001034141,"Accuracy":0,"Sham":0,"Outcome":"-10","Keys":[2225.1999999862164],"TotalKeys":1,"Block":2,"Trial":150,"Action":"No-Go","Robot":4,"trial_type":"pit-trial","trial_index":164,"time_elapsed":624542,"internal_node_id":"0.0-164.0"},{"Valence":"Lose","Color":"#ffcc3399","Rune":"06","Correct":32,"Choice":32,"RT":1044.96999992989,"Accuracy":1,"Sham":0,"Outcome":"-1","Keys":[2556.859999895096],"TotalKeys":1,"Block":2,"Trial":151,"Action":"Go","Robot":3,"trial_type":"pit-trial","trial_index":165,"time_elapsed":628124,"internal_node_id":"0.0-165.0"},{"Valence":"Win","Color":"#3366ff99","Rune":"04","Correct":32,"Choice":32,"RT":701.6350000631064,"Accuracy":1,"Sham":0,"Outcome":"+10","Keys":[2201.765000121668],"TotalKeys":1,"Block":2,"Trial":152,"Action":"Go","Robot":1,"trial_type":"pit-trial","trial_index":166,"time_elapsed":631350,"internal_node_id":"0.0-166.0"},{"Valence":"Win","Color":"#3366ff99","Rune":"04","Correct":32,"Choice":32,"RT":516.7200001887977,"Accuracy":1,"Sham":0,"Outcome":"+10","Keys":[2017.0149998739362],"TotalKeys":1,"Block":2,"Trial":153,"Action":"Go","Robot":1,"trial_type":"pit-trial","trial_index":167,"time_elapsed":634388,"internal_node_id":"0.0-167.0"},{"Valence":"Lose","Color":"#ffcc3399","Rune":"05","Correct":-1,"Choice":32,"RT":883.8649999815971,"Accuracy":0,"Sham":0,"Outcome":"-10","Keys":[2384.8599998746067],"TotalKeys":1,"Block":2,"Trial":154,"Action":"No-Go","Robot":4,"trial_type":"pit-trial","trial_index":168,"time_elapsed":637796,"internal_node_id":"0.0-168.0"},{"Valence":"Lose","Color":"#ffcc3399","Rune":"06","Correct":32,"Choice":32,"RT":698.6299999989569,"Accuracy":1,"Sham":0,"Outcome":"-1","Keys":[2200.504999840632],"TotalKeys":1,"Block":2,"Trial":155,"Action":"Go","Robot":3,"trial_type":"pit-trial","trial_index":169,"time_elapsed":641016,"internal_node_id":"0.0-169.0"},{"Valence":"Win","Color":"#3366ff99","Rune":"03","Correct":-1,"Choice":32,"RT":425.13500014320016,"Accuracy":0,"Sham":0,"Outcome":"+1","Keys":[1925.2150000538677],"TotalKeys":1,"Block":2,"Trial":156,"Action":"No-Go","Robot":2,"trial_type":"pit-trial","trial_index":170,"time_elapsed":643966,"internal_node_id":"0.0-170.0"},{"Valence":"Lose","Color":"#ffcc3399","Rune":"06","Correct":32,"Choice":32,"RT":590.3949998319149,"Accuracy":1,"Sham":1,"Outcome":"-10","Keys":[2090.6299999915063],"TotalKeys":1,"Block":2,"Trial":157,"Action":"Go","Robot":3,"trial_type":"pit-trial","trial_index":171,"time_elapsed":647081,"internal_node_id":"0.0-171.0"},{"Valence":"Lose","Color":"#ffcc3399","Rune":"05","Correct":-1,"Choice":32,"RT":589.8700000252575,"Accuracy":0,"Sham":1,"Outcome":"-1","Keys":[2090.570000000298],"TotalKeys":1,"Block":2,"Trial":158,"Action":"No-Go","Robot":4,"trial_type":"pit-trial","trial_index":172,"time_elapsed":650191,"internal_node_id":"0.0-172.0"},{"Valence":"Win","Color":"#3366ff99","Rune":"03","Correct":-1,"Choice":32,"RT":314.63999999687076,"Accuracy":0,"Sham":0,"Outcome":"+1","Keys":[1814.7750000935048],"TotalKeys":1,"Block":2,"Trial":159,"Action":"No-Go","Robot":2,"trial_type":"pit-trial","trial_index":173,"time_elapsed":653028,"internal_node_id":"0.0-173.0"},{"Valence":"Win","Color":"#3366ff99","Rune":"04","Correct":32,"Choice":32,"RT":393.1050000246614,"Accuracy":1,"Sham":1,"Outcome":"1","Keys":[1893.2199999690056],"TotalKeys":1,"Block":2,"Trial":160,"Action":"Go","Robot":1,"trial_type":"pit-trial","trial_index":174,"time_elapsed":655942,"internal_node_id":"0.0-174.0"},{"rt":11166.719999862835,"demographics":{"age":"34","gender-categorical":"Female","ethnicity":"Not Hispanic or Latino","race":"White","english":"Yes","fluency":"Very well"},"trial_type":"survey-demo","trial_index":175,"time_elapsed":667130,"internal_node_id":"0.0-175.0"},{"rt":10645.585000049323,"debriefgraphics":{"difficulty":"2","fun":"4","clarity":"5","strategy":"none","feedback":"none"},"trial_type":"survey-debrief","trial_index":176,"time_elapsed":677796,"internal_node_id":"0.0-176.0","interactions":"[]"}]