[{"view_history":"[{\"page_index\":0,\"viewing_time\":2565.2749999999287},{\"page_index\":1,\"viewing_time\":3269.7149999999056},{\"page_index\":2,\"viewing_time\":8858.335000000352},{\"page_index\":3,\"viewing_time\":21320.234999999684},{\"page_index\":4,\"viewing_time\":6171.49000000018}]","rt":42186.73500000022,"trial_type":"pit-instructions","trial_index":0,"time_elapsed":42191,"internal_node_id":"0.0-0.0"},{"Rune":"01","Correct":32,"Choice":32,"RT":940.7150000001784,"Accuracy":1,"Sham":0,"Outcome":"+10","Keys":[2441.490000000158],"TotalKeys":1,"trial_type":"pit-trial","trial_index":1,"time_elapsed":45653,"internal_node_id":"0.0-1.0"},{"Rune":"01","Correct":32,"Choice":32,"RT":90.99500000002445,"Accuracy":1,"Sham":0,"Outcome":"+10","Keys":[1592.7849999998216],"TotalKeys":1,"trial_type":"pit-trial","trial_index":2,"time_elapsed":48265,"internal_node_id":"0.0-2.0"},{"Rune":"01","Correct":32,"Choice":32,"RT":428.445000000007,"Accuracy":1,"Sham":0,"Outcome":"+10","Keys":[1928.6449999999604],"TotalKeys":1,"trial_type":"pit-trial","trial_index":3,"time_elapsed":51215,"internal_node_id":"0.0-3.0"},{"Rune":"01","Correct":32,"Choice":32,"RT":110.33499999984633,"Accuracy":1,"Sham":0,"Outcome":"+10","Keys":[1610.7849999998507],"TotalKeys":1,"trial_type":"pit-trial","trial_index":4,"time_elapsed":53846,"internal_node_id":"0.0-4.0"},{"view_history":"[{\"page_index\":0,\"viewing_time\":4463.31999999984}]","rt":4463.935000000216,"trial_type":"pit-instructions","trial_index":5,"time_elapsed":58327,"internal_node_id":"0.0-5.0"},{"Rune":"02","Correct":-1,"Choice":-1,"RT":-1,"Accuracy":1,"Sham":0,"Outcome":"+10","Keys":[],"TotalKeys":0,"trial_type":"pit-trial","trial_index":6,"time_elapsed":62348,"internal_node_id":"0.0-6.0"},{"Rune":"02","Correct":-1,"Choice":-1,"RT":-1,"Accuracy":1,"Sham":0,"Outcome":"+10","Keys":[],"TotalKeys":0,"trial_type":"pit-trial","trial_index":7,"time_elapsed":66372,"internal_node_id":"0.0-7.0"},{"Rune":"02","Correct":-1,"Choice":-1,"RT":-1,"Accuracy":1,"Sham":0,"Outcome":"+10","Keys":[],"TotalKeys":0,"trial_type":"pit-trial","trial_index":8,"time_elapsed":70400,"internal_node_id":"0.0-8.0"},{"Rune":"02","Correct":-1,"Choice":-1,"RT":-1,"Accuracy":1,"Sham":0,"Outcome":"+10","Keys":[],"TotalKeys":0,"trial_type":"pit-trial","trial_index":9,"time_elapsed":74428,"internal_node_id":"0.0-9.0"},{"view_history":"[{\"page_index\":0,\"viewing_time\":3451.1350000002567},{\"page_index\":1,\"viewing_time\":12823.664999999892},{\"page_index\":2,\"viewing_time\":4666.909999999916},{\"page_index\":3,\"viewing_time\":4859.28000000013},{\"page_index\":4,\"viewing_time\":2803.4950000001118},{\"page_index\":5,\"viewing_time\":4417.874999999636},{\"page_index\":6,\"viewing_time\":2825.3850000000966},{\"page_index\":7,\"viewing_time\":2394.1850000000995}]","rt":38242.69500000037,"trial_type":"pit-instructions","trial_index":10,"time_elapsed":112692,"internal_node_id":"0.0-10.0"},{"rt":24799.045000000202,"responses":"{\"no-press\":\"Do nothing\",\"context-win\":\"+10\",\"context-lose\":\"+0\",\"feedback\":\"True\"}","errors":2,"trial_type":"pit-comprehension","trial_index":11,"time_elapsed":137513,"internal_node_id":"0.0-11.0"},{"view_history":"[{\"page_index\":0,\"viewing_time\":3243.884999999864}]","rt":3244.55499999976,"trial_type":"pit-instructions","trial_index":12,"time_elapsed":140772,"internal_node_id":"0.0-12.0"},{"Rune":"05","Correct":-1,"Choice":32,"RT":394.1549999999406,"Accuracy":0,"Sham":0,"Outcome":"+0","Keys":[1894.3450000001467],"TotalKeys":1,"Block":1,"Trial":1,"Valence":"Win","Action":"No-Go","Robot":2,"trial_type":"pit-trial","trial_index":13,"time_elapsed":143686,"internal_node_id":"0.0-13.0"},{"Rune":"06","Correct":32,"Choice":32,"RT":486.13500000012573,"Accuracy":1,"Sham":0,"Outcome":"+0","Keys":[1986.5749999998952],"TotalKeys":1,"Block":1,"Trial":2,"Valence":"Lose","Action":"Go","Robot":3,"trial_type":"pit-trial","trial_index":14,"time_elapsed":146696,"internal_node_id":"0.0-14.0"},{"Rune":"04","Correct":-1,"Choice":32,"RT":356.20000000018626,"Accuracy":0,"Sham":0,"Outcome":"-10","Keys":[1858.5849999999336],"TotalKeys":1,"Block":1,"Trial":3,"Valence":"Lose","Action":"No-Go","Robot":4,"trial_type":"pit-trial","trial_index":15,"time_elapsed":149578,"internal_node_id":"0.0-15.0"},{"Rune":"03","Correct":32,"Choice":32,"RT":520.3249999999534,"Accuracy":1,"Sham":0,"Outcome":"+10","Keys":[2020.6300000000047],"TotalKeys":1,"Block":1,"Trial":4,"Valence":"Win","Action":"Go","Robot":1,"trial_type":"pit-trial","trial_index":16,"time_elapsed":152625,"internal_node_id":"0.0-16.0"},{"Rune":"06","Correct":32,"Choice":32,"RT":835.9249999998428,"Accuracy":1,"Sham":1,"Outcome":"-10","Keys":[2337.524999999936],"TotalKeys":1,"Block":1,"Trial":5,"Valence":"Lose","Action":"Go","Robot":3,"trial_type":"pit-trial","trial_index":17,"time_elapsed":155989,"internal_node_id":"0.0-17.0"},{"Rune":"04","Correct":-1,"Choice":-1,"RT":-1,"Accuracy":1,"Sham":0,"Outcome":"+0","Keys":[],"TotalKeys":0,"Block":1,"Trial":6,"Valence":"Lose","Action":"No-Go","Robot":4,"trial_type":"pit-trial","trial_index":18,"time_elapsed":160013,"internal_node_id":"0.0-18.0"},{"Rune":"03","Correct":32,"Choice":32,"RT":716.914999999979,"Accuracy":1,"Sham":0,"Outcome":"+10","Keys":[2217.094999999972],"TotalKeys":1,"Block":1,"Trial":7,"Valence":"Win","Action":"Go","Robot":1,"trial_type":"pit-trial","trial_index":19,"time_elapsed":163247,"internal_node_id":"0.0-19.0"},{"Rune":"05","Correct":-1,"Choice":32,"RT":838.905000000057,"Accuracy":0,"Sham":0,"Outcome":"+0","Keys":[2339.6550000002317],"TotalKeys":1,"Block":1,"Trial":8,"Valence":"Win","Action":"No-Go","Robot":2,"trial_type":"pit-trial","trial_index":20,"time_elapsed":166602,"internal_node_id":"0.0-20.0"},{"Rune":"03","Correct":32,"Choice":32,"RT":438.685000000085,"Accuracy":1,"Sham":0,"Outcome":"+10","Keys":[1939.8099999998522],"TotalKeys":1,"Block":1,"Trial":9,"Valence":"Win","Action":"Go","Robot":1,"trial_type":"pit-trial","trial_index":21,"time_elapsed":169557,"internal_node_id":"0.0-21.0"},{"Rune":"06","Correct":32,"Choice":-1,"RT":-1,"Accuracy":0,"Sham":0,"Outcome":"-10","Keys":[],"TotalKeys":0,"Block":1,"Trial":10,"Valence":"Lose","Action":"Go","Robot":3,"trial_type":"pit-trial","trial_index":22,"time_elapsed":173574,"internal_node_id":"0.0-22.0"},{"Rune":"05","Correct":-1,"Choice":32,"RT":189.7850000000326,"Accuracy":0,"Sham":0,"Outcome":"+0","Keys":[1690.0650000002352],"TotalKeys":1,"Block":1,"Trial":11,"Valence":"Win","Action":"No-Go","Robot":2,"trial_type":"pit-trial","trial_index":23,"time_elapsed":176280,"internal_node_id":"0.0-23.0"},{"Rune":"04","Correct":-1,"Choice":32,"RT":844.0199999999895,"Accuracy":0,"Sham":0,"Outcome":"-10","Keys":[2344.2599999998347],"TotalKeys":1,"Block":1,"Trial":12,"Valence":"Lose","Action":"No-Go","Robot":4,"trial_type":"pit-trial","trial_index":24,"time_elapsed":179641,"internal_node_id":"0.0-24.0"},{"Rune":"03","Correct":32,"Choice":32,"RT":499.3850000000966,"Accuracy":1,"Sham":0,"Outcome":"+10","Keys":[1999.6599999999453],"TotalKeys":1,"Block":1,"Trial":13,"Valence":"Win","Action":"Go","Robot":1,"trial_type":"pit-trial","trial_index":25,"time_elapsed":182657,"internal_node_id":"0.0-25.0"},{"Rune":"05","Correct":-1,"Choice":32,"RT":569.7500000001164,"Accuracy":0,"Sham":0,"Outcome":"+0","Keys":[2070.555000000255],"TotalKeys":1,"Block":1,"Trial":14,"Valence":"Win","Action":"No-Go","Robot":2,"trial_type":"pit-trial","trial_index":26,"time_elapsed":185744,"internal_node_id":"0.0-26.0"},{"Rune":"06","Correct":32,"Choice":32,"RT":263.800000000163,"Accuracy":1,"Sham":0,"Outcome":"+0","Keys":[1763.9899999999325],"TotalKeys":1,"Block":1,"Trial":15,"Valence":"Lose","Action":"Go","Robot":3,"trial_type":"pit-trial","trial_index":27,"time_elapsed":188528,"internal_node_id":"0.0-27.0"},{"Rune":"04","Correct":-1,"Choice":32,"RT":346.2699999999895,"Accuracy":0,"Sham":1,"Outcome":"+0","Keys":[1846.4950000002282],"TotalKeys":1,"Block":1,"Trial":16,"Valence":"Lose","Action":"No-Go","Robot":4,"trial_type":"pit-trial","trial_index":28,"time_elapsed":191396,"internal_node_id":"0.0-28.0"},{"Rune":"03","Correct":32,"Choice":32,"RT":370.6950000000652,"Accuracy":1,"Sham":1,"Outcome":"+0","Keys":[1871.6249999997672],"TotalKeys":1,"Block":1,"Trial":17,"Valence":"Win","Action":"Go","Robot":1,"trial_type":"pit-trial","trial_index":29,"time_elapsed":194290,"internal_node_id":"0.0-29.0"},{"Rune":"06","Correct":32,"Choice":32,"RT":356.0999999999767,"Accuracy":1,"Sham":0,"Outcome":"+0","Keys":[1856.5200000002515],"TotalKeys":1,"Block":1,"Trial":18,"Valence":"Lose","Action":"Go","Robot":3,"trial_type":"pit-trial","trial_index":30,"time_elapsed":197166,"internal_node_id":"0.0-30.0"},{"Rune":"05","Correct":-1,"Choice":32,"RT":172.61000000007334,"Accuracy":0,"Sham":1,"Outcome":"+10","Keys":[1672.7550000000338],"TotalKeys":1,"Block":1,"Trial":19,"Valence":"Win","Action":"No-Go","Robot":2,"trial_type":"pit-trial","trial_index":31,"time_elapsed":199861,"internal_node_id":"0.0-31.0"},{"Rune":"04","Correct":-1,"Choice":32,"RT":255.3849999999511,"Accuracy":0,"Sham":0,"Outcome":"-10","Keys":[1755.520000000135],"TotalKeys":1,"Block":1,"Trial":20,"Valence":"Lose","Action":"No-Go","Robot":4,"trial_type":"pit-trial","trial_index":32,"time_elapsed":202640,"internal_node_id":"0.0-32.0"},{"Rune":"04","Correct":-1,"Choice":32,"RT":162.27999999999884,"Accuracy":0,"Sham":0,"Outcome":"-10","Keys":[1662.5600000002014],"TotalKeys":1,"Block":1,"Trial":21,"Valence":"Lose","Action":"No-Go","Robot":4,"trial_type":"pit-trial","trial_index":33,"time_elapsed":205322,"internal_node_id":"0.0-33.0"},{"Rune":"05","Correct":-1,"Choice":32,"RT":309.42499999993015,"Accuracy":0,"Sham":0,"Outcome":"+0","Keys":[1809.6099999998114],"TotalKeys":1,"Block":1,"Trial":22,"Valence":"Win","Action":"No-Go","Robot":2,"trial_type":"pit-trial","trial_index":34,"time_elapsed":208153,"internal_node_id":"0.0-34.0"},{"Rune":"03","Correct":32,"Choice":32,"RT":363.47500000012224,"Accuracy":1,"Sham":0,"Outcome":"+10","Keys":[1864.9799999998068],"TotalKeys":1,"Block":1,"Trial":23,"Valence":"Win","Action":"Go","Robot":1,"trial_type":"pit-trial","trial_index":35,"time_elapsed":211040,"internal_node_id":"0.0-35.0"},{"Rune":"06","Correct":32,"Choice":32,"RT":558.5550000000803,"Accuracy":1,"Sham":0,"Outcome":"+0","Keys":[2059.949999999837],"TotalKeys":1,"Block":1,"Trial":24,"Valence":"Lose","Action":"Go","Robot":3,"trial_type":"pit-trial","trial_index":36,"time_elapsed":214121,"internal_node_id":"0.0-36.0"},{"Rune":"04","Correct":-1,"Choice":-1,"RT":-1,"Accuracy":1,"Sham":0,"Outcome":"+0","Keys":[],"TotalKeys":0,"Block":1,"Trial":25,"Valence":"Lose","Action":"No-Go","Robot":4,"trial_type":"pit-trial","trial_index":37,"time_elapsed":218148,"internal_node_id":"0.0-37.0"},{"Rune":"03","Correct":32,"Choice":32,"RT":364.50500000000466,"Accuracy":1,"Sham":0,"Outcome":"+10","Keys":[1864.6100000000733],"TotalKeys":1,"Block":1,"Trial":26,"Valence":"Win","Action":"Go","Robot":1,"trial_type":"pit-trial","trial_index":38,"time_elapsed":221035,"internal_node_id":"0.0-38.0"},{"Rune":"06","Correct":32,"Choice":32,"RT":302.38000000006286,"Accuracy":1,"Sham":0,"Outcome":"+0","Keys":[1804.744999999908],"TotalKeys":1,"Block":1,"Trial":27,"Valence":"Lose","Action":"Go","Robot":3,"trial_type":"pit-trial","trial_index":39,"time_elapsed":223858,"internal_node_id":"0.0-39.0"},{"Rune":"05","Correct":-1,"Choice":32,"RT":958.1399999997229,"Accuracy":0,"Sham":0,"Outcome":"+0","Keys":[2458.355000000214],"TotalKeys":1,"Block":1,"Trial":28,"Valence":"Win","Action":"No-Go","Robot":2,"trial_type":"pit-trial","trial_index":40,"time_elapsed":227341,"internal_node_id":"0.0-40.0"},{"Rune":"06","Correct":32,"Choice":32,"RT":407.3150000003807,"Accuracy":1,"Sham":0,"Outcome":"+0","Keys":[1907.460000000341],"TotalKeys":1,"Block":1,"Trial":29,"Valence":"Lose","Action":"Go","Robot":3,"trial_type":"pit-trial","trial_index":41,"time_elapsed":230275,"internal_node_id":"0.0-41.0"},{"Rune":"05","Correct":-1,"Choice":32,"RT":348.5449999998382,"Accuracy":0,"Sham":1,"Outcome":"+10","Keys":[1848.785000000149],"TotalKeys":1,"Block":1,"Trial":30,"Valence":"Win","Action":"No-Go","Robot":2,"trial_type":"pit-trial","trial_index":42,"time_elapsed":233143,"internal_node_id":"0.0-42.0"},{"Rune":"03","Correct":32,"Choice":32,"RT":441.85000000015134,"Accuracy":1,"Sham":1,"Outcome":"+0","Keys":[1941.9849999999278],"TotalKeys":1,"Block":1,"Trial":31,"Valence":"Win","Action":"Go","Robot":1,"trial_type":"pit-trial","trial_index":43,"time_elapsed":236106,"internal_node_id":"0.0-43.0"},{"Rune":"04","Correct":-1,"Choice":-1,"RT":-1,"Accuracy":1,"Sham":0,"Outcome":"+0","Keys":[],"TotalKeys":0,"Block":1,"Trial":32,"Valence":"Lose","Action":"No-Go","Robot":4,"trial_type":"pit-trial","trial_index":44,"time_elapsed":240130,"internal_node_id":"0.0-44.0"},{"Rune":"04","Correct":-1,"Choice":-1,"RT":-1,"Accuracy":1,"Sham":0,"Outcome":"+0","Keys":[],"TotalKeys":0,"Block":1,"Trial":33,"Valence":"Lose","Action":"No-Go","Robot":4,"trial_type":"pit-trial","trial_index":45,"time_elapsed":244154,"internal_node_id":"0.0-45.0"},{"Rune":"05","Correct":-1,"Choice":32,"RT":404.2650000001304,"Accuracy":0,"Sham":0,"Outcome":"+0","Keys":[1905.0049999996263],"TotalKeys":1,"Block":1,"Trial":34,"Valence":"Win","Action":"No-Go","Robot":2,"trial_type":"pit-trial","trial_index":46,"time_elapsed":247079,"internal_node_id":"0.0-46.0"},{"Rune":"03","Correct":32,"Choice":32,"RT":390.64999999981956,"Accuracy":1,"Sham":0,"Outcome":"+10","Keys":[1890.8949999999895],"TotalKeys":1,"Block":1,"Trial":35,"Valence":"Win","Action":"Go","Robot":1,"trial_type":"pit-trial","trial_index":47,"time_elapsed":249992,"internal_node_id":"0.0-47.0"},{"Rune":"06","Correct":32,"Choice":32,"RT":608.490000000078,"Accuracy":1,"Sham":1,"Outcome":"-10","Keys":[2110.310000000027],"TotalKeys":1,"Block":1,"Trial":36,"Valence":"Lose","Action":"Go","Robot":3,"trial_type":"pit-trial","trial_index":48,"time_elapsed":253125,"internal_node_id":"0.0-48.0"},{"Rune":"04","Correct":-1,"Choice":-1,"RT":-1,"Accuracy":1,"Sham":1,"Outcome":"-10","Keys":[],"TotalKeys":0,"Block":1,"Trial":37,"Valence":"Lose","Action":"No-Go","Robot":4,"trial_type":"pit-trial","trial_index":49,"time_elapsed":257152,"internal_node_id":"0.0-49.0"},{"Rune":"06","Correct":32,"Choice":32,"RT":207.12499999988358,"Accuracy":1,"Sham":0,"Outcome":"+0","Keys":[1708.5900000001711],"TotalKeys":1,"Block":1,"Trial":38,"Valence":"Lose","Action":"Go","Robot":3,"trial_type":"pit-trial","trial_index":50,"time_elapsed":259886,"internal_node_id":"0.0-50.0"},{"Rune":"03","Correct":32,"Choice":32,"RT":333.2049999998999,"Accuracy":1,"Sham":0,"Outcome":"+10","Keys":[1833.9150000001537],"TotalKeys":1,"Block":1,"Trial":39,"Valence":"Win","Action":"Go","Robot":1,"trial_type":"pit-trial","trial_index":51,"time_elapsed":262741,"internal_node_id":"0.0-51.0"},{"Rune":"05","Correct":-1,"Choice":32,"RT":472.6150000001071,"Accuracy":0,"Sham":0,"Outcome":"+0","Keys":[1974.0399999995716],"TotalKeys":1,"Block":1,"Trial":40,"Valence":"Win","Action":"No-Go","Robot":2,"trial_type":"pit-trial","trial_index":52,"time_elapsed":265732,"internal_node_id":"0.0-52.0"},{"Rune":"06","Correct":32,"Choice":32,"RT":284.0700000001816,"Accuracy":1,"Sham":1,"Outcome":"-10","Keys":[1784.329999999958],"TotalKeys":1,"Block":1,"Trial":41,"Valence":"Lose","Action":"Go","Robot":3,"trial_type":"pit-trial","trial_index":53,"time_elapsed":268540,"internal_node_id":"0.0-53.0"},{"Rune":"05","Correct":-1,"Choice":32,"RT":330.48999999981606,"Accuracy":0,"Sham":0,"Outcome":"+0","Keys":[1831.9449999999488],"TotalKeys":1,"Block":1,"Trial":42,"Valence":"Win","Action":"No-Go","Robot":2,"trial_type":"pit-trial","trial_index":54,"time_elapsed":271392,"internal_node_id":"0.0-54.0"},{"Rune":"04","Correct":-1,"Choice":32,"RT":573.3749999999418,"Accuracy":0,"Sham":0,"Outcome":"-10","Keys":[2074.259999999893],"TotalKeys":1,"Block":1,"Trial":43,"Valence":"Lose","Action":"No-Go","Robot":4,"trial_type":"pit-trial","trial_index":55,"time_elapsed":274489,"internal_node_id":"0.0-55.0"},{"Rune":"03","Correct":32,"Choice":32,"RT":382.1950000001234,"Accuracy":1,"Sham":0,"Outcome":"+10","Keys":[1883.4649999999092],"TotalKeys":1,"Block":1,"Trial":44,"Valence":"Win","Action":"Go","Robot":1,"trial_type":"pit-trial","trial_index":56,"time_elapsed":277390,"internal_node_id":"0.0-56.0"},{"Rune":"04","Correct":-1,"Choice":32,"RT":919.8249999998952,"Accuracy":0,"Sham":0,"Outcome":"-10","Keys":[2422.2549999999464],"TotalKeys":1,"Block":1,"Trial":45,"Valence":"Lose","Action":"No-Go","Robot":4,"trial_type":"pit-trial","trial_index":57,"time_elapsed":280831,"internal_node_id":"0.0-57.0"},{"Rune":"05","Correct":-1,"Choice":32,"RT":1433.2199999998556,"Accuracy":0,"Sham":1,"Outcome":"+10","Keys":[2933.5300000002608],"TotalKeys":1,"Block":1,"Trial":46,"Valence":"Win","Action":"No-Go","Robot":2,"trial_type":"pit-trial","trial_index":58,"time_elapsed":284783,"internal_node_id":"0.0-58.0"},{"Rune":"06","Correct":32,"Choice":-1,"RT":-1,"Accuracy":0,"Sham":0,"Outcome":"-10","Keys":[3741.2250000002095],"TotalKeys":1,"Block":1,"Trial":47,"Valence":"Lose","Action":"Go","Robot":3,"trial_type":"pit-trial","trial_index":59,"time_elapsed":288807,"internal_node_id":"0.0-59.0"},{"Rune":"03","Correct":32,"Choice":32,"RT":156.39999999984866,"Accuracy":1,"Sham":0,"Outcome":"+10","Keys":[1658.1049999999814],"TotalKeys":1,"Block":1,"Trial":48,"Valence":"Win","Action":"Go","Robot":1,"trial_type":"pit-trial","trial_index":60,"time_elapsed":291485,"internal_node_id":"0.0-60.0"},{"Rune":"04","Correct":-1,"Choice":32,"RT":336.7849999999744,"Accuracy":0,"Sham":0,"Outcome":"-10","Keys":[1837.7300000002142],"TotalKeys":1,"Block":1,"Trial":49,"Valence":"Lose","Action":"No-Go","Robot":4,"trial_type":"pit-trial","trial_index":61,"time_elapsed":294341,"internal_node_id":"0.0-61.0"},{"Rune":"03","Correct":32,"Choice":32,"RT":265.5299999996787,"Accuracy":1,"Sham":0,"Outcome":"+10","Keys":[1768.0199999999604],"TotalKeys":1,"Block":1,"Trial":50,"Valence":"Win","Action":"Go","Robot":1,"trial_type":"pit-trial","trial_index":62,"time_elapsed":297128,"internal_node_id":"0.0-62.0"},{"Rune":"05","Correct":-1,"Choice":32,"RT":557.5049999997718,"Accuracy":0,"Sham":0,"Outcome":"+0","Keys":[2058.929999999702],"TotalKeys":1,"Block":1,"Trial":51,"Valence":"Win","Action":"No-Go","Robot":2,"trial_type":"pit-trial","trial_index":63,"time_elapsed":300205,"internal_node_id":"0.0-63.0"},{"Rune":"06","Correct":32,"Choice":-1,"RT":-1,"Accuracy":0,"Sham":0,"Outcome":"-10","Keys":[3637.975000000093],"TotalKeys":1,"Block":1,"Trial":52,"Valence":"Lose","Action":"Go","Robot":3,"trial_type":"pit-trial","trial_index":64,"time_elapsed":304229,"internal_node_id":"0.0-64.0"},{"Rune":"05","Correct":-1,"Choice":32,"RT":280.534999999858,"Accuracy":0,"Sham":0,"Outcome":"+0","Keys":[656.00499999983,1781.539999999979],"TotalKeys":2,"Block":1,"Trial":53,"Valence":"Win","Action":"No-Go","Robot":2,"trial_type":"pit-trial","trial_index":65,"time_elapsed":307033,"internal_node_id":"0.0-65.0"},{"Rune":"06","Correct":32,"Choice":32,"RT":268.6849999999977,"Accuracy":1,"Sham":0,"Outcome":"+0","Keys":[1769.0199999997276],"TotalKeys":1,"Block":1,"Trial":54,"Valence":"Lose","Action":"Go","Robot":3,"trial_type":"pit-trial","trial_index":66,"time_elapsed":309824,"internal_node_id":"0.0-66.0"},{"Rune":"04","Correct":-1,"Choice":32,"RT":584.9650000000256,"Accuracy":0,"Sham":0,"Outcome":"-10","Keys":[2086.5200000003097],"TotalKeys":1,"Block":1,"Trial":55,"Valence":"Lose","Action":"No-Go","Robot":4,"trial_type":"pit-trial","trial_index":67,"time_elapsed":312933,"internal_node_id":"0.0-67.0"},{"Rune":"03","Correct":32,"Choice":32,"RT":899.199999999837,"Accuracy":1,"Sham":0,"Outcome":"+10","Keys":[2399.8249999999534],"TotalKeys":1,"Block":1,"Trial":56,"Valence":"Win","Action":"Go","Robot":1,"trial_type":"pit-trial","trial_index":68,"time_elapsed":316357,"internal_node_id":"0.0-68.0"},{"Rune":"03","Correct":32,"Choice":32,"RT":332.5950000003213,"Accuracy":1,"Sham":1,"Outcome":"+0","Keys":[1834.6750000000466],"TotalKeys":1,"Block":1,"Trial":57,"Valence":"Win","Action":"Go","Robot":1,"trial_type":"pit-trial","trial_index":69,"time_elapsed":319212,"internal_node_id":"0.0-69.0"},{"Rune":"06","Correct":32,"Choice":32,"RT":576.3099999998813,"Accuracy":1,"Sham":0,"Outcome":"+0","Keys":[2078.2749999998487],"TotalKeys":1,"Block":1,"Trial":58,"Valence":"Lose","Action":"Go","Robot":3,"trial_type":"pit-trial","trial_index":70,"time_elapsed":322305,"internal_node_id":"0.0-70.0"},{"Rune":"04","Correct":-1,"Choice":32,"RT":1068.3850000000675,"Accuracy":0,"Sham":1,"Outcome":"+0","Keys":[2569.884999999893],"TotalKeys":1,"Block":1,"Trial":59,"Valence":"Lose","Action":"No-Go","Robot":4,"trial_type":"pit-trial","trial_index":71,"time_elapsed":325896,"internal_node_id":"0.0-71.0"},{"Rune":"05","Correct":-1,"Choice":32,"RT":506.9199999998091,"Accuracy":0,"Sham":0,"Outcome":"+0","Keys":[2007.0550000000512],"TotalKeys":1,"Block":1,"Trial":60,"Valence":"Win","Action":"No-Go","Robot":2,"trial_type":"pit-trial","trial_index":72,"time_elapsed":328921,"internal_node_id":"0.0-72.0"},{"Rune":"05","Correct":-1,"Choice":32,"RT":514.515000000305,"Accuracy":0,"Sham":0,"Outcome":"+0","Keys":[2014.8150000000023],"TotalKeys":1,"Block":1,"Trial":61,"Valence":"Win","Action":"No-Go","Robot":2,"trial_type":"pit-trial","trial_index":73,"time_elapsed":331953,"internal_node_id":"0.0-73.0"},{"Rune":"06","Correct":32,"Choice":32,"RT":693.0150000002468,"Accuracy":1,"Sham":0,"Outcome":"+0","Keys":[2193.4449999998906],"TotalKeys":1,"Block":1,"Trial":62,"Valence":"Lose","Action":"Go","Robot":3,"trial_type":"pit-trial","trial_index":74,"time_elapsed":335169,"internal_node_id":"0.0-74.0"},{"Rune":"04","Correct":-1,"Choice":-1,"RT":-1,"Accuracy":1,"Sham":0,"Outcome":"+0","Keys":[],"TotalKeys":0,"Block":1,"Trial":63,"Valence":"Lose","Action":"No-Go","Robot":4,"trial_type":"pit-trial","trial_index":75,"time_elapsed":339199,"internal_node_id":"0.0-75.0"},{"Rune":"03","Correct":32,"Choice":32,"RT":232.9199999999255,"Accuracy":1,"Sham":0,"Outcome":"+10","Keys":[1733.2949999999837],"TotalKeys":1,"Block":1,"Trial":64,"Valence":"Win","Action":"Go","Robot":1,"trial_type":"pit-trial","trial_index":76,"time_elapsed":341950,"internal_node_id":"0.0-76.0"},{"Rune":"05","Correct":-1,"Choice":32,"RT":423.4750000000349,"Accuracy":0,"Sham":0,"Outcome":"+0","Keys":[1924.5000000000582],"TotalKeys":1,"Block":1,"Trial":65,"Valence":"Win","Action":"No-Go","Robot":2,"trial_type":"pit-trial","trial_index":77,"time_elapsed":344899,"internal_node_id":"0.0-77.0"},{"Rune":"04","Correct":-1,"Choice":-1,"RT":-1,"Accuracy":1,"Sham":0,"Outcome":"+0","Keys":[],"TotalKeys":0,"Block":1,"Trial":66,"Valence":"Lose","Action":"No-Go","Robot":4,"trial_type":"pit-trial","trial_index":78,"time_elapsed":348927,"internal_node_id":"0.0-78.0"},{"Rune":"03","Correct":32,"Choice":32,"RT":326.28999999997905,"Accuracy":1,"Sham":1,"Outcome":"+0","Keys":[1827.4799999999232],"TotalKeys":1,"Block":1,"Trial":67,"Valence":"Win","Action":"Go","Robot":1,"trial_type":"pit-trial","trial_index":79,"time_elapsed":351772,"internal_node_id":"0.0-79.0"},{"Rune":"06","Correct":32,"Choice":32,"RT":502.4900000002817,"Accuracy":1,"Sham":0,"Outcome":"+0","Keys":[2003.5699999998324],"TotalKeys":1,"Block":1,"Trial":68,"Valence":"Lose","Action":"Go","Robot":3,"trial_type":"pit-trial","trial_index":80,"time_elapsed":354800,"internal_node_id":"0.0-80.0"},{"Rune":"04","Correct":-1,"Choice":-1,"RT":-1,"Accuracy":1,"Sham":1,"Outcome":"-10","Keys":[],"TotalKeys":0,"Block":1,"Trial":69,"Valence":"Lose","Action":"No-Go","Robot":4,"trial_type":"pit-trial","trial_index":81,"time_elapsed":358829,"internal_node_id":"0.0-81.0"},{"Rune":"06","Correct":32,"Choice":32,"RT":252.90500000026077,"Accuracy":1,"Sham":0,"Outcome":"+0","Keys":[1753.6950000003562],"TotalKeys":1,"Block":1,"Trial":70,"Valence":"Lose","Action":"Go","Robot":3,"trial_type":"pit-trial","trial_index":82,"time_elapsed":361601,"internal_node_id":"0.0-82.0"},{"Rune":"03","Correct":32,"Choice":32,"RT":279.92499999981374,"Accuracy":1,"Sham":0,"Outcome":"+10","Keys":[1780.0899999997928],"TotalKeys":1,"Block":1,"Trial":71,"Valence":"Win","Action":"Go","Robot":1,"trial_type":"pit-trial","trial_index":83,"time_elapsed":364400,"internal_node_id":"0.0-83.0"},{"Rune":"05","Correct":-1,"Choice":32,"RT":231.37500000029104,"Accuracy":0,"Sham":0,"Outcome":"+0","Keys":[1731.5400000002119],"TotalKeys":1,"Block":1,"Trial":72,"Valence":"Win","Action":"No-Go","Robot":2,"trial_type":"pit-trial","trial_index":84,"time_elapsed":367153,"internal_node_id":"0.0-84.0"},{"Rune":"05","Correct":-1,"Choice":32,"RT":308.40500000020256,"Accuracy":0,"Sham":0,"Outcome":"+0","Keys":[1808.8800000000047],"TotalKeys":1,"Block":1,"Trial":73,"Valence":"Win","Action":"No-Go","Robot":2,"trial_type":"pit-trial","trial_index":85,"time_elapsed":369982,"internal_node_id":"0.0-85.0"},{"Rune":"06","Correct":32,"Choice":32,"RT":313.7750000000815,"Accuracy":1,"Sham":1,"Outcome":"-10","Keys":[1814.8999999998487],"TotalKeys":1,"Block":1,"Trial":74,"Valence":"Lose","Action":"Go","Robot":3,"trial_type":"pit-trial","trial_index":86,"time_elapsed":372817,"internal_node_id":"0.0-86.0"},{"Rune":"03","Correct":32,"Choice":32,"RT":183.6699999999255,"Accuracy":1,"Sham":0,"Outcome":"+10","Keys":[1684.2200000000885],"TotalKeys":1,"Block":1,"Trial":75,"Valence":"Win","Action":"Go","Robot":1,"trial_type":"pit-trial","trial_index":87,"time_elapsed":375519,"internal_node_id":"0.0-87.0"},{"Rune":"04","Correct":-1,"Choice":-1,"RT":-1,"Accuracy":1,"Sham":0,"Outcome":"+0","Keys":[],"TotalKeys":0,"Block":1,"Trial":76,"Valence":"Lose","Action":"No-Go","Robot":4,"trial_type":"pit-trial","trial_index":88,"time_elapsed":379544,"internal_node_id":"0.0-88.0"},{"Rune":"05","Correct":-1,"Choice":32,"RT":399.62999999988824,"Accuracy":0,"Sham":1,"Outcome":"+10","Keys":[1901.8900000000722],"TotalKeys":1,"Block":1,"Trial":77,"Valence":"Win","Action":"No-Go","Robot":2,"trial_type":"pit-trial","trial_index":89,"time_elapsed":382465,"internal_node_id":"0.0-89.0"},{"Rune":"03","Correct":32,"Choice":32,"RT":413.52499999990687,"Accuracy":1,"Sham":0,"Outcome":"+10","Keys":[1914.1050000003306],"TotalKeys":1,"Block":1,"Trial":78,"Valence":"Win","Action":"Go","Robot":1,"trial_type":"pit-trial","trial_index":90,"time_elapsed":385397,"internal_node_id":"0.0-90.0"},{"Rune":"04","Correct":-1,"Choice":-1,"RT":-1,"Accuracy":1,"Sham":0,"Outcome":"+0","Keys":[],"TotalKeys":0,"Block":1,"Trial":79,"Valence":"Lose","Action":"No-Go","Robot":4,"trial_type":"pit-trial","trial_index":91,"time_elapsed":389421,"internal_node_id":"0.0-91.0"},{"Rune":"06","Correct":32,"Choice":32,"RT":481.76000000012573,"Accuracy":1,"Sham":0,"Outcome":"+0","Keys":[1982.0850000000792],"TotalKeys":1,"Block":1,"Trial":80,"Valence":"Lose","Action":"Go","Robot":3,"trial_type":"pit-trial","trial_index":92,"time_elapsed":392422,"internal_node_id":"0.0-92.0"},{"value":false,"trial_type":"call-function","trial_index":93,"time_elapsed":392440,"internal_node_id":"0.0-93.0"},{"RT":1376.3699999999953,"trial_type":"pit-pause","trial_index":94,"time_elapsed":394849,"internal_node_id":"0.0-94.0"},{"Rune":"03","Correct":32,"Choice":32,"RT":295.56999999977415,"Accuracy":1,"Sham":0,"Outcome":"+10","Keys":[1796.6300000002375],"TotalKeys":1,"Block":2,"Trial":81,"Valence":"Win","Action":"Go","Robot":1,"trial_type":"pit-trial","trial_index":95,"time_elapsed":397662,"internal_node_id":"0.0-95.0"},{"Rune":"05","Correct":-1,"Choice":32,"RT":302.1549999998533,"Accuracy":0,"Sham":0,"Outcome":"+0","Keys":[1804.8250000001863],"TotalKeys":1,"Block":2,"Trial":82,"Valence":"Win","Action":"No-Go","Robot":2,"trial_type":"pit-trial","trial_index":96,"time_elapsed":400486,"internal_node_id":"0.0-96.0"},{"Rune":"04","Correct":-1,"Choice":-1,"RT":-1,"Accuracy":1,"Sham":0,"Outcome":"+0","Keys":[],"TotalKeys":0,"Block":2,"Trial":83,"Valence":"Lose","Action":"No-Go","Robot":4,"trial_type":"pit-trial","trial_index":97,"time_elapsed":404510,"internal_node_id":"0.0-97.0"},{"Rune":"06","Correct":32,"Choice":32,"RT":216.08500000002095,"Accuracy":1,"Sham":0,"Outcome":"+0","Keys":[1716.2699999999022],"TotalKeys":1,"Block":2,"Trial":84,"Valence":"Lose","Action":"Go","Robot":3,"trial_type":"pit-trial","trial_index":98,"time_elapsed":407249,"internal_node_id":"0.0-98.0"},{"Rune":"03","Correct":32,"Choice":32,"RT":353.5500000002794,"Accuracy":1,"Sham":0,"Outcome":"+10","Keys":[1853.710000000312],"TotalKeys":1,"Block":2,"Trial":85,"Valence":"Win","Action":"Go","Robot":1,"trial_type":"pit-trial","trial_index":99,"time_elapsed":410123,"internal_node_id":"0.0-99.0"},{"Rune":"05","Correct":-1,"Choice":32,"RT":356.5399999997462,"Accuracy":0,"Sham":0,"Outcome":"+0","Keys":[1856.6350000000675],"TotalKeys":1,"Block":2,"Trial":86,"Valence":"Win","Action":"No-Go","Robot":2,"trial_type":"pit-trial","trial_index":100,"time_elapsed":413004,"internal_node_id":"0.0-100.0"},{"Rune":"06","Correct":32,"Choice":32,"RT":527.945000000298,"Accuracy":1,"Sham":0,"Outcome":"+0","Keys":[2028.1450000002515],"TotalKeys":1,"Block":2,"Trial":87,"Valence":"Lose","Action":"Go","Robot":3,"trial_type":"pit-trial","trial_index":101,"time_elapsed":416052,"internal_node_id":"0.0-101.0"},{"Rune":"04","Correct":-1,"Choice":32,"RT":582.6050000000396,"Accuracy":0,"Sham":0,"Outcome":"-10","Keys":[2083.825000000128],"TotalKeys":1,"Block":2,"Trial":88,"Valence":"Lose","Action":"No-Go","Robot":4,"trial_type":"pit-trial","trial_index":102,"time_elapsed":419156,"internal_node_id":"0.0-102.0"},{"Rune":"06","Correct":32,"Choice":32,"RT":491.43499999988126,"Accuracy":1,"Sham":1,"Outcome":"-10","Keys":[1991.5649999997695],"TotalKeys":1,"Block":2,"Trial":89,"Valence":"Lose","Action":"Go","Robot":3,"trial_type":"pit-trial","trial_index":103,"time_elapsed":422168,"internal_node_id":"0.0-103.0"},{"Rune":"03","Correct":32,"Choice":32,"RT":333.909999999858,"Accuracy":1,"Sham":1,"Outcome":"+0","Keys":[1834.125000000291],"TotalKeys":1,"Block":2,"Trial":90,"Valence":"Win","Action":"Go","Robot":1,"trial_type":"pit-trial","trial_index":104,"time_elapsed":425024,"internal_node_id":"0.0-104.0"},{"Rune":"05","Correct":-1,"Choice":32,"RT":293.75999999954365,"Accuracy":0,"Sham":0,"Outcome":"+0","Keys":[1794.0350000003236],"TotalKeys":1,"Block":2,"Trial":91,"Valence":"Win","Action":"No-Go","Robot":2,"trial_type":"pit-trial","trial_index":105,"time_elapsed":427841,"internal_node_id":"0.0-105.0"},{"Rune":"04","Correct":-1,"Choice":-1,"RT":-1,"Accuracy":1,"Sham":0,"Outcome":"+0","Keys":[],"TotalKeys":0,"Block":2,"Trial":92,"Valence":"Lose","Action":"No-Go","Robot":4,"trial_type":"pit-trial","trial_index":106,"time_elapsed":431868,"internal_node_id":"0.0-106.0"},{"Rune":"04","Correct":-1,"Choice":-1,"RT":-1,"Accuracy":1,"Sham":0,"Outcome":"+0","Keys":[],"TotalKeys":0,"Block":2,"Trial":93,"Valence":"Lose","Action":"No-Go","Robot":4,"trial_type":"pit-trial","trial_index":107,"time_elapsed":435886,"internal_node_id":"0.0-107.0"},{"Rune":"03","Correct":32,"Choice":32,"RT":428.01499999995576,"Accuracy":1,"Sham":0,"Outcome":"+10","Keys":[1929.8149999999441],"TotalKeys":1,"Block":2,"Trial":94,"Valence":"Win","Action":"Go","Robot":1,"trial_type":"pit-trial","trial_index":108,"time_elapsed":438832,"internal_node_id":"0.0-108.0"},{"Rune":"06","Correct":32,"Choice":-1,"RT":-1,"Accuracy":0,"Sham":0,"Outcome":"-10","Keys":[],"TotalKeys":0,"Block":2,"Trial":95,"Valence":"Lose","Action":"Go","Robot":3,"trial_type":"pit-trial","trial_index":109,"time_elapsed":442859,"internal_node_id":"0.0-109.0"},{"Rune":"05","Correct":-1,"Choice":32,"RT":322.99499999999534,"Accuracy":0,"Sham":1,"Outcome":"+10","Keys":[1823.1700000001583],"TotalKeys":1,"Block":2,"Trial":96,"Valence":"Win","Action":"No-Go","Robot":2,"trial_type":"pit-trial","trial_index":110,"time_elapsed":445705,"internal_node_id":"0.0-110.0"},{"Rune":"04","Correct":-1,"Choice":-1,"RT":-1,"Accuracy":1,"Sham":1,"Outcome":"-10","Keys":[],"TotalKeys":0,"Block":2,"Trial":97,"Valence":"Lose","Action":"No-Go","Robot":4,"trial_type":"pit-trial","trial_index":111,"time_elapsed":449732,"internal_node_id":"0.0-111.0"},{"Rune":"03","Correct":32,"Choice":32,"RT":309.69499999989057,"Accuracy":1,"Sham":0,"Outcome":"+10","Keys":[1809.8700000000536],"TotalKeys":1,"Block":2,"Trial":98,"Valence":"Win","Action":"Go","Robot":1,"trial_type":"pit-trial","trial_index":112,"time_elapsed":452564,"internal_node_id":"0.0-112.0"},{"Rune":"06","Correct":32,"Choice":32,"RT":391.1800000000512,"Accuracy":1,"Sham":0,"Outcome":"+0","Keys":[1892.455000000191],"TotalKeys":1,"Block":2,"Trial":99,"Valence":"Lose","Action":"Go","Robot":3,"trial_type":"pit-trial","trial_index":113,"time_elapsed":455479,"internal_node_id":"0.0-113.0"},{"Rune":"05","Correct":-1,"Choice":32,"RT":345.9150000003283,"Accuracy":0,"Sham":0,"Outcome":"+0","Keys":[1846.0949999998556],"TotalKeys":1,"Block":2,"Trial":100,"Valence":"Win","Action":"No-Go","Robot":2,"trial_type":"pit-trial","trial_index":114,"time_elapsed":458347,"internal_node_id":"0.0-114.0"},{"Rune":"04","Correct":-1,"Choice":32,"RT":571.6449999999604,"Accuracy":0,"Sham":0,"Outcome":"-10","Keys":[2073.4149999998044],"TotalKeys":1,"Block":2,"Trial":101,"Valence":"Lose","Action":"No-Go","Robot":4,"trial_type":"pit-trial","trial_index":115,"time_elapsed":461443,"internal_node_id":"0.0-115.0"},{"Rune":"06","Correct":32,"Choice":32,"RT":295.20000000001164,"Accuracy":1,"Sham":0,"Outcome":"+0","Keys":[1795.859999999695],"TotalKeys":1,"Block":2,"Trial":102,"Valence":"Lose","Action":"Go","Robot":3,"trial_type":"pit-trial","trial_index":116,"time_elapsed":464263,"internal_node_id":"0.0-116.0"},{"Rune":"03","Correct":32,"Choice":32,"RT":260.9000000002561,"Accuracy":1,"Sham":1,"Outcome":"+0","Keys":[1761.2750000003143],"TotalKeys":1,"Block":2,"Trial":103,"Valence":"Win","Action":"Go","Robot":1,"trial_type":"pit-trial","trial_index":117,"time_elapsed":467046,"internal_node_id":"0.0-117.0"},{"Rune":"05","Correct":-1,"Choice":32,"RT":303.4099999999744,"Accuracy":0,"Sham":1,"Outcome":"+10","Keys":[1804.8450000000885],"TotalKeys":1,"Block":2,"Trial":104,"Valence":"Win","Action":"No-Go","Robot":2,"trial_type":"pit-trial","trial_index":118,"time_elapsed":469870,"internal_node_id":"0.0-118.0"},{"Rune":"06","Correct":32,"Choice":32,"RT":670.7099999999045,"Accuracy":1,"Sham":0,"Outcome":"+0","Keys":[2170.8899999998976],"TotalKeys":1,"Block":2,"Trial":105,"Valence":"Lose","Action":"Go","Robot":3,"trial_type":"pit-trial","trial_index":119,"time_elapsed":473069,"internal_node_id":"0.0-119.0"},{"Rune":"03","Correct":32,"Choice":32,"RT":398.2750000000233,"Accuracy":1,"Sham":0,"Outcome":"+10","Keys":[1900.4249999998137],"TotalKeys":1,"Block":2,"Trial":106,"Valence":"Win","Action":"Go","Robot":1,"trial_type":"pit-trial","trial_index":120,"time_elapsed":475990,"internal_node_id":"0.0-120.0"},{"Rune":"05","Correct":-1,"Choice":32,"RT":341.1700000001583,"Accuracy":0,"Sham":0,"Outcome":"+0","Keys":[1841.2499999999418],"TotalKeys":1,"Block":2,"Trial":107,"Valence":"Win","Action":"No-Go","Robot":2,"trial_type":"pit-trial","trial_index":121,"time_elapsed":478851,"internal_node_id":"0.0-121.0"},{"Rune":"04","Correct":-1,"Choice":-1,"RT":-1,"Accuracy":1,"Sham":0,"Outcome":"+0","Keys":[],"TotalKeys":0,"Block":2,"Trial":108,"Valence":"Lose","Action":"No-Go","Robot":4,"trial_type":"pit-trial","trial_index":122,"time_elapsed":482875,"internal_node_id":"0.0-122.0"},{"Rune":"05","Correct":-1,"Choice":32,"RT":288.4249999997555,"Accuracy":0,"Sham":0,"Outcome":"+0","Keys":[1788.6149999999325],"TotalKeys":1,"Block":2,"Trial":109,"Valence":"Win","Action":"No-Go","Robot":2,"trial_type":"pit-trial","trial_index":123,"time_elapsed":485690,"internal_node_id":"0.0-123.0"},{"Rune":"04","Correct":-1,"Choice":-1,"RT":-1,"Accuracy":1,"Sham":0,"Outcome":"+0","Keys":[],"TotalKeys":0,"Block":2,"Trial":110,"Valence":"Lose","Action":"No-Go","Robot":4,"trial_type":"pit-trial","trial_index":124,"time_elapsed":489713,"internal_node_id":"0.0-124.0"},{"Rune":"03","Correct":32,"Choice":32,"RT":223.3699999997043,"Accuracy":1,"Sham":0,"Outcome":"+10","Keys":[1723.6400000001886],"TotalKeys":1,"Block":2,"Trial":111,"Valence":"Win","Action":"Go","Robot":1,"trial_type":"pit-trial","trial_index":125,"time_elapsed":492456,"internal_node_id":"0.0-125.0"},{"Rune":"06","Correct":32,"Choice":32,"RT":427.19499999977415,"Accuracy":1,"Sham":0,"Outcome":"+0","Keys":[1928.1700000001583],"TotalKeys":1,"Block":2,"Trial":112,"Valence":"Lose","Action":"Go","Robot":3,"trial_type":"pit-trial","trial_index":126,"time_elapsed":495402,"internal_node_id":"0.0-126.0"},{"Rune":"05","Correct":-1,"Choice":32,"RT":409.77999999996973,"Accuracy":0,"Sham":0,"Outcome":"+0","Keys":[1911.9550000000745],"TotalKeys":1,"Block":2,"Trial":113,"Valence":"Win","Action":"No-Go","Robot":2,"trial_type":"pit-trial","trial_index":127,"time_elapsed":498334,"internal_node_id":"0.0-127.0"},{"Rune":"04","Correct":-1,"Choice":32,"RT":295.2599999998929,"Accuracy":0,"Sham":0,"Outcome":"-10","Keys":[1796.335000000021],"TotalKeys":1,"Block":2,"Trial":114,"Valence":"Lose","Action":"No-Go","Robot":4,"trial_type":"pit-trial","trial_index":128,"time_elapsed":501154,"internal_node_id":"0.0-128.0"},{"Rune":"06","Correct":32,"Choice":32,"RT":304.1800000000512,"Accuracy":1,"Sham":1,"Outcome":"-10","Keys":[1805.2899999998044],"TotalKeys":1,"Block":2,"Trial":115,"Valence":"Lose","Action":"Go","Robot":3,"trial_type":"pit-trial","trial_index":129,"time_elapsed":503976,"internal_node_id":"0.0-129.0"},{"Rune":"03","Correct":32,"Choice":32,"RT":265.4649999999674,"Accuracy":1,"Sham":0,"Outcome":"+10","Keys":[1765.6649999999208],"TotalKeys":1,"Block":2,"Trial":116,"Valence":"Win","Action":"Go","Robot":1,"trial_type":"pit-trial","trial_index":130,"time_elapsed":506763,"internal_node_id":"0.0-130.0"},{"Rune":"04","Correct":-1,"Choice":-1,"RT":-1,"Accuracy":1,"Sham":1,"Outcome":"-10","Keys":[3930.9349999998813],"TotalKeys":1,"Block":2,"Trial":117,"Valence":"Lose","Action":"No-Go","Robot":4,"trial_type":"pit-trial","trial_index":131,"time_elapsed":510785,"internal_node_id":"0.0-131.0"},{"Rune":"06","Correct":32,"Choice":32,"RT":245.35500000003958,"Accuracy":1,"Sham":0,"Outcome":"+0","Keys":[1746.865000000049],"TotalKeys":1,"Block":2,"Trial":118,"Valence":"Lose","Action":"Go","Robot":3,"trial_type":"pit-trial","trial_index":132,"time_elapsed":513558,"internal_node_id":"0.0-132.0"},{"Rune":"05","Correct":-1,"Choice":32,"RT":352.6600000000326,"Accuracy":0,"Sham":0,"Outcome":"+0","Keys":[1852.8950000000186],"TotalKeys":1,"Block":2,"Trial":119,"Valence":"Win","Action":"No-Go","Robot":2,"trial_type":"pit-trial","trial_index":133,"time_elapsed":516434,"internal_node_id":"0.0-133.0"},{"Rune":"03","Correct":32,"Choice":32,"RT":329.6249999998836,"Accuracy":1,"Sham":0,"Outcome":"+10","Keys":[1830.6249999995925],"TotalKeys":1,"Block":2,"Trial":120,"Valence":"Win","Action":"Go","Robot":1,"trial_type":"pit-trial","trial_index":134,"time_elapsed":519286,"internal_node_id":"0.0-134.0"},{"Rune":"05","Correct":-1,"Choice":32,"RT":277.0950000003795,"Accuracy":0,"Sham":0,"Outcome":"+0","Keys":[1777.230000000156,2319.435000000347],"TotalKeys":2,"Block":2,"Trial":121,"Valence":"Win","Action":"No-Go","Robot":2,"trial_type":"pit-trial","trial_index":135,"time_elapsed":522085,"internal_node_id":"0.0-135.0"},{"Rune":"04","Correct":-1,"Choice":32,"RT":851.8450000002049,"Accuracy":0,"Sham":0,"Outcome":"-10","Keys":[2352.6000000002095],"TotalKeys":1,"Block":2,"Trial":122,"Valence":"Lose","Action":"No-Go","Robot":4,"trial_type":"pit-trial","trial_index":136,"time_elapsed":525456,"internal_node_id":"0.0-136.0"},{"Rune":"06","Correct":32,"Choice":32,"RT":270.8100000000559,"Accuracy":1,"Sham":0,"Outcome":"+0","Keys":[1771.8599999998696],"TotalKeys":1,"Block":2,"Trial":123,"Valence":"Lose","Action":"Go","Robot":3,"trial_type":"pit-trial","trial_index":137,"time_elapsed":528249,"internal_node_id":"0.0-137.0"},{"Rune":"03","Correct":32,"Choice":32,"RT":304.6299999996554,"Accuracy":1,"Sham":1,"Outcome":"+0","Keys":[1804.7250000004424],"TotalKeys":1,"Block":2,"Trial":124,"Valence":"Win","Action":"Go","Robot":1,"trial_type":"pit-trial","trial_index":138,"time_elapsed":531076,"internal_node_id":"0.0-138.0"},{"Rune":"06","Correct":32,"Choice":32,"RT":320.4749999999767,"Accuracy":1,"Sham":1,"Outcome":"-10","Keys":[1820.6650000001537],"TotalKeys":1,"Block":2,"Trial":125,"Valence":"Lose","Action":"Go","Robot":3,"trial_type":"pit-trial","trial_index":139,"time_elapsed":533920,"internal_node_id":"0.0-139.0"},{"Rune":"04","Correct":-1,"Choice":-1,"RT":-1,"Accuracy":1,"Sham":0,"Outcome":"+0","Keys":[],"TotalKeys":0,"Block":2,"Trial":126,"Valence":"Lose","Action":"No-Go","Robot":4,"trial_type":"pit-trial","trial_index":140,"time_elapsed":537942,"internal_node_id":"0.0-140.0"},{"Rune":"05","Correct":-1,"Choice":32,"RT":259.1500000002561,"Accuracy":0,"Sham":0,"Outcome":"+0","Keys":[1760.8199999999488],"TotalKeys":1,"Block":2,"Trial":127,"Valence":"Win","Action":"No-Go","Robot":2,"trial_type":"pit-trial","trial_index":141,"time_elapsed":540724,"internal_node_id":"0.0-141.0"},{"Rune":"03","Correct":32,"Choice":32,"RT":303.58500000007916,"Accuracy":1,"Sham":0,"Outcome":"+10","Keys":[1803.7249999997439],"TotalKeys":1,"Block":2,"Trial":128,"Valence":"Win","Action":"Go","Robot":1,"trial_type":"pit-trial","trial_index":142,"time_elapsed":543550,"internal_node_id":"0.0-142.0"},{"Rune":"04","Correct":-1,"Choice":-1,"RT":-1,"Accuracy":1,"Sham":0,"Outcome":"+0","Keys":[],"TotalKeys":0,"Block":2,"Trial":129,"Valence":"Lose","Action":"No-Go","Robot":4,"trial_type":"pit-trial","trial_index":143,"time_elapsed":547574,"internal_node_id":"0.0-143.0"},{"Rune":"03","Correct":32,"Choice":32,"RT":473.1799999999348,"Accuracy":1,"Sham":0,"Outcome":"+10","Keys":[1975.0049999997718],"TotalKeys":1,"Block":2,"Trial":130,"Valence":"Win","Action":"Go","Robot":1,"trial_type":"pit-trial","trial_index":144,"time_elapsed":550570,"internal_node_id":"0.0-144.0"},{"Rune":"06","Correct":32,"Choice":32,"RT":421.62999999988824,"Accuracy":1,"Sham":0,"Outcome":"+0","Keys":[1922.7149999997346],"TotalKeys":1,"Block":2,"Trial":131,"Valence":"Lose","Action":"Go","Robot":3,"trial_type":"pit-trial","trial_index":145,"time_elapsed":553515,"internal_node_id":"0.0-145.0"},{"Rune":"05","Correct":-1,"Choice":32,"RT":457.9650000000838,"Accuracy":0,"Sham":0,"Outcome":"+0","Keys":[1959.2600000001257],"TotalKeys":1,"Block":2,"Trial":132,"Valence":"Win","Action":"No-Go","Robot":2,"trial_type":"pit-trial","trial_index":146,"time_elapsed":556497,"internal_node_id":"0.0-146.0"},{"Rune":"04","Correct":-1,"Choice":-1,"RT":-1,"Accuracy":1,"Sham":0,"Outcome":"+0","Keys":[],"TotalKeys":0,"Block":2,"Trial":133,"Valence":"Lose","Action":"No-Go","Robot":4,"trial_type":"pit-trial","trial_index":147,"time_elapsed":560520,"internal_node_id":"0.0-147.0"},{"Rune":"03","Correct":32,"Choice":32,"RT":399.21500000031665,"Accuracy":1,"Sham":0,"Outcome":"+10","Keys":[1901.224999999511],"TotalKeys":1,"Block":2,"Trial":134,"Valence":"Win","Action":"Go","Robot":1,"trial_type":"pit-trial","trial_index":148,"time_elapsed":563445,"internal_node_id":"0.0-148.0"},{"Rune":"06","Correct":32,"Choice":32,"RT":418.3350000001956,"Accuracy":1,"Sham":0,"Outcome":"+0","Keys":[1918.7350000001024],"TotalKeys":1,"Block":2,"Trial":135,"Valence":"Lose","Action":"Go","Robot":3,"trial_type":"pit-trial","trial_index":149,"time_elapsed":566385,"internal_node_id":"0.0-149.0"},{"Rune":"05","Correct":-1,"Choice":32,"RT":423.02000000013504,"Accuracy":0,"Sham":0,"Outcome":"+0","Keys":[1924.484999999986],"TotalKeys":1,"Block":2,"Trial":136,"Valence":"Win","Action":"No-Go","Robot":2,"trial_type":"pit-trial","trial_index":150,"time_elapsed":569327,"internal_node_id":"0.0-150.0"},{"Rune":"04","Correct":-1,"Choice":-1,"RT":-1,"Accuracy":1,"Sham":1,"Outcome":"-10","Keys":[],"TotalKeys":0,"Block":2,"Trial":137,"Valence":"Lose","Action":"No-Go","Robot":4,"trial_type":"pit-trial","trial_index":151,"time_elapsed":573356,"internal_node_id":"0.0-151.0"},{"Rune":"03","Correct":32,"Choice":32,"RT":951.4450000001816,"Accuracy":1,"Sham":0,"Outcome":"+10","Keys":[2453.5050000000047],"TotalKeys":1,"Block":2,"Trial":138,"Valence":"Win","Action":"Go","Robot":1,"trial_type":"pit-trial","trial_index":152,"time_elapsed":576831,"internal_node_id":"0.0-152.0"},{"Rune":"06","Correct":32,"Choice":32,"RT":401.10000000009313,"Accuracy":1,"Sham":0,"Outcome":"+0","Keys":[1901.7850000000326],"TotalKeys":1,"Block":2,"Trial":139,"Valence":"Lose","Action":"Go","Robot":3,"trial_type":"pit-trial","trial_index":153,"time_elapsed":579755,"internal_node_id":"0.0-153.0"},{"Rune":"05","Correct":-1,"Choice":32,"RT":262.12499999976717,"Accuracy":0,"Sham":1,"Outcome":"+10","Keys":[1763.9650000000838],"TotalKeys":1,"Block":2,"Trial":140,"Valence":"Win","Action":"No-Go","Robot":2,"trial_type":"pit-trial","trial_index":154,"time_elapsed":582544,"internal_node_id":"0.0-154.0"},{"Rune":"05","Correct":-1,"Choice":32,"RT":252.97999999974854,"Accuracy":0,"Sham":1,"Outcome":"+10","Keys":[1754.4799999996321],"TotalKeys":1,"Block":2,"Trial":141,"Valence":"Win","Action":"No-Go","Robot":2,"trial_type":"pit-trial","trial_index":155,"time_elapsed":585321,"internal_node_id":"0.0-155.0"},{"Rune":"06","Correct":32,"Choice":32,"RT":307.7200000003213,"Accuracy":1,"Sham":0,"Outcome":"+0","Keys":[1809.2099999998463],"TotalKeys":1,"Block":2,"Trial":142,"Valence":"Lose","Action":"Go","Robot":3,"trial_type":"pit-trial","trial_index":156,"time_elapsed":588154,"internal_node_id":"0.0-156.0"},{"Rune":"03","Correct":32,"Choice":32,"RT":418.41500000015367,"Accuracy":1,"Sham":0,"Outcome":"+10","Keys":[1920.4999999997672],"TotalKeys":1,"Block":2,"Trial":143,"Valence":"Win","Action":"Go","Robot":1,"trial_type":"pit-trial","trial_index":157,"time_elapsed":591097,"internal_node_id":"0.0-157.0"},{"Rune":"04","Correct":-1,"Choice":-1,"RT":-1,"Accuracy":1,"Sham":0,"Outcome":"+0","Keys":[],"TotalKeys":0,"Block":2,"Trial":144,"Valence":"Lose","Action":"No-Go","Robot":4,"trial_type":"pit-trial","trial_index":158,"time_elapsed":595118,"internal_node_id":"0.0-158.0"},{"Rune":"04","Correct":-1,"Choice":32,"RT":314.68499999982305,"Accuracy":0,"Sham":0,"Outcome":"-10","Keys":[1814.9699999998556],"TotalKeys":1,"Block":2,"Trial":145,"Valence":"Lose","Action":"No-Go","Robot":4,"trial_type":"pit-trial","trial_index":159,"time_elapsed":597951,"internal_node_id":"0.0-159.0"},{"Rune":"03","Correct":32,"Choice":32,"RT":301.2499999998836,"Accuracy":1,"Sham":0,"Outcome":"+10","Keys":[1801.6350000002421],"TotalKeys":1,"Block":2,"Trial":146,"Valence":"Win","Action":"Go","Robot":1,"trial_type":"pit-trial","trial_index":160,"time_elapsed":600772,"internal_node_id":"0.0-160.0"},{"Rune":"06","Correct":32,"Choice":32,"RT":404.6900000004098,"Accuracy":1,"Sham":0,"Outcome":"+0","Keys":[1905.8850000001257],"TotalKeys":1,"Block":2,"Trial":147,"Valence":"Lose","Action":"Go","Robot":3,"trial_type":"pit-trial","trial_index":161,"time_elapsed":603700,"internal_node_id":"0.0-161.0"},{"Rune":"05","Correct":-1,"Choice":32,"RT":456.85000000009313,"Accuracy":0,"Sham":0,"Outcome":"+0","Keys":[1958.3000000002794],"TotalKeys":1,"Block":2,"Trial":148,"Valence":"Win","Action":"No-Go","Robot":2,"trial_type":"pit-trial","trial_index":162,"time_elapsed":606684,"internal_node_id":"0.0-162.0"},{"Rune":"05","Correct":-1,"Choice":32,"RT":351.6050000003306,"Accuracy":0,"Sham":0,"Outcome":"+0","Keys":[1851.9599999999627],"TotalKeys":1,"Block":2,"Trial":149,"Valence":"Win","Action":"No-Go","Robot":2,"trial_type":"pit-trial","trial_index":163,"time_elapsed":609557,"internal_node_id":"0.0-163.0"},{"Rune":"04","Correct":-1,"Choice":-1,"RT":-1,"Accuracy":1,"Sham":0,"Outcome":"+0","Keys":[],"TotalKeys":0,"Block":2,"Trial":150,"Valence":"Lose","Action":"No-Go","Robot":4,"trial_type":"pit-trial","trial_index":164,"time_elapsed":613586,"internal_node_id":"0.0-164.0"},{"Rune":"06","Correct":32,"Choice":32,"RT":665.2599999997765,"Accuracy":1,"Sham":0,"Outcome":"+0","Keys":[2167.160000000382],"TotalKeys":1,"Block":2,"Trial":151,"Valence":"Lose","Action":"Go","Robot":3,"trial_type":"pit-trial","trial_index":165,"time_elapsed":616774,"internal_node_id":"0.0-165.0"},{"Rune":"03","Correct":32,"Choice":32,"RT":339.0450000001583,"Accuracy":1,"Sham":0,"Outcome":"+10","Keys":[1840.5499999999302],"TotalKeys":1,"Block":2,"Trial":152,"Valence":"Win","Action":"Go","Robot":1,"trial_type":"pit-trial","trial_index":166,"time_elapsed":619639,"internal_node_id":"0.0-166.0"},{"Rune":"03","Correct":32,"Choice":32,"RT":355.0750000003027,"Accuracy":1,"Sham":0,"Outcome":"+10","Keys":[1856.8450000003213],"TotalKeys":1,"Block":2,"Trial":153,"Valence":"Win","Action":"Go","Robot":1,"trial_type":"pit-trial","trial_index":167,"time_elapsed":622516,"internal_node_id":"0.0-167.0"},{"Rune":"04","Correct":-1,"Choice":-1,"RT":-1,"Accuracy":1,"Sham":0,"Outcome":"+0","Keys":[],"TotalKeys":0,"Block":2,"Trial":154,"Valence":"Lose","Action":"No-Go","Robot":4,"trial_type":"pit-trial","trial_index":168,"time_elapsed":626549,"internal_node_id":"0.0-168.0"},{"Rune":"06","Correct":32,"Choice":32,"RT":421.3300000000745,"Accuracy":1,"Sham":0,"Outcome":"+0","Keys":[1921.6500000002561],"TotalKeys":1,"Block":2,"Trial":155,"Valence":"Lose","Action":"Go","Robot":3,"trial_type":"pit-trial","trial_index":169,"time_elapsed":629493,"internal_node_id":"0.0-169.0"},{"Rune":"05","Correct":-1,"Choice":32,"RT":340.5350000002654,"Accuracy":0,"Sham":0,"Outcome":"+0","Keys":[1843.104999999865],"TotalKeys":1,"Block":2,"Trial":156,"Valence":"Win","Action":"No-Go","Robot":2,"trial_type":"pit-trial","trial_index":170,"time_elapsed":632355,"internal_node_id":"0.0-170.0"},{"Rune":"06","Correct":32,"Choice":32,"RT":331.2550000001211,"Accuracy":1,"Sham":1,"Outcome":"-10","Keys":[1832.1699999996927],"TotalKeys":1,"Block":2,"Trial":157,"Valence":"Lose","Action":"Go","Robot":3,"trial_type":"pit-trial","trial_index":171,"time_elapsed":635206,"internal_node_id":"0.0-171.0"},{"Rune":"04","Correct":-1,"Choice":32,"RT":569.3050000000512,"Accuracy":0,"Sham":1,"Outcome":"+0","Keys":[2070.184999999474],"TotalKeys":1,"Block":2,"Trial":158,"Valence":"Lose","Action":"No-Go","Robot":4,"trial_type":"pit-trial","trial_index":172,"time_elapsed":638294,"internal_node_id":"0.0-172.0"},{"Rune":"05","Correct":-1,"Choice":32,"RT":535.1949999994831,"Accuracy":0,"Sham":0,"Outcome":"+0","Keys":[2037.7149999993853],"TotalKeys":1,"Block":2,"Trial":159,"Valence":"Win","Action":"No-Go","Robot":2,"trial_type":"pit-trial","trial_index":173,"time_elapsed":641353,"internal_node_id":"0.0-173.0"},{"Rune":"03","Correct":32,"Choice":32,"RT":447.8300000000745,"Accuracy":1,"Sham":1,"Outcome":"+0","Keys":[1948.2299999999814],"TotalKeys":1,"Block":2,"Trial":160,"Valence":"Win","Action":"Go","Robot":1,"trial_type":"pit-trial","trial_index":174,"time_elapsed":644320,"internal_node_id":"0.0-174.0"},{"rt":11668.569999999832,"demographics":{"age":"29","gender-categorical":"Female","ethnicity":"Not Hispanic or Latino","race":"Black or African American","english":"Yes","fluency":"Very well"},"trial_type":"survey-demo","trial_index":175,"time_elapsed":656009,"internal_node_id":"0.0-175.0"},{"rt":33639.17000000039,"debriefgraphics":{"difficulty":"4","fun":"4","clarity":"5","strategy":"I thought that there was a pattern with the shapes","feedback":"no"},"trial_type":"survey-debrief","trial_index":176,"time_elapsed":689672,"internal_node_id":"0.0-176.0","interactions":"[]"}]