[{"view_history":"[{\"page_index\":0,\"viewing_time\":7526.404999996885},{\"page_index\":1,\"viewing_time\":2346.434999999474},{\"page_index\":2,\"viewing_time\":3072.1300000004703},{\"page_index\":3,\"viewing_time\":1790.194999994128},{\"page_index\":4,\"viewing_time\":2956.205000009504}]","rt":17693.654999995488,"trial_type":"pit-instructions","trial_index":0,"time_elapsed":17707,"internal_node_id":"0.0-0.0"},{"Rune":"01","Correct":32,"Choice":-1,"RT":-1,"Accuracy":0,"Sham":0,"Outcome":"+0","Keys":[],"TotalKeys":0,"trial_type":"pit-trial","trial_index":1,"time_elapsed":21741,"internal_node_id":"0.0-1.0"},{"Rune":"01","Correct":32,"Choice":32,"RT":586.620000001858,"Accuracy":1,"Sham":0,"Outcome":"+10","Keys":[2087.6399999979185],"TotalKeys":1,"trial_type":"pit-trial","trial_index":2,"time_elapsed":24849,"internal_node_id":"0.0-2.0"},{"Rune":"01","Correct":32,"Choice":32,"RT":502.3300000029849,"Accuracy":1,"Sham":0,"Outcome":"+10","Keys":[2030.1600000093458],"TotalKeys":1,"trial_type":"pit-trial","trial_index":3,"time_elapsed":27901,"internal_node_id":"0.0-3.0"},{"Rune":"01","Correct":32,"Choice":32,"RT":590.8550000021933,"Accuracy":1,"Sham":0,"Outcome":"+10","Keys":[2096.1699999897974],"TotalKeys":1,"trial_type":"pit-trial","trial_index":4,"time_elapsed":31017,"internal_node_id":"0.0-4.0"},{"view_history":"[{\"page_index\":0,\"viewing_time\":368098.78500000923}]","rt":368109.9150000082,"trial_type":"pit-instructions","trial_index":5,"time_elapsed":399140,"internal_node_id":"0.0-5.0"},{"Rune":"02","Correct":-1,"Choice":32,"RT":780.4250000044703,"Accuracy":0,"Sham":0,"Outcome":"+0","Keys":[2297.6049999997485],"TotalKeys":1,"trial_type":"pit-trial","trial_index":6,"time_elapsed":402489,"internal_node_id":"0.0-6.0"},{"Rune":"02","Correct":-1,"Choice":-1,"RT":-1,"Accuracy":1,"Sham":0,"Outcome":"+10","Keys":[],"TotalKeys":0,"trial_type":"pit-trial","trial_index":7,"time_elapsed":406510,"internal_node_id":"0.0-7.0"},{"Rune":"02","Correct":-1,"Choice":-1,"RT":-1,"Accuracy":1,"Sham":0,"Outcome":"+10","Keys":[],"TotalKeys":0,"trial_type":"pit-trial","trial_index":8,"time_elapsed":410530,"internal_node_id":"0.0-8.0"},{"Rune":"02","Correct":-1,"Choice":-1,"RT":-1,"Accuracy":1,"Sham":0,"Outcome":"+10","Keys":[],"TotalKeys":0,"trial_type":"pit-trial","trial_index":9,"time_elapsed":414552,"internal_node_id":"0.0-9.0"},{"view_history":"[{\"page_index\":0,\"viewing_time\":4258.314999999129},{\"page_index\":1,\"viewing_time\":4043.5450000077253},{\"page_index\":2,\"viewing_time\":1358.5449999955017},{\"page_index\":3,\"viewing_time\":4428.0049999943},{\"page_index\":4,\"viewing_time\":2409.3750000029104},{\"page_index\":5,\"viewing_time\":1773.8200000021607},{\"page_index\":6,\"viewing_time\":878.1650000018999},{\"page_index\":7,\"viewing_time\":1258.0199999938486}]","rt":20409.404999998515,"trial_type":"pit-instructions","trial_index":10,"time_elapsed":434976,"internal_node_id":"0.0-10.0"},{"rt":16901.344999991124,"responses":"{\"no-press\":\"Do nothing\",\"context-win\":\"+10\",\"context-lose\":\"+0\",\"feedback\":\"True\"}","errors":1,"trial_type":"pit-comprehension","trial_index":11,"time_elapsed":451912,"internal_node_id":"0.0-11.0"},{"view_history":"[{\"page_index\":0,\"viewing_time\":1606.2050000036834}]","rt":1607.70500000217,"trial_type":"pit-instructions","trial_index":12,"time_elapsed":453540,"internal_node_id":"0.0-12.0"},{"Rune":"04","Correct":-1,"Choice":-1,"RT":-1,"Accuracy":1,"Sham":0,"Outcome":"+10","Keys":[],"TotalKeys":0,"Block":1,"Trial":1,"Valence":"Win","Action":"No-Go","Robot":2,"trial_type":"pit-trial","trial_index":13,"time_elapsed":457563,"internal_node_id":"0.0-13.0"},{"Rune":"05","Correct":32,"Choice":-1,"RT":-1,"Accuracy":0,"Sham":0,"Outcome":"-10","Keys":[],"TotalKeys":0,"Block":1,"Trial":2,"Valence":"Lose","Action":"Go","Robot":3,"trial_type":"pit-trial","trial_index":14,"time_elapsed":461587,"internal_node_id":"0.0-14.0"},{"Rune":"06","Correct":-1,"Choice":32,"RT":889.3850000022212,"Accuracy":0,"Sham":0,"Outcome":"-10","Keys":[2389.3950000056066],"TotalKeys":1,"Block":1,"Trial":3,"Valence":"Lose","Action":"No-Go","Robot":4,"trial_type":"pit-trial","trial_index":15,"time_elapsed":464994,"internal_node_id":"0.0-15.0"},{"Rune":"03","Correct":32,"Choice":32,"RT":636.8950000032783,"Accuracy":1,"Sham":0,"Outcome":"+10","Keys":[2137.524999998277],"TotalKeys":1,"Block":1,"Trial":4,"Valence":"Win","Action":"Go","Robot":1,"trial_type":"pit-trial","trial_index":16,"time_elapsed":468150,"internal_node_id":"0.0-16.0"},{"Rune":"05","Correct":32,"Choice":-1,"RT":-1,"Accuracy":0,"Sham":1,"Outcome":"+0","Keys":[],"TotalKeys":0,"Block":1,"Trial":5,"Valence":"Lose","Action":"Go","Robot":3,"trial_type":"pit-trial","trial_index":17,"time_elapsed":472168,"internal_node_id":"0.0-17.0"},{"Rune":"06","Correct":-1,"Choice":-1,"RT":-1,"Accuracy":1,"Sham":0,"Outcome":"+0","Keys":[],"TotalKeys":0,"Block":1,"Trial":6,"Valence":"Lose","Action":"No-Go","Robot":4,"trial_type":"pit-trial","trial_index":18,"time_elapsed":476194,"internal_node_id":"0.0-18.0"},{"Rune":"03","Correct":32,"Choice":32,"RT":422.86500000045635,"Accuracy":1,"Sham":0,"Outcome":"+10","Keys":[1928.7400000030175],"TotalKeys":1,"Block":1,"Trial":7,"Valence":"Win","Action":"Go","Robot":1,"trial_type":"pit-trial","trial_index":19,"time_elapsed":479348,"internal_node_id":"0.0-19.0"},{"Rune":"04","Correct":-1,"Choice":32,"RT":358.59000000345986,"Accuracy":0,"Sham":0,"Outcome":"+0","Keys":[1861.045000012382],"TotalKeys":1,"Block":1,"Trial":8,"Valence":"Win","Action":"No-Go","Robot":2,"trial_type":"pit-trial","trial_index":20,"time_elapsed":482267,"internal_node_id":"0.0-20.0"},{"Rune":"03","Correct":32,"Choice":32,"RT":364.7849999979371,"Accuracy":1,"Sham":0,"Outcome":"+10","Keys":[1867.1600000088802],"TotalKeys":1,"Block":1,"Trial":9,"Valence":"Win","Action":"Go","Robot":1,"trial_type":"pit-trial","trial_index":21,"time_elapsed":485160,"internal_node_id":"0.0-21.0"},{"Rune":"05","Correct":32,"Choice":-1,"RT":-1,"Accuracy":0,"Sham":0,"Outcome":"-10","Keys":[],"TotalKeys":0,"Block":1,"Trial":10,"Valence":"Lose","Action":"Go","Robot":3,"trial_type":"pit-trial","trial_index":22,"time_elapsed":489185,"internal_node_id":"0.0-22.0"},{"Rune":"04","Correct":-1,"Choice":32,"RT":319.50000001234,"Accuracy":0,"Sham":0,"Outcome":"+0","Keys":[1820.930000001681],"TotalKeys":1,"Block":1,"Trial":11,"Valence":"Win","Action":"No-Go","Robot":2,"trial_type":"pit-trial","trial_index":23,"time_elapsed":492031,"internal_node_id":"0.0-23.0"},{"Rune":"06","Correct":-1,"Choice":32,"RT":439.58000000566244,"Accuracy":0,"Sham":0,"Outcome":"-10","Keys":[1940.919999993639],"TotalKeys":1,"Block":1,"Trial":12,"Valence":"Lose","Action":"No-Go","Robot":4,"trial_type":"pit-trial","trial_index":24,"time_elapsed":495006,"internal_node_id":"0.0-24.0"},{"Rune":"03","Correct":32,"Choice":32,"RT":500.86000000010245,"Accuracy":1,"Sham":0,"Outcome":"+10","Keys":[2003.1400000007125],"TotalKeys":1,"Block":1,"Trial":13,"Valence":"Win","Action":"Go","Robot":1,"trial_type":"pit-trial","trial_index":25,"time_elapsed":498032,"internal_node_id":"0.0-25.0"},{"Rune":"04","Correct":-1,"Choice":32,"RT":362.1299999940675,"Accuracy":0,"Sham":0,"Outcome":"+0","Keys":[1862.5099999917438],"TotalKeys":1,"Block":1,"Trial":14,"Valence":"Win","Action":"No-Go","Robot":2,"trial_type":"pit-trial","trial_index":26,"time_elapsed":500915,"internal_node_id":"0.0-26.0"},{"Rune":"05","Correct":32,"Choice":-1,"RT":-1,"Accuracy":0,"Sham":0,"Outcome":"-10","Keys":[],"TotalKeys":0,"Block":1,"Trial":15,"Valence":"Lose","Action":"Go","Robot":3,"trial_type":"pit-trial","trial_index":27,"time_elapsed":504944,"internal_node_id":"0.0-27.0"},{"Rune":"06","Correct":-1,"Choice":32,"RT":375.74999999196734,"Accuracy":0,"Sham":1,"Outcome":"+0","Keys":[1878.274999995483],"TotalKeys":1,"Block":1,"Trial":16,"Valence":"Lose","Action":"No-Go","Robot":4,"trial_type":"pit-trial","trial_index":28,"time_elapsed":507843,"internal_node_id":"0.0-28.0"},{"Rune":"03","Correct":32,"Choice":32,"RT":573.8700000074459,"Accuracy":1,"Sham":1,"Outcome":"+0","Keys":[2074.640000006184],"TotalKeys":1,"Block":1,"Trial":17,"Valence":"Win","Action":"Go","Robot":1,"trial_type":"pit-trial","trial_index":29,"time_elapsed":510938,"internal_node_id":"0.0-29.0"},{"Rune":"05","Correct":32,"Choice":-1,"RT":-1,"Accuracy":0,"Sham":0,"Outcome":"-10","Keys":[],"TotalKeys":0,"Block":1,"Trial":18,"Valence":"Lose","Action":"Go","Robot":3,"trial_type":"pit-trial","trial_index":30,"time_elapsed":514966,"internal_node_id":"0.0-30.0"},{"Rune":"04","Correct":-1,"Choice":32,"RT":492.31000000145286,"Accuracy":0,"Sham":1,"Outcome":"+10","Keys":[1993.8750000001164],"TotalKeys":1,"Block":1,"Trial":19,"Valence":"Win","Action":"No-Go","Robot":2,"trial_type":"pit-trial","trial_index":31,"time_elapsed":518008,"internal_node_id":"0.0-31.0"},{"Rune":"06","Correct":-1,"Choice":-1,"RT":-1,"Accuracy":1,"Sham":0,"Outcome":"+0","Keys":[],"TotalKeys":0,"Block":1,"Trial":20,"Valence":"Lose","Action":"No-Go","Robot":4,"trial_type":"pit-trial","trial_index":32,"time_elapsed":522160,"internal_node_id":"0.0-32.0"},{"Rune":"06","Correct":-1,"Choice":-1,"RT":-1,"Accuracy":1,"Sham":0,"Outcome":"+0","Keys":[],"TotalKeys":0,"Block":1,"Trial":21,"Valence":"Lose","Action":"No-Go","Robot":4,"trial_type":"pit-trial","trial_index":33,"time_elapsed":526195,"internal_node_id":"0.0-33.0"},{"Rune":"04","Correct":-1,"Choice":32,"RT":419.03499999898486,"Accuracy":0,"Sham":0,"Outcome":"+0","Keys":[1933.164999994915],"TotalKeys":1,"Block":1,"Trial":22,"Valence":"Win","Action":"No-Go","Robot":2,"trial_type":"pit-trial","trial_index":34,"time_elapsed":529159,"internal_node_id":"0.0-34.0"},{"Rune":"03","Correct":32,"Choice":32,"RT":459.3849999946542,"Accuracy":1,"Sham":0,"Outcome":"+10","Keys":[1960.5049999954645],"TotalKeys":1,"Block":1,"Trial":23,"Valence":"Win","Action":"Go","Robot":1,"trial_type":"pit-trial","trial_index":35,"time_elapsed":532150,"internal_node_id":"0.0-35.0"},{"Rune":"05","Correct":32,"Choice":-1,"RT":-1,"Accuracy":0,"Sham":0,"Outcome":"-10","Keys":[],"TotalKeys":0,"Block":1,"Trial":24,"Valence":"Lose","Action":"Go","Robot":3,"trial_type":"pit-trial","trial_index":36,"time_elapsed":536178,"internal_node_id":"0.0-36.0"},{"Rune":"06","Correct":-1,"Choice":-1,"RT":-1,"Accuracy":1,"Sham":0,"Outcome":"+0","Keys":[],"TotalKeys":0,"Block":1,"Trial":25,"Valence":"Lose","Action":"No-Go","Robot":4,"trial_type":"pit-trial","trial_index":37,"time_elapsed":540201,"internal_node_id":"0.0-37.0"},{"Rune":"03","Correct":32,"Choice":32,"RT":484.3600000021979,"Accuracy":1,"Sham":0,"Outcome":"+10","Keys":[1985.1749999943422],"TotalKeys":1,"Block":1,"Trial":26,"Valence":"Win","Action":"Go","Robot":1,"trial_type":"pit-trial","trial_index":38,"time_elapsed":543204,"internal_node_id":"0.0-38.0"},{"Rune":"05","Correct":32,"Choice":-1,"RT":-1,"Accuracy":0,"Sham":0,"Outcome":"-10","Keys":[],"TotalKeys":0,"Block":1,"Trial":27,"Valence":"Lose","Action":"Go","Robot":3,"trial_type":"pit-trial","trial_index":39,"time_elapsed":547223,"internal_node_id":"0.0-39.0"},{"Rune":"04","Correct":-1,"Choice":32,"RT":318.82499999483116,"Accuracy":0,"Sham":0,"Outcome":"+0","Keys":[1824.0599999990081],"TotalKeys":1,"Block":1,"Trial":28,"Valence":"Win","Action":"No-Go","Robot":2,"trial_type":"pit-trial","trial_index":40,"time_elapsed":550064,"internal_node_id":"0.0-40.0"},{"Rune":"05","Correct":32,"Choice":-1,"RT":-1,"Accuracy":0,"Sham":0,"Outcome":"-10","Keys":[],"TotalKeys":0,"Block":1,"Trial":29,"Valence":"Lose","Action":"Go","Robot":3,"trial_type":"pit-trial","trial_index":41,"time_elapsed":554083,"internal_node_id":"0.0-41.0"},{"Rune":"04","Correct":-1,"Choice":-1,"RT":-1,"Accuracy":1,"Sham":1,"Outcome":"+0","Keys":[],"TotalKeys":0,"Block":1,"Trial":30,"Valence":"Win","Action":"No-Go","Robot":2,"trial_type":"pit-trial","trial_index":42,"time_elapsed":558162,"internal_node_id":"0.0-42.0"},{"Rune":"03","Correct":32,"Choice":-1,"RT":-1,"Accuracy":0,"Sham":1,"Outcome":"+10","Keys":[],"TotalKeys":0,"Block":1,"Trial":31,"Valence":"Win","Action":"Go","Robot":1,"trial_type":"pit-trial","trial_index":43,"time_elapsed":562213,"internal_node_id":"0.0-43.0"},{"Rune":"06","Correct":-1,"Choice":-1,"RT":-1,"Accuracy":1,"Sham":0,"Outcome":"+0","Keys":[],"TotalKeys":0,"Block":1,"Trial":32,"Valence":"Lose","Action":"No-Go","Robot":4,"trial_type":"pit-trial","trial_index":44,"time_elapsed":566235,"internal_node_id":"0.0-44.0"},{"Rune":"06","Correct":-1,"Choice":-1,"RT":-1,"Accuracy":1,"Sham":0,"Outcome":"+0","Keys":[],"TotalKeys":0,"Block":1,"Trial":33,"Valence":"Lose","Action":"No-Go","Robot":4,"trial_type":"pit-trial","trial_index":45,"time_elapsed":570259,"internal_node_id":"0.0-45.0"},{"Rune":"04","Correct":-1,"Choice":-1,"RT":-1,"Accuracy":1,"Sham":0,"Outcome":"+10","Keys":[],"TotalKeys":0,"Block":1,"Trial":34,"Valence":"Win","Action":"No-Go","Robot":2,"trial_type":"pit-trial","trial_index":46,"time_elapsed":574285,"internal_node_id":"0.0-46.0"},{"Rune":"03","Correct":32,"Choice":-1,"RT":-1,"Accuracy":0,"Sham":0,"Outcome":"+0","Keys":[],"TotalKeys":0,"Block":1,"Trial":35,"Valence":"Win","Action":"Go","Robot":1,"trial_type":"pit-trial","trial_index":47,"time_elapsed":578304,"internal_node_id":"0.0-47.0"},{"Rune":"05","Correct":32,"Choice":-1,"RT":-1,"Accuracy":0,"Sham":1,"Outcome":"+0","Keys":[],"TotalKeys":0,"Block":1,"Trial":36,"Valence":"Lose","Action":"Go","Robot":3,"trial_type":"pit-trial","trial_index":48,"time_elapsed":582324,"internal_node_id":"0.0-48.0"},{"Rune":"06","Correct":-1,"Choice":-1,"RT":-1,"Accuracy":1,"Sham":1,"Outcome":"-10","Keys":[],"TotalKeys":0,"Block":1,"Trial":37,"Valence":"Lose","Action":"No-Go","Robot":4,"trial_type":"pit-trial","trial_index":49,"time_elapsed":586349,"internal_node_id":"0.0-49.0"},{"Rune":"05","Correct":32,"Choice":-1,"RT":-1,"Accuracy":0,"Sham":0,"Outcome":"-10","Keys":[],"TotalKeys":0,"Block":1,"Trial":38,"Valence":"Lose","Action":"Go","Robot":3,"trial_type":"pit-trial","trial_index":50,"time_elapsed":590376,"internal_node_id":"0.0-50.0"},{"Rune":"03","Correct":32,"Choice":-1,"RT":-1,"Accuracy":0,"Sham":0,"Outcome":"+0","Keys":[],"TotalKeys":0,"Block":1,"Trial":39,"Valence":"Win","Action":"Go","Robot":1,"trial_type":"pit-trial","trial_index":51,"time_elapsed":594398,"internal_node_id":"0.0-51.0"},{"Rune":"04","Correct":-1,"Choice":-1,"RT":-1,"Accuracy":1,"Sham":0,"Outcome":"+10","Keys":[],"TotalKeys":0,"Block":1,"Trial":40,"Valence":"Win","Action":"No-Go","Robot":2,"trial_type":"pit-trial","trial_index":52,"time_elapsed":598421,"internal_node_id":"0.0-52.0"},{"Rune":"05","Correct":32,"Choice":-1,"RT":-1,"Accuracy":0,"Sham":1,"Outcome":"+0","Keys":[],"TotalKeys":0,"Block":1,"Trial":41,"Valence":"Lose","Action":"Go","Robot":3,"trial_type":"pit-trial","trial_index":53,"time_elapsed":602440,"internal_node_id":"0.0-53.0"},{"Rune":"04","Correct":-1,"Choice":-1,"RT":-1,"Accuracy":1,"Sham":0,"Outcome":"+10","Keys":[1298.2499999925494],"TotalKeys":1,"Block":1,"Trial":42,"Valence":"Win","Action":"No-Go","Robot":2,"trial_type":"pit-trial","trial_index":54,"time_elapsed":606464,"internal_node_id":"0.0-54.0"},{"Rune":"06","Correct":-1,"Choice":-1,"RT":-1,"Accuracy":1,"Sham":0,"Outcome":"+0","Keys":[],"TotalKeys":0,"Block":1,"Trial":43,"Valence":"Lose","Action":"No-Go","Robot":4,"trial_type":"pit-trial","trial_index":55,"time_elapsed":610489,"internal_node_id":"0.0-55.0"},{"Rune":"03","Correct":32,"Choice":32,"RT":1203.6850000004051,"Accuracy":1,"Sham":0,"Outcome":"+10","Keys":[2705.1050000009127],"TotalKeys":1,"Block":1,"Trial":44,"Valence":"Win","Action":"Go","Robot":1,"trial_type":"pit-trial","trial_index":56,"time_elapsed":614213,"internal_node_id":"0.0-56.0"},{"Rune":"06","Correct":-1,"Choice":-1,"RT":-1,"Accuracy":1,"Sham":0,"Outcome":"+0","Keys":[],"TotalKeys":0,"Block":1,"Trial":45,"Valence":"Lose","Action":"No-Go","Robot":4,"trial_type":"pit-trial","trial_index":57,"time_elapsed":618232,"internal_node_id":"0.0-57.0"},{"Rune":"04","Correct":-1,"Choice":32,"RT":206.0849999979837,"Accuracy":0,"Sham":1,"Outcome":"+10","Keys":[993.3299999975134,1707.7949999948032],"TotalKeys":2,"Block":1,"Trial":46,"Valence":"Win","Action":"No-Go","Robot":2,"trial_type":"pit-trial","trial_index":58,"time_elapsed":620959,"internal_node_id":"0.0-58.0"},{"Rune":"05","Correct":32,"Choice":-1,"RT":-1,"Accuracy":0,"Sham":0,"Outcome":"-10","Keys":[],"TotalKeys":0,"Block":1,"Trial":47,"Valence":"Lose","Action":"Go","Robot":3,"trial_type":"pit-trial","trial_index":59,"time_elapsed":624979,"internal_node_id":"0.0-59.0"},{"Rune":"03","Correct":32,"Choice":32,"RT":751.1999999987893,"Accuracy":1,"Sham":0,"Outcome":"+10","Keys":[2252.4799999955576],"TotalKeys":1,"Block":1,"Trial":48,"Valence":"Win","Action":"Go","Robot":1,"trial_type":"pit-trial","trial_index":60,"time_elapsed":628249,"internal_node_id":"0.0-60.0"},{"Rune":"06","Correct":-1,"Choice":-1,"RT":-1,"Accuracy":1,"Sham":0,"Outcome":"+0","Keys":[],"TotalKeys":0,"Block":1,"Trial":49,"Valence":"Lose","Action":"No-Go","Robot":4,"trial_type":"pit-trial","trial_index":61,"time_elapsed":632269,"internal_node_id":"0.0-61.0"},{"Rune":"03","Correct":32,"Choice":32,"RT":361.05000000679865,"Accuracy":1,"Sham":0,"Outcome":"+10","Keys":[1863.7400000006892],"TotalKeys":1,"Block":1,"Trial":50,"Valence":"Win","Action":"Go","Robot":1,"trial_type":"pit-trial","trial_index":62,"time_elapsed":635168,"internal_node_id":"0.0-62.0"},{"Rune":"04","Correct":-1,"Choice":32,"RT":539.7900000098161,"Accuracy":0,"Sham":0,"Outcome":"+0","Keys":[2040.0550000049407],"TotalKeys":1,"Block":1,"Trial":51,"Valence":"Win","Action":"No-Go","Robot":2,"trial_type":"pit-trial","trial_index":63,"time_elapsed":638225,"internal_node_id":"0.0-63.0"},{"Rune":"05","Correct":32,"Choice":-1,"RT":-1,"Accuracy":0,"Sham":0,"Outcome":"-10","Keys":[],"TotalKeys":0,"Block":1,"Trial":52,"Valence":"Lose","Action":"Go","Robot":3,"trial_type":"pit-trial","trial_index":64,"time_elapsed":642246,"internal_node_id":"0.0-64.0"},{"Rune":"04","Correct":-1,"Choice":32,"RT":347.68000000622123,"Accuracy":0,"Sham":0,"Outcome":"+0","Keys":[1859.9299999914365],"TotalKeys":1,"Block":1,"Trial":53,"Valence":"Win","Action":"No-Go","Robot":2,"trial_type":"pit-trial","trial_index":65,"time_elapsed":645125,"internal_node_id":"0.0-65.0"},{"Rune":"05","Correct":32,"Choice":-1,"RT":-1,"Accuracy":0,"Sham":0,"Outcome":"-10","Keys":[],"TotalKeys":0,"Block":1,"Trial":54,"Valence":"Lose","Action":"Go","Robot":3,"trial_type":"pit-trial","trial_index":66,"time_elapsed":649176,"internal_node_id":"0.0-66.0"},{"Rune":"06","Correct":-1,"Choice":-1,"RT":-1,"Accuracy":1,"Sham":0,"Outcome":"+0","Keys":[],"TotalKeys":0,"Block":1,"Trial":55,"Valence":"Lose","Action":"No-Go","Robot":4,"trial_type":"pit-trial","trial_index":67,"time_elapsed":653275,"internal_node_id":"0.0-67.0"},{"Rune":"03","Correct":32,"Choice":32,"RT":298.71499999717344,"Accuracy":1,"Sham":0,"Outcome":"+10","Keys":[1800.3349999926286],"TotalKeys":1,"Block":1,"Trial":56,"Valence":"Win","Action":"Go","Robot":1,"trial_type":"pit-trial","trial_index":68,"time_elapsed":656094,"internal_node_id":"0.0-68.0"},{"Rune":"03","Correct":32,"Choice":32,"RT":450.2749999955995,"Accuracy":1,"Sham":1,"Outcome":"+0","Keys":[1951.935000004596],"TotalKeys":1,"Block":1,"Trial":57,"Valence":"Win","Action":"Go","Robot":1,"trial_type":"pit-trial","trial_index":69,"time_elapsed":659067,"internal_node_id":"0.0-69.0"},{"Rune":"05","Correct":32,"Choice":-1,"RT":-1,"Accuracy":0,"Sham":0,"Outcome":"-10","Keys":[],"TotalKeys":0,"Block":1,"Trial":58,"Valence":"Lose","Action":"Go","Robot":3,"trial_type":"pit-trial","trial_index":70,"time_elapsed":663087,"internal_node_id":"0.0-70.0"},{"Rune":"06","Correct":-1,"Choice":-1,"RT":-1,"Accuracy":1,"Sham":1,"Outcome":"-10","Keys":[],"TotalKeys":0,"Block":1,"Trial":59,"Valence":"Lose","Action":"No-Go","Robot":4,"trial_type":"pit-trial","trial_index":71,"time_elapsed":667113,"internal_node_id":"0.0-71.0"},{"Rune":"04","Correct":-1,"Choice":32,"RT":492.8499999950873,"Accuracy":0,"Sham":0,"Outcome":"+0","Keys":[1993.545000004815],"TotalKeys":1,"Block":1,"Trial":60,"Valence":"Win","Action":"No-Go","Robot":2,"trial_type":"pit-trial","trial_index":72,"time_elapsed":670136,"internal_node_id":"0.0-72.0"},{"Rune":"04","Correct":-1,"Choice":-1,"RT":-1,"Accuracy":1,"Sham":0,"Outcome":"+10","Keys":[],"TotalKeys":0,"Block":1,"Trial":61,"Valence":"Win","Action":"No-Go","Robot":2,"trial_type":"pit-trial","trial_index":73,"time_elapsed":674173,"internal_node_id":"0.0-73.0"},{"Rune":"05","Correct":32,"Choice":-1,"RT":-1,"Accuracy":0,"Sham":0,"Outcome":"-10","Keys":[],"TotalKeys":0,"Block":1,"Trial":62,"Valence":"Lose","Action":"Go","Robot":3,"trial_type":"pit-trial","trial_index":74,"time_elapsed":678205,"internal_node_id":"0.0-74.0"},{"Rune":"06","Correct":-1,"Choice":-1,"RT":-1,"Accuracy":1,"Sham":0,"Outcome":"+0","Keys":[],"TotalKeys":0,"Block":1,"Trial":63,"Valence":"Lose","Action":"No-Go","Robot":4,"trial_type":"pit-trial","trial_index":75,"time_elapsed":682228,"internal_node_id":"0.0-75.0"},{"Rune":"03","Correct":32,"Choice":32,"RT":519.0049999946496,"Accuracy":1,"Sham":0,"Outcome":"+10","Keys":[2020.5450000066776],"TotalKeys":1,"Block":1,"Trial":64,"Valence":"Win","Action":"Go","Robot":1,"trial_type":"pit-trial","trial_index":76,"time_elapsed":685267,"internal_node_id":"0.0-76.0"},{"Rune":"04","Correct":-1,"Choice":32,"RT":387.35499999893364,"Accuracy":0,"Sham":0,"Outcome":"+0","Keys":[1891.2700000073528],"TotalKeys":1,"Block":1,"Trial":65,"Valence":"Win","Action":"No-Go","Robot":2,"trial_type":"pit-trial","trial_index":77,"time_elapsed":688199,"internal_node_id":"0.0-77.0"},{"Rune":"06","Correct":-1,"Choice":-1,"RT":-1,"Accuracy":1,"Sham":0,"Outcome":"+0","Keys":[],"TotalKeys":0,"Block":1,"Trial":66,"Valence":"Lose","Action":"No-Go","Robot":4,"trial_type":"pit-trial","trial_index":78,"time_elapsed":692230,"internal_node_id":"0.0-78.0"},{"Rune":"03","Correct":32,"Choice":32,"RT":1011.9600000034552,"Accuracy":1,"Sham":1,"Outcome":"+0","Keys":[2514.614999992773],"TotalKeys":1,"Block":1,"Trial":67,"Valence":"Win","Action":"Go","Robot":1,"trial_type":"pit-trial","trial_index":79,"time_elapsed":695765,"internal_node_id":"0.0-79.0"},{"Rune":"05","Correct":32,"Choice":-1,"RT":-1,"Accuracy":0,"Sham":0,"Outcome":"-10","Keys":[],"TotalKeys":0,"Block":1,"Trial":68,"Valence":"Lose","Action":"Go","Robot":3,"trial_type":"pit-trial","trial_index":80,"time_elapsed":699793,"internal_node_id":"0.0-80.0"},{"Rune":"06","Correct":-1,"Choice":-1,"RT":-1,"Accuracy":1,"Sham":1,"Outcome":"-10","Keys":[],"TotalKeys":0,"Block":1,"Trial":69,"Valence":"Lose","Action":"No-Go","Robot":4,"trial_type":"pit-trial","trial_index":81,"time_elapsed":703812,"internal_node_id":"0.0-81.0"},{"Rune":"05","Correct":32,"Choice":-1,"RT":-1,"Accuracy":0,"Sham":0,"Outcome":"-10","Keys":[],"TotalKeys":0,"Block":1,"Trial":70,"Valence":"Lose","Action":"Go","Robot":3,"trial_type":"pit-trial","trial_index":82,"time_elapsed":707895,"internal_node_id":"0.0-82.0"},{"Rune":"03","Correct":32,"Choice":32,"RT":370.3300000051968,"Accuracy":1,"Sham":0,"Outcome":"+10","Keys":[1874.759999991511],"TotalKeys":1,"Block":1,"Trial":71,"Valence":"Win","Action":"Go","Robot":1,"trial_type":"pit-trial","trial_index":83,"time_elapsed":710792,"internal_node_id":"0.0-83.0"},{"Rune":"04","Correct":-1,"Choice":32,"RT":520.4049999883864,"Accuracy":0,"Sham":0,"Outcome":"+0","Keys":[2025.789999999688],"TotalKeys":1,"Block":1,"Trial":72,"Valence":"Win","Action":"No-Go","Robot":2,"trial_type":"pit-trial","trial_index":84,"time_elapsed":713835,"internal_node_id":"0.0-84.0"},{"Rune":"04","Correct":-1,"Choice":32,"RT":378.0499999993481,"Accuracy":0,"Sham":0,"Outcome":"+0","Keys":[1885.00500000373],"TotalKeys":1,"Block":1,"Trial":73,"Valence":"Win","Action":"No-Go","Robot":2,"trial_type":"pit-trial","trial_index":85,"time_elapsed":716739,"internal_node_id":"0.0-85.0"},{"Rune":"05","Correct":32,"Choice":-1,"RT":-1,"Accuracy":0,"Sham":1,"Outcome":"+0","Keys":[],"TotalKeys":0,"Block":1,"Trial":74,"Valence":"Lose","Action":"Go","Robot":3,"trial_type":"pit-trial","trial_index":86,"time_elapsed":720766,"internal_node_id":"0.0-86.0"},{"Rune":"03","Correct":32,"Choice":32,"RT":363.6850000038976,"Accuracy":1,"Sham":0,"Outcome":"+10","Keys":[1867.3300000082236],"TotalKeys":1,"Block":1,"Trial":75,"Valence":"Win","Action":"Go","Robot":1,"trial_type":"pit-trial","trial_index":87,"time_elapsed":723653,"internal_node_id":"0.0-87.0"},{"Rune":"06","Correct":-1,"Choice":-1,"RT":-1,"Accuracy":1,"Sham":0,"Outcome":"+0","Keys":[],"TotalKeys":0,"Block":1,"Trial":76,"Valence":"Lose","Action":"No-Go","Robot":4,"trial_type":"pit-trial","trial_index":88,"time_elapsed":727674,"internal_node_id":"0.0-88.0"},{"Rune":"04","Correct":-1,"Choice":-1,"RT":-1,"Accuracy":1,"Sham":1,"Outcome":"+0","Keys":[1328.3950000040932],"TotalKeys":1,"Block":1,"Trial":77,"Valence":"Win","Action":"No-Go","Robot":2,"trial_type":"pit-trial","trial_index":89,"time_elapsed":731693,"internal_node_id":"0.0-89.0"},{"Rune":"03","Correct":32,"Choice":32,"RT":271.48000001034234,"Accuracy":1,"Sham":0,"Outcome":"+10","Keys":[1773.9199999923585],"TotalKeys":1,"Block":1,"Trial":78,"Valence":"Win","Action":"Go","Robot":1,"trial_type":"pit-trial","trial_index":90,"time_elapsed":734492,"internal_node_id":"0.0-90.0"},{"Rune":"06","Correct":-1,"Choice":-1,"RT":-1,"Accuracy":1,"Sham":0,"Outcome":"+0","Keys":[],"TotalKeys":0,"Block":1,"Trial":79,"Valence":"Lose","Action":"No-Go","Robot":4,"trial_type":"pit-trial","trial_index":91,"time_elapsed":738511,"internal_node_id":"0.0-91.0"},{"Rune":"05","Correct":32,"Choice":32,"RT":528.1550000072457,"Accuracy":1,"Sham":0,"Outcome":"+0","Keys":[2030.3700000076788],"TotalKeys":1,"Block":1,"Trial":80,"Valence":"Lose","Action":"Go","Robot":3,"trial_type":"pit-trial","trial_index":92,"time_elapsed":741559,"internal_node_id":"0.0-92.0"},{"value":false,"trial_type":"call-function","trial_index":93,"time_elapsed":741577,"internal_node_id":"0.0-93.0"},{"RT":184747.18500000017,"trial_type":"pit-pause","trial_index":94,"time_elapsed":927903,"internal_node_id":"0.0-94.0"},{"Rune":"03","Correct":32,"Choice":32,"RT":400.8250000042608,"Accuracy":1,"Sham":0,"Outcome":"+10","Keys":[1902.6100000046426],"TotalKeys":1,"Block":2,"Trial":81,"Valence":"Win","Action":"Go","Robot":1,"trial_type":"pit-trial","trial_index":95,"time_elapsed":930843,"internal_node_id":"0.0-95.0"},{"Rune":"04","Correct":-1,"Choice":32,"RT":465.939999994589,"Accuracy":0,"Sham":0,"Outcome":"+0","Keys":[1969.264999992447],"TotalKeys":1,"Block":2,"Trial":82,"Valence":"Win","Action":"No-Go","Robot":2,"trial_type":"pit-trial","trial_index":96,"time_elapsed":933830,"internal_node_id":"0.0-96.0"},{"Rune":"06","Correct":-1,"Choice":-1,"RT":-1,"Accuracy":1,"Sham":0,"Outcome":"+0","Keys":[],"TotalKeys":0,"Block":2,"Trial":83,"Valence":"Lose","Action":"No-Go","Robot":4,"trial_type":"pit-trial","trial_index":97,"time_elapsed":937850,"internal_node_id":"0.0-97.0"},{"Rune":"05","Correct":32,"Choice":-1,"RT":-1,"Accuracy":0,"Sham":0,"Outcome":"-10","Keys":[],"TotalKeys":0,"Block":2,"Trial":84,"Valence":"Lose","Action":"Go","Robot":3,"trial_type":"pit-trial","trial_index":98,"time_elapsed":941869,"internal_node_id":"0.0-98.0"},{"Rune":"03","Correct":32,"Choice":32,"RT":494.0599999972619,"Accuracy":1,"Sham":0,"Outcome":"+10","Keys":[2083.3049999928335],"TotalKeys":1,"Block":2,"Trial":85,"Valence":"Win","Action":"Go","Robot":1,"trial_type":"pit-trial","trial_index":99,"time_elapsed":944973,"internal_node_id":"0.0-99.0"},{"Rune":"04","Correct":-1,"Choice":32,"RT":387.6299999974435,"Accuracy":0,"Sham":0,"Outcome":"+0","Keys":[1888.4949999919627],"TotalKeys":1,"Block":2,"Trial":86,"Valence":"Win","Action":"No-Go","Robot":2,"trial_type":"pit-trial","trial_index":100,"time_elapsed":947879,"internal_node_id":"0.0-100.0"},{"Rune":"05","Correct":32,"Choice":-1,"RT":-1,"Accuracy":0,"Sham":0,"Outcome":"-10","Keys":[],"TotalKeys":0,"Block":2,"Trial":87,"Valence":"Lose","Action":"Go","Robot":3,"trial_type":"pit-trial","trial_index":101,"time_elapsed":951903,"internal_node_id":"0.0-101.0"},{"Rune":"06","Correct":-1,"Choice":-1,"RT":-1,"Accuracy":1,"Sham":0,"Outcome":"+0","Keys":[],"TotalKeys":0,"Block":2,"Trial":88,"Valence":"Lose","Action":"No-Go","Robot":4,"trial_type":"pit-trial","trial_index":102,"time_elapsed":955927,"internal_node_id":"0.0-102.0"},{"Rune":"05","Correct":32,"Choice":-1,"RT":-1,"Accuracy":0,"Sham":1,"Outcome":"+0","Keys":[3225.2000000007683],"TotalKeys":1,"Block":2,"Trial":89,"Valence":"Lose","Action":"Go","Robot":3,"trial_type":"pit-trial","trial_index":103,"time_elapsed":959953,"internal_node_id":"0.0-103.0"},{"Rune":"03","Correct":32,"Choice":32,"RT":425.4150000051595,"Accuracy":1,"Sham":1,"Outcome":"+0","Keys":[1926.9199999980628],"TotalKeys":1,"Block":2,"Trial":90,"Valence":"Win","Action":"Go","Robot":1,"trial_type":"pit-trial","trial_index":104,"time_elapsed":962901,"internal_node_id":"0.0-104.0"},{"Rune":"04","Correct":-1,"Choice":32,"RT":441.56000000657514,"Accuracy":0,"Sham":0,"Outcome":"+0","Keys":[1946.974999998929],"TotalKeys":1,"Block":2,"Trial":91,"Valence":"Win","Action":"No-Go","Robot":2,"trial_type":"pit-trial","trial_index":105,"time_elapsed":965865,"internal_node_id":"0.0-105.0"},{"Rune":"06","Correct":-1,"Choice":-1,"RT":-1,"Accuracy":1,"Sham":0,"Outcome":"+0","Keys":[],"TotalKeys":0,"Block":2,"Trial":92,"Valence":"Lose","Action":"No-Go","Robot":4,"trial_type":"pit-trial","trial_index":106,"time_elapsed":969888,"internal_node_id":"0.0-106.0"},{"Rune":"06","Correct":-1,"Choice":-1,"RT":-1,"Accuracy":1,"Sham":0,"Outcome":"+0","Keys":[],"TotalKeys":0,"Block":2,"Trial":93,"Valence":"Lose","Action":"No-Go","Robot":4,"trial_type":"pit-trial","trial_index":107,"time_elapsed":973911,"internal_node_id":"0.0-107.0"},{"Rune":"03","Correct":32,"Choice":32,"RT":954.490000003716,"Accuracy":1,"Sham":0,"Outcome":"+10","Keys":[2455.790000007255],"TotalKeys":1,"Block":2,"Trial":94,"Valence":"Win","Action":"Go","Robot":1,"trial_type":"pit-trial","trial_index":108,"time_elapsed":977383,"internal_node_id":"0.0-108.0"},{"Rune":"05","Correct":32,"Choice":-1,"RT":-1,"Accuracy":0,"Sham":0,"Outcome":"-10","Keys":[],"TotalKeys":0,"Block":2,"Trial":95,"Valence":"Lose","Action":"Go","Robot":3,"trial_type":"pit-trial","trial_index":109,"time_elapsed":981402,"internal_node_id":"0.0-109.0"},{"Rune":"04","Correct":-1,"Choice":32,"RT":742.7750000060769,"Accuracy":0,"Sham":1,"Outcome":"+10","Keys":[273.220000002766,2243.239999996149],"TotalKeys":2,"Block":2,"Trial":96,"Valence":"Win","Action":"No-Go","Robot":2,"trial_type":"pit-trial","trial_index":110,"time_elapsed":984669,"internal_node_id":"0.0-110.0"},{"Rune":"06","Correct":-1,"Choice":-1,"RT":-1,"Accuracy":1,"Sham":1,"Outcome":"-10","Keys":[],"TotalKeys":0,"Block":2,"Trial":97,"Valence":"Lose","Action":"No-Go","Robot":4,"trial_type":"pit-trial","trial_index":111,"time_elapsed":988710,"internal_node_id":"0.0-111.0"},{"Rune":"03","Correct":32,"Choice":32,"RT":91.4350000093691,"Accuracy":1,"Sham":0,"Outcome":"+10","Keys":[1591.5799999929732],"TotalKeys":1,"Block":2,"Trial":98,"Valence":"Win","Action":"Go","Robot":1,"trial_type":"pit-trial","trial_index":112,"time_elapsed":991320,"internal_node_id":"0.0-112.0"},{"Rune":"05","Correct":32,"Choice":-1,"RT":-1,"Accuracy":0,"Sham":0,"Outcome":"-10","Keys":[],"TotalKeys":0,"Block":2,"Trial":99,"Valence":"Lose","Action":"Go","Robot":3,"trial_type":"pit-trial","trial_index":113,"time_elapsed":995343,"internal_node_id":"0.0-113.0"},{"Rune":"04","Correct":-1,"Choice":32,"RT":359.0599999879487,"Accuracy":0,"Sham":0,"Outcome":"+0","Keys":[1863.5249999933876],"TotalKeys":1,"Block":2,"Trial":100,"Valence":"Win","Action":"No-Go","Robot":2,"trial_type":"pit-trial","trial_index":114,"time_elapsed":998226,"internal_node_id":"0.0-114.0"},{"Rune":"06","Correct":-1,"Choice":-1,"RT":-1,"Accuracy":1,"Sham":0,"Outcome":"+0","Keys":[],"TotalKeys":0,"Block":2,"Trial":101,"Valence":"Lose","Action":"No-Go","Robot":4,"trial_type":"pit-trial","trial_index":115,"time_elapsed":1002242,"internal_node_id":"0.0-115.0"},{"Rune":"05","Correct":32,"Choice":-1,"RT":-1,"Accuracy":0,"Sham":0,"Outcome":"-10","Keys":[],"TotalKeys":0,"Block":2,"Trial":102,"Valence":"Lose","Action":"Go","Robot":3,"trial_type":"pit-trial","trial_index":116,"time_elapsed":1006264,"internal_node_id":"0.0-116.0"},{"Rune":"03","Correct":32,"Choice":32,"RT":452.5199999916367,"Accuracy":1,"Sham":1,"Outcome":"+0","Keys":[1956.0349999956088],"TotalKeys":1,"Block":2,"Trial":103,"Valence":"Win","Action":"Go","Robot":1,"trial_type":"pit-trial","trial_index":117,"time_elapsed":1009265,"internal_node_id":"0.0-117.0"},{"Rune":"04","Correct":-1,"Choice":32,"RT":424.40000000351574,"Accuracy":0,"Sham":1,"Outcome":"+10","Keys":[1926.194999992731],"TotalKeys":1,"Block":2,"Trial":104,"Valence":"Win","Action":"No-Go","Robot":2,"trial_type":"pit-trial","trial_index":118,"time_elapsed":1012217,"internal_node_id":"0.0-118.0"},{"Rune":"05","Correct":32,"Choice":-1,"RT":-1,"Accuracy":0,"Sham":0,"Outcome":"-10","Keys":[],"TotalKeys":0,"Block":2,"Trial":105,"Valence":"Lose","Action":"Go","Robot":3,"trial_type":"pit-trial","trial_index":119,"time_elapsed":1016246,"internal_node_id":"0.0-119.0"},{"Rune":"03","Correct":32,"Choice":32,"RT":510.22999999986496,"Accuracy":1,"Sham":0,"Outcome":"+10","Keys":[2014.1099999891594],"TotalKeys":1,"Block":2,"Trial":106,"Valence":"Win","Action":"Go","Robot":1,"trial_type":"pit-trial","trial_index":120,"time_elapsed":1019285,"internal_node_id":"0.0-120.0"},{"Rune":"04","Correct":-1,"Choice":32,"RT":540.64500000095,"Accuracy":0,"Sham":0,"Outcome":"+0","Keys":[2042.235000000801],"TotalKeys":1,"Block":2,"Trial":107,"Valence":"Win","Action":"No-Go","Robot":2,"trial_type":"pit-trial","trial_index":121,"time_elapsed":1022350,"internal_node_id":"0.0-121.0"},{"Rune":"06","Correct":-1,"Choice":-1,"RT":-1,"Accuracy":1,"Sham":0,"Outcome":"+0","Keys":[],"TotalKeys":0,"Block":2,"Trial":108,"Valence":"Lose","Action":"No-Go","Robot":4,"trial_type":"pit-trial","trial_index":122,"time_elapsed":1026376,"internal_node_id":"0.0-122.0"},{"Rune":"04","Correct":-1,"Choice":32,"RT":367.8000000072643,"Accuracy":0,"Sham":0,"Outcome":"+0","Keys":[1869.7299999912502],"TotalKeys":1,"Block":2,"Trial":109,"Valence":"Win","Action":"No-Go","Robot":2,"trial_type":"pit-trial","trial_index":123,"time_elapsed":1029278,"internal_node_id":"0.0-123.0"},{"Rune":"06","Correct":-1,"Choice":-1,"RT":-1,"Accuracy":1,"Sham":0,"Outcome":"+0","Keys":[],"TotalKeys":0,"Block":2,"Trial":110,"Valence":"Lose","Action":"No-Go","Robot":4,"trial_type":"pit-trial","trial_index":124,"time_elapsed":1033314,"internal_node_id":"0.0-124.0"},{"Rune":"03","Correct":32,"Choice":32,"RT":426.2299999973038,"Accuracy":1,"Sham":0,"Outcome":"+10","Keys":[1923.5650000046007],"TotalKeys":1,"Block":2,"Trial":111,"Valence":"Win","Action":"Go","Robot":1,"trial_type":"pit-trial","trial_index":125,"time_elapsed":1036262,"internal_node_id":"0.0-125.0"},{"Rune":"05","Correct":32,"Choice":-1,"RT":-1,"Accuracy":0,"Sham":0,"Outcome":"-10","Keys":[],"TotalKeys":0,"Block":2,"Trial":112,"Valence":"Lose","Action":"Go","Robot":3,"trial_type":"pit-trial","trial_index":126,"time_elapsed":1040288,"internal_node_id":"0.0-126.0"},{"Rune":"04","Correct":-1,"Choice":32,"RT":427.3450000039302,"Accuracy":0,"Sham":0,"Outcome":"+0","Keys":[1929.8800000105985],"TotalKeys":1,"Block":2,"Trial":113,"Valence":"Win","Action":"No-Go","Robot":2,"trial_type":"pit-trial","trial_index":127,"time_elapsed":1043238,"internal_node_id":"0.0-127.0"},{"Rune":"06","Correct":-1,"Choice":-1,"RT":-1,"Accuracy":1,"Sham":0,"Outcome":"+0","Keys":[],"TotalKeys":0,"Block":2,"Trial":114,"Valence":"Lose","Action":"No-Go","Robot":4,"trial_type":"pit-trial","trial_index":128,"time_elapsed":1047262,"internal_node_id":"0.0-128.0"},{"Rune":"05","Correct":32,"Choice":-1,"RT":-1,"Accuracy":0,"Sham":1,"Outcome":"+0","Keys":[],"TotalKeys":0,"Block":2,"Trial":115,"Valence":"Lose","Action":"Go","Robot":3,"trial_type":"pit-trial","trial_index":129,"time_elapsed":1051282,"internal_node_id":"0.0-129.0"},{"Rune":"03","Correct":32,"Choice":32,"RT":417.8150000080932,"Accuracy":1,"Sham":0,"Outcome":"+10","Keys":[1919.234999993816],"TotalKeys":1,"Block":2,"Trial":116,"Valence":"Win","Action":"Go","Robot":1,"trial_type":"pit-trial","trial_index":130,"time_elapsed":1054221,"internal_node_id":"0.0-130.0"},{"Rune":"06","Correct":-1,"Choice":-1,"RT":-1,"Accuracy":1,"Sham":1,"Outcome":"-10","Keys":[],"TotalKeys":0,"Block":2,"Trial":117,"Valence":"Lose","Action":"No-Go","Robot":4,"trial_type":"pit-trial","trial_index":131,"time_elapsed":1058245,"internal_node_id":"0.0-131.0"},{"Rune":"05","Correct":32,"Choice":-1,"RT":-1,"Accuracy":0,"Sham":0,"Outcome":"-10","Keys":[],"TotalKeys":0,"Block":2,"Trial":118,"Valence":"Lose","Action":"Go","Robot":3,"trial_type":"pit-trial","trial_index":132,"time_elapsed":1062267,"internal_node_id":"0.0-132.0"},{"Rune":"04","Correct":-1,"Choice":32,"RT":490.0000000053551,"Accuracy":0,"Sham":0,"Outcome":"+0","Keys":[1991.7399999974295],"TotalKeys":1,"Block":2,"Trial":119,"Valence":"Win","Action":"No-Go","Robot":2,"trial_type":"pit-trial","trial_index":133,"time_elapsed":1065279,"internal_node_id":"0.0-133.0"},{"Rune":"03","Correct":32,"Choice":32,"RT":442.8250000057742,"Accuracy":1,"Sham":0,"Outcome":"+10","Keys":[1944.48999999417],"TotalKeys":1,"Block":2,"Trial":120,"Valence":"Win","Action":"Go","Robot":1,"trial_type":"pit-trial","trial_index":134,"time_elapsed":1068246,"internal_node_id":"0.0-134.0"},{"Rune":"04","Correct":-1,"Choice":32,"RT":598.6950000077486,"Accuracy":0,"Sham":0,"Outcome":"+0","Keys":[2101.170000009006],"TotalKeys":1,"Block":2,"Trial":121,"Valence":"Win","Action":"No-Go","Robot":2,"trial_type":"pit-trial","trial_index":135,"time_elapsed":1071368,"internal_node_id":"0.0-135.0"},{"Rune":"06","Correct":-1,"Choice":-1,"RT":-1,"Accuracy":1,"Sham":0,"Outcome":"+0","Keys":[],"TotalKeys":0,"Block":2,"Trial":122,"Valence":"Lose","Action":"No-Go","Robot":4,"trial_type":"pit-trial","trial_index":136,"time_elapsed":1075398,"internal_node_id":"0.0-136.0"},{"Rune":"05","Correct":32,"Choice":-1,"RT":-1,"Accuracy":0,"Sham":0,"Outcome":"-10","Keys":[],"TotalKeys":0,"Block":2,"Trial":123,"Valence":"Lose","Action":"Go","Robot":3,"trial_type":"pit-trial","trial_index":137,"time_elapsed":1079423,"internal_node_id":"0.0-137.0"},{"Rune":"03","Correct":32,"Choice":32,"RT":754.8700000043027,"Accuracy":1,"Sham":1,"Outcome":"+0","Keys":[1474.3549999983516,2258.6100000042934],"TotalKeys":2,"Block":2,"Trial":124,"Valence":"Win","Action":"Go","Robot":1,"trial_type":"pit-trial","trial_index":138,"time_elapsed":1082702,"internal_node_id":"0.0-138.0"},{"Rune":"05","Correct":32,"Choice":-1,"RT":-1,"Accuracy":0,"Sham":1,"Outcome":"+0","Keys":[],"TotalKeys":0,"Block":2,"Trial":125,"Valence":"Lose","Action":"Go","Robot":3,"trial_type":"pit-trial","trial_index":139,"time_elapsed":1086737,"internal_node_id":"0.0-139.0"},{"Rune":"06","Correct":-1,"Choice":32,"RT":364.9250000016764,"Accuracy":0,"Sham":0,"Outcome":"-10","Keys":[1866.945000001695],"TotalKeys":1,"Block":2,"Trial":126,"Valence":"Lose","Action":"No-Go","Robot":4,"trial_type":"pit-trial","trial_index":140,"time_elapsed":1089620,"internal_node_id":"0.0-140.0"},{"Rune":"04","Correct":-1,"Choice":32,"RT":413.32500000158325,"Accuracy":0,"Sham":0,"Outcome":"+0","Keys":[1921.2450000047684],"TotalKeys":1,"Block":2,"Trial":127,"Valence":"Win","Action":"No-Go","Robot":2,"trial_type":"pit-trial","trial_index":141,"time_elapsed":1092560,"internal_node_id":"0.0-141.0"},{"Rune":"03","Correct":32,"Choice":32,"RT":813.1300000094343,"Accuracy":1,"Sham":0,"Outcome":"+10","Keys":[2313.775000002468],"TotalKeys":1,"Block":2,"Trial":128,"Valence":"Win","Action":"Go","Robot":1,"trial_type":"pit-trial","trial_index":142,"time_elapsed":1095898,"internal_node_id":"0.0-142.0"},{"Rune":"06","Correct":-1,"Choice":-1,"RT":-1,"Accuracy":1,"Sham":0,"Outcome":"+0","Keys":[],"TotalKeys":0,"Block":2,"Trial":129,"Valence":"Lose","Action":"No-Go","Robot":4,"trial_type":"pit-trial","trial_index":143,"time_elapsed":1099920,"internal_node_id":"0.0-143.0"},{"Rune":"03","Correct":32,"Choice":32,"RT":485.21500000800006,"Accuracy":1,"Sham":0,"Outcome":"+10","Keys":[1990.275000003865],"TotalKeys":1,"Block":2,"Trial":130,"Valence":"Win","Action":"Go","Robot":1,"trial_type":"pit-trial","trial_index":144,"time_elapsed":1102934,"internal_node_id":"0.0-144.0"},{"Rune":"05","Correct":32,"Choice":-1,"RT":-1,"Accuracy":0,"Sham":0,"Outcome":"-10","Keys":[],"TotalKeys":0,"Block":2,"Trial":131,"Valence":"Lose","Action":"Go","Robot":3,"trial_type":"pit-trial","trial_index":145,"time_elapsed":1106954,"internal_node_id":"0.0-145.0"},{"Rune":"04","Correct":-1,"Choice":32,"RT":479.2049999961164,"Accuracy":0,"Sham":0,"Outcome":"+0","Keys":[1981.1500000068918],"TotalKeys":1,"Block":2,"Trial":132,"Valence":"Win","Action":"No-Go","Robot":2,"trial_type":"pit-trial","trial_index":146,"time_elapsed":1109953,"internal_node_id":"0.0-146.0"},{"Rune":"06","Correct":-1,"Choice":-1,"RT":-1,"Accuracy":1,"Sham":0,"Outcome":"+0","Keys":[],"TotalKeys":0,"Block":2,"Trial":133,"Valence":"Lose","Action":"No-Go","Robot":4,"trial_type":"pit-trial","trial_index":147,"time_elapsed":1113974,"internal_node_id":"0.0-147.0"},{"Rune":"03","Correct":32,"Choice":32,"RT":590.1949999970384,"Accuracy":1,"Sham":0,"Outcome":"+10","Keys":[2093.815000000177],"TotalKeys":1,"Block":2,"Trial":134,"Valence":"Win","Action":"Go","Robot":1,"trial_type":"pit-trial","trial_index":148,"time_elapsed":1117084,"internal_node_id":"0.0-148.0"},{"Rune":"05","Correct":32,"Choice":-1,"RT":-1,"Accuracy":0,"Sham":0,"Outcome":"-10","Keys":[],"TotalKeys":0,"Block":2,"Trial":135,"Valence":"Lose","Action":"Go","Robot":3,"trial_type":"pit-trial","trial_index":149,"time_elapsed":1121107,"internal_node_id":"0.0-149.0"},{"Rune":"04","Correct":-1,"Choice":32,"RT":333.00500000757165,"Accuracy":0,"Sham":0,"Outcome":"+0","Keys":[1835.4399999952875],"TotalKeys":1,"Block":2,"Trial":136,"Valence":"Win","Action":"No-Go","Robot":2,"trial_type":"pit-trial","trial_index":150,"time_elapsed":1123981,"internal_node_id":"0.0-150.0"},{"Rune":"06","Correct":-1,"Choice":-1,"RT":-1,"Accuracy":1,"Sham":1,"Outcome":"-10","Keys":[],"TotalKeys":0,"Block":2,"Trial":137,"Valence":"Lose","Action":"No-Go","Robot":4,"trial_type":"pit-trial","trial_index":151,"time_elapsed":1128001,"internal_node_id":"0.0-151.0"},{"Rune":"03","Correct":32,"Choice":32,"RT":653.664999990724,"Accuracy":1,"Sham":0,"Outcome":"+10","Keys":[2157.5449999945704],"TotalKeys":1,"Block":2,"Trial":138,"Valence":"Win","Action":"Go","Robot":1,"trial_type":"pit-trial","trial_index":152,"time_elapsed":1131175,"internal_node_id":"0.0-152.0"},{"Rune":"05","Correct":32,"Choice":-1,"RT":-1,"Accuracy":0,"Sham":0,"Outcome":"-10","Keys":[],"TotalKeys":0,"Block":2,"Trial":139,"Valence":"Lose","Action":"Go","Robot":3,"trial_type":"pit-trial","trial_index":153,"time_elapsed":1135196,"internal_node_id":"0.0-153.0"},{"Rune":"04","Correct":-1,"Choice":32,"RT":596.9950000001118,"Accuracy":0,"Sham":1,"Outcome":"+10","Keys":[2099.744999999646],"TotalKeys":1,"Block":2,"Trial":140,"Valence":"Win","Action":"No-Go","Robot":2,"trial_type":"pit-trial","trial_index":154,"time_elapsed":1138318,"internal_node_id":"0.0-154.0"},{"Rune":"04","Correct":-1,"Choice":32,"RT":741.3150000066962,"Accuracy":0,"Sham":1,"Outcome":"+10","Keys":[2245.5950000004377],"TotalKeys":1,"Block":2,"Trial":141,"Valence":"Win","Action":"No-Go","Robot":2,"trial_type":"pit-trial","trial_index":155,"time_elapsed":1141581,"internal_node_id":"0.0-155.0"},{"Rune":"05","Correct":32,"Choice":-1,"RT":-1,"Accuracy":0,"Sham":0,"Outcome":"-10","Keys":[],"TotalKeys":0,"Block":2,"Trial":142,"Valence":"Lose","Action":"Go","Robot":3,"trial_type":"pit-trial","trial_index":156,"time_elapsed":1145605,"internal_node_id":"0.0-156.0"},{"Rune":"03","Correct":32,"Choice":32,"RT":593.2849999952596,"Accuracy":1,"Sham":0,"Outcome":"+10","Keys":[1384.869999994291,2101.689999995753],"TotalKeys":2,"Block":2,"Trial":143,"Valence":"Win","Action":"Go","Robot":1,"trial_type":"pit-trial","trial_index":157,"time_elapsed":1148724,"internal_node_id":"0.0-157.0"},{"Rune":"06","Correct":-1,"Choice":-1,"RT":-1,"Accuracy":1,"Sham":0,"Outcome":"+0","Keys":[],"TotalKeys":0,"Block":2,"Trial":144,"Valence":"Lose","Action":"No-Go","Robot":4,"trial_type":"pit-trial","trial_index":158,"time_elapsed":1152751,"internal_node_id":"0.0-158.0"},{"Rune":"06","Correct":-1,"Choice":-1,"RT":-1,"Accuracy":1,"Sham":0,"Outcome":"+0","Keys":[1493.4500000090338],"TotalKeys":1,"Block":2,"Trial":145,"Valence":"Lose","Action":"No-Go","Robot":4,"trial_type":"pit-trial","trial_index":159,"time_elapsed":1156795,"internal_node_id":"0.0-159.0"},{"Rune":"03","Correct":32,"Choice":32,"RT":174.10499999835156,"Accuracy":1,"Sham":0,"Outcome":"+10","Keys":[1675.4900000086054],"TotalKeys":1,"Block":2,"Trial":146,"Valence":"Win","Action":"Go","Robot":1,"trial_type":"pit-trial","trial_index":160,"time_elapsed":1159491,"internal_node_id":"0.0-160.0"},{"Rune":"05","Correct":32,"Choice":-1,"RT":-1,"Accuracy":0,"Sham":0,"Outcome":"-10","Keys":[],"TotalKeys":0,"Block":2,"Trial":147,"Valence":"Lose","Action":"Go","Robot":3,"trial_type":"pit-trial","trial_index":161,"time_elapsed":1163512,"internal_node_id":"0.0-161.0"},{"Rune":"04","Correct":-1,"Choice":32,"RT":1190.1550000037532,"Accuracy":0,"Sham":0,"Outcome":"+0","Keys":[2692.284999997355],"TotalKeys":1,"Block":2,"Trial":148,"Valence":"Win","Action":"No-Go","Robot":2,"trial_type":"pit-trial","trial_index":162,"time_elapsed":1167221,"internal_node_id":"0.0-162.0"},{"Rune":"04","Correct":-1,"Choice":32,"RT":606.7699999983888,"Accuracy":0,"Sham":0,"Outcome":"+0","Keys":[2107.350000005681],"TotalKeys":1,"Block":2,"Trial":149,"Valence":"Win","Action":"No-Go","Robot":2,"trial_type":"pit-trial","trial_index":163,"time_elapsed":1170356,"internal_node_id":"0.0-163.0"},{"Rune":"06","Correct":-1,"Choice":-1,"RT":-1,"Accuracy":1,"Sham":0,"Outcome":"+0","Keys":[],"TotalKeys":0,"Block":2,"Trial":150,"Valence":"Lose","Action":"No-Go","Robot":4,"trial_type":"pit-trial","trial_index":164,"time_elapsed":1174376,"internal_node_id":"0.0-164.0"},{"Rune":"05","Correct":32,"Choice":-1,"RT":-1,"Accuracy":0,"Sham":0,"Outcome":"-10","Keys":[],"TotalKeys":0,"Block":2,"Trial":151,"Valence":"Lose","Action":"Go","Robot":3,"trial_type":"pit-trial","trial_index":165,"time_elapsed":1178408,"internal_node_id":"0.0-165.0"},{"Rune":"03","Correct":32,"Choice":32,"RT":258.8250000118278,"Accuracy":1,"Sham":0,"Outcome":"+10","Keys":[1764.009999999078],"TotalKeys":1,"Block":2,"Trial":152,"Valence":"Win","Action":"Go","Robot":1,"trial_type":"pit-trial","trial_index":166,"time_elapsed":1181191,"internal_node_id":"0.0-166.0"},{"Rune":"03","Correct":32,"Choice":32,"RT":758.0650000018068,"Accuracy":1,"Sham":0,"Outcome":"+10","Keys":[2259.460000001127],"TotalKeys":1,"Block":2,"Trial":153,"Valence":"Win","Action":"Go","Robot":1,"trial_type":"pit-trial","trial_index":167,"time_elapsed":1184467,"internal_node_id":"0.0-167.0"},{"Rune":"06","Correct":-1,"Choice":-1,"RT":-1,"Accuracy":1,"Sham":0,"Outcome":"+0","Keys":[],"TotalKeys":0,"Block":2,"Trial":154,"Valence":"Lose","Action":"No-Go","Robot":4,"trial_type":"pit-trial","trial_index":168,"time_elapsed":1188490,"internal_node_id":"0.0-168.0"},{"Rune":"05","Correct":32,"Choice":-1,"RT":-1,"Accuracy":0,"Sham":0,"Outcome":"-10","Keys":[],"TotalKeys":0,"Block":2,"Trial":155,"Valence":"Lose","Action":"Go","Robot":3,"trial_type":"pit-trial","trial_index":169,"time_elapsed":1192510,"internal_node_id":"0.0-169.0"},{"Rune":"04","Correct":-1,"Choice":32,"RT":318.1299999996554,"Accuracy":0,"Sham":0,"Outcome":"+0","Keys":[1819.2100000013597],"TotalKeys":1,"Block":2,"Trial":156,"Valence":"Win","Action":"No-Go","Robot":2,"trial_type":"pit-trial","trial_index":170,"time_elapsed":1195349,"internal_node_id":"0.0-170.0"},{"Rune":"05","Correct":32,"Choice":-1,"RT":-1,"Accuracy":0,"Sham":1,"Outcome":"+0","Keys":[],"TotalKeys":0,"Block":2,"Trial":157,"Valence":"Lose","Action":"Go","Robot":3,"trial_type":"pit-trial","trial_index":171,"time_elapsed":1199370,"internal_node_id":"0.0-171.0"},{"Rune":"06","Correct":-1,"Choice":32,"RT":775.7350000028964,"Accuracy":0,"Sham":1,"Outcome":"+0","Keys":[2276.9650000117254],"TotalKeys":1,"Block":2,"Trial":158,"Valence":"Lose","Action":"No-Go","Robot":4,"trial_type":"pit-trial","trial_index":172,"time_elapsed":1202664,"internal_node_id":"0.0-172.0"},{"Rune":"04","Correct":-1,"Choice":32,"RT":598.4699999969453,"Accuracy":0,"Sham":0,"Outcome":"+0","Keys":[2099.679999999469],"TotalKeys":1,"Block":2,"Trial":159,"Valence":"Win","Action":"No-Go","Robot":2,"trial_type":"pit-trial","trial_index":173,"time_elapsed":1205787,"internal_node_id":"0.0-173.0"},{"Rune":"03","Correct":32,"Choice":32,"RT":461.59999999497086,"Accuracy":1,"Sham":1,"Outcome":"+0","Keys":[1963.975000005914],"TotalKeys":1,"Block":2,"Trial":160,"Valence":"Win","Action":"Go","Robot":1,"trial_type":"pit-trial","trial_index":174,"time_elapsed":1208767,"internal_node_id":"0.0-174.0"},{"rt":11819.954999999143,"demographics":{"age":"34","gender-categorical":"Male","ethnicity":"Not Hispanic or Latino","race":"White","english":"Yes","fluency":"Very well"},"trial_type":"survey-demo","trial_index":175,"time_elapsed":1220614,"internal_node_id":"0.0-175.0"},{"rt":7070.185000004247,"debriefgraphics":{"difficulty":"3","fun":"4","clarity":"4","strategy":"no","feedback":"no"},"trial_type":"survey-debrief","trial_index":176,"time_elapsed":1227707,"internal_node_id":"0.0-176.0","interactions":"[{\"event\":\"blur\",\"trial\":0,\"time\":3228},{\"event\":\"focus\",\"trial\":0,\"time\":5688},{\"event\":\"blur\",\"trial\":5,\"time\":33014},{\"event\":\"focus\",\"trial\":5,\"time\":320224},{\"event\":\"blur\",\"trial\":5,\"time\":321709},{\"event\":\"focus\",\"trial\":5,\"time\":335867},{\"event\":\"blur\",\"trial\":94,\"time\":746357},{\"event\":\"focus\",\"trial\":94,\"time\":922704}]"}]