[{"view_history":"[{\"page_index\":0,\"viewing_time\":185905.31999999986},{\"page_index\":1,\"viewing_time\":10944.155000001017},{\"page_index\":2,\"viewing_time\":4933.769999999669},{\"page_index\":3,\"viewing_time\":3754.249999999942},{\"page_index\":4,\"viewing_time\":6746.629999999655}]","rt":212285.63000000032,"trial_type":"pit-instructions","trial_index":0,"time_elapsed":212289,"internal_node_id":"0.0-0.0"},{"Rune":"01","Correct":32,"Choice":-1,"RT":-1,"Accuracy":0,"Sham":0,"Outcome":"+0","Keys":[],"TotalKeys":0,"trial_type":"pit-trial","trial_index":1,"time_elapsed":216328,"internal_node_id":"0.0-1.0"},{"Rune":"01","Correct":32,"Choice":32,"RT":957.2349999998405,"Accuracy":1,"Sham":0,"Outcome":"+10","Keys":[2457.4050000010175],"TotalKeys":1,"trial_type":"pit-trial","trial_index":2,"time_elapsed":219790,"internal_node_id":"0.0-2.0"},{"Rune":"01","Correct":32,"Choice":-1,"RT":-1,"Accuracy":0,"Sham":0,"Outcome":"+0","Keys":[],"TotalKeys":0,"trial_type":"pit-trial","trial_index":3,"time_elapsed":223800,"internal_node_id":"0.0-3.0"},{"Rune":"01","Correct":32,"Choice":32,"RT":1169.7550000008196,"Accuracy":1,"Sham":0,"Outcome":"+10","Keys":[2696.294999999751],"TotalKeys":1,"trial_type":"pit-trial","trial_index":4,"time_elapsed":227507,"internal_node_id":"0.0-4.0"},{"view_history":"[{\"page_index\":0,\"viewing_time\":11858.435000000085}]","rt":11859.109999999404,"trial_type":"pit-instructions","trial_index":5,"time_elapsed":239368,"internal_node_id":"0.0-5.0"},{"Rune":"02","Correct":-1,"Choice":-1,"RT":-1,"Accuracy":1,"Sham":0,"Outcome":"+10","Keys":[],"TotalKeys":0,"trial_type":"pit-trial","trial_index":6,"time_elapsed":243449,"internal_node_id":"0.0-6.0"},{"Rune":"02","Correct":-1,"Choice":-1,"RT":-1,"Accuracy":1,"Sham":0,"Outcome":"+10","Keys":[],"TotalKeys":0,"trial_type":"pit-trial","trial_index":7,"time_elapsed":247457,"internal_node_id":"0.0-7.0"},{"Rune":"02","Correct":-1,"Choice":-1,"RT":-1,"Accuracy":1,"Sham":0,"Outcome":"+10","Keys":[],"TotalKeys":0,"trial_type":"pit-trial","trial_index":8,"time_elapsed":251463,"internal_node_id":"0.0-8.0"},{"Rune":"02","Correct":-1,"Choice":-1,"RT":-1,"Accuracy":1,"Sham":0,"Outcome":"+10","Keys":[],"TotalKeys":0,"trial_type":"pit-trial","trial_index":9,"time_elapsed":255470,"internal_node_id":"0.0-9.0"},{"view_history":"[{\"page_index\":0,\"viewing_time\":5990.484999998473},{\"page_index\":1,\"viewing_time\":10241.425000000163},{\"page_index\":2,\"viewing_time\":2552.789999999688},{\"page_index\":3,\"viewing_time\":11596.910000000265},{\"page_index\":4,\"viewing_time\":8973.320000000938},{\"page_index\":5,\"viewing_time\":14850.4300000004},{\"page_index\":6,\"viewing_time\":860.1749999998137},{\"page_index\":7,\"viewing_time\":7871.424999999348}]","rt":62937.519999999495,"trial_type":"pit-instructions","trial_index":10,"time_elapsed":318409,"internal_node_id":"0.0-10.0"},{"rt":34248.78499999974,"responses":"{\"no-press\":\"Do nothing\",\"context-win\":\"+10\",\"context-lose\":\"+0\",\"feedback\":\"True\"}","errors":1,"trial_type":"pit-comprehension","trial_index":11,"time_elapsed":352665,"internal_node_id":"0.0-11.0"},{"view_history":"[{\"page_index\":0,\"viewing_time\":1594.8200000002398}]","rt":1595.470000000205,"trial_type":"pit-instructions","trial_index":12,"time_elapsed":354267,"internal_node_id":"0.0-12.0"},{"Rune":"03","Correct":-1,"Choice":32,"RT":553.2149999999092,"Accuracy":0,"Sham":0,"Outcome":"+0","Keys":[2066.4500000002445],"TotalKeys":1,"Block":1,"Trial":1,"Valence":"Win","Action":"No-Go","Robot":2,"trial_type":"pit-trial","trial_index":13,"time_elapsed":357338,"internal_node_id":"0.0-13.0"},{"Rune":"05","Correct":32,"Choice":-1,"RT":-1,"Accuracy":0,"Sham":0,"Outcome":"-10","Keys":[],"TotalKeys":0,"Block":1,"Trial":2,"Valence":"Lose","Action":"Go","Robot":3,"trial_type":"pit-trial","trial_index":14,"time_elapsed":361404,"internal_node_id":"0.0-14.0"},{"Rune":"04","Correct":-1,"Choice":-1,"RT":-1,"Accuracy":1,"Sham":0,"Outcome":"+0","Keys":[],"TotalKeys":0,"Block":1,"Trial":3,"Valence":"Lose","Action":"No-Go","Robot":4,"trial_type":"pit-trial","trial_index":15,"time_elapsed":365413,"internal_node_id":"0.0-15.0"},{"Rune":"06","Correct":32,"Choice":32,"RT":360.3149999998859,"Accuracy":1,"Sham":0,"Outcome":"+10","Keys":[1860.5600000009872],"TotalKeys":1,"Block":1,"Trial":4,"Valence":"Win","Action":"Go","Robot":1,"trial_type":"pit-trial","trial_index":16,"time_elapsed":368394,"internal_node_id":"0.0-16.0"},{"Rune":"05","Correct":32,"Choice":-1,"RT":-1,"Accuracy":0,"Sham":1,"Outcome":"+0","Keys":[],"TotalKeys":0,"Block":1,"Trial":5,"Valence":"Lose","Action":"Go","Robot":3,"trial_type":"pit-trial","trial_index":17,"time_elapsed":372441,"internal_node_id":"0.0-17.0"},{"Rune":"04","Correct":-1,"Choice":-1,"RT":-1,"Accuracy":1,"Sham":0,"Outcome":"+0","Keys":[],"TotalKeys":0,"Block":1,"Trial":6,"Valence":"Lose","Action":"No-Go","Robot":4,"trial_type":"pit-trial","trial_index":18,"time_elapsed":376460,"internal_node_id":"0.0-18.0"},{"Rune":"06","Correct":32,"Choice":32,"RT":368.44000000017695,"Accuracy":1,"Sham":0,"Outcome":"+10","Keys":[1872.6750000005122],"TotalKeys":1,"Block":1,"Trial":7,"Valence":"Win","Action":"Go","Robot":1,"trial_type":"pit-trial","trial_index":19,"time_elapsed":379339,"internal_node_id":"0.0-19.0"},{"Rune":"03","Correct":-1,"Choice":32,"RT":409.1749999988824,"Accuracy":0,"Sham":0,"Outcome":"+0","Keys":[1909.4600000007194],"TotalKeys":1,"Block":1,"Trial":8,"Valence":"Win","Action":"No-Go","Robot":2,"trial_type":"pit-trial","trial_index":20,"time_elapsed":382304,"internal_node_id":"0.0-20.0"},{"Rune":"06","Correct":32,"Choice":32,"RT":454.9649999989779,"Accuracy":1,"Sham":0,"Outcome":"+10","Keys":[1955.8699999997625],"TotalKeys":1,"Block":1,"Trial":9,"Valence":"Win","Action":"Go","Robot":1,"trial_type":"pit-trial","trial_index":21,"time_elapsed":385310,"internal_node_id":"0.0-21.0"},{"Rune":"05","Correct":32,"Choice":-1,"RT":-1,"Accuracy":0,"Sham":0,"Outcome":"-10","Keys":[],"TotalKeys":0,"Block":1,"Trial":10,"Valence":"Lose","Action":"Go","Robot":3,"trial_type":"pit-trial","trial_index":22,"time_elapsed":389318,"internal_node_id":"0.0-22.0"},{"Rune":"03","Correct":-1,"Choice":32,"RT":475.92500000062864,"Accuracy":0,"Sham":0,"Outcome":"+0","Keys":[1976.670000000042],"TotalKeys":1,"Block":1,"Trial":11,"Valence":"Win","Action":"No-Go","Robot":2,"trial_type":"pit-trial","trial_index":23,"time_elapsed":392300,"internal_node_id":"0.0-23.0"},{"Rune":"04","Correct":-1,"Choice":-1,"RT":-1,"Accuracy":1,"Sham":0,"Outcome":"+0","Keys":[],"TotalKeys":0,"Block":1,"Trial":12,"Valence":"Lose","Action":"No-Go","Robot":4,"trial_type":"pit-trial","trial_index":24,"time_elapsed":396309,"internal_node_id":"0.0-24.0"},{"Rune":"06","Correct":32,"Choice":32,"RT":359.4200000007404,"Accuracy":1,"Sham":0,"Outcome":"+10","Keys":[1869.5849999985658],"TotalKeys":1,"Block":1,"Trial":13,"Valence":"Win","Action":"Go","Robot":1,"trial_type":"pit-trial","trial_index":25,"time_elapsed":399183,"internal_node_id":"0.0-25.0"},{"Rune":"03","Correct":-1,"Choice":32,"RT":488.0450000001001,"Accuracy":0,"Sham":0,"Outcome":"+0","Keys":[1989.0699999996577],"TotalKeys":1,"Block":1,"Trial":14,"Valence":"Win","Action":"No-Go","Robot":2,"trial_type":"pit-trial","trial_index":26,"time_elapsed":402176,"internal_node_id":"0.0-26.0"},{"Rune":"05","Correct":32,"Choice":-1,"RT":-1,"Accuracy":0,"Sham":0,"Outcome":"-10","Keys":[],"TotalKeys":0,"Block":1,"Trial":15,"Valence":"Lose","Action":"Go","Robot":3,"trial_type":"pit-trial","trial_index":27,"time_elapsed":406181,"internal_node_id":"0.0-27.0"},{"Rune":"04","Correct":-1,"Choice":-1,"RT":-1,"Accuracy":1,"Sham":1,"Outcome":"-10","Keys":[],"TotalKeys":0,"Block":1,"Trial":16,"Valence":"Lose","Action":"No-Go","Robot":4,"trial_type":"pit-trial","trial_index":28,"time_elapsed":410190,"internal_node_id":"0.0-28.0"},{"Rune":"06","Correct":32,"Choice":32,"RT":273.76499999989755,"Accuracy":1,"Sham":1,"Outcome":"+0","Keys":[1774.0900000008405],"TotalKeys":1,"Block":1,"Trial":17,"Valence":"Win","Action":"Go","Robot":1,"trial_type":"pit-trial","trial_index":29,"time_elapsed":412969,"internal_node_id":"0.0-29.0"},{"Rune":"05","Correct":32,"Choice":32,"RT":412.850000000617,"Accuracy":1,"Sham":0,"Outcome":"+0","Keys":[285.54000000079395,1088.82000000088,1991.3649999998743],"TotalKeys":3,"Block":1,"Trial":18,"Valence":"Lose","Action":"Go","Robot":3,"trial_type":"pit-trial","trial_index":30,"time_elapsed":415967,"internal_node_id":"0.0-30.0"},{"Rune":"03","Correct":-1,"Choice":32,"RT":161.4499999996042,"Accuracy":0,"Sham":1,"Outcome":"+10","Keys":[1662.3650000001653],"TotalKeys":1,"Block":1,"Trial":19,"Valence":"Win","Action":"No-Go","Robot":2,"trial_type":"pit-trial","trial_index":31,"time_elapsed":418682,"internal_node_id":"0.0-31.0"},{"Rune":"04","Correct":-1,"Choice":32,"RT":535.3649999996996,"Accuracy":0,"Sham":0,"Outcome":"-10","Keys":[2044.6300000002957],"TotalKeys":1,"Block":1,"Trial":20,"Valence":"Lose","Action":"No-Go","Robot":4,"trial_type":"pit-trial","trial_index":32,"time_elapsed":421757,"internal_node_id":"0.0-32.0"},{"Rune":"04","Correct":-1,"Choice":32,"RT":422.3000000002212,"Accuracy":0,"Sham":0,"Outcome":"-10","Keys":[1206.8749999998836,1929.779999998631],"TotalKeys":2,"Block":1,"Trial":21,"Valence":"Lose","Action":"No-Go","Robot":4,"trial_type":"pit-trial","trial_index":33,"time_elapsed":424692,"internal_node_id":"0.0-33.0"},{"Rune":"03","Correct":-1,"Choice":32,"RT":451.7250000007916,"Accuracy":0,"Sham":0,"Outcome":"+0","Keys":[1952.1199999999371],"TotalKeys":1,"Block":1,"Trial":22,"Valence":"Win","Action":"No-Go","Robot":2,"trial_type":"pit-trial","trial_index":34,"time_elapsed":427651,"internal_node_id":"0.0-34.0"},{"Rune":"06","Correct":32,"Choice":32,"RT":354.3300000001327,"Accuracy":1,"Sham":0,"Outcome":"+10","Keys":[1175.000000001106,1854.510000001057],"TotalKeys":2,"Block":1,"Trial":23,"Valence":"Win","Action":"Go","Robot":1,"trial_type":"pit-trial","trial_index":35,"time_elapsed":430512,"internal_node_id":"0.0-35.0"},{"Rune":"05","Correct":32,"Choice":-1,"RT":-1,"Accuracy":0,"Sham":0,"Outcome":"-10","Keys":[],"TotalKeys":0,"Block":1,"Trial":24,"Valence":"Lose","Action":"Go","Robot":3,"trial_type":"pit-trial","trial_index":36,"time_elapsed":434522,"internal_node_id":"0.0-36.0"},{"Rune":"04","Correct":-1,"Choice":-1,"RT":-1,"Accuracy":1,"Sham":0,"Outcome":"+0","Keys":[],"TotalKeys":0,"Block":1,"Trial":25,"Valence":"Lose","Action":"No-Go","Robot":4,"trial_type":"pit-trial","trial_index":37,"time_elapsed":438532,"internal_node_id":"0.0-37.0"},{"Rune":"06","Correct":32,"Choice":32,"RT":381.0450000001001,"Accuracy":1,"Sham":0,"Outcome":"+10","Keys":[1888.875000000582],"TotalKeys":1,"Block":1,"Trial":26,"Valence":"Win","Action":"Go","Robot":1,"trial_type":"pit-trial","trial_index":38,"time_elapsed":441428,"internal_node_id":"0.0-38.0"},{"Rune":"05","Correct":32,"Choice":-1,"RT":-1,"Accuracy":0,"Sham":0,"Outcome":"-10","Keys":[],"TotalKeys":0,"Block":1,"Trial":27,"Valence":"Lose","Action":"Go","Robot":3,"trial_type":"pit-trial","trial_index":39,"time_elapsed":445479,"internal_node_id":"0.0-39.0"},{"Rune":"03","Correct":-1,"Choice":32,"RT":370.96999999997206,"Accuracy":0,"Sham":0,"Outcome":"+0","Keys":[1871.354999999341,2433.1249999995925],"TotalKeys":2,"Block":1,"Trial":28,"Valence":"Win","Action":"No-Go","Robot":2,"trial_type":"pit-trial","trial_index":40,"time_elapsed":448397,"internal_node_id":"0.0-40.0"},{"Rune":"05","Correct":32,"Choice":-1,"RT":-1,"Accuracy":0,"Sham":0,"Outcome":"-10","Keys":[],"TotalKeys":0,"Block":1,"Trial":29,"Valence":"Lose","Action":"Go","Robot":3,"trial_type":"pit-trial","trial_index":41,"time_elapsed":452499,"internal_node_id":"0.0-41.0"},{"Rune":"03","Correct":-1,"Choice":32,"RT":298.9749999997439,"Accuracy":0,"Sham":1,"Outcome":"+10","Keys":[1799.605000000156],"TotalKeys":1,"Block":1,"Trial":30,"Valence":"Win","Action":"No-Go","Robot":2,"trial_type":"pit-trial","trial_index":42,"time_elapsed":455304,"internal_node_id":"0.0-42.0"},{"Rune":"06","Correct":32,"Choice":-1,"RT":-1,"Accuracy":0,"Sham":1,"Outcome":"+10","Keys":[],"TotalKeys":0,"Block":1,"Trial":31,"Valence":"Win","Action":"Go","Robot":1,"trial_type":"pit-trial","trial_index":43,"time_elapsed":459386,"internal_node_id":"0.0-43.0"},{"Rune":"04","Correct":-1,"Choice":-1,"RT":-1,"Accuracy":1,"Sham":0,"Outcome":"+0","Keys":[],"TotalKeys":0,"Block":1,"Trial":32,"Valence":"Lose","Action":"No-Go","Robot":4,"trial_type":"pit-trial","trial_index":44,"time_elapsed":463424,"internal_node_id":"0.0-44.0"},{"Rune":"04","Correct":-1,"Choice":32,"RT":128.49999999889405,"Accuracy":0,"Sham":0,"Outcome":"-10","Keys":[1628.9300000007497],"TotalKeys":1,"Block":1,"Trial":33,"Valence":"Lose","Action":"No-Go","Robot":4,"trial_type":"pit-trial","trial_index":45,"time_elapsed":466060,"internal_node_id":"0.0-45.0"},{"Rune":"03","Correct":-1,"Choice":32,"RT":172.2300000000978,"Accuracy":0,"Sham":0,"Outcome":"+0","Keys":[623.4449999992503,1673.1650000001537,2283.579999999376,2594.9349999991828],"TotalKeys":4,"Block":1,"Trial":34,"Valence":"Win","Action":"No-Go","Robot":2,"trial_type":"pit-trial","trial_index":46,"time_elapsed":468740,"internal_node_id":"0.0-46.0"},{"Rune":"06","Correct":32,"Choice":32,"RT":117.13000000052853,"Accuracy":1,"Sham":0,"Outcome":"+10","Keys":[1618.1099999994622,1982.3099999994156],"TotalKeys":2,"Block":1,"Trial":35,"Valence":"Win","Action":"Go","Robot":1,"trial_type":"pit-trial","trial_index":47,"time_elapsed":471364,"internal_node_id":"0.0-47.0"},{"Rune":"05","Correct":32,"Choice":32,"RT":80.20999999821652,"Accuracy":1,"Sham":1,"Outcome":"-10","Keys":[1257.034999998752,1581.1149999990594,1818.1549999990384],"TotalKeys":3,"Block":1,"Trial":36,"Valence":"Lose","Action":"Go","Robot":3,"trial_type":"pit-trial","trial_index":48,"time_elapsed":473952,"internal_node_id":"0.0-48.0"},{"Rune":"04","Correct":-1,"Choice":32,"RT":570.9399999995949,"Accuracy":0,"Sham":1,"Outcome":"+0","Keys":[2071.99000000034],"TotalKeys":1,"Block":1,"Trial":37,"Valence":"Lose","Action":"No-Go","Robot":4,"trial_type":"pit-trial","trial_index":49,"time_elapsed":477037,"internal_node_id":"0.0-49.0"},{"Rune":"05","Correct":32,"Choice":-1,"RT":-1,"Accuracy":0,"Sham":0,"Outcome":"-10","Keys":[1047.7050000008312,3386.18500000122],"TotalKeys":2,"Block":1,"Trial":38,"Valence":"Lose","Action":"Go","Robot":3,"trial_type":"pit-trial","trial_index":50,"time_elapsed":481049,"internal_node_id":"0.0-50.0"},{"Rune":"06","Correct":32,"Choice":32,"RT":393.97500000084983,"Accuracy":1,"Sham":0,"Outcome":"+10","Keys":[147.73000000062166,179.9100000007311,474.70500000054017,809.4600000004284,1475.5950000017183,1894.4750000009662,2076.1400000010617,2346.0400000003865],"TotalKeys":8,"Block":1,"Trial":39,"Valence":"Win","Action":"Go","Robot":1,"trial_type":"pit-trial","trial_index":51,"time_elapsed":483952,"internal_node_id":"0.0-51.0"},{"Rune":"03","Correct":-1,"Choice":-1,"RT":-1,"Accuracy":1,"Sham":0,"Outcome":"+10","Keys":[],"TotalKeys":0,"Block":1,"Trial":40,"Valence":"Win","Action":"No-Go","Robot":2,"trial_type":"pit-trial","trial_index":52,"time_elapsed":487958,"internal_node_id":"0.0-52.0"},{"Rune":"05","Correct":32,"Choice":32,"RT":510.8399999989779,"Accuracy":1,"Sham":1,"Outcome":"-10","Keys":[2010.9499999998952],"TotalKeys":1,"Block":1,"Trial":41,"Valence":"Lose","Action":"Go","Robot":3,"trial_type":"pit-trial","trial_index":53,"time_elapsed":490978,"internal_node_id":"0.0-53.0"},{"Rune":"03","Correct":-1,"Choice":32,"RT":39.11500000144588,"Accuracy":0,"Sham":0,"Outcome":"+0","Keys":[1064.6199999992386,1393.3450000004377,1653.7499999994761,2516.2499999987776],"TotalKeys":4,"Block":1,"Trial":42,"Valence":"Win","Action":"No-Go","Robot":2,"trial_type":"pit-trial","trial_index":54,"time_elapsed":493639,"internal_node_id":"0.0-54.0"},{"Rune":"04","Correct":-1,"Choice":32,"RT":24.11500000016531,"Accuracy":0,"Sham":0,"Outcome":"-10","Keys":[878.0000000005821,1531.1949999995413],"TotalKeys":2,"Block":1,"Trial":43,"Valence":"Lose","Action":"No-Go","Robot":4,"trial_type":"pit-trial","trial_index":55,"time_elapsed":496174,"internal_node_id":"0.0-55.0"},{"Rune":"06","Correct":32,"Choice":32,"RT":705.8649999999325,"Accuracy":1,"Sham":0,"Outcome":"+10","Keys":[1488.760000000184,2206.70500000054],"TotalKeys":2,"Block":1,"Trial":44,"Valence":"Win","Action":"Go","Robot":1,"trial_type":"pit-trial","trial_index":56,"time_elapsed":499385,"internal_node_id":"0.0-56.0"},{"Rune":"04","Correct":-1,"Choice":32,"RT":1214.8499999984633,"Accuracy":0,"Sham":0,"Outcome":"-10","Keys":[2715.9549999997253,3638.16000000044],"TotalKeys":2,"Block":1,"Trial":45,"Valence":"Lose","Action":"No-Go","Robot":4,"trial_type":"pit-trial","trial_index":57,"time_elapsed":503104,"internal_node_id":"0.0-57.0"},{"Rune":"03","Correct":-1,"Choice":32,"RT":1159.2600000004168,"Accuracy":0,"Sham":1,"Outcome":"+10","Keys":[1067.9299999992363,2660.1499999997322],"TotalKeys":2,"Block":1,"Trial":46,"Valence":"Win","Action":"No-Go","Robot":2,"trial_type":"pit-trial","trial_index":58,"time_elapsed":506768,"internal_node_id":"0.0-58.0"},{"Rune":"05","Correct":32,"Choice":32,"RT":594.6549999989802,"Accuracy":1,"Sham":0,"Outcome":"+0","Keys":[740.2299999993993,2103.4449999987846,2925.509999999078],"TotalKeys":3,"Block":1,"Trial":47,"Valence":"Lose","Action":"Go","Robot":3,"trial_type":"pit-trial","trial_index":59,"time_elapsed":509879,"internal_node_id":"0.0-59.0"},{"Rune":"06","Correct":32,"Choice":32,"RT":650.2199999995064,"Accuracy":1,"Sham":0,"Outcome":"+10","Keys":[980.5099999994272,1395.6199999992969,2151.144999999786],"TotalKeys":3,"Block":1,"Trial":48,"Valence":"Win","Action":"Go","Robot":1,"trial_type":"pit-trial","trial_index":60,"time_elapsed":513042,"internal_node_id":"0.0-60.0"},{"Rune":"04","Correct":-1,"Choice":32,"RT":782.7150000011316,"Accuracy":0,"Sham":0,"Outcome":"-10","Keys":[715.2900000001537,2283.5350000004983],"TotalKeys":2,"Block":1,"Trial":49,"Valence":"Lose","Action":"No-Go","Robot":4,"trial_type":"pit-trial","trial_index":61,"time_elapsed":516330,"internal_node_id":"0.0-61.0"},{"Rune":"06","Correct":32,"Choice":32,"RT":995.9899999994086,"Accuracy":1,"Sham":0,"Outcome":"+10","Keys":[255.89000000036322,1177.1850000004051,2496.7250000007916,3352.520000000368],"TotalKeys":4,"Block":1,"Trial":50,"Valence":"Win","Action":"Go","Robot":1,"trial_type":"pit-trial","trial_index":62,"time_elapsed":519834,"internal_node_id":"0.0-62.0"},{"Rune":"03","Correct":-1,"Choice":32,"RT":61.35499999974854,"Accuracy":0,"Sham":0,"Outcome":"+0","Keys":[212.86499999952503,1561.760000000475,2126.2549999991897],"TotalKeys":3,"Block":1,"Trial":51,"Valence":"Win","Action":"No-Go","Robot":2,"trial_type":"pit-trial","trial_index":63,"time_elapsed":522422,"internal_node_id":"0.0-63.0"},{"Rune":"05","Correct":32,"Choice":32,"RT":189.8899999995483,"Accuracy":1,"Sham":0,"Outcome":"+0","Keys":[72.19499999878462,970.81499999878,1690.520000000135,2370.219999998808],"TotalKeys":4,"Block":1,"Trial":52,"Valence":"Lose","Action":"Go","Robot":3,"trial_type":"pit-trial","trial_index":64,"time_elapsed":525122,"internal_node_id":"0.0-64.0"},{"Rune":"03","Correct":-1,"Choice":32,"RT":967.7300000002142,"Accuracy":0,"Sham":0,"Outcome":"+0","Keys":[1160.3350000005448,2471.2900000014342],"TotalKeys":2,"Block":1,"Trial":53,"Valence":"Win","Action":"No-Go","Robot":2,"trial_type":"pit-trial","trial_index":65,"time_elapsed":528601,"internal_node_id":"0.0-65.0"},{"Rune":"05","Correct":32,"Choice":-1,"RT":-1,"Accuracy":0,"Sham":0,"Outcome":"-10","Keys":[550.290000001085,1172.6550000003772,3300.5350000002654,3659.240000000922],"TotalKeys":4,"Block":1,"Trial":54,"Valence":"Lose","Action":"Go","Robot":3,"trial_type":"pit-trial","trial_index":66,"time_elapsed":532615,"internal_node_id":"0.0-66.0"},{"Rune":"04","Correct":-1,"Choice":32,"RT":17.930000000051223,"Accuracy":0,"Sham":0,"Outcome":"-10","Keys":[830.0650000000605,1237.1149999998743,1523.9000000001397,1993.6300000008196],"TotalKeys":4,"Block":1,"Trial":55,"Valence":"Lose","Action":"No-Go","Robot":4,"trial_type":"pit-trial","trial_index":67,"time_elapsed":535148,"internal_node_id":"0.0-67.0"},{"Rune":"06","Correct":32,"Choice":32,"RT":538.9599999998463,"Accuracy":1,"Sham":0,"Outcome":"+10","Keys":[423.28000000095926,1177.0649999998277,2040.2150000008987],"TotalKeys":3,"Block":1,"Trial":56,"Valence":"Win","Action":"Go","Robot":1,"trial_type":"pit-trial","trial_index":68,"time_elapsed":538193,"internal_node_id":"0.0-68.0"},{"Rune":"06","Correct":32,"Choice":-1,"RT":-1,"Accuracy":0,"Sham":1,"Outcome":"+10","Keys":[],"TotalKeys":0,"Block":1,"Trial":57,"Valence":"Win","Action":"Go","Robot":1,"trial_type":"pit-trial","trial_index":69,"time_elapsed":542228,"internal_node_id":"0.0-69.0"},{"Rune":"05","Correct":32,"Choice":-1,"RT":-1,"Accuracy":0,"Sham":0,"Outcome":"-10","Keys":[],"TotalKeys":0,"Block":1,"Trial":58,"Valence":"Lose","Action":"Go","Robot":3,"trial_type":"pit-trial","trial_index":70,"time_elapsed":546304,"internal_node_id":"0.0-70.0"},{"Rune":"04","Correct":-1,"Choice":-1,"RT":-1,"Accuracy":1,"Sham":1,"Outcome":"-10","Keys":[1403.6299999988405],"TotalKeys":1,"Block":1,"Trial":59,"Valence":"Lose","Action":"No-Go","Robot":4,"trial_type":"pit-trial","trial_index":71,"time_elapsed":550320,"internal_node_id":"0.0-71.0"},{"Rune":"03","Correct":-1,"Choice":32,"RT":42.80999999900814,"Accuracy":0,"Sham":0,"Outcome":"+0","Keys":[1544.1200000005774,2138.924999999348],"TotalKeys":2,"Block":1,"Trial":60,"Valence":"Win","Action":"No-Go","Robot":2,"trial_type":"pit-trial","trial_index":72,"time_elapsed":552870,"internal_node_id":"0.0-72.0"},{"Rune":"03","Correct":-1,"Choice":32,"RT":510.34500000055414,"Accuracy":0,"Sham":0,"Outcome":"+0","Keys":[96.6149999985937,1287.9549999997253,2010.619999999064,2602.75],"TotalKeys":4,"Block":1,"Trial":61,"Valence":"Win","Action":"No-Go","Robot":2,"trial_type":"pit-trial","trial_index":73,"time_elapsed":555889,"internal_node_id":"0.0-73.0"},{"Rune":"05","Correct":32,"Choice":-1,"RT":-1,"Accuracy":0,"Sham":0,"Outcome":"-10","Keys":[],"TotalKeys":0,"Block":1,"Trial":62,"Valence":"Lose","Action":"Go","Robot":3,"trial_type":"pit-trial","trial_index":74,"time_elapsed":559900,"internal_node_id":"0.0-74.0"},{"Rune":"04","Correct":-1,"Choice":-1,"RT":-1,"Accuracy":1,"Sham":0,"Outcome":"+0","Keys":[],"TotalKeys":0,"Block":1,"Trial":63,"Valence":"Lose","Action":"No-Go","Robot":4,"trial_type":"pit-trial","trial_index":75,"time_elapsed":563911,"internal_node_id":"0.0-75.0"},{"Rune":"06","Correct":32,"Choice":-1,"RT":-1,"Accuracy":0,"Sham":0,"Outcome":"+0","Keys":[],"TotalKeys":0,"Block":1,"Trial":64,"Valence":"Win","Action":"Go","Robot":1,"trial_type":"pit-trial","trial_index":76,"time_elapsed":567923,"internal_node_id":"0.0-76.0"},{"Rune":"03","Correct":-1,"Choice":-1,"RT":-1,"Accuracy":1,"Sham":0,"Outcome":"+10","Keys":[],"TotalKeys":0,"Block":1,"Trial":65,"Valence":"Win","Action":"No-Go","Robot":2,"trial_type":"pit-trial","trial_index":77,"time_elapsed":571933,"internal_node_id":"0.0-77.0"},{"Rune":"04","Correct":-1,"Choice":-1,"RT":-1,"Accuracy":1,"Sham":0,"Outcome":"+0","Keys":[],"TotalKeys":0,"Block":1,"Trial":66,"Valence":"Lose","Action":"No-Go","Robot":4,"trial_type":"pit-trial","trial_index":78,"time_elapsed":575960,"internal_node_id":"0.0-78.0"},{"Rune":"06","Correct":32,"Choice":-1,"RT":-1,"Accuracy":0,"Sham":1,"Outcome":"+10","Keys":[],"TotalKeys":0,"Block":1,"Trial":67,"Valence":"Win","Action":"Go","Robot":1,"trial_type":"pit-trial","trial_index":79,"time_elapsed":579969,"internal_node_id":"0.0-79.0"},{"Rune":"05","Correct":32,"Choice":-1,"RT":-1,"Accuracy":0,"Sham":0,"Outcome":"-10","Keys":[],"TotalKeys":0,"Block":1,"Trial":68,"Valence":"Lose","Action":"Go","Robot":3,"trial_type":"pit-trial","trial_index":80,"time_elapsed":583977,"internal_node_id":"0.0-80.0"},{"Rune":"04","Correct":-1,"Choice":-1,"RT":-1,"Accuracy":1,"Sham":1,"Outcome":"-10","Keys":[],"TotalKeys":0,"Block":1,"Trial":69,"Valence":"Lose","Action":"No-Go","Robot":4,"trial_type":"pit-trial","trial_index":81,"time_elapsed":587985,"internal_node_id":"0.0-81.0"},{"Rune":"05","Correct":32,"Choice":-1,"RT":-1,"Accuracy":0,"Sham":0,"Outcome":"-10","Keys":[],"TotalKeys":0,"Block":1,"Trial":70,"Valence":"Lose","Action":"Go","Robot":3,"trial_type":"pit-trial","trial_index":82,"time_elapsed":591993,"internal_node_id":"0.0-82.0"},{"Rune":"06","Correct":32,"Choice":-1,"RT":-1,"Accuracy":0,"Sham":0,"Outcome":"+0","Keys":[],"TotalKeys":0,"Block":1,"Trial":71,"Valence":"Win","Action":"Go","Robot":1,"trial_type":"pit-trial","trial_index":83,"time_elapsed":596006,"internal_node_id":"0.0-83.0"},{"Rune":"03","Correct":-1,"Choice":-1,"RT":-1,"Accuracy":1,"Sham":0,"Outcome":"+10","Keys":[],"TotalKeys":0,"Block":1,"Trial":72,"Valence":"Win","Action":"No-Go","Robot":2,"trial_type":"pit-trial","trial_index":84,"time_elapsed":600013,"internal_node_id":"0.0-84.0"},{"Rune":"03","Correct":-1,"Choice":-1,"RT":-1,"Accuracy":1,"Sham":0,"Outcome":"+10","Keys":[],"TotalKeys":0,"Block":1,"Trial":73,"Valence":"Win","Action":"No-Go","Robot":2,"trial_type":"pit-trial","trial_index":85,"time_elapsed":604129,"internal_node_id":"0.0-85.0"},{"Rune":"05","Correct":32,"Choice":-1,"RT":-1,"Accuracy":0,"Sham":1,"Outcome":"+0","Keys":[],"TotalKeys":0,"Block":1,"Trial":74,"Valence":"Lose","Action":"Go","Robot":3,"trial_type":"pit-trial","trial_index":86,"time_elapsed":608196,"internal_node_id":"0.0-86.0"},{"Rune":"06","Correct":32,"Choice":-1,"RT":-1,"Accuracy":0,"Sham":0,"Outcome":"+0","Keys":[],"TotalKeys":0,"Block":1,"Trial":75,"Valence":"Win","Action":"Go","Robot":1,"trial_type":"pit-trial","trial_index":87,"time_elapsed":612202,"internal_node_id":"0.0-87.0"},{"Rune":"04","Correct":-1,"Choice":-1,"RT":-1,"Accuracy":1,"Sham":0,"Outcome":"+0","Keys":[],"TotalKeys":0,"Block":1,"Trial":76,"Valence":"Lose","Action":"No-Go","Robot":4,"trial_type":"pit-trial","trial_index":88,"time_elapsed":616207,"internal_node_id":"0.0-88.0"},{"Rune":"03","Correct":-1,"Choice":-1,"RT":-1,"Accuracy":1,"Sham":1,"Outcome":"+0","Keys":[],"TotalKeys":0,"Block":1,"Trial":77,"Valence":"Win","Action":"No-Go","Robot":2,"trial_type":"pit-trial","trial_index":89,"time_elapsed":620212,"internal_node_id":"0.0-89.0"},{"Rune":"06","Correct":32,"Choice":-1,"RT":-1,"Accuracy":0,"Sham":0,"Outcome":"+0","Keys":[],"TotalKeys":0,"Block":1,"Trial":78,"Valence":"Win","Action":"Go","Robot":1,"trial_type":"pit-trial","trial_index":90,"time_elapsed":624218,"internal_node_id":"0.0-90.0"},{"Rune":"04","Correct":-1,"Choice":-1,"RT":-1,"Accuracy":1,"Sham":0,"Outcome":"+0","Keys":[],"TotalKeys":0,"Block":1,"Trial":79,"Valence":"Lose","Action":"No-Go","Robot":4,"trial_type":"pit-trial","trial_index":91,"time_elapsed":628225,"internal_node_id":"0.0-91.0"},{"Rune":"05","Correct":32,"Choice":-1,"RT":-1,"Accuracy":0,"Sham":0,"Outcome":"-10","Keys":[],"TotalKeys":0,"Block":1,"Trial":80,"Valence":"Lose","Action":"Go","Robot":3,"trial_type":"pit-trial","trial_index":92,"time_elapsed":633074,"internal_node_id":"0.0-92.0"},{"value":false,"trial_type":"call-function","trial_index":93,"time_elapsed":633080,"internal_node_id":"0.0-93.0"},{"RT":18143.560000000405,"trial_type":"pit-pause","trial_index":94,"time_elapsed":654439,"internal_node_id":"0.0-94.0"},{"Rune":"06","Correct":32,"Choice":32,"RT":1252.1349999988452,"Accuracy":1,"Sham":0,"Outcome":"+10","Keys":[2752.849999998929],"TotalKeys":1,"Block":2,"Trial":81,"Valence":"Win","Action":"Go","Robot":1,"trial_type":"pit-trial","trial_index":95,"time_elapsed":658196,"internal_node_id":"0.0-95.0"},{"Rune":"03","Correct":-1,"Choice":32,"RT":1091.089999999851,"Accuracy":0,"Sham":0,"Outcome":"+0","Keys":[582.0599999988917,1385.3949999993201,2591.849999998929],"TotalKeys":3,"Block":2,"Trial":82,"Valence":"Win","Action":"No-Go","Robot":2,"trial_type":"pit-trial","trial_index":96,"time_elapsed":661796,"internal_node_id":"0.0-96.0"},{"Rune":"04","Correct":-1,"Choice":32,"RT":156.00000000093132,"Accuracy":0,"Sham":0,"Outcome":"-10","Keys":[284.5899999992689,647.9949999992969,938.7999999998137,1186.920000000042,1445.7099999999627,1671.034999999334,1947.9200000005076,2283.654999999213,2624.395000000717],"TotalKeys":9,"Block":2,"Trial":83,"Valence":"Lose","Action":"No-Go","Robot":4,"trial_type":"pit-trial","trial_index":97,"time_elapsed":664475,"internal_node_id":"0.0-97.0"},{"Rune":"05","Correct":32,"Choice":32,"RT":164.41499999922235,"Accuracy":1,"Sham":0,"Outcome":"+0","Keys":[188.67999999935273,572.9699999992736,847.3450000000885,1131.2849999994505,1397.8599999991711,1666.9149999998044,1915.119999999646,2207.604999999632,2502.624999999185],"TotalKeys":9,"Block":2,"Trial":84,"Valence":"Lose","Action":"Go","Robot":3,"trial_type":"pit-trial","trial_index":98,"time_elapsed":667149,"internal_node_id":"0.0-98.0"},{"Rune":"06","Correct":32,"Choice":32,"RT":245.9999999991851,"Accuracy":1,"Sham":0,"Outcome":"+10","Keys":[228.36499999905936,546.3749999998836,868.4799999991665,1182.5200000002515,1449.7849999988684,1752.4949999988312,2017.4399999995949,2288.370000000228,2553.1250000003492],"TotalKeys":9,"Block":2,"Trial":85,"Valence":"Win","Action":"Go","Robot":1,"trial_type":"pit-trial","trial_index":99,"time_elapsed":669906,"internal_node_id":"0.0-99.0"},{"Rune":"03","Correct":-1,"Choice":32,"RT":189.9699999995064,"Accuracy":0,"Sham":0,"Outcome":"+0","Keys":[54.10500000114553,300.0800000008894,568.1899999999441,835.9999999994179,1106.5300000009593,1360.3850000000093,1690.114999999525,2020.8050000001676,2319.0850000010105],"TotalKeys":9,"Block":2,"Trial":86,"Valence":"Win","Action":"No-Go","Robot":2,"trial_type":"pit-trial","trial_index":100,"time_elapsed":672600,"internal_node_id":"0.0-100.0"},{"Rune":"05","Correct":32,"Choice":32,"RT":147.38500000024214,"Accuracy":1,"Sham":0,"Outcome":"+0","Keys":[658.910000000149,909.6750000008615,1183.3050000005169,1435.8900000007125,1647.6500000008382,1913.3750000001164,2175.4600000004284,2447.4200000005076],"TotalKeys":8,"Block":2,"Trial":87,"Valence":"Lose","Action":"Go","Robot":3,"trial_type":"pit-trial","trial_index":101,"time_elapsed":675315,"internal_node_id":"0.0-101.0"},{"Rune":"04","Correct":-1,"Choice":32,"RT":62.514999999664724,"Accuracy":0,"Sham":0,"Outcome":"-10","Keys":[0.280000000144355,250.53500000096392,478.2500000001164,703.0600000015693,898.9050000000279,1134.6950000006473,1341.78000000061,1562.735000001383,1822.5400000009686,2063.3300000008894,2310.6050000005635,2560.4050000001444],"TotalKeys":12,"Block":2,"Trial":88,"Valence":"Lose","Action":"No-Go","Robot":4,"trial_type":"pit-trial","trial_index":102,"time_elapsed":677882,"internal_node_id":"0.0-102.0"},{"Rune":"05","Correct":32,"Choice":32,"RT":169.48500000033528,"Accuracy":1,"Sham":1,"Outcome":"-10","Keys":[241.63500000024214,498.72499999939464,972.1800000006333,1214.0849999996135,1428.4399999997113,1669.565000000177,1890.04000000027,2175.4400000008754],"TotalKeys":8,"Block":2,"Trial":89,"Valence":"Lose","Action":"Go","Robot":3,"trial_type":"pit-trial","trial_index":103,"time_elapsed":680559,"internal_node_id":"0.0-103.0"},{"Rune":"06","Correct":32,"Choice":-1,"RT":-1,"Accuracy":0,"Sham":1,"Outcome":"+10","Keys":[3240.5300000009593,3963.6750000008615],"TotalKeys":2,"Block":2,"Trial":90,"Valence":"Win","Action":"Go","Robot":1,"trial_type":"pit-trial","trial_index":104,"time_elapsed":684569,"internal_node_id":"0.0-104.0"},{"Rune":"03","Correct":-1,"Choice":32,"RT":610.7449999998789,"Accuracy":0,"Sham":0,"Outcome":"+0","Keys":[762.0700000006473,1303.4200000001583,2117.3799999996554,2543.3499999998603,2895.7650000010617,3099.970000001136],"TotalKeys":6,"Block":2,"Trial":91,"Valence":"Win","Action":"No-Go","Robot":2,"trial_type":"pit-trial","trial_index":105,"time_elapsed":687691,"internal_node_id":"0.0-105.0"},{"Rune":"04","Correct":-1,"Choice":32,"RT":1268.17999999912,"Accuracy":0,"Sham":0,"Outcome":"-10","Keys":[1094.6650000006193,2768.4900000004563],"TotalKeys":2,"Block":2,"Trial":92,"Valence":"Lose","Action":"No-Go","Robot":4,"trial_type":"pit-trial","trial_index":106,"time_elapsed":691468,"internal_node_id":"0.0-106.0"},{"Rune":"04","Correct":-1,"Choice":-1,"RT":-1,"Accuracy":1,"Sham":0,"Outcome":"+0","Keys":[3213.5600000001723,3751.2600000009406],"TotalKeys":2,"Block":2,"Trial":93,"Valence":"Lose","Action":"No-Go","Robot":4,"trial_type":"pit-trial","trial_index":107,"time_elapsed":695477,"internal_node_id":"0.0-107.0"},{"Rune":"06","Correct":32,"Choice":32,"RT":262.7749999992084,"Accuracy":1,"Sham":0,"Outcome":"+10","Keys":[206.65500000177417,720.4850000016158,1763.3950000017649,2073.020000001532],"TotalKeys":4,"Block":2,"Trial":94,"Valence":"Win","Action":"Go","Robot":1,"trial_type":"pit-trial","trial_index":108,"time_elapsed":698252,"internal_node_id":"0.0-108.0"},{"Rune":"05","Correct":32,"Choice":-1,"RT":-1,"Accuracy":0,"Sham":0,"Outcome":"-10","Keys":[],"TotalKeys":0,"Block":2,"Trial":95,"Valence":"Lose","Action":"Go","Robot":3,"trial_type":"pit-trial","trial_index":109,"time_elapsed":702258,"internal_node_id":"0.0-109.0"},{"Rune":"03","Correct":-1,"Choice":-1,"RT":-1,"Accuracy":1,"Sham":1,"Outcome":"+0","Keys":[],"TotalKeys":0,"Block":2,"Trial":96,"Valence":"Win","Action":"No-Go","Robot":2,"trial_type":"pit-trial","trial_index":110,"time_elapsed":706294,"internal_node_id":"0.0-110.0"},{"Rune":"04","Correct":-1,"Choice":-1,"RT":-1,"Accuracy":1,"Sham":1,"Outcome":"-10","Keys":[832.5299999996787,1100.6250000009313,1374.9850000004517],"TotalKeys":3,"Block":2,"Trial":97,"Valence":"Lose","Action":"No-Go","Robot":4,"trial_type":"pit-trial","trial_index":111,"time_elapsed":710318,"internal_node_id":"0.0-111.0"},{"Rune":"06","Correct":32,"Choice":32,"RT":428.56500000017695,"Accuracy":1,"Sham":0,"Outcome":"+10","Keys":[1390.4799999999814,1929.5650000004098],"TotalKeys":2,"Block":2,"Trial":98,"Valence":"Win","Action":"Go","Robot":1,"trial_type":"pit-trial","trial_index":112,"time_elapsed":713310,"internal_node_id":"0.0-112.0"},{"Rune":"05","Correct":32,"Choice":-1,"RT":-1,"Accuracy":0,"Sham":0,"Outcome":"-10","Keys":[],"TotalKeys":0,"Block":2,"Trial":99,"Valence":"Lose","Action":"Go","Robot":3,"trial_type":"pit-trial","trial_index":113,"time_elapsed":717346,"internal_node_id":"0.0-113.0"},{"Rune":"03","Correct":-1,"Choice":32,"RT":413.74999999965075,"Accuracy":0,"Sham":0,"Outcome":"+0","Keys":[2041.4700000000885,2590.4749999990454],"TotalKeys":2,"Block":2,"Trial":100,"Valence":"Win","Action":"No-Go","Robot":2,"trial_type":"pit-trial","trial_index":114,"time_elapsed":720423,"internal_node_id":"0.0-114.0"},{"Rune":"04","Correct":-1,"Choice":-1,"RT":-1,"Accuracy":1,"Sham":0,"Outcome":"+0","Keys":[],"TotalKeys":0,"Block":2,"Trial":101,"Valence":"Lose","Action":"No-Go","Robot":4,"trial_type":"pit-trial","trial_index":115,"time_elapsed":724432,"internal_node_id":"0.0-115.0"},{"Rune":"05","Correct":32,"Choice":-1,"RT":-1,"Accuracy":0,"Sham":0,"Outcome":"-10","Keys":[],"TotalKeys":0,"Block":2,"Trial":102,"Valence":"Lose","Action":"Go","Robot":3,"trial_type":"pit-trial","trial_index":116,"time_elapsed":728477,"internal_node_id":"0.0-116.0"},{"Rune":"06","Correct":32,"Choice":32,"RT":342.3500000007916,"Accuracy":1,"Sham":1,"Outcome":"+0","Keys":[1842.8450000010198,2378.380000000121],"TotalKeys":2,"Block":2,"Trial":103,"Valence":"Win","Action":"Go","Robot":1,"trial_type":"pit-trial","trial_index":117,"time_elapsed":731328,"internal_node_id":"0.0-117.0"},{"Rune":"03","Correct":-1,"Choice":32,"RT":469.74000000045635,"Accuracy":0,"Sham":1,"Outcome":"+10","Keys":[141.3749999993015,489.315000000759,1970.3649999992922],"TotalKeys":3,"Block":2,"Trial":104,"Valence":"Win","Action":"No-Go","Robot":2,"trial_type":"pit-trial","trial_index":118,"time_elapsed":734315,"internal_node_id":"0.0-118.0"},{"Rune":"05","Correct":32,"Choice":-1,"RT":-1,"Accuracy":0,"Sham":0,"Outcome":"-10","Keys":[],"TotalKeys":0,"Block":2,"Trial":105,"Valence":"Lose","Action":"Go","Robot":3,"trial_type":"pit-trial","trial_index":119,"time_elapsed":738332,"internal_node_id":"0.0-119.0"},{"Rune":"06","Correct":32,"Choice":-1,"RT":-1,"Accuracy":0,"Sham":0,"Outcome":"+0","Keys":[3015.4650000003166,3501.025000001304],"TotalKeys":2,"Block":2,"Trial":106,"Valence":"Win","Action":"Go","Robot":1,"trial_type":"pit-trial","trial_index":120,"time_elapsed":742340,"internal_node_id":"0.0-120.0"},{"Rune":"03","Correct":-1,"Choice":32,"RT":570.6250000002328,"Accuracy":0,"Sham":0,"Outcome":"+0","Keys":[1328.965000000666,2070.929999999935],"TotalKeys":2,"Block":2,"Trial":107,"Valence":"Win","Action":"No-Go","Robot":2,"trial_type":"pit-trial","trial_index":121,"time_elapsed":745424,"internal_node_id":"0.0-121.0"},{"Rune":"04","Correct":-1,"Choice":-1,"RT":-1,"Accuracy":1,"Sham":0,"Outcome":"+0","Keys":[1498.0949999990407],"TotalKeys":1,"Block":2,"Trial":108,"Valence":"Lose","Action":"No-Go","Robot":4,"trial_type":"pit-trial","trial_index":122,"time_elapsed":749428,"internal_node_id":"0.0-122.0"},{"Rune":"03","Correct":-1,"Choice":32,"RT":812.4750000006752,"Accuracy":0,"Sham":0,"Outcome":"+0","Keys":[2312.9850000004517,2734.7000000008848],"TotalKeys":2,"Block":2,"Trial":109,"Valence":"Win","Action":"No-Go","Robot":2,"trial_type":"pit-trial","trial_index":123,"time_elapsed":752748,"internal_node_id":"0.0-123.0"},{"Rune":"04","Correct":-1,"Choice":32,"RT":580.859999999986,"Accuracy":0,"Sham":0,"Outcome":"-10","Keys":[2081.5600000005215,2496.4949999994133],"TotalKeys":2,"Block":2,"Trial":110,"Valence":"Lose","Action":"No-Go","Robot":4,"trial_type":"pit-trial","trial_index":124,"time_elapsed":755834,"internal_node_id":"0.0-124.0"},{"Rune":"06","Correct":32,"Choice":32,"RT":780.559999999241,"Accuracy":1,"Sham":0,"Outcome":"+10","Keys":[2280.8750000003492],"TotalKeys":1,"Block":2,"Trial":111,"Valence":"Win","Action":"Go","Robot":1,"trial_type":"pit-trial","trial_index":125,"time_elapsed":759120,"internal_node_id":"0.0-125.0"},{"Rune":"05","Correct":32,"Choice":-1,"RT":-1,"Accuracy":0,"Sham":0,"Outcome":"-10","Keys":[4055.560000000638],"TotalKeys":1,"Block":2,"Trial":112,"Valence":"Lose","Action":"Go","Robot":3,"trial_type":"pit-trial","trial_index":126,"time_elapsed":763185,"internal_node_id":"0.0-126.0"},{"Rune":"03","Correct":-1,"Choice":32,"RT":550.6399999995483,"Accuracy":0,"Sham":0,"Outcome":"+0","Keys":[2056.0450000010896,2487.435000000871],"TotalKeys":2,"Block":2,"Trial":113,"Valence":"Win","Action":"No-Go","Robot":2,"trial_type":"pit-trial","trial_index":127,"time_elapsed":766253,"internal_node_id":"0.0-127.0"},{"Rune":"04","Correct":-1,"Choice":-1,"RT":-1,"Accuracy":1,"Sham":0,"Outcome":"+0","Keys":[],"TotalKeys":0,"Block":2,"Trial":114,"Valence":"Lose","Action":"No-Go","Robot":4,"trial_type":"pit-trial","trial_index":128,"time_elapsed":770259,"internal_node_id":"0.0-128.0"},{"Rune":"05","Correct":32,"Choice":-1,"RT":-1,"Accuracy":0,"Sham":1,"Outcome":"+0","Keys":[1181.9950000009267],"TotalKeys":1,"Block":2,"Trial":115,"Valence":"Lose","Action":"Go","Robot":3,"trial_type":"pit-trial","trial_index":129,"time_elapsed":774272,"internal_node_id":"0.0-129.0"},{"Rune":"06","Correct":32,"Choice":32,"RT":113.90000000025611,"Accuracy":1,"Sham":0,"Outcome":"+10","Keys":[945.5049999997718,1313.700000000652,1647.3499999992782],"TotalKeys":3,"Block":2,"Trial":116,"Valence":"Win","Action":"Go","Robot":1,"trial_type":"pit-trial","trial_index":130,"time_elapsed":776924,"internal_node_id":"0.0-130.0"},{"Rune":"04","Correct":-1,"Choice":-1,"RT":-1,"Accuracy":1,"Sham":1,"Outcome":"-10","Keys":[],"TotalKeys":0,"Block":2,"Trial":117,"Valence":"Lose","Action":"No-Go","Robot":4,"trial_type":"pit-trial","trial_index":131,"time_elapsed":780931,"internal_node_id":"0.0-131.0"},{"Rune":"05","Correct":32,"Choice":-1,"RT":-1,"Accuracy":0,"Sham":0,"Outcome":"-10","Keys":[1295.4799999988172],"TotalKeys":1,"Block":2,"Trial":118,"Valence":"Lose","Action":"Go","Robot":3,"trial_type":"pit-trial","trial_index":132,"time_elapsed":784939,"internal_node_id":"0.0-132.0"},{"Rune":"03","Correct":-1,"Choice":32,"RT":635.5100000001257,"Accuracy":0,"Sham":0,"Outcome":"+0","Keys":[1312.0449999987613,2154.7350000001024],"TotalKeys":2,"Block":2,"Trial":119,"Valence":"Win","Action":"No-Go","Robot":2,"trial_type":"pit-trial","trial_index":133,"time_elapsed":788099,"internal_node_id":"0.0-133.0"},{"Rune":"06","Correct":32,"Choice":32,"RT":373.9699999986915,"Accuracy":1,"Sham":0,"Outcome":"+10","Keys":[1109.6550000002608,1874.0099999995437,2030.1500000006054],"TotalKeys":3,"Block":2,"Trial":120,"Valence":"Win","Action":"Go","Robot":1,"trial_type":"pit-trial","trial_index":134,"time_elapsed":790979,"internal_node_id":"0.0-134.0"},{"Rune":"03","Correct":-1,"Choice":-1,"RT":-1,"Accuracy":1,"Sham":0,"Outcome":"+10","Keys":[],"TotalKeys":0,"Block":2,"Trial":121,"Valence":"Win","Action":"No-Go","Robot":2,"trial_type":"pit-trial","trial_index":135,"time_elapsed":794988,"internal_node_id":"0.0-135.0"},{"Rune":"04","Correct":-1,"Choice":-1,"RT":-1,"Accuracy":1,"Sham":0,"Outcome":"+0","Keys":[],"TotalKeys":0,"Block":2,"Trial":122,"Valence":"Lose","Action":"No-Go","Robot":4,"trial_type":"pit-trial","trial_index":136,"time_elapsed":799005,"internal_node_id":"0.0-136.0"},{"Rune":"05","Correct":32,"Choice":-1,"RT":-1,"Accuracy":0,"Sham":0,"Outcome":"-10","Keys":[],"TotalKeys":0,"Block":2,"Trial":123,"Valence":"Lose","Action":"Go","Robot":3,"trial_type":"pit-trial","trial_index":137,"time_elapsed":803015,"internal_node_id":"0.0-137.0"},{"Rune":"06","Correct":32,"Choice":32,"RT":473.1449999999022,"Accuracy":1,"Sham":1,"Outcome":"+0","Keys":[1195.845000000205,1987.6850000000559],"TotalKeys":2,"Block":2,"Trial":124,"Valence":"Win","Action":"Go","Robot":1,"trial_type":"pit-trial","trial_index":138,"time_elapsed":806010,"internal_node_id":"0.0-138.0"},{"Rune":"05","Correct":32,"Choice":-1,"RT":-1,"Accuracy":0,"Sham":1,"Outcome":"+0","Keys":[1193.529999998631],"TotalKeys":1,"Block":2,"Trial":125,"Valence":"Lose","Action":"Go","Robot":3,"trial_type":"pit-trial","trial_index":139,"time_elapsed":810017,"internal_node_id":"0.0-139.0"},{"Rune":"04","Correct":-1,"Choice":32,"RT":194.85999999963678,"Accuracy":0,"Sham":0,"Outcome":"-10","Keys":[1052.6350000000093,1695.839999998454],"TotalKeys":2,"Block":2,"Trial":126,"Valence":"Lose","Action":"No-Go","Robot":4,"trial_type":"pit-trial","trial_index":140,"time_elapsed":812720,"internal_node_id":"0.0-140.0"},{"Rune":"03","Correct":-1,"Choice":32,"RT":174.2950000007404,"Accuracy":0,"Sham":0,"Outcome":"+0","Keys":[1675.8549999995157,2083.310000000056,2425.7999999991152],"TotalKeys":3,"Block":2,"Trial":127,"Valence":"Win","Action":"No-Go","Robot":2,"trial_type":"pit-trial","trial_index":141,"time_elapsed":815400,"internal_node_id":"0.0-141.0"},{"Rune":"06","Correct":32,"Choice":32,"RT":374.8550000000978,"Accuracy":1,"Sham":0,"Outcome":"+10","Keys":[1916.585000000894],"TotalKeys":1,"Block":2,"Trial":128,"Valence":"Win","Action":"Go","Robot":1,"trial_type":"pit-trial","trial_index":142,"time_elapsed":818326,"internal_node_id":"0.0-142.0"},{"Rune":"04","Correct":-1,"Choice":-1,"RT":-1,"Accuracy":1,"Sham":0,"Outcome":"+0","Keys":[3853.2799999993294],"TotalKeys":1,"Block":2,"Trial":129,"Valence":"Lose","Action":"No-Go","Robot":4,"trial_type":"pit-trial","trial_index":143,"time_elapsed":822332,"internal_node_id":"0.0-143.0"},{"Rune":"06","Correct":32,"Choice":-1,"RT":-1,"Accuracy":0,"Sham":0,"Outcome":"+0","Keys":[3143.704999998561],"TotalKeys":1,"Block":2,"Trial":130,"Valence":"Win","Action":"Go","Robot":1,"trial_type":"pit-trial","trial_index":144,"time_elapsed":826338,"internal_node_id":"0.0-144.0"},{"Rune":"05","Correct":32,"Choice":-1,"RT":-1,"Accuracy":0,"Sham":0,"Outcome":"-10","Keys":[3105.2049999998417],"TotalKeys":1,"Block":2,"Trial":131,"Valence":"Lose","Action":"Go","Robot":3,"trial_type":"pit-trial","trial_index":145,"time_elapsed":830350,"internal_node_id":"0.0-145.0"},{"Rune":"03","Correct":-1,"Choice":32,"RT":22.63499999931082,"Accuracy":0,"Sham":0,"Outcome":"+0","Keys":[1522.875000000582,2022.2050000011222],"TotalKeys":2,"Block":2,"Trial":132,"Valence":"Win","Action":"No-Go","Robot":2,"trial_type":"pit-trial","trial_index":146,"time_elapsed":832877,"internal_node_id":"0.0-146.0"},{"Rune":"04","Correct":-1,"Choice":-1,"RT":-1,"Accuracy":1,"Sham":0,"Outcome":"+0","Keys":[942.1249999996508,1344.8649999991758,3797.5399999995716],"TotalKeys":3,"Block":2,"Trial":133,"Valence":"Lose","Action":"No-Go","Robot":4,"trial_type":"pit-trial","trial_index":147,"time_elapsed":836882,"internal_node_id":"0.0-147.0"},{"Rune":"06","Correct":32,"Choice":32,"RT":826.8749999988358,"Accuracy":1,"Sham":0,"Outcome":"+10","Keys":[1007.9999999998836,1429.8699999999953,2327.0599999997066],"TotalKeys":3,"Block":2,"Trial":134,"Valence":"Win","Action":"Go","Robot":1,"trial_type":"pit-trial","trial_index":148,"time_elapsed":840213,"internal_node_id":"0.0-148.0"},{"Rune":"05","Correct":32,"Choice":-1,"RT":-1,"Accuracy":0,"Sham":0,"Outcome":"-10","Keys":[],"TotalKeys":0,"Block":2,"Trial":135,"Valence":"Lose","Action":"Go","Robot":3,"trial_type":"pit-trial","trial_index":149,"time_elapsed":844222,"internal_node_id":"0.0-149.0"},{"Rune":"03","Correct":-1,"Choice":-1,"RT":-1,"Accuracy":1,"Sham":0,"Outcome":"+10","Keys":[772.724999998929],"TotalKeys":1,"Block":2,"Trial":136,"Valence":"Win","Action":"No-Go","Robot":2,"trial_type":"pit-trial","trial_index":150,"time_elapsed":848240,"internal_node_id":"0.0-150.0"},{"Rune":"04","Correct":-1,"Choice":32,"RT":50.20499999949243,"Accuracy":0,"Sham":1,"Outcome":"+0","Keys":[1067.3399999996182,1559.4899999996414],"TotalKeys":2,"Block":2,"Trial":137,"Valence":"Lose","Action":"No-Go","Robot":4,"trial_type":"pit-trial","trial_index":151,"time_elapsed":850826,"internal_node_id":"0.0-151.0"},{"Rune":"06","Correct":32,"Choice":32,"RT":636.0850000000792,"Accuracy":1,"Sham":0,"Outcome":"+10","Keys":[2151.0400000007357],"TotalKeys":1,"Block":2,"Trial":138,"Valence":"Win","Action":"Go","Robot":1,"trial_type":"pit-trial","trial_index":152,"time_elapsed":853988,"internal_node_id":"0.0-152.0"},{"Rune":"05","Correct":32,"Choice":-1,"RT":-1,"Accuracy":0,"Sham":0,"Outcome":"-10","Keys":[3839.0099999997765],"TotalKeys":1,"Block":2,"Trial":139,"Valence":"Lose","Action":"Go","Robot":3,"trial_type":"pit-trial","trial_index":153,"time_elapsed":858004,"internal_node_id":"0.0-153.0"},{"Rune":"03","Correct":-1,"Choice":-1,"RT":-1,"Accuracy":1,"Sham":1,"Outcome":"+0","Keys":[3462.5750000013504,3966.850000000675],"TotalKeys":2,"Block":2,"Trial":140,"Valence":"Win","Action":"No-Go","Robot":2,"trial_type":"pit-trial","trial_index":154,"time_elapsed":862011,"internal_node_id":"0.0-154.0"},{"Rune":"03","Correct":-1,"Choice":32,"RT":458.21000000077765,"Accuracy":0,"Sham":1,"Outcome":"+10","Keys":[1958.7999999985332],"TotalKeys":1,"Block":2,"Trial":141,"Valence":"Win","Action":"No-Go","Robot":2,"trial_type":"pit-trial","trial_index":155,"time_elapsed":864979,"internal_node_id":"0.0-155.0"},{"Rune":"05","Correct":32,"Choice":-1,"RT":-1,"Accuracy":0,"Sham":0,"Outcome":"-10","Keys":[],"TotalKeys":0,"Block":2,"Trial":142,"Valence":"Lose","Action":"Go","Robot":3,"trial_type":"pit-trial","trial_index":156,"time_elapsed":868988,"internal_node_id":"0.0-156.0"},{"Rune":"06","Correct":32,"Choice":-1,"RT":-1,"Accuracy":0,"Sham":0,"Outcome":"+0","Keys":[],"TotalKeys":0,"Block":2,"Trial":143,"Valence":"Win","Action":"Go","Robot":1,"trial_type":"pit-trial","trial_index":157,"time_elapsed":872998,"internal_node_id":"0.0-157.0"},{"Rune":"04","Correct":-1,"Choice":-1,"RT":-1,"Accuracy":1,"Sham":0,"Outcome":"+0","Keys":[1309.7299999989336],"TotalKeys":1,"Block":2,"Trial":144,"Valence":"Lose","Action":"No-Go","Robot":4,"trial_type":"pit-trial","trial_index":158,"time_elapsed":877006,"internal_node_id":"0.0-158.0"},{"Rune":"04","Correct":-1,"Choice":-1,"RT":-1,"Accuracy":1,"Sham":0,"Outcome":"+0","Keys":[1180.6349999988452],"TotalKeys":1,"Block":2,"Trial":145,"Valence":"Lose","Action":"No-Go","Robot":4,"trial_type":"pit-trial","trial_index":159,"time_elapsed":881014,"internal_node_id":"0.0-159.0"},{"Rune":"06","Correct":32,"Choice":32,"RT":523.5450000000419,"Accuracy":1,"Sham":0,"Outcome":"+10","Keys":[2024.04000000027],"TotalKeys":1,"Block":2,"Trial":146,"Valence":"Win","Action":"Go","Robot":1,"trial_type":"pit-trial","trial_index":160,"time_elapsed":884049,"internal_node_id":"0.0-160.0"},{"Rune":"05","Correct":32,"Choice":-1,"RT":-1,"Accuracy":0,"Sham":0,"Outcome":"-10","Keys":[],"TotalKeys":0,"Block":2,"Trial":147,"Valence":"Lose","Action":"Go","Robot":3,"trial_type":"pit-trial","trial_index":161,"time_elapsed":888057,"internal_node_id":"0.0-161.0"},{"Rune":"03","Correct":-1,"Choice":32,"RT":918.384999999078,"Accuracy":0,"Sham":0,"Outcome":"+0","Keys":[2419.4349999997066,2943.1949999998324],"TotalKeys":2,"Block":2,"Trial":148,"Valence":"Win","Action":"No-Go","Robot":2,"trial_type":"pit-trial","trial_index":162,"time_elapsed":891482,"internal_node_id":"0.0-162.0"},{"Rune":"03","Correct":-1,"Choice":32,"RT":434.5300000004936,"Accuracy":0,"Sham":0,"Outcome":"+0","Keys":[1330.9200000003912,1935.534999998752],"TotalKeys":2,"Block":2,"Trial":149,"Valence":"Win","Action":"No-Go","Robot":2,"trial_type":"pit-trial","trial_index":163,"time_elapsed":894426,"internal_node_id":"0.0-163.0"},{"Rune":"04","Correct":-1,"Choice":32,"RT":306.65000000048894,"Accuracy":0,"Sham":0,"Outcome":"-10","Keys":[1806.9599999999627],"TotalKeys":1,"Block":2,"Trial":150,"Valence":"Lose","Action":"No-Go","Robot":4,"trial_type":"pit-trial","trial_index":164,"time_elapsed":897246,"internal_node_id":"0.0-164.0"},{"Rune":"05","Correct":32,"Choice":-1,"RT":-1,"Accuracy":0,"Sham":0,"Outcome":"-10","Keys":[],"TotalKeys":0,"Block":2,"Trial":151,"Valence":"Lose","Action":"Go","Robot":3,"trial_type":"pit-trial","trial_index":165,"time_elapsed":901261,"internal_node_id":"0.0-165.0"},{"Rune":"06","Correct":32,"Choice":32,"RT":621.7150000011316,"Accuracy":1,"Sham":0,"Outcome":"+10","Keys":[2132.3950000004843],"TotalKeys":1,"Block":2,"Trial":152,"Valence":"Win","Action":"Go","Robot":1,"trial_type":"pit-trial","trial_index":166,"time_elapsed":904404,"internal_node_id":"0.0-166.0"},{"Rune":"06","Correct":32,"Choice":-1,"RT":-1,"Accuracy":0,"Sham":0,"Outcome":"+0","Keys":[],"TotalKeys":0,"Block":2,"Trial":153,"Valence":"Win","Action":"Go","Robot":1,"trial_type":"pit-trial","trial_index":167,"time_elapsed":908411,"internal_node_id":"0.0-167.0"},{"Rune":"04","Correct":-1,"Choice":-1,"RT":-1,"Accuracy":1,"Sham":0,"Outcome":"+0","Keys":[],"TotalKeys":0,"Block":2,"Trial":154,"Valence":"Lose","Action":"No-Go","Robot":4,"trial_type":"pit-trial","trial_index":168,"time_elapsed":912422,"internal_node_id":"0.0-168.0"},{"Rune":"05","Correct":32,"Choice":-1,"RT":-1,"Accuracy":0,"Sham":0,"Outcome":"-10","Keys":[],"TotalKeys":0,"Block":2,"Trial":155,"Valence":"Lose","Action":"Go","Robot":3,"trial_type":"pit-trial","trial_index":169,"time_elapsed":916435,"internal_node_id":"0.0-169.0"},{"Rune":"03","Correct":-1,"Choice":32,"RT":266.1349999997765,"Accuracy":0,"Sham":0,"Outcome":"+0","Keys":[1767.014999999432],"TotalKeys":1,"Block":2,"Trial":156,"Valence":"Win","Action":"No-Go","Robot":2,"trial_type":"pit-trial","trial_index":170,"time_elapsed":919206,"internal_node_id":"0.0-170.0"},{"Rune":"05","Correct":32,"Choice":-1,"RT":-1,"Accuracy":0,"Sham":1,"Outcome":"+0","Keys":[],"TotalKeys":0,"Block":2,"Trial":157,"Valence":"Lose","Action":"Go","Robot":3,"trial_type":"pit-trial","trial_index":171,"time_elapsed":923270,"internal_node_id":"0.0-171.0"},{"Rune":"04","Correct":-1,"Choice":32,"RT":1238.9299999995856,"Accuracy":0,"Sham":1,"Outcome":"+0","Keys":[2739.7750000000233],"TotalKeys":1,"Block":2,"Trial":158,"Valence":"Lose","Action":"No-Go","Robot":4,"trial_type":"pit-trial","trial_index":172,"time_elapsed":927055,"internal_node_id":"0.0-172.0"},{"Rune":"03","Correct":-1,"Choice":32,"RT":728.914999999688,"Accuracy":0,"Sham":0,"Outcome":"+0","Keys":[2234.6149999994086,2988.9849999998696],"TotalKeys":2,"Block":2,"Trial":159,"Valence":"Win","Action":"No-Go","Robot":2,"trial_type":"pit-trial","trial_index":173,"time_elapsed":930296,"internal_node_id":"0.0-173.0"},{"Rune":"06","Correct":32,"Choice":32,"RT":302.1550000011921,"Accuracy":1,"Sham":1,"Outcome":"+0","Keys":[1802.3599999997532,2010.4899999988265,2484.824999999604,2789.3399999993853],"TotalKeys":4,"Block":2,"Trial":160,"Valence":"Win","Action":"Go","Robot":1,"trial_type":"pit-trial","trial_index":174,"time_elapsed":933105,"internal_node_id":"0.0-174.0"},{"rt":49478.559999999474,"demographics":{"age":"27","gender-categorical":"Male","ethnicity":"Not Hispanic or Latino","race":"White","english":"Yes","fluency":"Very well"},"trial_type":"survey-demo","trial_index":175,"time_elapsed":982597,"internal_node_id":"0.0-175.0"},{"rt":27630.134999999427,"debriefgraphics":{"difficulty":"4","fun":"5","clarity":"5","strategy":"been attentive ","feedback":"nice work. "},"trial_type":"survey-debrief","trial_index":176,"time_elapsed":1010232,"internal_node_id":"0.0-176.0","interactions":"[{\"event\":\"blur\",\"trial\":0,\"time\":0},{\"event\":\"focus\",\"trial\":0,\"time\":1792},{\"event\":\"blur\",\"trial\":74,\"time\":556569},{\"event\":\"focus\",\"trial\":94,\"time\":636878},{\"event\":\"blur\",\"trial\":94,\"time\":641926},{\"event\":\"focus\",\"trial\":94,\"time\":650318}]"}]