[{"view_history":"[{\"page_index\":0,\"viewing_time\":3442.3599999863654},{\"page_index\":1,\"viewing_time\":3166.905000107363},{\"page_index\":2,\"viewing_time\":8168.914999929257},{\"page_index\":3,\"viewing_time\":9433.034999994561},{\"page_index\":4,\"viewing_time\":10922.260000021197}]","rt":35134.97000001371,"trial_type":"pit-instructions","trial_index":0,"time_elapsed":35136,"internal_node_id":"0.0-0.0"},{"Correct":32,"Choice":-1,"RT":-1,"Accuracy":0,"Sham":0,"Outcome":0,"trial_type":"pit-trial","trial_index":1,"time_elapsed":39144,"internal_node_id":"0.0-1.0"},{"Correct":32,"Choice":-1,"RT":-1,"Accuracy":0,"Sham":0,"Outcome":0,"trial_type":"pit-trial","trial_index":2,"time_elapsed":43150,"internal_node_id":"0.0-2.0"},{"Correct":32,"Choice":-1,"RT":-1,"Accuracy":0,"Sham":0,"Outcome":0,"trial_type":"pit-trial","trial_index":3,"time_elapsed":47154,"internal_node_id":"0.0-3.0"},{"Correct":32,"Choice":32,"RT":1329.799999948591,"Accuracy":1,"Sham":0,"Outcome":1,"trial_type":"pit-trial","trial_index":4,"time_elapsed":50989,"internal_node_id":"0.0-4.0"},{"view_history":"[{\"page_index\":0,\"viewing_time\":4657.744999974966}]","rt":4658.16500002984,"trial_type":"pit-instructions","trial_index":5,"time_elapsed":55650,"internal_node_id":"0.0-5.0"},{"Correct":-1,"Choice":-1,"RT":-1,"Accuracy":1,"Sham":0,"Outcome":1,"trial_type":"pit-trial","trial_index":6,"time_elapsed":59655,"internal_node_id":"0.0-6.0"},{"Correct":-1,"Choice":-1,"RT":-1,"Accuracy":1,"Sham":0,"Outcome":1,"trial_type":"pit-trial","trial_index":7,"time_elapsed":63659,"internal_node_id":"0.0-7.0"},{"Correct":-1,"Choice":-1,"RT":-1,"Accuracy":1,"Sham":0,"Outcome":1,"trial_type":"pit-trial","trial_index":8,"time_elapsed":67666,"internal_node_id":"0.0-8.0"},{"Correct":-1,"Choice":-1,"RT":-1,"Accuracy":1,"Sham":0,"Outcome":1,"trial_type":"pit-trial","trial_index":9,"time_elapsed":71671,"internal_node_id":"0.0-9.0"},{"view_history":"[{\"page_index\":0,\"viewing_time\":4721.6199999675155},{\"page_index\":1,\"viewing_time\":5353.419999941252},{\"page_index\":2,\"viewing_time\":6233.370000030845},{\"page_index\":3,\"viewing_time\":7320.984999998473},{\"page_index\":4,\"viewing_time\":9112.870000069961},{\"page_index\":5,\"viewing_time\":5600.224999943748},{\"page_index\":6,\"viewing_time\":2952.9800000600517},{\"page_index\":7,\"viewing_time\":2471.72499995213}]","rt":43767.51499995589,"trial_type":"pit-instructions","trial_index":10,"time_elapsed":115439,"internal_node_id":"0.0-10.0"},{"rt":23233.88499999419,"responses":"{\"no-press\":\"Do nothing\",\"probability\":\"0\",\"bonus\":\"True\"}","errors":0,"trial_type":"pit-comprehension","trial_index":11,"time_elapsed":138677,"internal_node_id":"0.0-11.0"},{"view_history":"[{\"page_index\":0,\"viewing_time\":3609.9949999479577}]","rt":3610.3649999713525,"trial_type":"pit-instructions","trial_index":12,"time_elapsed":142291,"internal_node_id":"0.0-12.0"},{"Correct":-1,"Choice":32,"RT":143.13500002026558,"Accuracy":0,"Sham":0,"Outcome":0,"Block":1,"Trial":1,"Valence":"Win","Action":"No-Go","trial_type":"pit-trial","trial_index":13,"time_elapsed":144939,"internal_node_id":"0.0-13.0"},{"Correct":32,"Choice":32,"RT":90.80000000540167,"Accuracy":1,"Sham":0,"Outcome":0,"Block":1,"Trial":2,"Valence":"Lose","Action":"Go","trial_type":"pit-trial","trial_index":14,"time_elapsed":147539,"internal_node_id":"0.0-14.0"},{"Correct":-1,"Choice":32,"RT":7.250000024214387,"Accuracy":0,"Sham":0,"Outcome":-1,"Block":1,"Trial":3,"Valence":"Lose","Action":"No-Go","trial_type":"pit-trial","trial_index":15,"time_elapsed":150053,"internal_node_id":"0.0-15.0"},{"Correct":32,"Choice":32,"RT":564.4949999405071,"Accuracy":1,"Sham":0,"Outcome":1,"Block":1,"Trial":4,"Valence":"Win","Action":"Go","trial_type":"pit-trial","trial_index":16,"time_elapsed":153129,"internal_node_id":"0.0-16.0"},{"Correct":32,"Choice":32,"RT":444.6349999634549,"Accuracy":1,"Sham":1,"Outcome":-1,"Block":1,"Trial":5,"Valence":"Lose","Action":"Go","trial_type":"pit-trial","trial_index":17,"time_elapsed":156080,"internal_node_id":"0.0-17.0"},{"Correct":-1,"Choice":32,"RT":1330.8800000231713,"Accuracy":0,"Sham":0,"Outcome":-1,"Block":1,"Trial":6,"Valence":"Lose","Action":"No-Go","trial_type":"pit-trial","trial_index":18,"time_elapsed":159917,"internal_node_id":"0.0-18.0"},{"Correct":32,"Choice":32,"RT":340.4900000896305,"Accuracy":1,"Sham":0,"Outcome":1,"Block":1,"Trial":7,"Valence":"Win","Action":"Go","trial_type":"pit-trial","trial_index":19,"time_elapsed":162762,"internal_node_id":"0.0-19.0"},{"Correct":-1,"Choice":32,"RT":603.9049999089912,"Accuracy":0,"Sham":0,"Outcome":0,"Block":1,"Trial":8,"Valence":"Win","Action":"No-Go","trial_type":"pit-trial","trial_index":20,"time_elapsed":165871,"internal_node_id":"0.0-20.0"},{"Correct":32,"Choice":32,"RT":124.52000007033348,"Accuracy":1,"Sham":0,"Outcome":1,"Block":1,"Trial":9,"Valence":"Win","Action":"Go","trial_type":"pit-trial","trial_index":21,"time_elapsed":168499,"internal_node_id":"0.0-21.0"},{"Correct":32,"Choice":-1,"RT":-1,"Accuracy":0,"Sham":0,"Outcome":-1,"Block":1,"Trial":10,"Valence":"Lose","Action":"Go","trial_type":"pit-trial","trial_index":22,"time_elapsed":172505,"internal_node_id":"0.0-22.0"},{"Correct":-1,"Choice":32,"RT":578.9449999574572,"Accuracy":0,"Sham":0,"Outcome":0,"Block":1,"Trial":11,"Valence":"Win","Action":"No-Go","trial_type":"pit-trial","trial_index":23,"time_elapsed":175591,"internal_node_id":"0.0-23.0"},{"Correct":-1,"Choice":32,"RT":490.25500006973743,"Accuracy":0,"Sham":0,"Outcome":-1,"Block":1,"Trial":12,"Valence":"Lose","Action":"No-Go","trial_type":"pit-trial","trial_index":24,"time_elapsed":178586,"internal_node_id":"0.0-24.0"},{"Correct":32,"Choice":32,"RT":510.0800000363961,"Accuracy":1,"Sham":0,"Outcome":1,"Block":1,"Trial":13,"Valence":"Win","Action":"Go","trial_type":"pit-trial","trial_index":25,"time_elapsed":181600,"internal_node_id":"0.0-25.0"},{"Correct":-1,"Choice":32,"RT":547.2650000592694,"Accuracy":0,"Sham":0,"Outcome":0,"Block":1,"Trial":14,"Valence":"Win","Action":"No-Go","trial_type":"pit-trial","trial_index":26,"time_elapsed":184651,"internal_node_id":"0.0-26.0"},{"Correct":32,"Choice":32,"RT":579.6850000042468,"Accuracy":1,"Sham":0,"Outcome":0,"Block":1,"Trial":15,"Valence":"Lose","Action":"Go","trial_type":"pit-trial","trial_index":27,"time_elapsed":187736,"internal_node_id":"0.0-27.0"},{"Correct":-1,"Choice":-1,"RT":-1,"Accuracy":1,"Sham":1,"Outcome":-1,"Block":1,"Trial":16,"Valence":"Lose","Action":"No-Go","trial_type":"pit-trial","trial_index":28,"time_elapsed":191739,"internal_node_id":"0.0-28.0"},{"Correct":32,"Choice":32,"RT":505.8450000360608,"Accuracy":1,"Sham":1,"Outcome":0,"Block":1,"Trial":17,"Valence":"Win","Action":"Go","trial_type":"pit-trial","trial_index":29,"time_elapsed":194750,"internal_node_id":"0.0-29.0"},{"Correct":32,"Choice":32,"RT":427.3449999745935,"Accuracy":1,"Sham":0,"Outcome":0,"Block":1,"Trial":18,"Valence":"Lose","Action":"Go","trial_type":"pit-trial","trial_index":30,"time_elapsed":197683,"internal_node_id":"0.0-30.0"},{"Correct":-1,"Choice":32,"RT":370.5899999476969,"Accuracy":0,"Sham":1,"Outcome":1,"Block":1,"Trial":19,"Valence":"Win","Action":"No-Go","trial_type":"pit-trial","trial_index":31,"time_elapsed":200558,"internal_node_id":"0.0-31.0"},{"Correct":-1,"Choice":32,"RT":666.1900000181049,"Accuracy":0,"Sham":0,"Outcome":-1,"Block":1,"Trial":20,"Valence":"Lose","Action":"No-Go","trial_type":"pit-trial","trial_index":32,"time_elapsed":203728,"internal_node_id":"0.0-32.0"},{"Correct":-1,"Choice":-1,"RT":-1,"Accuracy":1,"Sham":0,"Outcome":0,"Block":1,"Trial":21,"Valence":"Lose","Action":"No-Go","trial_type":"pit-trial","trial_index":33,"time_elapsed":207731,"internal_node_id":"0.0-33.0"},{"Correct":-1,"Choice":32,"RT":353.3799999859184,"Accuracy":0,"Sham":0,"Outcome":0,"Block":1,"Trial":22,"Valence":"Win","Action":"No-Go","trial_type":"pit-trial","trial_index":34,"time_elapsed":210590,"internal_node_id":"0.0-34.0"},{"Correct":32,"Choice":32,"RT":392.835000064224,"Accuracy":1,"Sham":0,"Outcome":1,"Block":1,"Trial":23,"Valence":"Win","Action":"Go","trial_type":"pit-trial","trial_index":35,"time_elapsed":213489,"internal_node_id":"0.0-35.0"},{"Correct":32,"Choice":32,"RT":681.7100000334904,"Accuracy":1,"Sham":0,"Outcome":0,"Block":1,"Trial":24,"Valence":"Lose","Action":"Go","trial_type":"pit-trial","trial_index":36,"time_elapsed":216677,"internal_node_id":"0.0-36.0"},{"Correct":-1,"Choice":32,"RT":376.12500006798655,"Accuracy":0,"Sham":0,"Outcome":-1,"Block":1,"Trial":25,"Valence":"Lose","Action":"No-Go","trial_type":"pit-trial","trial_index":37,"time_elapsed":219559,"internal_node_id":"0.0-37.0"},{"Correct":32,"Choice":32,"RT":392.214999999851,"Accuracy":1,"Sham":0,"Outcome":1,"Block":1,"Trial":26,"Valence":"Win","Action":"Go","trial_type":"pit-trial","trial_index":38,"time_elapsed":222458,"internal_node_id":"0.0-38.0"},{"Correct":32,"Choice":32,"RT":519.5250000106171,"Accuracy":1,"Sham":0,"Outcome":0,"Block":1,"Trial":27,"Valence":"Lose","Action":"Go","trial_type":"pit-trial","trial_index":39,"time_elapsed":225482,"internal_node_id":"0.0-39.0"},{"Correct":-1,"Choice":32,"RT":423.88999997638166,"Accuracy":0,"Sham":0,"Outcome":0,"Block":1,"Trial":28,"Valence":"Win","Action":"No-Go","trial_type":"pit-trial","trial_index":40,"time_elapsed":228409,"internal_node_id":"0.0-40.0"},{"Correct":32,"Choice":32,"RT":473.1649999739602,"Accuracy":1,"Sham":0,"Outcome":0,"Block":1,"Trial":29,"Valence":"Lose","Action":"Go","trial_type":"pit-trial","trial_index":41,"time_elapsed":231387,"internal_node_id":"0.0-41.0"},{"Correct":-1,"Choice":32,"RT":467.48999995179474,"Accuracy":0,"Sham":1,"Outcome":1,"Block":1,"Trial":30,"Valence":"Win","Action":"No-Go","trial_type":"pit-trial","trial_index":42,"time_elapsed":234359,"internal_node_id":"0.0-42.0"},{"Correct":32,"Choice":32,"RT":509.0949999867007,"Accuracy":1,"Sham":1,"Outcome":0,"Block":1,"Trial":31,"Valence":"Win","Action":"Go","trial_type":"pit-trial","trial_index":43,"time_elapsed":237371,"internal_node_id":"0.0-43.0"},{"Correct":-1,"Choice":-1,"RT":-1,"Accuracy":1,"Sham":0,"Outcome":0,"Block":1,"Trial":32,"Valence":"Lose","Action":"No-Go","trial_type":"pit-trial","trial_index":44,"time_elapsed":241375,"internal_node_id":"0.0-44.0"},{"Correct":-1,"Choice":-1,"RT":-1,"Accuracy":1,"Sham":0,"Outcome":0,"Block":1,"Trial":33,"Valence":"Lose","Action":"No-Go","trial_type":"pit-trial","trial_index":45,"time_elapsed":245381,"internal_node_id":"0.0-45.0"},{"Correct":-1,"Choice":32,"RT":462.11500000208616,"Accuracy":0,"Sham":0,"Outcome":0,"Block":1,"Trial":34,"Valence":"Win","Action":"No-Go","trial_type":"pit-trial","trial_index":46,"time_elapsed":248347,"internal_node_id":"0.0-46.0"},{"Correct":32,"Choice":32,"RT":369.0649999771267,"Accuracy":1,"Sham":0,"Outcome":1,"Block":1,"Trial":35,"Valence":"Win","Action":"Go","trial_type":"pit-trial","trial_index":47,"time_elapsed":251220,"internal_node_id":"0.0-47.0"},{"Correct":32,"Choice":32,"RT":1298.160000005737,"Accuracy":1,"Sham":1,"Outcome":-1,"Block":1,"Trial":36,"Valence":"Lose","Action":"Go","trial_type":"pit-trial","trial_index":48,"time_elapsed":255024,"internal_node_id":"0.0-48.0"},{"Correct":-1,"Choice":-1,"RT":-1,"Accuracy":1,"Sham":1,"Outcome":-1,"Block":1,"Trial":37,"Valence":"Lose","Action":"No-Go","trial_type":"pit-trial","trial_index":49,"time_elapsed":259032,"internal_node_id":"0.0-49.0"},{"Correct":32,"Choice":32,"RT":521.5699999826029,"Accuracy":1,"Sham":0,"Outcome":0,"Block":1,"Trial":38,"Valence":"Lose","Action":"Go","trial_type":"pit-trial","trial_index":50,"time_elapsed":262060,"internal_node_id":"0.0-50.0"},{"Correct":32,"Choice":32,"RT":419.0599999856204,"Accuracy":1,"Sham":0,"Outcome":1,"Block":1,"Trial":39,"Valence":"Win","Action":"Go","trial_type":"pit-trial","trial_index":51,"time_elapsed":264985,"internal_node_id":"0.0-51.0"},{"Correct":-1,"Choice":32,"RT":452.3050000425428,"Accuracy":0,"Sham":0,"Outcome":0,"Block":1,"Trial":40,"Valence":"Win","Action":"No-Go","trial_type":"pit-trial","trial_index":52,"time_elapsed":267942,"internal_node_id":"0.0-52.0"},{"Correct":32,"Choice":32,"RT":556.5000000642613,"Accuracy":1,"Sham":1,"Outcome":-1,"Block":1,"Trial":41,"Valence":"Lose","Action":"Go","trial_type":"pit-trial","trial_index":53,"time_elapsed":271002,"internal_node_id":"0.0-53.0"},{"Correct":-1,"Choice":32,"RT":348.5050000017509,"Accuracy":0,"Sham":0,"Outcome":0,"Block":1,"Trial":42,"Valence":"Win","Action":"No-Go","trial_type":"pit-trial","trial_index":54,"time_elapsed":273858,"internal_node_id":"0.0-54.0"},{"Correct":-1,"Choice":32,"RT":276.71500004362315,"Accuracy":0,"Sham":0,"Outcome":-1,"Block":1,"Trial":43,"Valence":"Lose","Action":"No-Go","trial_type":"pit-trial","trial_index":55,"time_elapsed":276642,"internal_node_id":"0.0-55.0"},{"Correct":32,"Choice":32,"RT":456.2900000018999,"Accuracy":1,"Sham":0,"Outcome":1,"Block":1,"Trial":44,"Valence":"Win","Action":"Go","trial_type":"pit-trial","trial_index":56,"time_elapsed":279607,"internal_node_id":"0.0-56.0"},{"Correct":-1,"Choice":-1,"RT":-1,"Accuracy":1,"Sham":0,"Outcome":0,"Block":1,"Trial":45,"Valence":"Lose","Action":"No-Go","trial_type":"pit-trial","trial_index":57,"time_elapsed":283614,"internal_node_id":"0.0-57.0"},{"Correct":-1,"Choice":32,"RT":455.67499997559935,"Accuracy":0,"Sham":1,"Outcome":1,"Block":1,"Trial":46,"Valence":"Win","Action":"No-Go","trial_type":"pit-trial","trial_index":58,"time_elapsed":286573,"internal_node_id":"0.0-58.0"},{"Correct":32,"Choice":32,"RT":518.1100000627339,"Accuracy":1,"Sham":0,"Outcome":0,"Block":1,"Trial":47,"Valence":"Lose","Action":"Go","trial_type":"pit-trial","trial_index":59,"time_elapsed":289598,"internal_node_id":"0.0-59.0"},{"Correct":32,"Choice":32,"RT":696.8849999830127,"Accuracy":1,"Sham":0,"Outcome":1,"Block":1,"Trial":48,"Valence":"Win","Action":"Go","trial_type":"pit-trial","trial_index":60,"time_elapsed":292802,"internal_node_id":"0.0-60.0"},{"Correct":-1,"Choice":-1,"RT":-1,"Accuracy":1,"Sham":0,"Outcome":0,"Block":1,"Trial":49,"Valence":"Lose","Action":"No-Go","trial_type":"pit-trial","trial_index":61,"time_elapsed":296809,"internal_node_id":"0.0-61.0"},{"Correct":32,"Choice":32,"RT":312.2000000439584,"Accuracy":1,"Sham":0,"Outcome":1,"Block":1,"Trial":50,"Valence":"Win","Action":"Go","trial_type":"pit-trial","trial_index":62,"time_elapsed":299629,"internal_node_id":"0.0-62.0"},{"Correct":-1,"Choice":32,"RT":350.97999998833984,"Accuracy":0,"Sham":0,"Outcome":0,"Block":1,"Trial":51,"Valence":"Win","Action":"No-Go","trial_type":"pit-trial","trial_index":63,"time_elapsed":302488,"internal_node_id":"0.0-63.0"},{"Correct":32,"Choice":32,"RT":575.1950000412762,"Accuracy":1,"Sham":0,"Outcome":0,"Block":1,"Trial":52,"Valence":"Lose","Action":"Go","trial_type":"pit-trial","trial_index":64,"time_elapsed":305570,"internal_node_id":"0.0-64.0"},{"Correct":-1,"Choice":32,"RT":421.51999997440726,"Accuracy":0,"Sham":0,"Outcome":0,"Block":1,"Trial":53,"Valence":"Win","Action":"No-Go","trial_type":"pit-trial","trial_index":65,"time_elapsed":308496,"internal_node_id":"0.0-65.0"},{"Correct":32,"Choice":32,"RT":636.850000009872,"Accuracy":1,"Sham":0,"Outcome":0,"Block":1,"Trial":54,"Valence":"Lose","Action":"Go","trial_type":"pit-trial","trial_index":66,"time_elapsed":311638,"internal_node_id":"0.0-66.0"},{"Correct":-1,"Choice":-1,"RT":-1,"Accuracy":1,"Sham":0,"Outcome":0,"Block":1,"Trial":55,"Valence":"Lose","Action":"No-Go","trial_type":"pit-trial","trial_index":67,"time_elapsed":315645,"internal_node_id":"0.0-67.0"},{"Correct":32,"Choice":32,"RT":348.08499994687736,"Accuracy":1,"Sham":0,"Outcome":1,"Block":1,"Trial":56,"Valence":"Win","Action":"Go","trial_type":"pit-trial","trial_index":68,"time_elapsed":318500,"internal_node_id":"0.0-68.0"},{"Correct":32,"Choice":32,"RT":391.025000018999,"Accuracy":1,"Sham":1,"Outcome":0,"Block":1,"Trial":57,"Valence":"Win","Action":"Go","trial_type":"pit-trial","trial_index":69,"time_elapsed":321396,"internal_node_id":"0.0-69.0"},{"Correct":32,"Choice":32,"RT":674.8350000707433,"Accuracy":1,"Sham":0,"Outcome":0,"Block":1,"Trial":58,"Valence":"Lose","Action":"Go","trial_type":"pit-trial","trial_index":70,"time_elapsed":324575,"internal_node_id":"0.0-70.0"},{"Correct":-1,"Choice":-1,"RT":-1,"Accuracy":1,"Sham":1,"Outcome":-1,"Block":1,"Trial":59,"Valence":"Lose","Action":"No-Go","trial_type":"pit-trial","trial_index":71,"time_elapsed":328582,"internal_node_id":"0.0-71.0"},{"Correct":-1,"Choice":32,"RT":457.68499991390854,"Accuracy":0,"Sham":0,"Outcome":0,"Block":1,"Trial":60,"Valence":"Win","Action":"No-Go","trial_type":"pit-trial","trial_index":72,"time_elapsed":331547,"internal_node_id":"0.0-72.0"},{"Correct":-1,"Choice":32,"RT":433.24000004213303,"Accuracy":0,"Sham":0,"Outcome":0,"Block":1,"Trial":61,"Valence":"Win","Action":"No-Go","trial_type":"pit-trial","trial_index":73,"time_elapsed":334486,"internal_node_id":"0.0-73.0"},{"Correct":32,"Choice":32,"RT":364.68999995850027,"Accuracy":1,"Sham":0,"Outcome":0,"Block":1,"Trial":62,"Valence":"Lose","Action":"Go","trial_type":"pit-trial","trial_index":74,"time_elapsed":337357,"internal_node_id":"0.0-74.0"},{"Correct":-1,"Choice":32,"RT":392.43999996688217,"Accuracy":0,"Sham":0,"Outcome":-1,"Block":1,"Trial":63,"Valence":"Lose","Action":"No-Go","trial_type":"pit-trial","trial_index":75,"time_elapsed":340255,"internal_node_id":"0.0-75.0"},{"Correct":32,"Choice":32,"RT":382.3850000044331,"Accuracy":1,"Sham":0,"Outcome":1,"Block":1,"Trial":64,"Valence":"Win","Action":"Go","trial_type":"pit-trial","trial_index":76,"time_elapsed":343142,"internal_node_id":"0.0-76.0"},{"Correct":-1,"Choice":32,"RT":434.90999995265156,"Accuracy":0,"Sham":0,"Outcome":0,"Block":1,"Trial":65,"Valence":"Win","Action":"No-Go","trial_type":"pit-trial","trial_index":77,"time_elapsed":346083,"internal_node_id":"0.0-77.0"},{"Correct":-1,"Choice":32,"RT":379.6400000574067,"Accuracy":0,"Sham":0,"Outcome":-1,"Block":1,"Trial":66,"Valence":"Lose","Action":"No-Go","trial_type":"pit-trial","trial_index":78,"time_elapsed":348969,"internal_node_id":"0.0-78.0"},{"Correct":32,"Choice":32,"RT":385.80499996896833,"Accuracy":1,"Sham":1,"Outcome":0,"Block":1,"Trial":67,"Valence":"Win","Action":"Go","trial_type":"pit-trial","trial_index":79,"time_elapsed":351862,"internal_node_id":"0.0-79.0"},{"Correct":32,"Choice":32,"RT":533.5000000195578,"Accuracy":1,"Sham":0,"Outcome":0,"Block":1,"Trial":68,"Valence":"Lose","Action":"Go","trial_type":"pit-trial","trial_index":80,"time_elapsed":354902,"internal_node_id":"0.0-80.0"},{"Correct":-1,"Choice":-1,"RT":-1,"Accuracy":1,"Sham":1,"Outcome":-1,"Block":1,"Trial":69,"Valence":"Lose","Action":"No-Go","trial_type":"pit-trial","trial_index":81,"time_elapsed":358908,"internal_node_id":"0.0-81.0"},{"Correct":32,"Choice":32,"RT":465.5100000090897,"Accuracy":1,"Sham":0,"Outcome":0,"Block":1,"Trial":70,"Valence":"Lose","Action":"Go","trial_type":"pit-trial","trial_index":82,"time_elapsed":361876,"internal_node_id":"0.0-82.0"},{"Correct":32,"Choice":32,"RT":421.09999991953373,"Accuracy":1,"Sham":0,"Outcome":1,"Block":1,"Trial":71,"Valence":"Win","Action":"Go","trial_type":"pit-trial","trial_index":83,"time_elapsed":364801,"internal_node_id":"0.0-83.0"},{"Correct":-1,"Choice":32,"RT":432.0900000166148,"Accuracy":0,"Sham":0,"Outcome":0,"Block":1,"Trial":72,"Valence":"Win","Action":"No-Go","trial_type":"pit-trial","trial_index":84,"time_elapsed":367738,"internal_node_id":"0.0-84.0"},{"Correct":-1,"Choice":32,"RT":427.034999942407,"Accuracy":0,"Sham":0,"Outcome":0,"Block":1,"Trial":73,"Valence":"Win","Action":"No-Go","trial_type":"pit-trial","trial_index":85,"time_elapsed":370671,"internal_node_id":"0.0-85.0"},{"Correct":32,"Choice":32,"RT":589.7649999242276,"Accuracy":1,"Sham":1,"Outcome":-1,"Block":1,"Trial":74,"Valence":"Lose","Action":"Go","trial_type":"pit-trial","trial_index":86,"time_elapsed":373768,"internal_node_id":"0.0-86.0"},{"Correct":32,"Choice":32,"RT":726.2799999443814,"Accuracy":1,"Sham":0,"Outcome":1,"Block":1,"Trial":75,"Valence":"Win","Action":"Go","trial_type":"pit-trial","trial_index":87,"time_elapsed":376999,"internal_node_id":"0.0-87.0"},{"Correct":-1,"Choice":32,"RT":930.5600000079721,"Accuracy":0,"Sham":0,"Outcome":-1,"Block":1,"Trial":76,"Valence":"Lose","Action":"No-Go","trial_type":"pit-trial","trial_index":88,"time_elapsed":380436,"internal_node_id":"0.0-88.0"},{"Correct":-1,"Choice":32,"RT":494.91499993018806,"Accuracy":0,"Sham":1,"Outcome":1,"Block":1,"Trial":77,"Valence":"Win","Action":"No-Go","trial_type":"pit-trial","trial_index":89,"time_elapsed":383436,"internal_node_id":"0.0-89.0"},{"Correct":32,"Choice":32,"RT":646.2049999972805,"Accuracy":1,"Sham":0,"Outcome":1,"Block":1,"Trial":78,"Valence":"Win","Action":"Go","trial_type":"pit-trial","trial_index":90,"time_elapsed":386588,"internal_node_id":"0.0-90.0"},{"Correct":-1,"Choice":32,"RT":800.080000073649,"Accuracy":0,"Sham":0,"Outcome":-1,"Block":1,"Trial":79,"Valence":"Lose","Action":"No-Go","trial_type":"pit-trial","trial_index":91,"time_elapsed":389892,"internal_node_id":"0.0-91.0"},{"Correct":32,"Choice":32,"RT":429.2200000490993,"Accuracy":1,"Sham":0,"Outcome":0,"Block":1,"Trial":80,"Valence":"Lose","Action":"Go","trial_type":"pit-trial","trial_index":92,"time_elapsed":392827,"internal_node_id":"0.0-92.0"},{"value":false,"trial_type":"call-function","trial_index":93,"time_elapsed":392831,"internal_node_id":"0.0-93.0"},{"RT":3102.7999999932945,"trial_type":"pit-pause","trial_index":94,"time_elapsed":398197,"internal_node_id":"0.0-94.0"},{"Correct":32,"Choice":32,"RT":606.2150000361726,"Accuracy":1,"Sham":0,"Outcome":1,"Block":2,"Trial":81,"Valence":"Win","Action":"Go","trial_type":"pit-trial","trial_index":95,"time_elapsed":401307,"internal_node_id":"0.0-95.0"},{"Correct":-1,"Choice":32,"RT":620.8650000626221,"Accuracy":0,"Sham":0,"Outcome":0,"Block":2,"Trial":82,"Valence":"Win","Action":"No-Go","trial_type":"pit-trial","trial_index":96,"time_elapsed":404433,"internal_node_id":"0.0-96.0"},{"Correct":-1,"Choice":32,"RT":536.6649999050424,"Accuracy":0,"Sham":0,"Outcome":-1,"Block":2,"Trial":83,"Valence":"Lose","Action":"No-Go","trial_type":"pit-trial","trial_index":97,"time_elapsed":407476,"internal_node_id":"0.0-97.0"},{"Correct":32,"Choice":-1,"RT":-1,"Accuracy":0,"Sham":0,"Outcome":-1,"Block":2,"Trial":84,"Valence":"Lose","Action":"Go","trial_type":"pit-trial","trial_index":98,"time_elapsed":411481,"internal_node_id":"0.0-98.0"},{"Correct":32,"Choice":32,"RT":655.4250000044703,"Accuracy":1,"Sham":0,"Outcome":1,"Block":2,"Trial":85,"Valence":"Win","Action":"Go","trial_type":"pit-trial","trial_index":99,"time_elapsed":414641,"internal_node_id":"0.0-99.0"},{"Correct":-1,"Choice":32,"RT":597.7849999908358,"Accuracy":0,"Sham":0,"Outcome":0,"Block":2,"Trial":86,"Valence":"Win","Action":"No-Go","trial_type":"pit-trial","trial_index":100,"time_elapsed":417741,"internal_node_id":"0.0-100.0"},{"Correct":32,"Choice":32,"RT":818.3000000426546,"Accuracy":1,"Sham":0,"Outcome":0,"Block":2,"Trial":87,"Valence":"Lose","Action":"Go","trial_type":"pit-trial","trial_index":101,"time_elapsed":421065,"internal_node_id":"0.0-101.0"},{"Correct":-1,"Choice":32,"RT":419.8349999496713,"Accuracy":0,"Sham":0,"Outcome":-1,"Block":2,"Trial":88,"Valence":"Lose","Action":"No-Go","trial_type":"pit-trial","trial_index":102,"time_elapsed":423989,"internal_node_id":"0.0-102.0"},{"Correct":32,"Choice":32,"RT":762.9849999211729,"Accuracy":1,"Sham":1,"Outcome":-1,"Block":2,"Trial":89,"Valence":"Lose","Action":"Go","trial_type":"pit-trial","trial_index":103,"time_elapsed":427256,"internal_node_id":"0.0-103.0"},{"Correct":32,"Choice":32,"RT":553.3300000242889,"Accuracy":1,"Sham":1,"Outcome":0,"Block":2,"Trial":90,"Valence":"Win","Action":"Go","trial_type":"pit-trial","trial_index":104,"time_elapsed":430314,"internal_node_id":"0.0-104.0"},{"Correct":-1,"Choice":32,"RT":670.4250000184402,"Accuracy":0,"Sham":0,"Outcome":0,"Block":2,"Trial":91,"Valence":"Win","Action":"No-Go","trial_type":"pit-trial","trial_index":105,"time_elapsed":433489,"internal_node_id":"0.0-105.0"},{"Correct":-1,"Choice":32,"RT":574.1500000003725,"Accuracy":0,"Sham":0,"Outcome":-1,"Block":2,"Trial":92,"Valence":"Lose","Action":"No-Go","trial_type":"pit-trial","trial_index":106,"time_elapsed":436568,"internal_node_id":"0.0-106.0"},{"Correct":-1,"Choice":-1,"RT":-1,"Accuracy":1,"Sham":0,"Outcome":0,"Block":2,"Trial":93,"Valence":"Lose","Action":"No-Go","trial_type":"pit-trial","trial_index":107,"time_elapsed":440573,"internal_node_id":"0.0-107.0"},{"Correct":32,"Choice":32,"RT":507.1900000330061,"Accuracy":1,"Sham":0,"Outcome":1,"Block":2,"Trial":94,"Valence":"Win","Action":"Go","trial_type":"pit-trial","trial_index":108,"time_elapsed":443587,"internal_node_id":"0.0-108.0"},{"Correct":32,"Choice":32,"RT":874.3699999758974,"Accuracy":1,"Sham":0,"Outcome":0,"Block":2,"Trial":95,"Valence":"Lose","Action":"Go","trial_type":"pit-trial","trial_index":109,"time_elapsed":446966,"internal_node_id":"0.0-109.0"},{"Correct":-1,"Choice":32,"RT":501.08499999623746,"Accuracy":0,"Sham":1,"Outcome":1,"Block":2,"Trial":96,"Valence":"Win","Action":"No-Go","trial_type":"pit-trial","trial_index":110,"time_elapsed":449972,"internal_node_id":"0.0-110.0"},{"Correct":-1,"Choice":32,"RT":589.549999916926,"Accuracy":0,"Sham":1,"Outcome":0,"Block":2,"Trial":97,"Valence":"Lose","Action":"No-Go","trial_type":"pit-trial","trial_index":111,"time_elapsed":453067,"internal_node_id":"0.0-111.0"},{"Correct":32,"Choice":32,"RT":389.2699999269098,"Accuracy":1,"Sham":0,"Outcome":1,"Block":2,"Trial":98,"Valence":"Win","Action":"Go","trial_type":"pit-trial","trial_index":112,"time_elapsed":455961,"internal_node_id":"0.0-112.0"},{"Correct":32,"Choice":32,"RT":890.1449999539182,"Accuracy":1,"Sham":0,"Outcome":0,"Block":2,"Trial":99,"Valence":"Lose","Action":"Go","trial_type":"pit-trial","trial_index":113,"time_elapsed":459358,"internal_node_id":"0.0-113.0"},{"Correct":-1,"Choice":32,"RT":590.8500000368804,"Accuracy":0,"Sham":0,"Outcome":0,"Block":2,"Trial":100,"Valence":"Win","Action":"No-Go","trial_type":"pit-trial","trial_index":114,"time_elapsed":462453,"internal_node_id":"0.0-114.0"},{"Correct":-1,"Choice":32,"RT":624.3000000249594,"Accuracy":0,"Sham":0,"Outcome":-1,"Block":2,"Trial":101,"Valence":"Lose","Action":"No-Go","trial_type":"pit-trial","trial_index":115,"time_elapsed":465581,"internal_node_id":"0.0-115.0"},{"Correct":32,"Choice":32,"RT":870.1100000180304,"Accuracy":1,"Sham":0,"Outcome":0,"Block":2,"Trial":102,"Valence":"Lose","Action":"Go","trial_type":"pit-trial","trial_index":116,"time_elapsed":468958,"internal_node_id":"0.0-116.0"},{"Correct":32,"Choice":32,"RT":496.709999977611,"Accuracy":1,"Sham":1,"Outcome":0,"Block":2,"Trial":103,"Valence":"Win","Action":"Go","trial_type":"pit-trial","trial_index":117,"time_elapsed":471960,"internal_node_id":"0.0-117.0"},{"Correct":-1,"Choice":32,"RT":526.1950000422075,"Accuracy":0,"Sham":1,"Outcome":1,"Block":2,"Trial":104,"Valence":"Win","Action":"No-Go","trial_type":"pit-trial","trial_index":118,"time_elapsed":474991,"internal_node_id":"0.0-118.0"},{"Correct":32,"Choice":32,"RT":612.8250000765547,"Accuracy":1,"Sham":0,"Outcome":0,"Block":2,"Trial":105,"Valence":"Lose","Action":"Go","trial_type":"pit-trial","trial_index":119,"time_elapsed":478109,"internal_node_id":"0.0-119.0"},{"Correct":32,"Choice":32,"RT":539.3899999326095,"Accuracy":1,"Sham":0,"Outcome":1,"Block":2,"Trial":106,"Valence":"Win","Action":"Go","trial_type":"pit-trial","trial_index":120,"time_elapsed":481154,"internal_node_id":"0.0-120.0"},{"Correct":-1,"Choice":32,"RT":563.8200000394136,"Accuracy":0,"Sham":0,"Outcome":0,"Block":2,"Trial":107,"Valence":"Win","Action":"No-Go","trial_type":"pit-trial","trial_index":121,"time_elapsed":484225,"internal_node_id":"0.0-121.0"},{"Correct":-1,"Choice":32,"RT":735.5450000613928,"Accuracy":0,"Sham":0,"Outcome":-1,"Block":2,"Trial":108,"Valence":"Lose","Action":"No-Go","trial_type":"pit-trial","trial_index":122,"time_elapsed":487466,"internal_node_id":"0.0-122.0"},{"Correct":-1,"Choice":32,"RT":469.5950000314042,"Accuracy":0,"Sham":0,"Outcome":0,"Block":2,"Trial":109,"Valence":"Win","Action":"No-Go","trial_type":"pit-trial","trial_index":123,"time_elapsed":490439,"internal_node_id":"0.0-123.0"},{"Correct":-1,"Choice":32,"RT":729.2499999748543,"Accuracy":0,"Sham":0,"Outcome":-1,"Block":2,"Trial":110,"Valence":"Lose","Action":"No-Go","trial_type":"pit-trial","trial_index":124,"time_elapsed":493673,"internal_node_id":"0.0-124.0"},{"Correct":32,"Choice":32,"RT":377.0500000100583,"Accuracy":1,"Sham":0,"Outcome":1,"Block":2,"Trial":111,"Valence":"Win","Action":"Go","trial_type":"pit-trial","trial_index":125,"time_elapsed":496555,"internal_node_id":"0.0-125.0"},{"Correct":32,"Choice":32,"RT":580.6749999755993,"Accuracy":1,"Sham":0,"Outcome":0,"Block":2,"Trial":112,"Valence":"Lose","Action":"Go","trial_type":"pit-trial","trial_index":126,"time_elapsed":499640,"internal_node_id":"0.0-126.0"},{"Correct":-1,"Choice":32,"RT":525.7349999155849,"Accuracy":0,"Sham":0,"Outcome":0,"Block":2,"Trial":113,"Valence":"Win","Action":"No-Go","trial_type":"pit-trial","trial_index":127,"time_elapsed":502672,"internal_node_id":"0.0-127.0"},{"Correct":-1,"Choice":32,"RT":660.135000012815,"Accuracy":0,"Sham":0,"Outcome":-1,"Block":2,"Trial":114,"Valence":"Lose","Action":"No-Go","trial_type":"pit-trial","trial_index":128,"time_elapsed":505836,"internal_node_id":"0.0-128.0"},{"Correct":32,"Choice":32,"RT":449.75500006694347,"Accuracy":1,"Sham":1,"Outcome":-1,"Block":2,"Trial":115,"Valence":"Lose","Action":"Go","trial_type":"pit-trial","trial_index":129,"time_elapsed":508792,"internal_node_id":"0.0-129.0"},{"Correct":32,"Choice":32,"RT":416.91000002902,"Accuracy":1,"Sham":0,"Outcome":1,"Block":2,"Trial":116,"Valence":"Win","Action":"Go","trial_type":"pit-trial","trial_index":130,"time_elapsed":511714,"internal_node_id":"0.0-130.0"},{"Correct":-1,"Choice":32,"RT":634.6799999009818,"Accuracy":0,"Sham":1,"Outcome":0,"Block":2,"Trial":117,"Valence":"Lose","Action":"No-Go","trial_type":"pit-trial","trial_index":131,"time_elapsed":514857,"internal_node_id":"0.0-131.0"},{"Correct":32,"Choice":32,"RT":650.7449999917299,"Accuracy":1,"Sham":0,"Outcome":0,"Block":2,"Trial":118,"Valence":"Lose","Action":"Go","trial_type":"pit-trial","trial_index":132,"time_elapsed":518013,"internal_node_id":"0.0-132.0"},{"Correct":-1,"Choice":32,"RT":468.51000003516674,"Accuracy":0,"Sham":0,"Outcome":0,"Block":2,"Trial":119,"Valence":"Win","Action":"No-Go","trial_type":"pit-trial","trial_index":133,"time_elapsed":520988,"internal_node_id":"0.0-133.0"},{"Correct":32,"Choice":32,"RT":445.6649998901412,"Accuracy":1,"Sham":0,"Outcome":1,"Block":2,"Trial":120,"Valence":"Win","Action":"Go","trial_type":"pit-trial","trial_index":134,"time_elapsed":523939,"internal_node_id":"0.0-134.0"},{"Correct":-1,"Choice":32,"RT":491.1399999400601,"Accuracy":0,"Sham":0,"Outcome":0,"Block":2,"Trial":121,"Valence":"Win","Action":"No-Go","trial_type":"pit-trial","trial_index":135,"time_elapsed":526935,"internal_node_id":"0.0-135.0"},{"Correct":-1,"Choice":-1,"RT":-1,"Accuracy":1,"Sham":0,"Outcome":0,"Block":2,"Trial":122,"Valence":"Lose","Action":"No-Go","trial_type":"pit-trial","trial_index":136,"time_elapsed":530941,"internal_node_id":"0.0-136.0"},{"Correct":32,"Choice":32,"RT":898.7550000892952,"Accuracy":1,"Sham":0,"Outcome":0,"Block":2,"Trial":123,"Valence":"Lose","Action":"Go","trial_type":"pit-trial","trial_index":137,"time_elapsed":534343,"internal_node_id":"0.0-137.0"},{"Correct":32,"Choice":32,"RT":538.2100000279024,"Accuracy":1,"Sham":1,"Outcome":0,"Block":2,"Trial":124,"Valence":"Win","Action":"Go","trial_type":"pit-trial","trial_index":138,"time_elapsed":537386,"internal_node_id":"0.0-138.0"},{"Correct":32,"Choice":32,"RT":700.0250000273809,"Accuracy":1,"Sham":1,"Outcome":-1,"Block":2,"Trial":125,"Valence":"Lose","Action":"Go","trial_type":"pit-trial","trial_index":139,"time_elapsed":540593,"internal_node_id":"0.0-139.0"},{"Correct":-1,"Choice":-1,"RT":-1,"Accuracy":1,"Sham":0,"Outcome":0,"Block":2,"Trial":126,"Valence":"Lose","Action":"No-Go","trial_type":"pit-trial","trial_index":140,"time_elapsed":544599,"internal_node_id":"0.0-140.0"},{"Correct":-1,"Choice":32,"RT":455.4350000107661,"Accuracy":0,"Sham":0,"Outcome":0,"Block":2,"Trial":127,"Valence":"Win","Action":"No-Go","trial_type":"pit-trial","trial_index":141,"time_elapsed":547561,"internal_node_id":"0.0-141.0"},{"Correct":32,"Choice":32,"RT":420.9549999795854,"Accuracy":1,"Sham":0,"Outcome":1,"Block":2,"Trial":128,"Valence":"Win","Action":"Go","trial_type":"pit-trial","trial_index":142,"time_elapsed":550488,"internal_node_id":"0.0-142.0"},{"Correct":-1,"Choice":32,"RT":779.8850000835955,"Accuracy":0,"Sham":0,"Outcome":-1,"Block":2,"Trial":129,"Valence":"Lose","Action":"No-Go","trial_type":"pit-trial","trial_index":143,"time_elapsed":553775,"internal_node_id":"0.0-143.0"},{"Correct":32,"Choice":32,"RT":329.66000004671514,"Accuracy":1,"Sham":0,"Outcome":1,"Block":2,"Trial":130,"Valence":"Win","Action":"Go","trial_type":"pit-trial","trial_index":144,"time_elapsed":556609,"internal_node_id":"0.0-144.0"},{"Correct":32,"Choice":32,"RT":671.5250000124797,"Accuracy":1,"Sham":0,"Outcome":0,"Block":2,"Trial":131,"Valence":"Lose","Action":"Go","trial_type":"pit-trial","trial_index":145,"time_elapsed":559786,"internal_node_id":"0.0-145.0"},{"Correct":-1,"Choice":32,"RT":629.5249999966472,"Accuracy":0,"Sham":0,"Outcome":0,"Block":2,"Trial":132,"Valence":"Win","Action":"No-Go","trial_type":"pit-trial","trial_index":146,"time_elapsed":562920,"internal_node_id":"0.0-146.0"},{"Correct":-1,"Choice":32,"RT":770.0549999717623,"Accuracy":0,"Sham":0,"Outcome":-1,"Block":2,"Trial":133,"Valence":"Lose","Action":"No-Go","trial_type":"pit-trial","trial_index":147,"time_elapsed":566195,"internal_node_id":"0.0-147.0"},{"Correct":32,"Choice":32,"RT":312.78999999631196,"Accuracy":1,"Sham":0,"Outcome":1,"Block":2,"Trial":134,"Valence":"Win","Action":"Go","trial_type":"pit-trial","trial_index":148,"time_elapsed":569011,"internal_node_id":"0.0-148.0"},{"Correct":32,"Choice":32,"RT":571.2700000731274,"Accuracy":1,"Sham":0,"Outcome":0,"Block":2,"Trial":135,"Valence":"Lose","Action":"Go","trial_type":"pit-trial","trial_index":149,"time_elapsed":572088,"internal_node_id":"0.0-149.0"},{"Correct":-1,"Choice":32,"RT":713.7050000019372,"Accuracy":0,"Sham":0,"Outcome":0,"Block":2,"Trial":136,"Valence":"Win","Action":"No-Go","trial_type":"pit-trial","trial_index":150,"time_elapsed":575308,"internal_node_id":"0.0-150.0"},{"Correct":-1,"Choice":-1,"RT":-1,"Accuracy":1,"Sham":1,"Outcome":-1,"Block":2,"Trial":137,"Valence":"Lose","Action":"No-Go","trial_type":"pit-trial","trial_index":151,"time_elapsed":579314,"internal_node_id":"0.0-151.0"},{"Correct":32,"Choice":32,"RT":446.7250000452623,"Accuracy":1,"Sham":0,"Outcome":1,"Block":2,"Trial":138,"Valence":"Win","Action":"Go","trial_type":"pit-trial","trial_index":152,"time_elapsed":582267,"internal_node_id":"0.0-152.0"},{"Correct":32,"Choice":32,"RT":658.9300000341609,"Accuracy":1,"Sham":0,"Outcome":0,"Block":2,"Trial":139,"Valence":"Lose","Action":"Go","trial_type":"pit-trial","trial_index":153,"time_elapsed":585431,"internal_node_id":"0.0-153.0"},{"Correct":-1,"Choice":32,"RT":550.3899999894202,"Accuracy":0,"Sham":1,"Outcome":1,"Block":2,"Trial":140,"Valence":"Win","Action":"No-Go","trial_type":"pit-trial","trial_index":154,"time_elapsed":588486,"internal_node_id":"0.0-154.0"},{"Correct":-1,"Choice":32,"RT":417.75999998208135,"Accuracy":0,"Sham":1,"Outcome":1,"Block":2,"Trial":141,"Valence":"Win","Action":"No-Go","trial_type":"pit-trial","trial_index":155,"time_elapsed":591409,"internal_node_id":"0.0-155.0"},{"Correct":32,"Choice":32,"RT":684.430000022985,"Accuracy":1,"Sham":0,"Outcome":0,"Block":2,"Trial":142,"Valence":"Lose","Action":"Go","trial_type":"pit-trial","trial_index":156,"time_elapsed":594596,"internal_node_id":"0.0-156.0"},{"Correct":32,"Choice":32,"RT":439.4099999917671,"Accuracy":1,"Sham":0,"Outcome":1,"Block":2,"Trial":143,"Valence":"Win","Action":"Go","trial_type":"pit-trial","trial_index":157,"time_elapsed":597539,"internal_node_id":"0.0-157.0"},{"Correct":-1,"Choice":32,"RT":900.4100000020117,"Accuracy":0,"Sham":0,"Outcome":-1,"Block":2,"Trial":144,"Valence":"Lose","Action":"No-Go","trial_type":"pit-trial","trial_index":158,"time_elapsed":600947,"internal_node_id":"0.0-158.0"},{"Correct":-1,"Choice":-1,"RT":-1,"Accuracy":1,"Sham":0,"Outcome":0,"Block":2,"Trial":145,"Valence":"Lose","Action":"No-Go","trial_type":"pit-trial","trial_index":159,"time_elapsed":604956,"internal_node_id":"0.0-159.0"},{"Correct":32,"Choice":32,"RT":338.52999994996935,"Accuracy":1,"Sham":0,"Outcome":1,"Block":2,"Trial":146,"Valence":"Win","Action":"Go","trial_type":"pit-trial","trial_index":160,"time_elapsed":607800,"internal_node_id":"0.0-160.0"},{"Correct":32,"Choice":32,"RT":540.9300000173971,"Accuracy":1,"Sham":0,"Outcome":0,"Block":2,"Trial":147,"Valence":"Lose","Action":"Go","trial_type":"pit-trial","trial_index":161,"time_elapsed":610848,"internal_node_id":"0.0-161.0"},{"Correct":-1,"Choice":32,"RT":379.6149999834597,"Accuracy":0,"Sham":0,"Outcome":0,"Block":2,"Trial":148,"Valence":"Win","Action":"No-Go","trial_type":"pit-trial","trial_index":162,"time_elapsed":613733,"internal_node_id":"0.0-162.0"},{"Correct":-1,"Choice":32,"RT":423.8500000210479,"Accuracy":0,"Sham":0,"Outcome":0,"Block":2,"Trial":149,"Valence":"Win","Action":"No-Go","trial_type":"pit-trial","trial_index":163,"time_elapsed":616662,"internal_node_id":"0.0-163.0"},{"Correct":-1,"Choice":-1,"RT":-1,"Accuracy":1,"Sham":0,"Outcome":0,"Block":2,"Trial":150,"Valence":"Lose","Action":"No-Go","trial_type":"pit-trial","trial_index":164,"time_elapsed":620667,"internal_node_id":"0.0-164.0"},{"Correct":32,"Choice":32,"RT":598.3450000640005,"Accuracy":1,"Sham":0,"Outcome":0,"Block":2,"Trial":151,"Valence":"Lose","Action":"Go","trial_type":"pit-trial","trial_index":165,"time_elapsed":623768,"internal_node_id":"0.0-165.0"},{"Correct":32,"Choice":32,"RT":399.8450000071898,"Accuracy":1,"Sham":0,"Outcome":1,"Block":2,"Trial":152,"Valence":"Win","Action":"Go","trial_type":"pit-trial","trial_index":166,"time_elapsed":626672,"internal_node_id":"0.0-166.0"},{"Correct":32,"Choice":32,"RT":474.820000003092,"Accuracy":1,"Sham":0,"Outcome":1,"Block":2,"Trial":153,"Valence":"Win","Action":"Go","trial_type":"pit-trial","trial_index":167,"time_elapsed":629654,"internal_node_id":"0.0-167.0"},{"Correct":-1,"Choice":-1,"RT":-1,"Accuracy":1,"Sham":0,"Outcome":0,"Block":2,"Trial":154,"Valence":"Lose","Action":"No-Go","trial_type":"pit-trial","trial_index":168,"time_elapsed":633658,"internal_node_id":"0.0-168.0"},{"Correct":32,"Choice":32,"RT":520.0199999380857,"Accuracy":1,"Sham":0,"Outcome":0,"Block":2,"Trial":155,"Valence":"Lose","Action":"Go","trial_type":"pit-trial","trial_index":169,"time_elapsed":636680,"internal_node_id":"0.0-169.0"},{"Correct":-1,"Choice":32,"RT":602.5449999142438,"Accuracy":0,"Sham":0,"Outcome":0,"Block":2,"Trial":156,"Valence":"Win","Action":"No-Go","trial_type":"pit-trial","trial_index":170,"time_elapsed":639788,"internal_node_id":"0.0-170.0"},{"Correct":32,"Choice":-1,"RT":-1,"Accuracy":0,"Sham":1,"Outcome":0,"Block":2,"Trial":157,"Valence":"Lose","Action":"Go","trial_type":"pit-trial","trial_index":171,"time_elapsed":643797,"internal_node_id":"0.0-171.0"},{"Correct":-1,"Choice":-1,"RT":-1,"Accuracy":1,"Sham":1,"Outcome":-1,"Block":2,"Trial":158,"Valence":"Lose","Action":"No-Go","trial_type":"pit-trial","trial_index":172,"time_elapsed":647802,"internal_node_id":"0.0-172.0"},{"Correct":-1,"Choice":32,"RT":444.22500010114163,"Accuracy":0,"Sham":0,"Outcome":0,"Block":2,"Trial":159,"Valence":"Win","Action":"No-Go","trial_type":"pit-trial","trial_index":173,"time_elapsed":650752,"internal_node_id":"0.0-173.0"},{"Correct":32,"Choice":32,"RT":432.45500000193715,"Accuracy":1,"Sham":1,"Outcome":0,"Block":2,"Trial":160,"Valence":"Win","Action":"Go","trial_type":"pit-trial","trial_index":174,"time_elapsed":653689,"internal_node_id":"0.0-174.0"},{"rt":21356.18500004057,"demographics":{"age":"51","gender-categorical":"Male","ethnicity":"Not Hispanic or Latino","race":"White","english":"Yes","fluency":"Very well"},"trial_type":"survey-demo","trial_index":175,"time_elapsed":675048,"internal_node_id":"0.0-175.0"},{"rt":25523.840000038035,"debriefgraphics":{"difficulty":"2","fun":"4","clarity":"5","strategy":"No","feedback":""},"trial_type":"survey-debrief","trial_index":176,"time_elapsed":700575,"internal_node_id":"0.0-176.0","interactions":"[]"}]