[{"view_history":"[{\"page_index\":0,\"viewing_time\":74983.65999996895},{\"page_index\":1,\"viewing_time\":36720.495000015944},{\"page_index\":2,\"viewing_time\":5705.810000014026},{\"page_index\":3,\"viewing_time\":1639.3049999605864},{\"page_index\":4,\"viewing_time\":3150.7600000477396}]","rt":122203.44499999192,"trial_type":"pit-instructions","trial_index":0,"time_elapsed":122225,"internal_node_id":"0.0-0.0"},{"Valence":"Practice","Color":"#fffff080","Rune":"01","Correct":32,"Choice":32,"RT":712.5499999965541,"Accuracy":1,"Sham":0,"Outcome":"+10","Keys":[2211.9950000196695],"TotalKeys":1,"trial_type":"pit-trial","trial_index":1,"time_elapsed":125472,"internal_node_id":"0.0-1.0"},{"Valence":"Practice","Color":"#fffff080","Rune":"01","Correct":32,"Choice":32,"RT":695.7150000380352,"Accuracy":1,"Sham":0,"Outcome":"+10","Keys":[2200.7899999734946],"TotalKeys":1,"trial_type":"pit-trial","trial_index":2,"time_elapsed":128721,"internal_node_id":"0.0-2.0"},{"Valence":"Practice","Color":"#fffff080","Rune":"01","Correct":32,"Choice":32,"RT":408.6750000133179,"Accuracy":1,"Sham":0,"Outcome":"+10","Keys":[1910.799999954179],"TotalKeys":1,"trial_type":"pit-trial","trial_index":3,"time_elapsed":131661,"internal_node_id":"0.0-3.0"},{"Valence":"Practice","Color":"#fffff080","Rune":"01","Correct":32,"Choice":32,"RT":462.17000001342967,"Accuracy":1,"Sham":0,"Outcome":"+10","Keys":[1963.1450000451878],"TotalKeys":1,"trial_type":"pit-trial","trial_index":4,"time_elapsed":134675,"internal_node_id":"0.0-4.0"},{"view_history":"[{\"page_index\":0,\"viewing_time\":11100.274999975227}]","rt":11101.7700000084,"trial_type":"pit-instructions","trial_index":5,"time_elapsed":145824,"internal_node_id":"0.0-5.0"},{"Valence":"Practice","Color":"#fffff080","Rune":"02","Correct":-1,"Choice":32,"RT":521.210000035353,"Accuracy":0,"Sham":0,"Outcome":"+0","Keys":[2024.4500000262633],"TotalKeys":1,"trial_type":"pit-trial","trial_index":6,"time_elapsed":148880,"internal_node_id":"0.0-6.0"},{"Valence":"Practice","Color":"#fffff080","Rune":"02","Correct":-1,"Choice":32,"RT":438.90000000828877,"Accuracy":0,"Sham":0,"Outcome":"+0","Keys":[1942.6300000050105],"TotalKeys":1,"trial_type":"pit-trial","trial_index":7,"time_elapsed":151848,"internal_node_id":"0.0-7.0"},{"Valence":"Practice","Color":"#fffff080","Rune":"02","Correct":-1,"Choice":-1,"RT":-1,"Accuracy":1,"Sham":0,"Outcome":"+10","Keys":[],"TotalKeys":0,"trial_type":"pit-trial","trial_index":8,"time_elapsed":155880,"internal_node_id":"0.0-8.0"},{"Valence":"Practice","Color":"#fffff080","Rune":"02","Correct":-1,"Choice":-1,"RT":-1,"Accuracy":1,"Sham":0,"Outcome":"+10","Keys":[],"TotalKeys":0,"trial_type":"pit-trial","trial_index":9,"time_elapsed":159925,"internal_node_id":"0.0-9.0"},{"view_history":"[{\"page_index\":0,\"viewing_time\":7453.730000008363},{\"page_index\":1,\"viewing_time\":6417.554999992717},{\"page_index\":2,\"viewing_time\":3320.674999966286},{\"page_index\":3,\"viewing_time\":4846.060000010766},{\"page_index\":4,\"viewing_time\":5877.930000016931},{\"page_index\":5,\"viewing_time\":2826.8900000257418},{\"page_index\":6,\"viewing_time\":2404.7199999913573},{\"page_index\":7,\"viewing_time\":2277.36999996705}]","rt":35427.209999994375,"trial_type":"pit-instructions","trial_index":10,"time_elapsed":195366,"internal_node_id":"0.0-10.0"},{"rt":17810.43499999214,"responses":"{\"no-press\":\"Do nothing\",\"context-win\":\"+10\",\"context-lose\":\"-1\",\"feedback\":\"True\"}","errors":2,"trial_type":"pit-comprehension","trial_index":11,"time_elapsed":213199,"internal_node_id":"0.0-11.0"},{"view_history":"[{\"page_index\":0,\"viewing_time\":43526.83500002604}]","rt":43528.504999994766,"trial_type":"pit-instructions","trial_index":12,"time_elapsed":256760,"internal_node_id":"0.0-12.0"},{"Valence":"Win","Color":"#3366ff99","Rune":"05","Correct":-1,"Choice":32,"RT":1009.7450000466779,"Accuracy":0,"Sham":0,"Outcome":"+1","Keys":[2514.7049999795854],"TotalKeys":1,"Block":1,"Trial":1,"Action":"No-Go","Robot":2,"trial_type":"pit-trial","trial_index":13,"time_elapsed":260297,"internal_node_id":"0.0-13.0"},{"Valence":"Lose","Color":"#ffcc3399","Rune":"04","Correct":32,"Choice":32,"RT":1031.8950000219047,"Accuracy":1,"Sham":0,"Outcome":"-1","Keys":[2532.8999999910593],"TotalKeys":1,"Block":1,"Trial":2,"Action":"Go","Robot":3,"trial_type":"pit-trial","trial_index":14,"time_elapsed":263879,"internal_node_id":"0.0-14.0"},{"Valence":"Lose","Color":"#ffcc3399","Rune":"03","Correct":-1,"Choice":32,"RT":466.3050000090152,"Accuracy":0,"Sham":0,"Outcome":"-10","Keys":[1967.9350000224076],"TotalKeys":1,"Block":1,"Trial":3,"Action":"No-Go","Robot":4,"trial_type":"pit-trial","trial_index":15,"time_elapsed":266885,"internal_node_id":"0.0-15.0"},{"Valence":"Win","Color":"#3366ff99","Rune":"06","Correct":32,"Choice":32,"RT":229.93999999016523,"Accuracy":1,"Sham":0,"Outcome":"+10","Keys":[1730.9200000017881],"TotalKeys":1,"Block":1,"Trial":4,"Action":"Go","Robot":1,"trial_type":"pit-trial","trial_index":16,"time_elapsed":269650,"internal_node_id":"0.0-16.0"},{"Valence":"Lose","Color":"#ffcc3399","Rune":"04","Correct":32,"Choice":32,"RT":1174.5400000363588,"Accuracy":1,"Sham":1,"Outcome":"-10","Keys":[2678.1450000125915],"TotalKeys":1,"Block":1,"Trial":5,"Action":"Go","Robot":3,"trial_type":"pit-trial","trial_index":17,"time_elapsed":273370,"internal_node_id":"0.0-17.0"},{"Valence":"Lose","Color":"#ffcc3399","Rune":"03","Correct":-1,"Choice":32,"RT":1216.1249999771826,"Accuracy":0,"Sham":0,"Outcome":"-10","Keys":[2717.1049999888055],"TotalKeys":1,"Block":1,"Trial":6,"Action":"No-Go","Robot":4,"trial_type":"pit-trial","trial_index":18,"time_elapsed":277171,"internal_node_id":"0.0-18.0"},{"Valence":"Win","Color":"#3366ff99","Rune":"06","Correct":32,"Choice":32,"RT":859.9950000061654,"Accuracy":1,"Sham":0,"Outcome":"+10","Keys":[2363.649999955669],"TotalKeys":1,"Block":1,"Trial":7,"Action":"Go","Robot":1,"trial_type":"pit-trial","trial_index":19,"time_elapsed":280560,"internal_node_id":"0.0-19.0"},{"Valence":"Win","Color":"#3366ff99","Rune":"05","Correct":-1,"Choice":32,"RT":689.7500000195578,"Accuracy":0,"Sham":0,"Outcome":"+1","Keys":[2192.255000001751],"TotalKeys":1,"Block":1,"Trial":8,"Action":"No-Go","Robot":2,"trial_type":"pit-trial","trial_index":20,"time_elapsed":283807,"internal_node_id":"0.0-20.0"},{"Valence":"Win","Color":"#3366ff99","Rune":"06","Correct":32,"Choice":32,"RT":669.3349999841303,"Accuracy":1,"Sham":0,"Outcome":"+10","Keys":[2172.6400000043213],"TotalKeys":1,"Block":1,"Trial":9,"Action":"Go","Robot":1,"trial_type":"pit-trial","trial_index":21,"time_elapsed":287030,"internal_node_id":"0.0-21.0"},{"Valence":"Lose","Color":"#ffcc3399","Rune":"04","Correct":32,"Choice":-1,"RT":-1,"Accuracy":0,"Sham":0,"Outcome":"-10","Keys":[],"TotalKeys":0,"Block":1,"Trial":10,"Action":"Go","Robot":3,"trial_type":"pit-trial","trial_index":22,"time_elapsed":291078,"internal_node_id":"0.0-22.0"},{"Valence":"Win","Color":"#3366ff99","Rune":"05","Correct":-1,"Choice":32,"RT":1184.4099999871105,"Accuracy":0,"Sham":0,"Outcome":"+1","Keys":[2688.8449999969453],"TotalKeys":1,"Block":1,"Trial":11,"Action":"No-Go","Robot":2,"trial_type":"pit-trial","trial_index":23,"time_elapsed":294811,"internal_node_id":"0.0-23.0"},{"Valence":"Lose","Color":"#ffcc3399","Rune":"03","Correct":-1,"Choice":-1,"RT":-1,"Accuracy":1,"Sham":0,"Outcome":"-1","Keys":[],"TotalKeys":0,"Block":1,"Trial":12,"Action":"No-Go","Robot":4,"trial_type":"pit-trial","trial_index":24,"time_elapsed":298857,"internal_node_id":"0.0-24.0"},{"Valence":"Win","Color":"#3366ff99","Rune":"06","Correct":32,"Choice":32,"RT":564.3849999760278,"Accuracy":1,"Sham":0,"Outcome":"+10","Keys":[2068.0250000441447],"TotalKeys":1,"Block":1,"Trial":13,"Action":"Go","Robot":1,"trial_type":"pit-trial","trial_index":25,"time_elapsed":301949,"internal_node_id":"0.0-25.0"},{"Valence":"Win","Color":"#3366ff99","Rune":"05","Correct":-1,"Choice":32,"RT":404.70499999355525,"Accuracy":0,"Sham":0,"Outcome":"+1","Keys":[1905.7649999740534,2732.0199999958277],"TotalKeys":2,"Block":1,"Trial":14,"Action":"No-Go","Robot":2,"trial_type":"pit-trial","trial_index":26,"time_elapsed":304881,"internal_node_id":"0.0-26.0"},{"Valence":"Lose","Color":"#ffcc3399","Rune":"04","Correct":32,"Choice":32,"RT":829.1800000006333,"Accuracy":1,"Sham":0,"Outcome":"-1","Keys":[2329.904999991413],"TotalKeys":1,"Block":1,"Trial":15,"Action":"Go","Robot":3,"trial_type":"pit-trial","trial_index":27,"time_elapsed":308233,"internal_node_id":"0.0-27.0"},{"Valence":"Lose","Color":"#ffcc3399","Rune":"03","Correct":-1,"Choice":32,"RT":1147.2100000246428,"Accuracy":0,"Sham":1,"Outcome":"-1","Keys":[2648.2250000117347],"TotalKeys":1,"Block":1,"Trial":16,"Action":"No-Go","Robot":4,"trial_type":"pit-trial","trial_index":28,"time_elapsed":311932,"internal_node_id":"0.0-28.0"},{"Valence":"Win","Color":"#3366ff99","Rune":"06","Correct":32,"Choice":32,"RT":570.5200000084005,"Accuracy":1,"Sham":1,"Outcome":"1","Keys":[2071.0750000434928],"TotalKeys":1,"Block":1,"Trial":17,"Action":"Go","Robot":1,"trial_type":"pit-trial","trial_index":29,"time_elapsed":315073,"internal_node_id":"0.0-29.0"},{"Valence":"Lose","Color":"#ffcc3399","Rune":"04","Correct":32,"Choice":32,"RT":1225.9550000308082,"Accuracy":1,"Sham":0,"Outcome":"-1","Keys":[2725.9199999971315],"TotalKeys":1,"Block":1,"Trial":18,"Action":"Go","Robot":3,"trial_type":"pit-trial","trial_index":30,"time_elapsed":318833,"internal_node_id":"0.0-30.0"},{"Valence":"Win","Color":"#3366ff99","Rune":"05","Correct":-1,"Choice":32,"RT":500.3300000098534,"Accuracy":0,"Sham":1,"Outcome":"+10","Keys":[2005.8450000360608],"TotalKeys":1,"Block":1,"Trial":19,"Action":"No-Go","Robot":2,"trial_type":"pit-trial","trial_index":31,"time_elapsed":321883,"internal_node_id":"0.0-31.0"},{"Valence":"Lose","Color":"#ffcc3399","Rune":"03","Correct":-1,"Choice":32,"RT":954.9550000228919,"Accuracy":0,"Sham":0,"Outcome":"-10","Keys":[2455.550000013318],"TotalKeys":1,"Block":1,"Trial":20,"Action":"No-Go","Robot":4,"trial_type":"pit-trial","trial_index":32,"time_elapsed":325376,"internal_node_id":"0.0-32.0"},{"Valence":"Lose","Color":"#ffcc3399","Rune":"03","Correct":-1,"Choice":-1,"RT":-1,"Accuracy":1,"Sham":0,"Outcome":"-1","Keys":[],"TotalKeys":0,"Block":1,"Trial":21,"Action":"No-Go","Robot":4,"trial_type":"pit-trial","trial_index":33,"time_elapsed":329406,"internal_node_id":"0.0-33.0"},{"Valence":"Win","Color":"#3366ff99","Rune":"05","Correct":-1,"Choice":32,"RT":615.7799999928102,"Accuracy":0,"Sham":0,"Outcome":"+1","Keys":[2119.4649999961257],"TotalKeys":1,"Block":1,"Trial":22,"Action":"No-Go","Robot":2,"trial_type":"pit-trial","trial_index":34,"time_elapsed":332582,"internal_node_id":"0.0-34.0"},{"Valence":"Win","Color":"#3366ff99","Rune":"06","Correct":32,"Choice":32,"RT":491.51500000152737,"Accuracy":1,"Sham":0,"Outcome":"+10","Keys":[1992.9750000010245],"TotalKeys":1,"Block":1,"Trial":23,"Action":"Go","Robot":1,"trial_type":"pit-trial","trial_index":35,"time_elapsed":335611,"internal_node_id":"0.0-35.0"},{"Valence":"Lose","Color":"#ffcc3399","Rune":"04","Correct":32,"Choice":-1,"RT":-1,"Accuracy":0,"Sham":0,"Outcome":"-10","Keys":[3611.8900000001304],"TotalKeys":1,"Block":1,"Trial":24,"Action":"Go","Robot":3,"trial_type":"pit-trial","trial_index":36,"time_elapsed":339638,"internal_node_id":"0.0-36.0"},{"Valence":"Lose","Color":"#ffcc3399","Rune":"03","Correct":-1,"Choice":-1,"RT":-1,"Accuracy":1,"Sham":0,"Outcome":"-1","Keys":[],"TotalKeys":0,"Block":1,"Trial":25,"Action":"No-Go","Robot":4,"trial_type":"pit-trial","trial_index":37,"time_elapsed":343664,"internal_node_id":"0.0-37.0"},{"Valence":"Win","Color":"#3366ff99","Rune":"06","Correct":32,"Choice":32,"RT":1169.0650000236928,"Accuracy":1,"Sham":0,"Outcome":"+10","Keys":[2671.4800000190735],"TotalKeys":1,"Block":1,"Trial":26,"Action":"Go","Robot":1,"trial_type":"pit-trial","trial_index":38,"time_elapsed":347390,"internal_node_id":"0.0-38.0"},{"Valence":"Lose","Color":"#ffcc3399","Rune":"04","Correct":32,"Choice":-1,"RT":-1,"Accuracy":0,"Sham":0,"Outcome":"-10","Keys":[],"TotalKeys":0,"Block":1,"Trial":27,"Action":"Go","Robot":3,"trial_type":"pit-trial","trial_index":39,"time_elapsed":351413,"internal_node_id":"0.0-39.0"},{"Valence":"Win","Color":"#3366ff99","Rune":"05","Correct":-1,"Choice":32,"RT":472.22999995574355,"Accuracy":0,"Sham":0,"Outcome":"+1","Keys":[289.3749999930151,1979.155000008177],"TotalKeys":2,"Block":1,"Trial":28,"Action":"No-Go","Robot":2,"trial_type":"pit-trial","trial_index":40,"time_elapsed":354443,"internal_node_id":"0.0-40.0"},{"Valence":"Lose","Color":"#ffcc3399","Rune":"04","Correct":32,"Choice":32,"RT":782.14999998454,"Accuracy":1,"Sham":0,"Outcome":"-1","Keys":[2283.5349999950267],"TotalKeys":1,"Block":1,"Trial":29,"Action":"Go","Robot":3,"trial_type":"pit-trial","trial_index":41,"time_elapsed":357754,"internal_node_id":"0.0-41.0"},{"Valence":"Win","Color":"#3366ff99","Rune":"05","Correct":-1,"Choice":32,"RT":541.9349999865517,"Accuracy":0,"Sham":1,"Outcome":"+10","Keys":[2059.1849999618717],"TotalKeys":1,"Block":1,"Trial":30,"Action":"No-Go","Robot":2,"trial_type":"pit-trial","trial_index":42,"time_elapsed":360854,"internal_node_id":"0.0-42.0"},{"Valence":"Win","Color":"#3366ff99","Rune":"06","Correct":32,"Choice":32,"RT":197.95000000158325,"Accuracy":1,"Sham":1,"Outcome":"1","Keys":[1701.8200000165962],"TotalKeys":1,"Block":1,"Trial":31,"Action":"Go","Robot":1,"trial_type":"pit-trial","trial_index":43,"time_elapsed":363604,"internal_node_id":"0.0-43.0"},{"Valence":"Lose","Color":"#ffcc3399","Rune":"03","Correct":-1,"Choice":32,"RT":1458.4799999720417,"Accuracy":0,"Sham":0,"Outcome":"-10","Keys":[2959.0099999913946],"TotalKeys":1,"Block":1,"Trial":32,"Action":"No-Go","Robot":4,"trial_type":"pit-trial","trial_index":44,"time_elapsed":367608,"internal_node_id":"0.0-44.0"},{"Valence":"Lose","Color":"#ffcc3399","Rune":"03","Correct":-1,"Choice":-1,"RT":-1,"Accuracy":1,"Sham":0,"Outcome":"-1","Keys":[],"TotalKeys":0,"Block":1,"Trial":33,"Action":"No-Go","Robot":4,"trial_type":"pit-trial","trial_index":45,"time_elapsed":371661,"internal_node_id":"0.0-45.0"},{"Valence":"Win","Color":"#3366ff99","Rune":"05","Correct":-1,"Choice":-1,"RT":-1,"Accuracy":1,"Sham":0,"Outcome":"+10","Keys":[],"TotalKeys":0,"Block":1,"Trial":34,"Action":"No-Go","Robot":2,"trial_type":"pit-trial","trial_index":46,"time_elapsed":375712,"internal_node_id":"0.0-46.0"},{"Valence":"Win","Color":"#3366ff99","Rune":"06","Correct":32,"Choice":-1,"RT":-1,"Accuracy":0,"Sham":0,"Outcome":"+1","Keys":[3016.005000041332],"TotalKeys":1,"Block":1,"Trial":35,"Action":"Go","Robot":1,"trial_type":"pit-trial","trial_index":47,"time_elapsed":379741,"internal_node_id":"0.0-47.0"},{"Valence":"Lose","Color":"#ffcc3399","Rune":"04","Correct":32,"Choice":32,"RT":1021.9800000195391,"Accuracy":1,"Sham":1,"Outcome":"-10","Keys":[2523.739999975078],"TotalKeys":1,"Block":1,"Trial":36,"Action":"Go","Robot":3,"trial_type":"pit-trial","trial_index":48,"time_elapsed":383310,"internal_node_id":"0.0-48.0"},{"Valence":"Lose","Color":"#ffcc3399","Rune":"03","Correct":-1,"Choice":-1,"RT":-1,"Accuracy":1,"Sham":1,"Outcome":"-10","Keys":[1446.8200000119396,3772.965000011027],"TotalKeys":2,"Block":1,"Trial":37,"Action":"No-Go","Robot":4,"trial_type":"pit-trial","trial_index":49,"time_elapsed":387388,"internal_node_id":"0.0-49.0"},{"Valence":"Lose","Color":"#ffcc3399","Rune":"04","Correct":32,"Choice":32,"RT":839.8750000051223,"Accuracy":1,"Sham":0,"Outcome":"-1","Keys":[2340.565000020433],"TotalKeys":1,"Block":1,"Trial":38,"Action":"Go","Robot":3,"trial_type":"pit-trial","trial_index":50,"time_elapsed":390777,"internal_node_id":"0.0-50.0"},{"Valence":"Win","Color":"#3366ff99","Rune":"06","Correct":32,"Choice":32,"RT":1039.6750000072643,"Accuracy":1,"Sham":0,"Outcome":"+10","Keys":[2539.7200000006706],"TotalKeys":1,"Block":1,"Trial":39,"Action":"Go","Robot":1,"trial_type":"pit-trial","trial_index":51,"time_elapsed":394360,"internal_node_id":"0.0-51.0"},{"Valence":"Win","Color":"#3366ff99","Rune":"05","Correct":-1,"Choice":-1,"RT":-1,"Accuracy":1,"Sham":0,"Outcome":"+10","Keys":[],"TotalKeys":0,"Block":1,"Trial":40,"Action":"No-Go","Robot":2,"trial_type":"pit-trial","trial_index":52,"time_elapsed":398389,"internal_node_id":"0.0-52.0"},{"Valence":"Lose","Color":"#ffcc3399","Rune":"04","Correct":32,"Choice":32,"RT":1027.1399999619462,"Accuracy":1,"Sham":1,"Outcome":"-10","Keys":[2530.960000003688],"TotalKeys":1,"Block":1,"Trial":41,"Action":"Go","Robot":3,"trial_type":"pit-trial","trial_index":53,"time_elapsed":401965,"internal_node_id":"0.0-53.0"},{"Valence":"Win","Color":"#3366ff99","Rune":"05","Correct":-1,"Choice":-1,"RT":-1,"Accuracy":1,"Sham":0,"Outcome":"+10","Keys":[],"TotalKeys":0,"Block":1,"Trial":42,"Action":"No-Go","Robot":2,"trial_type":"pit-trial","trial_index":54,"time_elapsed":406011,"internal_node_id":"0.0-54.0"},{"Valence":"Lose","Color":"#ffcc3399","Rune":"03","Correct":-1,"Choice":32,"RT":1237.7100000157952,"Accuracy":0,"Sham":0,"Outcome":"-10","Keys":[2740.110000013374],"TotalKeys":1,"Block":1,"Trial":43,"Action":"No-Go","Robot":4,"trial_type":"pit-trial","trial_index":55,"time_elapsed":409773,"internal_node_id":"0.0-55.0"},{"Valence":"Win","Color":"#3366ff99","Rune":"06","Correct":32,"Choice":-1,"RT":-1,"Accuracy":0,"Sham":0,"Outcome":"+1","Keys":[3716.889999981504],"TotalKeys":1,"Block":1,"Trial":44,"Action":"Go","Robot":1,"trial_type":"pit-trial","trial_index":56,"time_elapsed":413822,"internal_node_id":"0.0-56.0"},{"Valence":"Lose","Color":"#ffcc3399","Rune":"03","Correct":-1,"Choice":32,"RT":962.5399999786168,"Accuracy":0,"Sham":0,"Outcome":"-10","Keys":[2463.655000028666],"TotalKeys":1,"Block":1,"Trial":45,"Action":"No-Go","Robot":4,"trial_type":"pit-trial","trial_index":57,"time_elapsed":417337,"internal_node_id":"0.0-57.0"},{"Valence":"Win","Color":"#3366ff99","Rune":"05","Correct":-1,"Choice":-1,"RT":-1,"Accuracy":1,"Sham":1,"Outcome":"1","Keys":[3852.7950000134297],"TotalKeys":1,"Block":1,"Trial":46,"Action":"No-Go","Robot":2,"trial_type":"pit-trial","trial_index":58,"time_elapsed":421388,"internal_node_id":"0.0-58.0"},{"Valence":"Lose","Color":"#ffcc3399","Rune":"04","Correct":32,"Choice":32,"RT":828.3550000051036,"Accuracy":1,"Sham":0,"Outcome":"-1","Keys":[276.5650000073947,2328.5150000010617],"TotalKeys":2,"Block":1,"Trial":47,"Action":"Go","Robot":3,"trial_type":"pit-trial","trial_index":59,"time_elapsed":424757,"internal_node_id":"0.0-59.0"},{"Valence":"Win","Color":"#3366ff99","Rune":"06","Correct":32,"Choice":32,"RT":696.0799999651499,"Accuracy":1,"Sham":0,"Outcome":"+10","Keys":[2201.419999997597],"TotalKeys":1,"Block":1,"Trial":48,"Action":"Go","Robot":1,"trial_type":"pit-trial","trial_index":60,"time_elapsed":428007,"internal_node_id":"0.0-60.0"},{"Valence":"Lose","Color":"#ffcc3399","Rune":"03","Correct":-1,"Choice":32,"RT":1108.8549999985844,"Accuracy":0,"Sham":0,"Outcome":"-10","Keys":[2609.7050000098534],"TotalKeys":1,"Block":1,"Trial":49,"Action":"No-Go","Robot":4,"trial_type":"pit-trial","trial_index":61,"time_elapsed":431660,"internal_node_id":"0.0-61.0"},{"Valence":"Win","Color":"#3366ff99","Rune":"06","Correct":32,"Choice":-1,"RT":-1,"Accuracy":0,"Sham":0,"Outcome":"+1","Keys":[3672.9949999717064],"TotalKeys":1,"Block":1,"Trial":50,"Action":"Go","Robot":1,"trial_type":"pit-trial","trial_index":62,"time_elapsed":435714,"internal_node_id":"0.0-62.0"},{"Valence":"Win","Color":"#3366ff99","Rune":"05","Correct":-1,"Choice":32,"RT":438.2949999999255,"Accuracy":0,"Sham":0,"Outcome":"+1","Keys":[1938.5349999647588],"TotalKeys":1,"Block":1,"Trial":51,"Action":"No-Go","Robot":2,"trial_type":"pit-trial","trial_index":63,"time_elapsed":438698,"internal_node_id":"0.0-63.0"},{"Valence":"Lose","Color":"#ffcc3399","Rune":"04","Correct":32,"Choice":-1,"RT":-1,"Accuracy":0,"Sham":0,"Outcome":"-10","Keys":[3833.340000011958],"TotalKeys":1,"Block":1,"Trial":52,"Action":"Go","Robot":3,"trial_type":"pit-trial","trial_index":64,"time_elapsed":442754,"internal_node_id":"0.0-64.0"},{"Valence":"Win","Color":"#3366ff99","Rune":"05","Correct":-1,"Choice":32,"RT":1082.4350000475533,"Accuracy":0,"Sham":0,"Outcome":"+1","Keys":[2584.3649999587797],"TotalKeys":1,"Block":1,"Trial":53,"Action":"No-Go","Robot":2,"trial_type":"pit-trial","trial_index":65,"time_elapsed":446417,"internal_node_id":"0.0-65.0"},{"Valence":"Lose","Color":"#ffcc3399","Rune":"04","Correct":32,"Choice":32,"RT":1286.8649999727495,"Accuracy":1,"Sham":0,"Outcome":"-1","Keys":[2789.504999993369],"TotalKeys":1,"Block":1,"Trial":54,"Action":"Go","Robot":3,"trial_type":"pit-trial","trial_index":66,"time_elapsed":450259,"internal_node_id":"0.0-66.0"},{"Valence":"Lose","Color":"#ffcc3399","Rune":"03","Correct":-1,"Choice":32,"RT":1415.37000000244,"Accuracy":0,"Sham":0,"Outcome":"-10","Keys":[2916.1899999598972],"TotalKeys":1,"Block":1,"Trial":55,"Action":"No-Go","Robot":4,"trial_type":"pit-trial","trial_index":67,"time_elapsed":454226,"internal_node_id":"0.0-67.0"},{"Valence":"Win","Color":"#3366ff99","Rune":"06","Correct":32,"Choice":-1,"RT":-1,"Accuracy":0,"Sham":0,"Outcome":"+1","Keys":[3103.5849999752827],"TotalKeys":1,"Block":1,"Trial":56,"Action":"Go","Robot":1,"trial_type":"pit-trial","trial_index":68,"time_elapsed":458248,"internal_node_id":"0.0-68.0"},{"Valence":"Win","Color":"#3366ff99","Rune":"06","Correct":32,"Choice":32,"RT":983.4249999839813,"Accuracy":1,"Sham":1,"Outcome":"1","Keys":[2484.950000012759],"TotalKeys":1,"Block":1,"Trial":57,"Action":"Go","Robot":1,"trial_type":"pit-trial","trial_index":69,"time_elapsed":461770,"internal_node_id":"0.0-69.0"},{"Valence":"Lose","Color":"#ffcc3399","Rune":"04","Correct":32,"Choice":32,"RT":1191.2100000190549,"Accuracy":1,"Sham":0,"Outcome":"-1","Keys":[2694.0649999887682],"TotalKeys":1,"Block":1,"Trial":58,"Action":"Go","Robot":3,"trial_type":"pit-trial","trial_index":70,"time_elapsed":465494,"internal_node_id":"0.0-70.0"},{"Valence":"Lose","Color":"#ffcc3399","Rune":"03","Correct":-1,"Choice":-1,"RT":-1,"Accuracy":1,"Sham":1,"Outcome":"-10","Keys":[],"TotalKeys":0,"Block":1,"Trial":59,"Action":"No-Go","Robot":4,"trial_type":"pit-trial","trial_index":71,"time_elapsed":469550,"internal_node_id":"0.0-71.0"},{"Valence":"Win","Color":"#3366ff99","Rune":"05","Correct":-1,"Choice":32,"RT":1380.684999981895,"Accuracy":0,"Sham":0,"Outcome":"+1","Keys":[24.775000056251884,2882.255000004079],"TotalKeys":2,"Block":1,"Trial":60,"Action":"No-Go","Robot":2,"trial_type":"pit-trial","trial_index":72,"time_elapsed":473475,"internal_node_id":"0.0-72.0"},{"Valence":"Win","Color":"#3366ff99","Rune":"05","Correct":-1,"Choice":-1,"RT":-1,"Accuracy":1,"Sham":0,"Outcome":"+10","Keys":[],"TotalKeys":0,"Block":1,"Trial":61,"Action":"No-Go","Robot":2,"trial_type":"pit-trial","trial_index":73,"time_elapsed":477520,"internal_node_id":"0.0-73.0"},{"Valence":"Lose","Color":"#ffcc3399","Rune":"04","Correct":32,"Choice":32,"RT":1298.6649999511428,"Accuracy":1,"Sham":0,"Outcome":"-1","Keys":[2801.595000026282],"TotalKeys":1,"Block":1,"Trial":62,"Action":"Go","Robot":3,"trial_type":"pit-trial","trial_index":74,"time_elapsed":481360,"internal_node_id":"0.0-74.0"},{"Valence":"Lose","Color":"#ffcc3399","Rune":"03","Correct":-1,"Choice":-1,"RT":-1,"Accuracy":1,"Sham":0,"Outcome":"-1","Keys":[],"TotalKeys":0,"Block":1,"Trial":63,"Action":"No-Go","Robot":4,"trial_type":"pit-trial","trial_index":75,"time_elapsed":485418,"internal_node_id":"0.0-75.0"},{"Valence":"Win","Color":"#3366ff99","Rune":"06","Correct":32,"Choice":32,"RT":967.449999996461,"Accuracy":1,"Sham":0,"Outcome":"+10","Keys":[2470.369999995455],"TotalKeys":1,"Block":1,"Trial":64,"Action":"Go","Robot":1,"trial_type":"pit-trial","trial_index":76,"time_elapsed":488956,"internal_node_id":"0.0-76.0"},{"Valence":"Win","Color":"#3366ff99","Rune":"05","Correct":-1,"Choice":-1,"RT":-1,"Accuracy":1,"Sham":0,"Outcome":"+10","Keys":[],"TotalKeys":0,"Block":1,"Trial":65,"Action":"No-Go","Robot":2,"trial_type":"pit-trial","trial_index":77,"time_elapsed":493013,"internal_node_id":"0.0-77.0"},{"Valence":"Lose","Color":"#ffcc3399","Rune":"03","Correct":-1,"Choice":-1,"RT":-1,"Accuracy":1,"Sham":0,"Outcome":"-1","Keys":[],"TotalKeys":0,"Block":1,"Trial":66,"Action":"No-Go","Robot":4,"trial_type":"pit-trial","trial_index":78,"time_elapsed":497064,"internal_node_id":"0.0-78.0"},{"Valence":"Win","Color":"#3366ff99","Rune":"06","Correct":32,"Choice":32,"RT":1328.7149999523535,"Accuracy":1,"Sham":1,"Outcome":"1","Keys":[2830.0799999851733],"TotalKeys":1,"Block":1,"Trial":67,"Action":"Go","Robot":1,"trial_type":"pit-trial","trial_index":79,"time_elapsed":500933,"internal_node_id":"0.0-79.0"},{"Valence":"Lose","Color":"#ffcc3399","Rune":"04","Correct":32,"Choice":32,"RT":983.9350000256673,"Accuracy":1,"Sham":0,"Outcome":"-1","Keys":[2487.424999999348],"TotalKeys":1,"Block":1,"Trial":68,"Action":"Go","Robot":3,"trial_type":"pit-trial","trial_index":80,"time_elapsed":504458,"internal_node_id":"0.0-80.0"},{"Valence":"Lose","Color":"#ffcc3399","Rune":"03","Correct":-1,"Choice":-1,"RT":-1,"Accuracy":1,"Sham":1,"Outcome":"-10","Keys":[],"TotalKeys":0,"Block":1,"Trial":69,"Action":"No-Go","Robot":4,"trial_type":"pit-trial","trial_index":81,"time_elapsed":508538,"internal_node_id":"0.0-81.0"},{"Valence":"Lose","Color":"#ffcc3399","Rune":"04","Correct":32,"Choice":32,"RT":1056.2599999830127,"Accuracy":1,"Sham":0,"Outcome":"-1","Keys":[2557.6599999913014],"TotalKeys":1,"Block":1,"Trial":70,"Action":"Go","Robot":3,"trial_type":"pit-trial","trial_index":82,"time_elapsed":512136,"internal_node_id":"0.0-82.0"},{"Valence":"Win","Color":"#3366ff99","Rune":"06","Correct":32,"Choice":-1,"RT":-1,"Accuracy":0,"Sham":0,"Outcome":"+1","Keys":[3267.5450000097044],"TotalKeys":1,"Block":1,"Trial":71,"Action":"Go","Robot":1,"trial_type":"pit-trial","trial_index":83,"time_elapsed":516181,"internal_node_id":"0.0-83.0"},{"Valence":"Win","Color":"#3366ff99","Rune":"05","Correct":-1,"Choice":32,"RT":507.48500000918284,"Accuracy":0,"Sham":0,"Outcome":"+1","Keys":[2010.9200000297278],"TotalKeys":1,"Block":1,"Trial":72,"Action":"No-Go","Robot":2,"trial_type":"pit-trial","trial_index":84,"time_elapsed":519273,"internal_node_id":"0.0-84.0"},{"Valence":"Win","Color":"#3366ff99","Rune":"05","Correct":-1,"Choice":32,"RT":393.6649999814108,"Accuracy":0,"Sham":0,"Outcome":"+1","Keys":[1894.8450000025332],"TotalKeys":1,"Block":1,"Trial":73,"Action":"No-Go","Robot":2,"trial_type":"pit-trial","trial_index":85,"time_elapsed":522219,"internal_node_id":"0.0-85.0"},{"Valence":"Lose","Color":"#ffcc3399","Rune":"04","Correct":32,"Choice":-1,"RT":-1,"Accuracy":0,"Sham":1,"Outcome":"-1","Keys":[],"TotalKeys":0,"Block":1,"Trial":74,"Action":"Go","Robot":3,"trial_type":"pit-trial","trial_index":86,"time_elapsed":526276,"internal_node_id":"0.0-86.0"},{"Valence":"Win","Color":"#3366ff99","Rune":"06","Correct":32,"Choice":-1,"RT":-1,"Accuracy":0,"Sham":0,"Outcome":"+1","Keys":[3960.9699999564327],"TotalKeys":1,"Block":1,"Trial":75,"Action":"Go","Robot":1,"trial_type":"pit-trial","trial_index":87,"time_elapsed":530327,"internal_node_id":"0.0-87.0"},{"Valence":"Lose","Color":"#ffcc3399","Rune":"03","Correct":-1,"Choice":-1,"RT":-1,"Accuracy":1,"Sham":0,"Outcome":"-1","Keys":[],"TotalKeys":0,"Block":1,"Trial":76,"Action":"No-Go","Robot":4,"trial_type":"pit-trial","trial_index":88,"time_elapsed":534383,"internal_node_id":"0.0-88.0"},{"Valence":"Win","Color":"#3366ff99","Rune":"05","Correct":-1,"Choice":32,"RT":923.9550000056624,"Accuracy":0,"Sham":1,"Outcome":"+10","Keys":[2427.83000000054],"TotalKeys":1,"Block":1,"Trial":77,"Action":"No-Go","Robot":2,"trial_type":"pit-trial","trial_index":89,"time_elapsed":537837,"internal_node_id":"0.0-89.0"},{"Valence":"Win","Color":"#3366ff99","Rune":"06","Correct":32,"Choice":32,"RT":1361.0699999844655,"Accuracy":1,"Sham":0,"Outcome":"+10","Keys":[2866.6599999996834],"TotalKeys":1,"Block":1,"Trial":78,"Action":"Go","Robot":1,"trial_type":"pit-trial","trial_index":90,"time_elapsed":541757,"internal_node_id":"0.0-90.0"},{"Valence":"Lose","Color":"#ffcc3399","Rune":"03","Correct":-1,"Choice":-1,"RT":-1,"Accuracy":1,"Sham":0,"Outcome":"-1","Keys":[3119.04499999946],"TotalKeys":1,"Block":1,"Trial":79,"Action":"No-Go","Robot":4,"trial_type":"pit-trial","trial_index":91,"time_elapsed":545805,"internal_node_id":"0.0-91.0"},{"Valence":"Lose","Color":"#ffcc3399","Rune":"04","Correct":32,"Choice":32,"RT":873.8049999810755,"Accuracy":1,"Sham":0,"Outcome":"-1","Keys":[2374.260000011418],"TotalKeys":1,"Block":1,"Trial":80,"Action":"Go","Robot":3,"trial_type":"pit-trial","trial_index":92,"time_elapsed":549207,"internal_node_id":"0.0-92.0"},{"value":false,"trial_type":"call-function","trial_index":93,"time_elapsed":549232,"internal_node_id":"0.0-93.0"},{"RT":1129.8350000288337,"trial_type":"pit-pause","trial_index":94,"time_elapsed":552683,"internal_node_id":"0.0-94.0"},{"Valence":"Win","Color":"#3366ff99","Rune":"06","Correct":32,"Choice":32,"RT":433.11500002164394,"Accuracy":1,"Sham":0,"Outcome":"+10","Keys":[1934.7499999566935],"TotalKeys":1,"Block":2,"Trial":81,"Action":"Go","Robot":1,"trial_type":"pit-trial","trial_index":95,"time_elapsed":555657,"internal_node_id":"0.0-95.0"},{"Valence":"Win","Color":"#3366ff99","Rune":"05","Correct":-1,"Choice":32,"RT":361.1350000137463,"Accuracy":0,"Sham":0,"Outcome":"+1","Keys":[1861.1650000093505],"TotalKeys":1,"Block":2,"Trial":82,"Action":"No-Go","Robot":2,"trial_type":"pit-trial","trial_index":96,"time_elapsed":558565,"internal_node_id":"0.0-96.0"},{"Valence":"Lose","Color":"#ffcc3399","Rune":"03","Correct":-1,"Choice":-1,"RT":-1,"Accuracy":1,"Sham":0,"Outcome":"-1","Keys":[],"TotalKeys":0,"Block":2,"Trial":83,"Action":"No-Go","Robot":4,"trial_type":"pit-trial","trial_index":97,"time_elapsed":562611,"internal_node_id":"0.0-97.0"},{"Valence":"Lose","Color":"#ffcc3399","Rune":"04","Correct":32,"Choice":32,"RT":534.6199999912642,"Accuracy":1,"Sham":0,"Outcome":"-1","Keys":[2035.8799999812618],"TotalKeys":1,"Block":2,"Trial":84,"Action":"Go","Robot":3,"trial_type":"pit-trial","trial_index":98,"time_elapsed":565688,"internal_node_id":"0.0-98.0"},{"Valence":"Win","Color":"#3366ff99","Rune":"06","Correct":32,"Choice":32,"RT":548.6749999690801,"Accuracy":1,"Sham":0,"Outcome":"+10","Keys":[2049.479999986943],"TotalKeys":1,"Block":2,"Trial":85,"Action":"Go","Robot":1,"trial_type":"pit-trial","trial_index":99,"time_elapsed":568762,"internal_node_id":"0.0-99.0"},{"Valence":"Win","Color":"#3366ff99","Rune":"05","Correct":-1,"Choice":32,"RT":415.90999998152256,"Accuracy":0,"Sham":0,"Outcome":"+1","Keys":[1919.2599999951199],"TotalKeys":1,"Block":2,"Trial":86,"Action":"No-Go","Robot":2,"trial_type":"pit-trial","trial_index":100,"time_elapsed":571709,"internal_node_id":"0.0-100.0"},{"Valence":"Lose","Color":"#ffcc3399","Rune":"04","Correct":32,"Choice":32,"RT":515.3999999747612,"Accuracy":1,"Sham":0,"Outcome":"-1","Keys":[2016.3949999841861],"TotalKeys":1,"Block":2,"Trial":87,"Action":"Go","Robot":3,"trial_type":"pit-trial","trial_index":101,"time_elapsed":574788,"internal_node_id":"0.0-101.0"},{"Valence":"Lose","Color":"#ffcc3399","Rune":"03","Correct":-1,"Choice":-1,"RT":-1,"Accuracy":1,"Sham":0,"Outcome":"-1","Keys":[],"TotalKeys":0,"Block":2,"Trial":88,"Action":"No-Go","Robot":4,"trial_type":"pit-trial","trial_index":102,"time_elapsed":578813,"internal_node_id":"0.0-102.0"},{"Valence":"Lose","Color":"#ffcc3399","Rune":"04","Correct":32,"Choice":32,"RT":556.0549999936484,"Accuracy":1,"Sham":1,"Outcome":"-10","Keys":[2056.7700000246987],"TotalKeys":1,"Block":2,"Trial":89,"Action":"Go","Robot":3,"trial_type":"pit-trial","trial_index":103,"time_elapsed":581917,"internal_node_id":"0.0-103.0"},{"Valence":"Win","Color":"#3366ff99","Rune":"06","Correct":32,"Choice":-1,"RT":-1,"Accuracy":0,"Sham":1,"Outcome":"+10","Keys":[3051.8799999845214],"TotalKeys":1,"Block":2,"Trial":90,"Action":"Go","Robot":1,"trial_type":"pit-trial","trial_index":104,"time_elapsed":585967,"internal_node_id":"0.0-104.0"},{"Valence":"Win","Color":"#3366ff99","Rune":"05","Correct":-1,"Choice":-1,"RT":-1,"Accuracy":1,"Sham":0,"Outcome":"+10","Keys":[],"TotalKeys":0,"Block":2,"Trial":91,"Action":"No-Go","Robot":2,"trial_type":"pit-trial","trial_index":105,"time_elapsed":590009,"internal_node_id":"0.0-105.0"},{"Valence":"Lose","Color":"#ffcc3399","Rune":"03","Correct":-1,"Choice":32,"RT":1085.5199999641627,"Accuracy":0,"Sham":0,"Outcome":"-10","Keys":[2588.2399999536574],"TotalKeys":1,"Block":2,"Trial":92,"Action":"No-Go","Robot":4,"trial_type":"pit-trial","trial_index":106,"time_elapsed":593660,"internal_node_id":"0.0-106.0"},{"Valence":"Lose","Color":"#ffcc3399","Rune":"03","Correct":-1,"Choice":32,"RT":927.7599999913946,"Accuracy":0,"Sham":0,"Outcome":"-10","Keys":[2428.0999999609776],"TotalKeys":1,"Block":2,"Trial":93,"Action":"No-Go","Robot":4,"trial_type":"pit-trial","trial_index":107,"time_elapsed":597115,"internal_node_id":"0.0-107.0"},{"Valence":"Win","Color":"#3366ff99","Rune":"06","Correct":32,"Choice":32,"RT":1492.1200000098906,"Accuracy":1,"Sham":0,"Outcome":"+10","Keys":[2995.7399999839254],"TotalKeys":1,"Block":2,"Trial":94,"Action":"Go","Robot":1,"trial_type":"pit-trial","trial_index":108,"time_elapsed":601133,"internal_node_id":"0.0-108.0"},{"Valence":"Lose","Color":"#ffcc3399","Rune":"04","Correct":32,"Choice":32,"RT":636.5499999956228,"Accuracy":1,"Sham":0,"Outcome":"-1","Keys":[2148.4350000391714],"TotalKeys":1,"Block":2,"Trial":95,"Action":"Go","Robot":3,"trial_type":"pit-trial","trial_index":109,"time_elapsed":604327,"internal_node_id":"0.0-109.0"},{"Valence":"Win","Color":"#3366ff99","Rune":"05","Correct":-1,"Choice":32,"RT":440.4450000147335,"Accuracy":0,"Sham":1,"Outcome":"+10","Keys":[1942.9499999969266],"TotalKeys":1,"Block":2,"Trial":96,"Action":"No-Go","Robot":2,"trial_type":"pit-trial","trial_index":110,"time_elapsed":607317,"internal_node_id":"0.0-110.0"},{"Valence":"Lose","Color":"#ffcc3399","Rune":"03","Correct":-1,"Choice":-1,"RT":-1,"Accuracy":1,"Sham":1,"Outcome":"-10","Keys":[],"TotalKeys":0,"Block":2,"Trial":97,"Action":"No-Go","Robot":4,"trial_type":"pit-trial","trial_index":111,"time_elapsed":611369,"internal_node_id":"0.0-111.0"},{"Valence":"Win","Color":"#3366ff99","Rune":"06","Correct":32,"Choice":32,"RT":551.5799999702722,"Accuracy":1,"Sham":0,"Outcome":"+10","Keys":[2052.1200000075623],"TotalKeys":1,"Block":2,"Trial":98,"Action":"Go","Robot":1,"trial_type":"pit-trial","trial_index":112,"time_elapsed":614461,"internal_node_id":"0.0-112.0"},{"Valence":"Lose","Color":"#ffcc3399","Rune":"04","Correct":32,"Choice":32,"RT":636.11000002129,"Accuracy":1,"Sham":0,"Outcome":"-1","Keys":[2136.675000016112],"TotalKeys":1,"Block":2,"Trial":99,"Action":"Go","Robot":3,"trial_type":"pit-trial","trial_index":113,"time_elapsed":617614,"internal_node_id":"0.0-113.0"},{"Valence":"Win","Color":"#3366ff99","Rune":"05","Correct":-1,"Choice":-1,"RT":-1,"Accuracy":1,"Sham":0,"Outcome":"+10","Keys":[],"TotalKeys":0,"Block":2,"Trial":100,"Action":"No-Go","Robot":2,"trial_type":"pit-trial","trial_index":114,"time_elapsed":621638,"internal_node_id":"0.0-114.0"},{"Valence":"Lose","Color":"#ffcc3399","Rune":"03","Correct":-1,"Choice":32,"RT":934.4400000409223,"Accuracy":0,"Sham":0,"Outcome":"-10","Keys":[2434.8149999859743],"TotalKeys":1,"Block":2,"Trial":101,"Action":"No-Go","Robot":4,"trial_type":"pit-trial","trial_index":115,"time_elapsed":625109,"internal_node_id":"0.0-115.0"},{"Valence":"Lose","Color":"#ffcc3399","Rune":"04","Correct":32,"Choice":-1,"RT":-1,"Accuracy":0,"Sham":0,"Outcome":"-10","Keys":[3091.0149999544956],"TotalKeys":1,"Block":2,"Trial":102,"Action":"Go","Robot":3,"trial_type":"pit-trial","trial_index":116,"time_elapsed":629158,"internal_node_id":"0.0-116.0"},{"Valence":"Win","Color":"#3366ff99","Rune":"06","Correct":32,"Choice":32,"RT":514.2650000052527,"Accuracy":1,"Sham":1,"Outcome":"1","Keys":[2016.2899999995716],"TotalKeys":1,"Block":2,"Trial":103,"Action":"Go","Robot":1,"trial_type":"pit-trial","trial_index":117,"time_elapsed":632221,"internal_node_id":"0.0-117.0"},{"Valence":"Win","Color":"#3366ff99","Rune":"05","Correct":-1,"Choice":32,"RT":437.92500003473833,"Accuracy":0,"Sham":1,"Outcome":"+10","Keys":[1940.645000024233],"TotalKeys":1,"Block":2,"Trial":104,"Action":"No-Go","Robot":2,"trial_type":"pit-trial","trial_index":118,"time_elapsed":635205,"internal_node_id":"0.0-118.0"},{"Valence":"Lose","Color":"#ffcc3399","Rune":"04","Correct":32,"Choice":32,"RT":596.5450000367127,"Accuracy":1,"Sham":0,"Outcome":"-1","Keys":[2096.780000021681],"TotalKeys":1,"Block":2,"Trial":105,"Action":"Go","Robot":3,"trial_type":"pit-trial","trial_index":119,"time_elapsed":638351,"internal_node_id":"0.0-119.0"},{"Valence":"Win","Color":"#3366ff99","Rune":"06","Correct":32,"Choice":32,"RT":592.4849999719299,"Accuracy":1,"Sham":0,"Outcome":"+10","Keys":[2092.5000000279397],"TotalKeys":1,"Block":2,"Trial":106,"Action":"Go","Robot":1,"trial_type":"pit-trial","trial_index":120,"time_elapsed":641490,"internal_node_id":"0.0-120.0"},{"Valence":"Win","Color":"#3366ff99","Rune":"05","Correct":-1,"Choice":-1,"RT":-1,"Accuracy":1,"Sham":0,"Outcome":"+10","Keys":[],"TotalKeys":0,"Block":2,"Trial":107,"Action":"No-Go","Robot":2,"trial_type":"pit-trial","trial_index":121,"time_elapsed":645532,"internal_node_id":"0.0-121.0"},{"Valence":"Lose","Color":"#ffcc3399","Rune":"03","Correct":-1,"Choice":-1,"RT":-1,"Accuracy":1,"Sham":0,"Outcome":"-1","Keys":[],"TotalKeys":0,"Block":2,"Trial":108,"Action":"No-Go","Robot":4,"trial_type":"pit-trial","trial_index":122,"time_elapsed":649587,"internal_node_id":"0.0-122.0"},{"Valence":"Win","Color":"#3366ff99","Rune":"05","Correct":-1,"Choice":32,"RT":589.6849999553524,"Accuracy":0,"Sham":0,"Outcome":"+1","Keys":[2090.269999986049],"TotalKeys":1,"Block":2,"Trial":109,"Action":"No-Go","Robot":2,"trial_type":"pit-trial","trial_index":123,"time_elapsed":652703,"internal_node_id":"0.0-123.0"},{"Valence":"Lose","Color":"#ffcc3399","Rune":"03","Correct":-1,"Choice":-1,"RT":-1,"Accuracy":1,"Sham":0,"Outcome":"-1","Keys":[],"TotalKeys":0,"Block":2,"Trial":110,"Action":"No-Go","Robot":4,"trial_type":"pit-trial","trial_index":124,"time_elapsed":656753,"internal_node_id":"0.0-124.0"},{"Valence":"Win","Color":"#3366ff99","Rune":"06","Correct":32,"Choice":32,"RT":1292.0800000429153,"Accuracy":1,"Sham":0,"Outcome":"+10","Keys":[2793.4300000197254],"TotalKeys":1,"Block":2,"Trial":111,"Action":"Go","Robot":1,"trial_type":"pit-trial","trial_index":125,"time_elapsed":660622,"internal_node_id":"0.0-125.0"},{"Valence":"Lose","Color":"#ffcc3399","Rune":"04","Correct":32,"Choice":32,"RT":591.7050000280142,"Accuracy":1,"Sham":0,"Outcome":"-1","Keys":[2092.6549999858253],"TotalKeys":1,"Block":2,"Trial":112,"Action":"Go","Robot":3,"trial_type":"pit-trial","trial_index":126,"time_elapsed":663761,"internal_node_id":"0.0-126.0"},{"Valence":"Win","Color":"#3366ff99","Rune":"05","Correct":-1,"Choice":32,"RT":380.730000033509,"Accuracy":0,"Sham":0,"Outcome":"+1","Keys":[1882.1549999993294],"TotalKeys":1,"Block":2,"Trial":113,"Action":"No-Go","Robot":2,"trial_type":"pit-trial","trial_index":127,"time_elapsed":666688,"internal_node_id":"0.0-127.0"},{"Valence":"Lose","Color":"#ffcc3399","Rune":"03","Correct":-1,"Choice":32,"RT":1322.2850000020117,"Accuracy":0,"Sham":0,"Outcome":"-10","Keys":[2825.485000037588],"TotalKeys":1,"Block":2,"Trial":114,"Action":"No-Go","Robot":4,"trial_type":"pit-trial","trial_index":128,"time_elapsed":670539,"internal_node_id":"0.0-128.0"},{"Valence":"Lose","Color":"#ffcc3399","Rune":"04","Correct":32,"Choice":32,"RT":566.9750000233762,"Accuracy":1,"Sham":1,"Outcome":"-10","Keys":[2069.27999999607],"TotalKeys":1,"Block":2,"Trial":115,"Action":"Go","Robot":3,"trial_type":"pit-trial","trial_index":129,"time_elapsed":673634,"internal_node_id":"0.0-129.0"},{"Valence":"Win","Color":"#3366ff99","Rune":"06","Correct":32,"Choice":32,"RT":638.3400000049733,"Accuracy":1,"Sham":0,"Outcome":"+10","Keys":[2144.2800000077114],"TotalKeys":1,"Block":2,"Trial":116,"Action":"Go","Robot":1,"trial_type":"pit-trial","trial_index":130,"time_elapsed":676792,"internal_node_id":"0.0-130.0"},{"Valence":"Lose","Color":"#ffcc3399","Rune":"03","Correct":-1,"Choice":-1,"RT":-1,"Accuracy":1,"Sham":1,"Outcome":"-10","Keys":[3632.8150000190362],"TotalKeys":1,"Block":2,"Trial":117,"Action":"No-Go","Robot":4,"trial_type":"pit-trial","trial_index":131,"time_elapsed":680814,"internal_node_id":"0.0-131.0"},{"Valence":"Lose","Color":"#ffcc3399","Rune":"04","Correct":32,"Choice":-1,"RT":-1,"Accuracy":0,"Sham":0,"Outcome":"-10","Keys":[3475.4000000539236],"TotalKeys":1,"Block":2,"Trial":118,"Action":"Go","Robot":3,"trial_type":"pit-trial","trial_index":132,"time_elapsed":684840,"internal_node_id":"0.0-132.0"},{"Valence":"Win","Color":"#3366ff99","Rune":"05","Correct":-1,"Choice":32,"RT":1089.6199999842793,"Accuracy":0,"Sham":0,"Outcome":"+1","Keys":[2590.9950000350364],"TotalKeys":1,"Block":2,"Trial":119,"Action":"No-Go","Robot":2,"trial_type":"pit-trial","trial_index":133,"time_elapsed":688472,"internal_node_id":"0.0-133.0"},{"Valence":"Win","Color":"#3366ff99","Rune":"06","Correct":32,"Choice":32,"RT":688.8700000126846,"Accuracy":1,"Sham":0,"Outcome":"+10","Keys":[2192.090000025928],"TotalKeys":1,"Block":2,"Trial":120,"Action":"Go","Robot":1,"trial_type":"pit-trial","trial_index":134,"time_elapsed":691711,"internal_node_id":"0.0-134.0"},{"Valence":"Win","Color":"#3366ff99","Rune":"05","Correct":-1,"Choice":-1,"RT":-1,"Accuracy":1,"Sham":0,"Outcome":"+10","Keys":[],"TotalKeys":0,"Block":2,"Trial":121,"Action":"No-Go","Robot":2,"trial_type":"pit-trial","trial_index":135,"time_elapsed":695763,"internal_node_id":"0.0-135.0"},{"Valence":"Lose","Color":"#ffcc3399","Rune":"03","Correct":-1,"Choice":-1,"RT":-1,"Accuracy":1,"Sham":0,"Outcome":"-1","Keys":[],"TotalKeys":0,"Block":2,"Trial":122,"Action":"No-Go","Robot":4,"trial_type":"pit-trial","trial_index":136,"time_elapsed":699816,"internal_node_id":"0.0-136.0"},{"Valence":"Lose","Color":"#ffcc3399","Rune":"04","Correct":32,"Choice":-1,"RT":-1,"Accuracy":0,"Sham":0,"Outcome":"-10","Keys":[1233.1150000100024,3928.455000044778],"TotalKeys":2,"Block":2,"Trial":123,"Action":"Go","Robot":3,"trial_type":"pit-trial","trial_index":137,"time_elapsed":703870,"internal_node_id":"0.0-137.0"},{"Valence":"Win","Color":"#3366ff99","Rune":"06","Correct":32,"Choice":-1,"RT":-1,"Accuracy":0,"Sham":1,"Outcome":"+10","Keys":[252.9849999700673,3089.9050000007264],"TotalKeys":2,"Block":2,"Trial":124,"Action":"Go","Robot":1,"trial_type":"pit-trial","trial_index":138,"time_elapsed":707921,"internal_node_id":"0.0-138.0"},{"Valence":"Lose","Color":"#ffcc3399","Rune":"04","Correct":32,"Choice":32,"RT":756.8999999784864,"Accuracy":1,"Sham":1,"Outcome":"-10","Keys":[2257.9900000127964],"TotalKeys":1,"Block":2,"Trial":125,"Action":"Go","Robot":3,"trial_type":"pit-trial","trial_index":139,"time_elapsed":711232,"internal_node_id":"0.0-139.0"},{"Valence":"Lose","Color":"#ffcc3399","Rune":"03","Correct":-1,"Choice":-1,"RT":-1,"Accuracy":1,"Sham":0,"Outcome":"-1","Keys":[],"TotalKeys":0,"Block":2,"Trial":126,"Action":"No-Go","Robot":4,"trial_type":"pit-trial","trial_index":140,"time_elapsed":715279,"internal_node_id":"0.0-140.0"},{"Valence":"Win","Color":"#3366ff99","Rune":"05","Correct":-1,"Choice":32,"RT":596.3550000451505,"Accuracy":0,"Sham":0,"Outcome":"+1","Keys":[2100.0800000038],"TotalKeys":1,"Block":2,"Trial":127,"Action":"No-Go","Robot":2,"trial_type":"pit-trial","trial_index":141,"time_elapsed":718414,"internal_node_id":"0.0-141.0"},{"Valence":"Win","Color":"#3366ff99","Rune":"06","Correct":32,"Choice":32,"RT":980.9900000109337,"Accuracy":1,"Sham":0,"Outcome":"+10","Keys":[2483.4050000063144],"TotalKeys":1,"Block":2,"Trial":128,"Action":"Go","Robot":1,"trial_type":"pit-trial","trial_index":142,"time_elapsed":721927,"internal_node_id":"0.0-142.0"},{"Valence":"Lose","Color":"#ffcc3399","Rune":"03","Correct":-1,"Choice":-1,"RT":-1,"Accuracy":1,"Sham":0,"Outcome":"-1","Keys":[],"TotalKeys":0,"Block":2,"Trial":129,"Action":"No-Go","Robot":4,"trial_type":"pit-trial","trial_index":143,"time_elapsed":725969,"internal_node_id":"0.0-143.0"},{"Valence":"Win","Color":"#3366ff99","Rune":"06","Correct":32,"Choice":32,"RT":549.6350000030361,"Accuracy":1,"Sham":0,"Outcome":"+10","Keys":[2058.340000046883],"TotalKeys":1,"Block":2,"Trial":130,"Action":"Go","Robot":1,"trial_type":"pit-trial","trial_index":144,"time_elapsed":729069,"internal_node_id":"0.0-144.0"},{"Valence":"Lose","Color":"#ffcc3399","Rune":"04","Correct":32,"Choice":32,"RT":566.1099999560975,"Accuracy":1,"Sham":0,"Outcome":"-1","Keys":[2066.8799999984913],"TotalKeys":1,"Block":2,"Trial":131,"Action":"Go","Robot":3,"trial_type":"pit-trial","trial_index":145,"time_elapsed":732169,"internal_node_id":"0.0-145.0"},{"Valence":"Win","Color":"#3366ff99","Rune":"05","Correct":-1,"Choice":32,"RT":379.37500001862645,"Accuracy":0,"Sham":0,"Outcome":"+1","Keys":[1011.7150000296533,1879.6149999834597],"TotalKeys":2,"Block":2,"Trial":132,"Action":"No-Go","Robot":2,"trial_type":"pit-trial","trial_index":146,"time_elapsed":735069,"internal_node_id":"0.0-146.0"},{"Valence":"Lose","Color":"#ffcc3399","Rune":"03","Correct":-1,"Choice":-1,"RT":-1,"Accuracy":1,"Sham":0,"Outcome":"-1","Keys":[],"TotalKeys":0,"Block":2,"Trial":133,"Action":"No-Go","Robot":4,"trial_type":"pit-trial","trial_index":147,"time_elapsed":739110,"internal_node_id":"0.0-147.0"},{"Valence":"Win","Color":"#3366ff99","Rune":"06","Correct":32,"Choice":32,"RT":753.145000024233,"Accuracy":1,"Sham":0,"Outcome":"+10","Keys":[2257.080000010319],"TotalKeys":1,"Block":2,"Trial":134,"Action":"Go","Robot":1,"trial_type":"pit-trial","trial_index":148,"time_elapsed":742431,"internal_node_id":"0.0-148.0"},{"Valence":"Lose","Color":"#ffcc3399","Rune":"04","Correct":32,"Choice":32,"RT":533.7600000202656,"Accuracy":1,"Sham":0,"Outcome":"-1","Keys":[2034.299999999348],"TotalKeys":1,"Block":2,"Trial":135,"Action":"Go","Robot":3,"trial_type":"pit-trial","trial_index":149,"time_elapsed":745499,"internal_node_id":"0.0-149.0"},{"Valence":"Win","Color":"#3366ff99","Rune":"05","Correct":-1,"Choice":32,"RT":412.03999996650964,"Accuracy":0,"Sham":0,"Outcome":"+1","Keys":[1912.1300000115298],"TotalKeys":1,"Block":2,"Trial":136,"Action":"No-Go","Robot":2,"trial_type":"pit-trial","trial_index":150,"time_elapsed":748464,"internal_node_id":"0.0-150.0"},{"Valence":"Lose","Color":"#ffcc3399","Rune":"03","Correct":-1,"Choice":-1,"RT":-1,"Accuracy":1,"Sham":1,"Outcome":"-10","Keys":[],"TotalKeys":0,"Block":2,"Trial":137,"Action":"No-Go","Robot":4,"trial_type":"pit-trial","trial_index":151,"time_elapsed":752537,"internal_node_id":"0.0-151.0"},{"Valence":"Win","Color":"#3366ff99","Rune":"06","Correct":32,"Choice":32,"RT":642.7050000056624,"Accuracy":1,"Sham":0,"Outcome":"+10","Keys":[2152.4050000007264],"TotalKeys":1,"Block":2,"Trial":138,"Action":"Go","Robot":1,"trial_type":"pit-trial","trial_index":152,"time_elapsed":755746,"internal_node_id":"0.0-152.0"},{"Valence":"Lose","Color":"#ffcc3399","Rune":"04","Correct":32,"Choice":32,"RT":704.230000032112,"Accuracy":1,"Sham":0,"Outcome":"-1","Keys":[2206.5099999890663],"TotalKeys":1,"Block":2,"Trial":139,"Action":"Go","Robot":3,"trial_type":"pit-trial","trial_index":153,"time_elapsed":758986,"internal_node_id":"0.0-153.0"},{"Valence":"Win","Color":"#3366ff99","Rune":"05","Correct":-1,"Choice":-1,"RT":-1,"Accuracy":1,"Sham":1,"Outcome":"1","Keys":[3598.6200000043027],"TotalKeys":1,"Block":2,"Trial":140,"Action":"No-Go","Robot":2,"trial_type":"pit-trial","trial_index":154,"time_elapsed":763021,"internal_node_id":"0.0-154.0"},{"Valence":"Win","Color":"#3366ff99","Rune":"05","Correct":-1,"Choice":-1,"RT":-1,"Accuracy":1,"Sham":1,"Outcome":"1","Keys":[207.89999997941777,3728.3900000038557,4000.7949999999255],"TotalKeys":3,"Block":2,"Trial":141,"Action":"No-Go","Robot":2,"trial_type":"pit-trial","trial_index":155,"time_elapsed":767059,"internal_node_id":"0.0-155.0"},{"Valence":"Lose","Color":"#ffcc3399","Rune":"04","Correct":32,"Choice":32,"RT":595.900000014808,"Accuracy":1,"Sham":0,"Outcome":"-1","Keys":[855.0900000263937,2097.8000000468455],"TotalKeys":2,"Block":2,"Trial":142,"Action":"Go","Robot":3,"trial_type":"pit-trial","trial_index":156,"time_elapsed":770201,"internal_node_id":"0.0-156.0"},{"Valence":"Win","Color":"#3366ff99","Rune":"06","Correct":32,"Choice":32,"RT":616.4949999656528,"Accuracy":1,"Sham":0,"Outcome":"+10","Keys":[769.0050000092015,2134.3099999940023],"TotalKeys":2,"Block":2,"Trial":143,"Action":"Go","Robot":1,"trial_type":"pit-trial","trial_index":157,"time_elapsed":773367,"internal_node_id":"0.0-157.0"},{"Valence":"Lose","Color":"#ffcc3399","Rune":"03","Correct":-1,"Choice":32,"RT":136.37999998172745,"Accuracy":0,"Sham":0,"Outcome":"-10","Keys":[515.769999998156,1240.5600000056438,1644.2249999963678,2620.404999994207],"TotalKeys":4,"Block":2,"Trial":144,"Action":"No-Go","Robot":4,"trial_type":"pit-trial","trial_index":158,"time_elapsed":776049,"internal_node_id":"0.0-158.0"},{"Valence":"Lose","Color":"#ffcc3399","Rune":"03","Correct":-1,"Choice":-1,"RT":-1,"Accuracy":1,"Sham":0,"Outcome":"-1","Keys":[],"TotalKeys":0,"Block":2,"Trial":145,"Action":"No-Go","Robot":4,"trial_type":"pit-trial","trial_index":159,"time_elapsed":780078,"internal_node_id":"0.0-159.0"},{"Valence":"Win","Color":"#3366ff99","Rune":"06","Correct":32,"Choice":32,"RT":557.8450000029989,"Accuracy":1,"Sham":0,"Outcome":"+10","Keys":[404.6749999979511,2061.3049999810755],"TotalKeys":2,"Block":2,"Trial":146,"Action":"Go","Robot":1,"trial_type":"pit-trial","trial_index":160,"time_elapsed":783175,"internal_node_id":"0.0-160.0"},{"Valence":"Lose","Color":"#ffcc3399","Rune":"04","Correct":32,"Choice":32,"RT":711.3700000336394,"Accuracy":1,"Sham":0,"Outcome":"-1","Keys":[681.5949999727309,2213.4450000012293],"TotalKeys":2,"Block":2,"Trial":147,"Action":"Go","Robot":3,"trial_type":"pit-trial","trial_index":161,"time_elapsed":786435,"internal_node_id":"0.0-161.0"},{"Valence":"Win","Color":"#3366ff99","Rune":"05","Correct":-1,"Choice":32,"RT":368.84000001009554,"Accuracy":0,"Sham":0,"Outcome":"+1","Keys":[1873.0950000463054],"TotalKeys":1,"Block":2,"Trial":148,"Action":"No-Go","Robot":2,"trial_type":"pit-trial","trial_index":162,"time_elapsed":789363,"internal_node_id":"0.0-162.0"},{"Valence":"Win","Color":"#3366ff99","Rune":"05","Correct":-1,"Choice":-1,"RT":-1,"Accuracy":1,"Sham":0,"Outcome":"+10","Keys":[1426.140000054147,3158.4050000528805,3676.495000021532],"TotalKeys":3,"Block":2,"Trial":149,"Action":"No-Go","Robot":2,"trial_type":"pit-trial","trial_index":163,"time_elapsed":793415,"internal_node_id":"0.0-163.0"},{"Valence":"Lose","Color":"#ffcc3399","Rune":"03","Correct":-1,"Choice":32,"RT":914.1749999835156,"Accuracy":0,"Sham":0,"Outcome":"-10","Keys":[2414.389999990817],"TotalKeys":1,"Block":2,"Trial":150,"Action":"No-Go","Robot":4,"trial_type":"pit-trial","trial_index":164,"time_elapsed":796873,"internal_node_id":"0.0-164.0"},{"Valence":"Lose","Color":"#ffcc3399","Rune":"04","Correct":32,"Choice":32,"RT":612.2500000055879,"Accuracy":1,"Sham":0,"Outcome":"-1","Keys":[2112.4150000396185],"TotalKeys":1,"Block":2,"Trial":151,"Action":"Go","Robot":3,"trial_type":"pit-trial","trial_index":165,"time_elapsed":800039,"internal_node_id":"0.0-165.0"},{"Valence":"Win","Color":"#3366ff99","Rune":"06","Correct":32,"Choice":32,"RT":846.0199999972247,"Accuracy":1,"Sham":0,"Outcome":"+10","Keys":[2348.0100000160746],"TotalKeys":1,"Block":2,"Trial":152,"Action":"Go","Robot":1,"trial_type":"pit-trial","trial_index":166,"time_elapsed":803436,"internal_node_id":"0.0-166.0"},{"Valence":"Win","Color":"#3366ff99","Rune":"06","Correct":32,"Choice":32,"RT":409.24000000813976,"Accuracy":1,"Sham":0,"Outcome":"+10","Keys":[353.75499998917803,1909.2800000216812],"TotalKeys":2,"Block":2,"Trial":153,"Action":"Go","Robot":1,"trial_type":"pit-trial","trial_index":167,"time_elapsed":806403,"internal_node_id":"0.0-167.0"},{"Valence":"Lose","Color":"#ffcc3399","Rune":"03","Correct":-1,"Choice":32,"RT":1310.0200000335462,"Accuracy":0,"Sham":0,"Outcome":"-10","Keys":[2814.4549999851733],"TotalKeys":1,"Block":2,"Trial":154,"Action":"No-Go","Robot":4,"trial_type":"pit-trial","trial_index":168,"time_elapsed":810258,"internal_node_id":"0.0-168.0"},{"Valence":"Lose","Color":"#ffcc3399","Rune":"04","Correct":32,"Choice":32,"RT":897.4799999850802,"Accuracy":1,"Sham":0,"Outcome":"-1","Keys":[2410.024999990128],"TotalKeys":1,"Block":2,"Trial":155,"Action":"Go","Robot":3,"trial_type":"pit-trial","trial_index":169,"time_elapsed":813687,"internal_node_id":"0.0-169.0"},{"Valence":"Win","Color":"#3366ff99","Rune":"05","Correct":-1,"Choice":32,"RT":1209.8799999803305,"Accuracy":0,"Sham":0,"Outcome":"+1","Keys":[67.5199999823235,2716.290000011213],"TotalKeys":2,"Block":2,"Trial":156,"Action":"No-Go","Robot":2,"trial_type":"pit-trial","trial_index":170,"time_elapsed":817450,"internal_node_id":"0.0-170.0"},{"Valence":"Lose","Color":"#ffcc3399","Rune":"04","Correct":32,"Choice":32,"RT":498.3549999888055,"Accuracy":1,"Sham":1,"Outcome":"-10","Keys":[1999.3200000026263],"TotalKeys":1,"Block":2,"Trial":157,"Action":"Go","Robot":3,"trial_type":"pit-trial","trial_index":171,"time_elapsed":820468,"internal_node_id":"0.0-171.0"},{"Valence":"Lose","Color":"#ffcc3399","Rune":"03","Correct":-1,"Choice":-1,"RT":-1,"Accuracy":1,"Sham":1,"Outcome":"-10","Keys":[],"TotalKeys":0,"Block":2,"Trial":158,"Action":"No-Go","Robot":4,"trial_type":"pit-trial","trial_index":172,"time_elapsed":824497,"internal_node_id":"0.0-172.0"},{"Valence":"Win","Color":"#3366ff99","Rune":"05","Correct":-1,"Choice":32,"RT":439.76000003749505,"Accuracy":0,"Sham":0,"Outcome":"+1","Keys":[1940.535000001546],"TotalKeys":1,"Block":2,"Trial":159,"Action":"No-Go","Robot":2,"trial_type":"pit-trial","trial_index":173,"time_elapsed":827478,"internal_node_id":"0.0-173.0"},{"Valence":"Win","Color":"#3366ff99","Rune":"06","Correct":32,"Choice":32,"RT":528.0800000182353,"Accuracy":1,"Sham":1,"Outcome":"1","Keys":[2028.3950000302866],"TotalKeys":1,"Block":2,"Trial":160,"Action":"Go","Robot":1,"trial_type":"pit-trial","trial_index":174,"time_elapsed":830527,"internal_node_id":"0.0-174.0"},{"rt":11498.614999989513,"demographics":{"age":"30","gender-categorical":"Male","ethnicity":"Not Hispanic or Latino","race":"White","english":"Yes","fluency":"Very well"},"trial_type":"survey-demo","trial_index":175,"time_elapsed":842056,"internal_node_id":"0.0-175.0"},{"rt":22296.764999977313,"debriefgraphics":{"difficulty":"4","fun":"4","clarity":"5","strategy":"just learning common result of specific symbols","feedback":"n/a"},"trial_type":"survey-debrief","trial_index":176,"time_elapsed":864372,"internal_node_id":"0.0-176.0","interactions":"[{\"event\":\"blur\",\"trial\":0,\"time\":80156},{\"event\":\"focus\",\"trial\":0,\"time\":103889},{\"event\":\"blur\",\"trial\":5,\"time\":144862},{\"event\":\"focus\",\"trial\":5,\"time\":145767},{\"event\":\"blur\",\"trial\":142,\"time\":719989},{\"event\":\"focus\",\"trial\":142,\"time\":720770},{\"event\":\"blur\",\"trial\":143,\"time\":723138},{\"event\":\"focus\",\"trial\":144,\"time\":727106}]"}]