[{"view_history":"[{\"page_index\":0,\"viewing_time\":3646.0650000008172},{\"page_index\":1,\"viewing_time\":11263.565000001108},{\"page_index\":2,\"viewing_time\":10111.939999998867},{\"page_index\":3,\"viewing_time\":6432.220000002417},{\"page_index\":4,\"viewing_time\":5231.644999999844}]","rt":36686.6399999999,"trial_type":"pit-instructions","trial_index":0,"time_elapsed":36690,"internal_node_id":"0.0-0.0"},{"Valence":"Practice","Color":"#fffff080","Rune":"01","Correct":32,"Choice":32,"RT":680.1749999976892,"Accuracy":1,"Sham":0,"Outcome":"+10","Keys":[2181.3400000028196],"TotalKeys":1,"trial_type":"pit-trial","trial_index":1,"time_elapsed":39877,"internal_node_id":"0.0-1.0"},{"Valence":"Practice","Color":"#fffff080","Rune":"01","Correct":32,"Choice":32,"RT":469.95500000048196,"Accuracy":1,"Sham":0,"Outcome":"+10","Keys":[1970.72499999922],"TotalKeys":1,"trial_type":"pit-trial","trial_index":2,"time_elapsed":42853,"internal_node_id":"0.0-2.0"},{"Valence":"Practice","Color":"#fffff080","Rune":"01","Correct":32,"Choice":32,"RT":142.90500000061002,"Accuracy":1,"Sham":0,"Outcome":"+10","Keys":[1643.1650000013178],"TotalKeys":1,"trial_type":"pit-trial","trial_index":3,"time_elapsed":45500,"internal_node_id":"0.0-3.0"},{"Valence":"Practice","Color":"#fffff080","Rune":"01","Correct":32,"Choice":32,"RT":311.41500000012456,"Accuracy":1,"Sham":0,"Outcome":"+10","Keys":[1811.8599999979779],"TotalKeys":1,"trial_type":"pit-trial","trial_index":4,"time_elapsed":48316,"internal_node_id":"0.0-4.0"},{"view_history":"[{\"page_index\":0,\"viewing_time\":4290.430000000924}]","rt":4291.030000000319,"trial_type":"pit-instructions","trial_index":5,"time_elapsed":52609,"internal_node_id":"0.0-5.0"},{"Valence":"Practice","Color":"#fffff080","Rune":"02","Correct":-1,"Choice":-1,"RT":-1,"Accuracy":1,"Sham":0,"Outcome":"+10","Keys":[],"TotalKeys":0,"trial_type":"pit-trial","trial_index":6,"time_elapsed":56614,"internal_node_id":"0.0-6.0"},{"Valence":"Practice","Color":"#fffff080","Rune":"02","Correct":-1,"Choice":-1,"RT":-1,"Accuracy":1,"Sham":0,"Outcome":"+10","Keys":[],"TotalKeys":0,"trial_type":"pit-trial","trial_index":7,"time_elapsed":60618,"internal_node_id":"0.0-7.0"},{"Valence":"Practice","Color":"#fffff080","Rune":"02","Correct":-1,"Choice":-1,"RT":-1,"Accuracy":1,"Sham":0,"Outcome":"+10","Keys":[],"TotalKeys":0,"trial_type":"pit-trial","trial_index":8,"time_elapsed":64623,"internal_node_id":"0.0-8.0"},{"Valence":"Practice","Color":"#fffff080","Rune":"02","Correct":-1,"Choice":-1,"RT":-1,"Accuracy":1,"Sham":0,"Outcome":"+10","Keys":[],"TotalKeys":0,"trial_type":"pit-trial","trial_index":9,"time_elapsed":68630,"internal_node_id":"0.0-9.0"},{"view_history":"[{\"page_index\":0,\"viewing_time\":6952.064999997674},{\"page_index\":1,\"viewing_time\":15983.954999999696},{\"page_index\":2,\"viewing_time\":13807.635000001028},{\"page_index\":3,\"viewing_time\":19383.904999998776},{\"page_index\":4,\"viewing_time\":3128.1900000030873},{\"page_index\":5,\"viewing_time\":33183.35499999739},{\"page_index\":6,\"viewing_time\":2208.0800000003364},{\"page_index\":7,\"viewing_time\":2559.96000000232}]","rt":97207.70999999877,"trial_type":"pit-instructions","trial_index":10,"time_elapsed":165839,"internal_node_id":"0.0-10.0"},{"rt":18485.16500000187,"responses":"{\"no-press\":\"Do nothing\",\"context-win\":\"+10\",\"context-lose\":\"-1\",\"feedback\":\"True\"}","errors":0,"trial_type":"pit-comprehension","trial_index":11,"time_elapsed":184329,"internal_node_id":"0.0-11.0"},{"view_history":"[{\"page_index\":0,\"viewing_time\":4945.110000000568}]","rt":4945.760000002338,"trial_type":"pit-instructions","trial_index":12,"time_elapsed":189279,"internal_node_id":"0.0-12.0"},{"Valence":"Win","Color":"#ffcc3399","Rune":"06","Correct":-1,"Choice":-1,"RT":-1,"Accuracy":1,"Sham":0,"Outcome":"+10","Keys":[],"TotalKeys":0,"Block":1,"Trial":1,"Action":"No-Go","Robot":2,"trial_type":"pit-trial","trial_index":13,"time_elapsed":193284,"internal_node_id":"0.0-13.0"},{"Valence":"Lose","Color":"#3366ff99","Rune":"03","Correct":32,"Choice":32,"RT":660.5750000016997,"Accuracy":1,"Sham":0,"Outcome":"-1","Keys":[2161.9300000020303],"TotalKeys":1,"Block":1,"Trial":2,"Action":"Go","Robot":3,"trial_type":"pit-trial","trial_index":14,"time_elapsed":196450,"internal_node_id":"0.0-14.0"},{"Valence":"Lose","Color":"#3366ff99","Rune":"05","Correct":-1,"Choice":32,"RT":1288.2549999994808,"Accuracy":0,"Sham":0,"Outcome":"-10","Keys":[2789.389999998093],"TotalKeys":1,"Block":1,"Trial":3,"Action":"No-Go","Robot":4,"trial_type":"pit-trial","trial_index":15,"time_elapsed":200243,"internal_node_id":"0.0-15.0"},{"Valence":"Win","Color":"#ffcc3399","Rune":"04","Correct":32,"Choice":32,"RT":805.3350000045612,"Accuracy":1,"Sham":0,"Outcome":"+10","Keys":[2307.345000001078],"TotalKeys":1,"Block":1,"Trial":4,"Action":"Go","Robot":1,"trial_type":"pit-trial","trial_index":16,"time_elapsed":203555,"internal_node_id":"0.0-16.0"},{"Valence":"Lose","Color":"#3366ff99","Rune":"03","Correct":32,"Choice":32,"RT":822.7650000044378,"Accuracy":1,"Sham":1,"Outcome":"-10","Keys":[2323.324999997567],"TotalKeys":1,"Block":1,"Trial":5,"Action":"Go","Robot":3,"trial_type":"pit-trial","trial_index":17,"time_elapsed":206881,"internal_node_id":"0.0-17.0"},{"Valence":"Lose","Color":"#3366ff99","Rune":"05","Correct":-1,"Choice":-1,"RT":-1,"Accuracy":1,"Sham":0,"Outcome":"-1","Keys":[],"TotalKeys":0,"Block":1,"Trial":6,"Action":"No-Go","Robot":4,"trial_type":"pit-trial","trial_index":18,"time_elapsed":210885,"internal_node_id":"0.0-18.0"},{"Valence":"Win","Color":"#ffcc3399","Rune":"04","Correct":32,"Choice":32,"RT":363.56000000523636,"Accuracy":1,"Sham":0,"Outcome":"+10","Keys":[1864.255000000412],"TotalKeys":1,"Block":1,"Trial":7,"Action":"Go","Robot":1,"trial_type":"pit-trial","trial_index":19,"time_elapsed":213753,"internal_node_id":"0.0-19.0"},{"Valence":"Win","Color":"#ffcc3399","Rune":"06","Correct":-1,"Choice":32,"RT":735.4899999991176,"Accuracy":0,"Sham":0,"Outcome":"+1","Keys":[2236.284999999043],"TotalKeys":1,"Block":1,"Trial":8,"Action":"No-Go","Robot":2,"trial_type":"pit-trial","trial_index":20,"time_elapsed":216993,"internal_node_id":"0.0-20.0"},{"Valence":"Win","Color":"#ffcc3399","Rune":"04","Correct":32,"Choice":32,"RT":407.15999999520136,"Accuracy":1,"Sham":0,"Outcome":"+10","Keys":[1908.4799999982351],"TotalKeys":1,"Block":1,"Trial":9,"Action":"Go","Robot":1,"trial_type":"pit-trial","trial_index":21,"time_elapsed":219906,"internal_node_id":"0.0-21.0"},{"Valence":"Lose","Color":"#3366ff99","Rune":"03","Correct":32,"Choice":-1,"RT":-1,"Accuracy":0,"Sham":0,"Outcome":"-10","Keys":[],"TotalKeys":0,"Block":1,"Trial":10,"Action":"Go","Robot":3,"trial_type":"pit-trial","trial_index":22,"time_elapsed":223911,"internal_node_id":"0.0-22.0"},{"Valence":"Win","Color":"#ffcc3399","Rune":"06","Correct":-1,"Choice":32,"RT":529.4899999935296,"Accuracy":0,"Sham":0,"Outcome":"+1","Keys":[2030.7450000036624],"TotalKeys":1,"Block":1,"Trial":11,"Action":"No-Go","Robot":2,"trial_type":"pit-trial","trial_index":23,"time_elapsed":226948,"internal_node_id":"0.0-23.0"},{"Valence":"Lose","Color":"#3366ff99","Rune":"05","Correct":-1,"Choice":32,"RT":786.3499999948544,"Accuracy":0,"Sham":0,"Outcome":"-10","Keys":[2286.9449999998324],"TotalKeys":1,"Block":1,"Trial":12,"Action":"No-Go","Robot":4,"trial_type":"pit-trial","trial_index":24,"time_elapsed":230242,"internal_node_id":"0.0-24.0"},{"Valence":"Win","Color":"#ffcc3399","Rune":"04","Correct":32,"Choice":32,"RT":583.0849999983911,"Accuracy":1,"Sham":0,"Outcome":"+10","Keys":[2083.9950000008685],"TotalKeys":1,"Block":1,"Trial":13,"Action":"Go","Robot":1,"trial_type":"pit-trial","trial_index":25,"time_elapsed":233330,"internal_node_id":"0.0-25.0"},{"Valence":"Win","Color":"#ffcc3399","Rune":"06","Correct":-1,"Choice":32,"RT":511.1149999938789,"Accuracy":0,"Sham":0,"Outcome":"+1","Keys":[2011.9849999973667],"TotalKeys":1,"Block":1,"Trial":14,"Action":"No-Go","Robot":2,"trial_type":"pit-trial","trial_index":26,"time_elapsed":236346,"internal_node_id":"0.0-26.0"},{"Valence":"Lose","Color":"#3366ff99","Rune":"03","Correct":32,"Choice":-1,"RT":-1,"Accuracy":0,"Sham":0,"Outcome":"-10","Keys":[],"TotalKeys":0,"Block":1,"Trial":15,"Action":"Go","Robot":3,"trial_type":"pit-trial","trial_index":27,"time_elapsed":240351,"internal_node_id":"0.0-27.0"},{"Valence":"Lose","Color":"#3366ff99","Rune":"05","Correct":-1,"Choice":-1,"RT":-1,"Accuracy":1,"Sham":1,"Outcome":"-10","Keys":[],"TotalKeys":0,"Block":1,"Trial":16,"Action":"No-Go","Robot":4,"trial_type":"pit-trial","trial_index":28,"time_elapsed":244358,"internal_node_id":"0.0-28.0"},{"Valence":"Win","Color":"#ffcc3399","Rune":"04","Correct":32,"Choice":32,"RT":736.8349999960628,"Accuracy":1,"Sham":1,"Outcome":"1","Keys":[2238.210000003164],"TotalKeys":1,"Block":1,"Trial":17,"Action":"Go","Robot":1,"trial_type":"pit-trial","trial_index":29,"time_elapsed":247601,"internal_node_id":"0.0-29.0"},{"Valence":"Lose","Color":"#3366ff99","Rune":"03","Correct":32,"Choice":32,"RT":599.6050000030664,"Accuracy":1,"Sham":0,"Outcome":"-1","Keys":[2100.845000000845],"TotalKeys":1,"Block":1,"Trial":18,"Action":"Go","Robot":3,"trial_type":"pit-trial","trial_index":30,"time_elapsed":250705,"internal_node_id":"0.0-30.0"},{"Valence":"Win","Color":"#ffcc3399","Rune":"06","Correct":-1,"Choice":32,"RT":431.5999999962514,"Accuracy":0,"Sham":1,"Outcome":"+10","Keys":[1932.9450000004726],"TotalKeys":1,"Block":1,"Trial":19,"Action":"No-Go","Robot":2,"trial_type":"pit-trial","trial_index":31,"time_elapsed":253641,"internal_node_id":"0.0-31.0"},{"Valence":"Lose","Color":"#3366ff99","Rune":"05","Correct":-1,"Choice":-1,"RT":-1,"Accuracy":1,"Sham":0,"Outcome":"-1","Keys":[],"TotalKeys":0,"Block":1,"Trial":20,"Action":"No-Go","Robot":4,"trial_type":"pit-trial","trial_index":32,"time_elapsed":257645,"internal_node_id":"0.0-32.0"},{"Valence":"Lose","Color":"#3366ff99","Rune":"05","Correct":-1,"Choice":-1,"RT":-1,"Accuracy":1,"Sham":0,"Outcome":"-1","Keys":[],"TotalKeys":0,"Block":1,"Trial":21,"Action":"No-Go","Robot":4,"trial_type":"pit-trial","trial_index":33,"time_elapsed":261650,"internal_node_id":"0.0-33.0"},{"Valence":"Win","Color":"#ffcc3399","Rune":"06","Correct":-1,"Choice":32,"RT":519.2150000003166,"Accuracy":0,"Sham":0,"Outcome":"+1","Keys":[2019.5350000066683],"TotalKeys":1,"Block":1,"Trial":22,"Action":"No-Go","Robot":2,"trial_type":"pit-trial","trial_index":34,"time_elapsed":264673,"internal_node_id":"0.0-34.0"},{"Valence":"Win","Color":"#ffcc3399","Rune":"04","Correct":32,"Choice":32,"RT":663.030000003404,"Accuracy":1,"Sham":0,"Outcome":"+10","Keys":[2163.6250000010477],"TotalKeys":1,"Block":1,"Trial":23,"Action":"Go","Robot":1,"trial_type":"pit-trial","trial_index":35,"time_elapsed":267841,"internal_node_id":"0.0-35.0"},{"Valence":"Lose","Color":"#3366ff99","Rune":"03","Correct":32,"Choice":-1,"RT":-1,"Accuracy":0,"Sham":0,"Outcome":"-10","Keys":[],"TotalKeys":0,"Block":1,"Trial":24,"Action":"Go","Robot":3,"trial_type":"pit-trial","trial_index":36,"time_elapsed":271847,"internal_node_id":"0.0-36.0"},{"Valence":"Lose","Color":"#3366ff99","Rune":"05","Correct":-1,"Choice":32,"RT":592.225000000326,"Accuracy":0,"Sham":0,"Outcome":"-10","Keys":[2092.465000001597],"TotalKeys":1,"Block":1,"Trial":25,"Action":"No-Go","Robot":4,"trial_type":"pit-trial","trial_index":37,"time_elapsed":274945,"internal_node_id":"0.0-37.0"},{"Valence":"Win","Color":"#ffcc3399","Rune":"04","Correct":32,"Choice":32,"RT":525.8800000010524,"Accuracy":1,"Sham":0,"Outcome":"+10","Keys":[2027.7199999982258],"TotalKeys":1,"Block":1,"Trial":26,"Action":"Go","Robot":1,"trial_type":"pit-trial","trial_index":38,"time_elapsed":277976,"internal_node_id":"0.0-38.0"},{"Valence":"Lose","Color":"#3366ff99","Rune":"03","Correct":32,"Choice":-1,"RT":-1,"Accuracy":0,"Sham":0,"Outcome":"-10","Keys":[],"TotalKeys":0,"Block":1,"Trial":27,"Action":"Go","Robot":3,"trial_type":"pit-trial","trial_index":39,"time_elapsed":281981,"internal_node_id":"0.0-39.0"},{"Valence":"Win","Color":"#ffcc3399","Rune":"06","Correct":-1,"Choice":32,"RT":523.2550000001211,"Accuracy":0,"Sham":0,"Outcome":"+1","Keys":[2024.199999999837],"TotalKeys":1,"Block":1,"Trial":28,"Action":"No-Go","Robot":2,"trial_type":"pit-trial","trial_index":40,"time_elapsed":285009,"internal_node_id":"0.0-40.0"},{"Valence":"Lose","Color":"#3366ff99","Rune":"03","Correct":32,"Choice":32,"RT":574.8049999965588,"Accuracy":1,"Sham":0,"Outcome":"-1","Keys":[2075.3200000035577],"TotalKeys":1,"Block":1,"Trial":29,"Action":"Go","Robot":3,"trial_type":"pit-trial","trial_index":41,"time_elapsed":288089,"internal_node_id":"0.0-41.0"},{"Valence":"Win","Color":"#ffcc3399","Rune":"06","Correct":-1,"Choice":32,"RT":510.6999999989057,"Accuracy":0,"Sham":1,"Outcome":"+10","Keys":[2011.7000000027474],"TotalKeys":1,"Block":1,"Trial":30,"Action":"No-Go","Robot":2,"trial_type":"pit-trial","trial_index":42,"time_elapsed":291105,"internal_node_id":"0.0-42.0"},{"Valence":"Win","Color":"#ffcc3399","Rune":"04","Correct":32,"Choice":32,"RT":574.6300000027986,"Accuracy":1,"Sham":1,"Outcome":"1","Keys":[2076.6900000016904],"TotalKeys":1,"Block":1,"Trial":31,"Action":"Go","Robot":1,"trial_type":"pit-trial","trial_index":43,"time_elapsed":294185,"internal_node_id":"0.0-43.0"},{"Valence":"Lose","Color":"#3366ff99","Rune":"05","Correct":-1,"Choice":32,"RT":855.4199999999255,"Accuracy":0,"Sham":0,"Outcome":"-10","Keys":[2356.39999999688],"TotalKeys":1,"Block":1,"Trial":32,"Action":"No-Go","Robot":4,"trial_type":"pit-trial","trial_index":44,"time_elapsed":297545,"internal_node_id":"0.0-44.0"},{"Valence":"Lose","Color":"#3366ff99","Rune":"05","Correct":-1,"Choice":32,"RT":464.37000000150874,"Accuracy":0,"Sham":0,"Outcome":"-10","Keys":[1964.735000001383],"TotalKeys":1,"Block":1,"Trial":33,"Action":"No-Go","Robot":4,"trial_type":"pit-trial","trial_index":45,"time_elapsed":300513,"internal_node_id":"0.0-45.0"},{"Valence":"Win","Color":"#ffcc3399","Rune":"06","Correct":-1,"Choice":32,"RT":591.0949999961304,"Accuracy":0,"Sham":0,"Outcome":"+1","Keys":[2091.8800000000047],"TotalKeys":1,"Block":1,"Trial":34,"Action":"No-Go","Robot":2,"trial_type":"pit-trial","trial_index":46,"time_elapsed":303609,"internal_node_id":"0.0-46.0"},{"Valence":"Win","Color":"#ffcc3399","Rune":"04","Correct":32,"Choice":32,"RT":486.1399999936111,"Accuracy":1,"Sham":0,"Outcome":"+10","Keys":[1987.3750000043074],"TotalKeys":1,"Block":1,"Trial":35,"Action":"Go","Robot":1,"trial_type":"pit-trial","trial_index":47,"time_elapsed":306601,"internal_node_id":"0.0-47.0"},{"Valence":"Lose","Color":"#3366ff99","Rune":"03","Correct":32,"Choice":32,"RT":510.98500000080094,"Accuracy":1,"Sham":1,"Outcome":"-10","Keys":[2012.2150000024121],"TotalKeys":1,"Block":1,"Trial":36,"Action":"Go","Robot":3,"trial_type":"pit-trial","trial_index":48,"time_elapsed":309618,"internal_node_id":"0.0-48.0"},{"Valence":"Lose","Color":"#3366ff99","Rune":"05","Correct":-1,"Choice":32,"RT":725.5799999984447,"Accuracy":0,"Sham":1,"Outcome":"-1","Keys":[2227.1399999953574],"TotalKeys":1,"Block":1,"Trial":37,"Action":"No-Go","Robot":4,"trial_type":"pit-trial","trial_index":49,"time_elapsed":312849,"internal_node_id":"0.0-49.0"},{"Valence":"Lose","Color":"#3366ff99","Rune":"03","Correct":32,"Choice":32,"RT":663.6549999966519,"Accuracy":1,"Sham":0,"Outcome":"-1","Keys":[2164.055000001099],"TotalKeys":1,"Block":1,"Trial":38,"Action":"Go","Robot":3,"trial_type":"pit-trial","trial_index":50,"time_elapsed":316017,"internal_node_id":"0.0-50.0"},{"Valence":"Win","Color":"#ffcc3399","Rune":"04","Correct":32,"Choice":32,"RT":448.34000000264496,"Accuracy":1,"Sham":0,"Outcome":"+10","Keys":[1948.6450000040932],"TotalKeys":1,"Block":1,"Trial":39,"Action":"Go","Robot":1,"trial_type":"pit-trial","trial_index":51,"time_elapsed":318969,"internal_node_id":"0.0-51.0"},{"Valence":"Win","Color":"#ffcc3399","Rune":"06","Correct":-1,"Choice":32,"RT":455.24000000290107,"Accuracy":0,"Sham":0,"Outcome":"+1","Keys":[1956.5500000026077],"TotalKeys":1,"Block":1,"Trial":40,"Action":"No-Go","Robot":2,"trial_type":"pit-trial","trial_index":52,"time_elapsed":321929,"internal_node_id":"0.0-52.0"},{"Valence":"Lose","Color":"#3366ff99","Rune":"03","Correct":32,"Choice":32,"RT":560.0099999937229,"Accuracy":1,"Sham":1,"Outcome":"-10","Keys":[2060.335000001942],"TotalKeys":1,"Block":1,"Trial":41,"Action":"Go","Robot":3,"trial_type":"pit-trial","trial_index":53,"time_elapsed":324993,"internal_node_id":"0.0-53.0"},{"Valence":"Win","Color":"#ffcc3399","Rune":"06","Correct":-1,"Choice":32,"RT":438.6949999971548,"Accuracy":0,"Sham":0,"Outcome":"+1","Keys":[1940.0500000047032],"TotalKeys":1,"Block":1,"Trial":42,"Action":"No-Go","Robot":2,"trial_type":"pit-trial","trial_index":54,"time_elapsed":327937,"internal_node_id":"0.0-54.0"},{"Valence":"Lose","Color":"#3366ff99","Rune":"05","Correct":-1,"Choice":32,"RT":598.9300000001676,"Accuracy":0,"Sham":0,"Outcome":"-10","Keys":[2099.950000003446],"TotalKeys":1,"Block":1,"Trial":43,"Action":"No-Go","Robot":4,"trial_type":"pit-trial","trial_index":55,"time_elapsed":331041,"internal_node_id":"0.0-55.0"},{"Valence":"Win","Color":"#ffcc3399","Rune":"04","Correct":32,"Choice":32,"RT":407.85499999765307,"Accuracy":1,"Sham":0,"Outcome":"+10","Keys":[1908.0350000003818],"TotalKeys":1,"Block":1,"Trial":44,"Action":"Go","Robot":1,"trial_type":"pit-trial","trial_index":56,"time_elapsed":333953,"internal_node_id":"0.0-56.0"},{"Valence":"Lose","Color":"#3366ff99","Rune":"05","Correct":-1,"Choice":-1,"RT":-1,"Accuracy":1,"Sham":0,"Outcome":"-1","Keys":[],"TotalKeys":0,"Block":1,"Trial":45,"Action":"No-Go","Robot":4,"trial_type":"pit-trial","trial_index":57,"time_elapsed":337957,"internal_node_id":"0.0-57.0"},{"Valence":"Win","Color":"#ffcc3399","Rune":"06","Correct":-1,"Choice":32,"RT":466.78999999864027,"Accuracy":0,"Sham":1,"Outcome":"+10","Keys":[1967.5750000023982],"TotalKeys":1,"Block":1,"Trial":46,"Action":"No-Go","Robot":2,"trial_type":"pit-trial","trial_index":58,"time_elapsed":340929,"internal_node_id":"0.0-58.0"},{"Valence":"Lose","Color":"#3366ff99","Rune":"03","Correct":32,"Choice":32,"RT":605.6400000016438,"Accuracy":1,"Sham":0,"Outcome":"-1","Keys":[2106.6849999988917],"TotalKeys":1,"Block":1,"Trial":47,"Action":"Go","Robot":3,"trial_type":"pit-trial","trial_index":59,"time_elapsed":344041,"internal_node_id":"0.0-59.0"},{"Valence":"Win","Color":"#ffcc3399","Rune":"04","Correct":32,"Choice":32,"RT":494.61999999766704,"Accuracy":1,"Sham":0,"Outcome":"+10","Keys":[1996.1350000011735],"TotalKeys":1,"Block":1,"Trial":48,"Action":"Go","Robot":1,"trial_type":"pit-trial","trial_index":60,"time_elapsed":347041,"internal_node_id":"0.0-60.0"},{"Valence":"Lose","Color":"#3366ff99","Rune":"05","Correct":-1,"Choice":-1,"RT":-1,"Accuracy":1,"Sham":0,"Outcome":"-1","Keys":[],"TotalKeys":0,"Block":1,"Trial":49,"Action":"No-Go","Robot":4,"trial_type":"pit-trial","trial_index":61,"time_elapsed":351045,"internal_node_id":"0.0-61.0"},{"Valence":"Win","Color":"#ffcc3399","Rune":"04","Correct":32,"Choice":32,"RT":379.09500000381377,"Accuracy":1,"Sham":0,"Outcome":"+10","Keys":[1880.5500000016764],"TotalKeys":1,"Block":1,"Trial":50,"Action":"Go","Robot":1,"trial_type":"pit-trial","trial_index":62,"time_elapsed":353930,"internal_node_id":"0.0-62.0"},{"Valence":"Win","Color":"#ffcc3399","Rune":"06","Correct":-1,"Choice":32,"RT":446.4650000008987,"Accuracy":0,"Sham":0,"Outcome":"+1","Keys":[1947.1699999994598],"TotalKeys":1,"Block":1,"Trial":51,"Action":"No-Go","Robot":2,"trial_type":"pit-trial","trial_index":63,"time_elapsed":356881,"internal_node_id":"0.0-63.0"},{"Valence":"Lose","Color":"#3366ff99","Rune":"03","Correct":32,"Choice":32,"RT":743.1600000053877,"Accuracy":1,"Sham":0,"Outcome":"-1","Keys":[2243.7300000019604],"TotalKeys":1,"Block":1,"Trial":52,"Action":"Go","Robot":3,"trial_type":"pit-trial","trial_index":64,"time_elapsed":360128,"internal_node_id":"0.0-64.0"},{"Valence":"Win","Color":"#ffcc3399","Rune":"06","Correct":-1,"Choice":32,"RT":399.3300000001909,"Accuracy":0,"Sham":0,"Outcome":"+1","Keys":[1900.920000000042],"TotalKeys":1,"Block":1,"Trial":53,"Action":"No-Go","Robot":2,"trial_type":"pit-trial","trial_index":65,"time_elapsed":363032,"internal_node_id":"0.0-65.0"},{"Valence":"Lose","Color":"#3366ff99","Rune":"03","Correct":32,"Choice":32,"RT":504.03499999805354,"Accuracy":1,"Sham":0,"Outcome":"-1","Keys":[2004.4100000014296],"TotalKeys":1,"Block":1,"Trial":54,"Action":"Go","Robot":3,"trial_type":"pit-trial","trial_index":66,"time_elapsed":366041,"internal_node_id":"0.0-66.0"},{"Valence":"Lose","Color":"#3366ff99","Rune":"05","Correct":-1,"Choice":-1,"RT":-1,"Accuracy":1,"Sham":0,"Outcome":"-1","Keys":[],"TotalKeys":0,"Block":1,"Trial":55,"Action":"No-Go","Robot":4,"trial_type":"pit-trial","trial_index":67,"time_elapsed":370045,"internal_node_id":"0.0-67.0"},{"Valence":"Win","Color":"#ffcc3399","Rune":"04","Correct":32,"Choice":32,"RT":507.32000000425614,"Accuracy":1,"Sham":0,"Outcome":"+10","Keys":[2007.690000005765],"TotalKeys":1,"Block":1,"Trial":56,"Action":"Go","Robot":1,"trial_type":"pit-trial","trial_index":68,"time_elapsed":373056,"internal_node_id":"0.0-68.0"},{"Valence":"Win","Color":"#ffcc3399","Rune":"04","Correct":32,"Choice":32,"RT":368.09999999962747,"Accuracy":1,"Sham":1,"Outcome":"1","Keys":[1868.3450000026496],"TotalKeys":1,"Block":1,"Trial":57,"Action":"Go","Robot":1,"trial_type":"pit-trial","trial_index":69,"time_elapsed":375928,"internal_node_id":"0.0-69.0"},{"Valence":"Lose","Color":"#3366ff99","Rune":"03","Correct":32,"Choice":32,"RT":550.8449999978766,"Accuracy":1,"Sham":0,"Outcome":"-1","Keys":[2051.929999994114],"TotalKeys":1,"Block":1,"Trial":58,"Action":"Go","Robot":3,"trial_type":"pit-trial","trial_index":70,"time_elapsed":378984,"internal_node_id":"0.0-70.0"},{"Valence":"Lose","Color":"#3366ff99","Rune":"05","Correct":-1,"Choice":-1,"RT":-1,"Accuracy":1,"Sham":1,"Outcome":"-10","Keys":[],"TotalKeys":0,"Block":1,"Trial":59,"Action":"No-Go","Robot":4,"trial_type":"pit-trial","trial_index":71,"time_elapsed":382988,"internal_node_id":"0.0-71.0"},{"Valence":"Win","Color":"#ffcc3399","Rune":"06","Correct":-1,"Choice":32,"RT":627.5300000051502,"Accuracy":0,"Sham":0,"Outcome":"+1","Keys":[2127.5949999981094],"TotalKeys":1,"Block":1,"Trial":60,"Action":"No-Go","Robot":2,"trial_type":"pit-trial","trial_index":72,"time_elapsed":386120,"internal_node_id":"0.0-72.0"},{"Valence":"Win","Color":"#ffcc3399","Rune":"06","Correct":-1,"Choice":32,"RT":335.9249999993481,"Accuracy":0,"Sham":0,"Outcome":"+1","Keys":[1837.1850000038976],"TotalKeys":1,"Block":1,"Trial":61,"Action":"No-Go","Robot":2,"trial_type":"pit-trial","trial_index":73,"time_elapsed":388962,"internal_node_id":"0.0-73.0"},{"Valence":"Lose","Color":"#3366ff99","Rune":"03","Correct":32,"Choice":32,"RT":540.2649999960558,"Accuracy":1,"Sham":0,"Outcome":"-1","Keys":[2041.2749999959487],"TotalKeys":1,"Block":1,"Trial":62,"Action":"Go","Robot":3,"trial_type":"pit-trial","trial_index":74,"time_elapsed":392008,"internal_node_id":"0.0-74.0"},{"Valence":"Lose","Color":"#3366ff99","Rune":"05","Correct":-1,"Choice":32,"RT":991.0799999997253,"Accuracy":0,"Sham":0,"Outcome":"-10","Keys":[2492.310000001453],"TotalKeys":1,"Block":1,"Trial":63,"Action":"No-Go","Robot":4,"trial_type":"pit-trial","trial_index":75,"time_elapsed":395504,"internal_node_id":"0.0-75.0"},{"Valence":"Win","Color":"#ffcc3399","Rune":"04","Correct":32,"Choice":32,"RT":409.44499999750406,"Accuracy":1,"Sham":0,"Outcome":"+10","Keys":[1909.8000000012107],"TotalKeys":1,"Block":1,"Trial":64,"Action":"Go","Robot":1,"trial_type":"pit-trial","trial_index":76,"time_elapsed":398417,"internal_node_id":"0.0-76.0"},{"Valence":"Win","Color":"#ffcc3399","Rune":"06","Correct":-1,"Choice":32,"RT":421.81499999423977,"Accuracy":0,"Sham":0,"Outcome":"+1","Keys":[1922.7549999996554],"TotalKeys":1,"Block":1,"Trial":65,"Action":"No-Go","Robot":2,"trial_type":"pit-trial","trial_index":77,"time_elapsed":401343,"internal_node_id":"0.0-77.0"},{"Valence":"Lose","Color":"#3366ff99","Rune":"05","Correct":-1,"Choice":-1,"RT":-1,"Accuracy":1,"Sham":0,"Outcome":"-1","Keys":[],"TotalKeys":0,"Block":1,"Trial":66,"Action":"No-Go","Robot":4,"trial_type":"pit-trial","trial_index":78,"time_elapsed":405348,"internal_node_id":"0.0-78.0"},{"Valence":"Win","Color":"#ffcc3399","Rune":"04","Correct":32,"Choice":32,"RT":383.8450000039302,"Accuracy":1,"Sham":1,"Outcome":"1","Keys":[1885.4599999977509],"TotalKeys":1,"Block":1,"Trial":67,"Action":"Go","Robot":1,"trial_type":"pit-trial","trial_index":79,"time_elapsed":408239,"internal_node_id":"0.0-79.0"},{"Valence":"Lose","Color":"#3366ff99","Rune":"03","Correct":32,"Choice":32,"RT":360.8650000024354,"Accuracy":1,"Sham":0,"Outcome":"-1","Keys":[1861.1900000032037],"TotalKeys":1,"Block":1,"Trial":68,"Action":"Go","Robot":3,"trial_type":"pit-trial","trial_index":80,"time_elapsed":411103,"internal_node_id":"0.0-80.0"},{"Valence":"Lose","Color":"#3366ff99","Rune":"05","Correct":-1,"Choice":-1,"RT":-1,"Accuracy":1,"Sham":1,"Outcome":"-10","Keys":[],"TotalKeys":0,"Block":1,"Trial":69,"Action":"No-Go","Robot":4,"trial_type":"pit-trial","trial_index":81,"time_elapsed":415108,"internal_node_id":"0.0-81.0"},{"Valence":"Lose","Color":"#3366ff99","Rune":"03","Correct":32,"Choice":32,"RT":465.9250000040047,"Accuracy":1,"Sham":0,"Outcome":"-1","Keys":[1967.645000004326],"TotalKeys":1,"Block":1,"Trial":70,"Action":"Go","Robot":3,"trial_type":"pit-trial","trial_index":82,"time_elapsed":418079,"internal_node_id":"0.0-82.0"},{"Valence":"Win","Color":"#ffcc3399","Rune":"04","Correct":32,"Choice":32,"RT":439.7300000054529,"Accuracy":1,"Sham":0,"Outcome":"+10","Keys":[1940.804999998305],"TotalKeys":1,"Block":1,"Trial":71,"Action":"Go","Robot":1,"trial_type":"pit-trial","trial_index":83,"time_elapsed":421023,"internal_node_id":"0.0-83.0"},{"Valence":"Win","Color":"#ffcc3399","Rune":"06","Correct":-1,"Choice":32,"RT":360.5200000019977,"Accuracy":0,"Sham":0,"Outcome":"+1","Keys":[1860.8600000006845],"TotalKeys":1,"Block":1,"Trial":72,"Action":"No-Go","Robot":2,"trial_type":"pit-trial","trial_index":84,"time_elapsed":423888,"internal_node_id":"0.0-84.0"},{"Valence":"Win","Color":"#ffcc3399","Rune":"06","Correct":-1,"Choice":32,"RT":390.2200000011362,"Accuracy":0,"Sham":0,"Outcome":"+1","Keys":[1892.195000000298],"TotalKeys":1,"Block":1,"Trial":73,"Action":"No-Go","Robot":2,"trial_type":"pit-trial","trial_index":85,"time_elapsed":426784,"internal_node_id":"0.0-85.0"},{"Valence":"Lose","Color":"#3366ff99","Rune":"03","Correct":32,"Choice":32,"RT":510.09499999776017,"Accuracy":1,"Sham":1,"Outcome":"-10","Keys":[2011.8000000002794],"TotalKeys":1,"Block":1,"Trial":74,"Action":"Go","Robot":3,"trial_type":"pit-trial","trial_index":86,"time_elapsed":429800,"internal_node_id":"0.0-86.0"},{"Valence":"Win","Color":"#ffcc3399","Rune":"04","Correct":32,"Choice":32,"RT":366.79000000003725,"Accuracy":1,"Sham":0,"Outcome":"+10","Keys":[1867.2149999983376],"TotalKeys":1,"Block":1,"Trial":75,"Action":"Go","Robot":1,"trial_type":"pit-trial","trial_index":87,"time_elapsed":432671,"internal_node_id":"0.0-87.0"},{"Valence":"Lose","Color":"#3366ff99","Rune":"05","Correct":-1,"Choice":-1,"RT":-1,"Accuracy":1,"Sham":0,"Outcome":"-1","Keys":[],"TotalKeys":0,"Block":1,"Trial":76,"Action":"No-Go","Robot":4,"trial_type":"pit-trial","trial_index":88,"time_elapsed":436674,"internal_node_id":"0.0-88.0"},{"Valence":"Win","Color":"#ffcc3399","Rune":"06","Correct":-1,"Choice":32,"RT":436.90000000060536,"Accuracy":0,"Sham":1,"Outcome":"+10","Keys":[1938.2250000053318],"TotalKeys":1,"Block":1,"Trial":77,"Action":"No-Go","Robot":2,"trial_type":"pit-trial","trial_index":89,"time_elapsed":439616,"internal_node_id":"0.0-89.0"},{"Valence":"Win","Color":"#ffcc3399","Rune":"04","Correct":32,"Choice":32,"RT":366.7349999959115,"Accuracy":1,"Sham":0,"Outcome":"+10","Keys":[1867.930000000284],"TotalKeys":1,"Block":1,"Trial":78,"Action":"Go","Robot":1,"trial_type":"pit-trial","trial_index":90,"time_elapsed":442488,"internal_node_id":"0.0-90.0"},{"Valence":"Lose","Color":"#3366ff99","Rune":"05","Correct":-1,"Choice":-1,"RT":-1,"Accuracy":1,"Sham":0,"Outcome":"-1","Keys":[],"TotalKeys":0,"Block":1,"Trial":79,"Action":"No-Go","Robot":4,"trial_type":"pit-trial","trial_index":91,"time_elapsed":446494,"internal_node_id":"0.0-91.0"},{"Valence":"Lose","Color":"#3366ff99","Rune":"03","Correct":32,"Choice":32,"RT":456.4150000005029,"Accuracy":1,"Sham":0,"Outcome":"-1","Keys":[1957.4100000027101],"TotalKeys":1,"Block":1,"Trial":80,"Action":"Go","Robot":3,"trial_type":"pit-trial","trial_index":92,"time_elapsed":449455,"internal_node_id":"0.0-92.0"},{"value":false,"trial_type":"call-function","trial_index":93,"time_elapsed":449457,"internal_node_id":"0.0-93.0"},{"RT":16309.700000005309,"trial_type":"pit-pause","trial_index":94,"time_elapsed":469029,"internal_node_id":"0.0-94.0"},{"Valence":"Win","Color":"#ffcc3399","Rune":"04","Correct":32,"Choice":32,"RT":338.0600000019185,"Accuracy":1,"Sham":0,"Outcome":"+10","Keys":[1838.179999998887],"TotalKeys":1,"Block":2,"Trial":81,"Action":"Go","Robot":1,"trial_type":"pit-trial","trial_index":95,"time_elapsed":471871,"internal_node_id":"0.0-95.0"},{"Valence":"Win","Color":"#ffcc3399","Rune":"06","Correct":-1,"Choice":32,"RT":399.74500000244007,"Accuracy":0,"Sham":0,"Outcome":"+1","Keys":[1899.8700000011595],"TotalKeys":1,"Block":2,"Trial":82,"Action":"No-Go","Robot":2,"trial_type":"pit-trial","trial_index":96,"time_elapsed":474775,"internal_node_id":"0.0-96.0"},{"Valence":"Lose","Color":"#3366ff99","Rune":"05","Correct":-1,"Choice":-1,"RT":-1,"Accuracy":1,"Sham":0,"Outcome":"-1","Keys":[],"TotalKeys":0,"Block":2,"Trial":83,"Action":"No-Go","Robot":4,"trial_type":"pit-trial","trial_index":97,"time_elapsed":478780,"internal_node_id":"0.0-97.0"},{"Valence":"Lose","Color":"#3366ff99","Rune":"03","Correct":32,"Choice":32,"RT":434.73500000254717,"Accuracy":1,"Sham":0,"Outcome":"-1","Keys":[1935.089999999036],"TotalKeys":1,"Block":2,"Trial":84,"Action":"Go","Robot":3,"trial_type":"pit-trial","trial_index":98,"time_elapsed":481719,"internal_node_id":"0.0-98.0"},{"Valence":"Win","Color":"#ffcc3399","Rune":"04","Correct":32,"Choice":32,"RT":398.58499999542255,"Accuracy":1,"Sham":0,"Outcome":"+10","Keys":[1899.7400000008056],"TotalKeys":1,"Block":2,"Trial":85,"Action":"Go","Robot":1,"trial_type":"pit-trial","trial_index":99,"time_elapsed":484623,"internal_node_id":"0.0-99.0"},{"Valence":"Win","Color":"#ffcc3399","Rune":"06","Correct":-1,"Choice":32,"RT":431.349999998929,"Accuracy":0,"Sham":0,"Outcome":"+1","Keys":[1932.4950000009267],"TotalKeys":1,"Block":2,"Trial":86,"Action":"No-Go","Robot":2,"trial_type":"pit-trial","trial_index":100,"time_elapsed":487560,"internal_node_id":"0.0-100.0"},{"Valence":"Lose","Color":"#3366ff99","Rune":"03","Correct":32,"Choice":32,"RT":371.9550000024028,"Accuracy":1,"Sham":0,"Outcome":"-1","Keys":[1873.684999998659],"TotalKeys":1,"Block":2,"Trial":87,"Action":"Go","Robot":3,"trial_type":"pit-trial","trial_index":101,"time_elapsed":490438,"internal_node_id":"0.0-101.0"},{"Valence":"Lose","Color":"#3366ff99","Rune":"05","Correct":-1,"Choice":-1,"RT":-1,"Accuracy":1,"Sham":0,"Outcome":"-1","Keys":[],"TotalKeys":0,"Block":2,"Trial":88,"Action":"No-Go","Robot":4,"trial_type":"pit-trial","trial_index":102,"time_elapsed":494443,"internal_node_id":"0.0-102.0"},{"Valence":"Lose","Color":"#3366ff99","Rune":"03","Correct":32,"Choice":32,"RT":516.2500000005821,"Accuracy":1,"Sham":1,"Outcome":"-10","Keys":[2016.6449999960605],"TotalKeys":1,"Block":2,"Trial":89,"Action":"Go","Robot":3,"trial_type":"pit-trial","trial_index":103,"time_elapsed":497464,"internal_node_id":"0.0-103.0"},{"Valence":"Win","Color":"#ffcc3399","Rune":"04","Correct":32,"Choice":32,"RT":446.23999999754597,"Accuracy":1,"Sham":1,"Outcome":"1","Keys":[1946.4100000041071],"TotalKeys":1,"Block":2,"Trial":90,"Action":"Go","Robot":1,"trial_type":"pit-trial","trial_index":104,"time_elapsed":500414,"internal_node_id":"0.0-104.0"},{"Valence":"Win","Color":"#ffcc3399","Rune":"06","Correct":-1,"Choice":32,"RT":391.5199999973411,"Accuracy":0,"Sham":0,"Outcome":"+1","Keys":[1891.8999999950174],"TotalKeys":1,"Block":2,"Trial":91,"Action":"No-Go","Robot":2,"trial_type":"pit-trial","trial_index":105,"time_elapsed":503311,"internal_node_id":"0.0-105.0"},{"Valence":"Lose","Color":"#3366ff99","Rune":"05","Correct":-1,"Choice":-1,"RT":-1,"Accuracy":1,"Sham":0,"Outcome":"-1","Keys":[],"TotalKeys":0,"Block":2,"Trial":92,"Action":"No-Go","Robot":4,"trial_type":"pit-trial","trial_index":106,"time_elapsed":507316,"internal_node_id":"0.0-106.0"},{"Valence":"Lose","Color":"#3366ff99","Rune":"05","Correct":-1,"Choice":-1,"RT":-1,"Accuracy":1,"Sham":0,"Outcome":"-1","Keys":[],"TotalKeys":0,"Block":2,"Trial":93,"Action":"No-Go","Robot":4,"trial_type":"pit-trial","trial_index":107,"time_elapsed":511321,"internal_node_id":"0.0-107.0"},{"Valence":"Win","Color":"#ffcc3399","Rune":"04","Correct":32,"Choice":32,"RT":413.9649999997346,"Accuracy":1,"Sham":0,"Outcome":"+10","Keys":[1914.0900000056718],"TotalKeys":1,"Block":2,"Trial":94,"Action":"Go","Robot":1,"trial_type":"pit-trial","trial_index":108,"time_elapsed":514238,"internal_node_id":"0.0-108.0"},{"Valence":"Lose","Color":"#3366ff99","Rune":"03","Correct":32,"Choice":32,"RT":1053.5549999986542,"Accuracy":1,"Sham":0,"Outcome":"-1","Keys":[2555.2800000004936],"TotalKeys":1,"Block":2,"Trial":95,"Action":"Go","Robot":3,"trial_type":"pit-trial","trial_index":109,"time_elapsed":517798,"internal_node_id":"0.0-109.0"},{"Valence":"Win","Color":"#ffcc3399","Rune":"06","Correct":-1,"Choice":32,"RT":327.7349999989383,"Accuracy":0,"Sham":1,"Outcome":"+10","Keys":[1828.880000000936],"TotalKeys":1,"Block":2,"Trial":96,"Action":"No-Go","Robot":2,"trial_type":"pit-trial","trial_index":110,"time_elapsed":520630,"internal_node_id":"0.0-110.0"},{"Valence":"Lose","Color":"#3366ff99","Rune":"05","Correct":-1,"Choice":-1,"RT":-1,"Accuracy":1,"Sham":1,"Outcome":"-10","Keys":[],"TotalKeys":0,"Block":2,"Trial":97,"Action":"No-Go","Robot":4,"trial_type":"pit-trial","trial_index":111,"time_elapsed":524634,"internal_node_id":"0.0-111.0"},{"Valence":"Win","Color":"#ffcc3399","Rune":"04","Correct":32,"Choice":32,"RT":362.509999999078,"Accuracy":1,"Sham":0,"Outcome":"+10","Keys":[1864.0350000059698],"TotalKeys":1,"Block":2,"Trial":98,"Action":"Go","Robot":1,"trial_type":"pit-trial","trial_index":112,"time_elapsed":527502,"internal_node_id":"0.0-112.0"},{"Valence":"Lose","Color":"#3366ff99","Rune":"03","Correct":32,"Choice":32,"RT":518.2050000003073,"Accuracy":1,"Sham":0,"Outcome":"-1","Keys":[2019.5900000035763],"TotalKeys":1,"Block":2,"Trial":99,"Action":"Go","Robot":3,"trial_type":"pit-trial","trial_index":113,"time_elapsed":530526,"internal_node_id":"0.0-113.0"},{"Valence":"Win","Color":"#ffcc3399","Rune":"06","Correct":-1,"Choice":32,"RT":504.2749999993248,"Accuracy":0,"Sham":0,"Outcome":"+1","Keys":[2005.4950000048848],"TotalKeys":1,"Block":2,"Trial":100,"Action":"No-Go","Robot":2,"trial_type":"pit-trial","trial_index":114,"time_elapsed":533536,"internal_node_id":"0.0-114.0"},{"Valence":"Lose","Color":"#3366ff99","Rune":"05","Correct":-1,"Choice":-1,"RT":-1,"Accuracy":1,"Sham":0,"Outcome":"-1","Keys":[],"TotalKeys":0,"Block":2,"Trial":101,"Action":"No-Go","Robot":4,"trial_type":"pit-trial","trial_index":115,"time_elapsed":537542,"internal_node_id":"0.0-115.0"},{"Valence":"Lose","Color":"#3366ff99","Rune":"03","Correct":32,"Choice":32,"RT":318.80500000261236,"Accuracy":1,"Sham":0,"Outcome":"-1","Keys":[1820.5349999988684],"TotalKeys":1,"Block":2,"Trial":102,"Action":"Go","Robot":3,"trial_type":"pit-trial","trial_index":116,"time_elapsed":540367,"internal_node_id":"0.0-116.0"},{"Valence":"Win","Color":"#ffcc3399","Rune":"04","Correct":32,"Choice":32,"RT":367.995000000461,"Accuracy":1,"Sham":1,"Outcome":"1","Keys":[1868.3349999991478],"TotalKeys":1,"Block":2,"Trial":103,"Action":"Go","Robot":1,"trial_type":"pit-trial","trial_index":117,"time_elapsed":543239,"internal_node_id":"0.0-117.0"},{"Valence":"Win","Color":"#ffcc3399","Rune":"06","Correct":-1,"Choice":32,"RT":375.71500000194646,"Accuracy":0,"Sham":1,"Outcome":"+10","Keys":[1875.919999998645],"TotalKeys":1,"Block":2,"Trial":104,"Action":"No-Go","Robot":2,"trial_type":"pit-trial","trial_index":118,"time_elapsed":546118,"internal_node_id":"0.0-118.0"},{"Valence":"Lose","Color":"#3366ff99","Rune":"03","Correct":32,"Choice":32,"RT":480.49499999615364,"Accuracy":1,"Sham":0,"Outcome":"-1","Keys":[1980.7899999941],"TotalKeys":1,"Block":2,"Trial":105,"Action":"Go","Robot":3,"trial_type":"pit-trial","trial_index":119,"time_elapsed":549102,"internal_node_id":"0.0-119.0"},{"Valence":"Win","Color":"#ffcc3399","Rune":"04","Correct":32,"Choice":32,"RT":360.97500000323635,"Accuracy":1,"Sham":0,"Outcome":"+10","Keys":[1861.8900000001304],"TotalKeys":1,"Block":2,"Trial":106,"Action":"Go","Robot":1,"trial_type":"pit-trial","trial_index":120,"time_elapsed":551968,"internal_node_id":"0.0-120.0"},{"Valence":"Win","Color":"#ffcc3399","Rune":"06","Correct":-1,"Choice":32,"RT":372.7350000044098,"Accuracy":0,"Sham":0,"Outcome":"+1","Keys":[1874.0449999968987],"TotalKeys":1,"Block":2,"Trial":107,"Action":"No-Go","Robot":2,"trial_type":"pit-trial","trial_index":121,"time_elapsed":554846,"internal_node_id":"0.0-121.0"},{"Valence":"Lose","Color":"#3366ff99","Rune":"05","Correct":-1,"Choice":-1,"RT":-1,"Accuracy":1,"Sham":0,"Outcome":"-1","Keys":[],"TotalKeys":0,"Block":2,"Trial":108,"Action":"No-Go","Robot":4,"trial_type":"pit-trial","trial_index":122,"time_elapsed":558851,"internal_node_id":"0.0-122.0"},{"Valence":"Win","Color":"#ffcc3399","Rune":"06","Correct":-1,"Choice":32,"RT":402.9850000005681,"Accuracy":0,"Sham":0,"Outcome":"+1","Keys":[1903.3899999995483],"TotalKeys":1,"Block":2,"Trial":109,"Action":"No-Go","Robot":2,"trial_type":"pit-trial","trial_index":123,"time_elapsed":561759,"internal_node_id":"0.0-123.0"},{"Valence":"Lose","Color":"#3366ff99","Rune":"05","Correct":-1,"Choice":-1,"RT":-1,"Accuracy":1,"Sham":0,"Outcome":"-1","Keys":[],"TotalKeys":0,"Block":2,"Trial":110,"Action":"No-Go","Robot":4,"trial_type":"pit-trial","trial_index":124,"time_elapsed":565764,"internal_node_id":"0.0-124.0"},{"Valence":"Win","Color":"#ffcc3399","Rune":"04","Correct":32,"Choice":32,"RT":385.2599999954691,"Accuracy":1,"Sham":0,"Outcome":"+10","Keys":[1886.5399999994552],"TotalKeys":1,"Block":2,"Trial":111,"Action":"Go","Robot":1,"trial_type":"pit-trial","trial_index":125,"time_elapsed":568654,"internal_node_id":"0.0-125.0"},{"Valence":"Lose","Color":"#3366ff99","Rune":"03","Correct":32,"Choice":32,"RT":522.4300000045914,"Accuracy":1,"Sham":0,"Outcome":"-1","Keys":[2023.1649999986403],"TotalKeys":1,"Block":2,"Trial":112,"Action":"Go","Robot":3,"trial_type":"pit-trial","trial_index":126,"time_elapsed":571683,"internal_node_id":"0.0-126.0"},{"Valence":"Win","Color":"#ffcc3399","Rune":"06","Correct":-1,"Choice":32,"RT":296.45000000158325,"Accuracy":0,"Sham":0,"Outcome":"+1","Keys":[1797.8999999978114],"TotalKeys":1,"Block":2,"Trial":113,"Action":"No-Go","Robot":2,"trial_type":"pit-trial","trial_index":127,"time_elapsed":574486,"internal_node_id":"0.0-127.0"},{"Valence":"Lose","Color":"#3366ff99","Rune":"05","Correct":-1,"Choice":-1,"RT":-1,"Accuracy":1,"Sham":0,"Outcome":"-1","Keys":[],"TotalKeys":0,"Block":2,"Trial":114,"Action":"No-Go","Robot":4,"trial_type":"pit-trial","trial_index":128,"time_elapsed":578492,"internal_node_id":"0.0-128.0"},{"Valence":"Lose","Color":"#3366ff99","Rune":"03","Correct":32,"Choice":32,"RT":425.49000000138767,"Accuracy":1,"Sham":1,"Outcome":"-10","Keys":[1926.3399999981048],"TotalKeys":1,"Block":2,"Trial":115,"Action":"Go","Robot":3,"trial_type":"pit-trial","trial_index":129,"time_elapsed":581422,"internal_node_id":"0.0-129.0"},{"Valence":"Win","Color":"#ffcc3399","Rune":"04","Correct":32,"Choice":32,"RT":311.0699999961071,"Accuracy":1,"Sham":0,"Outcome":"+10","Keys":[1811.7350000028964],"TotalKeys":1,"Block":2,"Trial":116,"Action":"Go","Robot":1,"trial_type":"pit-trial","trial_index":130,"time_elapsed":584238,"internal_node_id":"0.0-130.0"},{"Valence":"Lose","Color":"#3366ff99","Rune":"05","Correct":-1,"Choice":-1,"RT":-1,"Accuracy":1,"Sham":1,"Outcome":"-10","Keys":[],"TotalKeys":0,"Block":2,"Trial":117,"Action":"No-Go","Robot":4,"trial_type":"pit-trial","trial_index":131,"time_elapsed":588242,"internal_node_id":"0.0-131.0"},{"Valence":"Lose","Color":"#3366ff99","Rune":"03","Correct":32,"Choice":32,"RT":403.01000000175554,"Accuracy":1,"Sham":0,"Outcome":"-1","Keys":[1904.1900000011083],"TotalKeys":1,"Block":2,"Trial":118,"Action":"Go","Robot":3,"trial_type":"pit-trial","trial_index":132,"time_elapsed":591150,"internal_node_id":"0.0-132.0"},{"Valence":"Win","Color":"#ffcc3399","Rune":"06","Correct":-1,"Choice":32,"RT":375.7250000053318,"Accuracy":0,"Sham":0,"Outcome":"+1","Keys":[1876.0200000033947],"TotalKeys":1,"Block":2,"Trial":119,"Action":"No-Go","Robot":2,"trial_type":"pit-trial","trial_index":133,"time_elapsed":594029,"internal_node_id":"0.0-133.0"},{"Valence":"Win","Color":"#ffcc3399","Rune":"04","Correct":32,"Choice":32,"RT":365.75500000617467,"Accuracy":1,"Sham":0,"Outcome":"+10","Keys":[1868.3149999997113],"TotalKeys":1,"Block":2,"Trial":120,"Action":"Go","Robot":1,"trial_type":"pit-trial","trial_index":134,"time_elapsed":596902,"internal_node_id":"0.0-134.0"},{"Valence":"Win","Color":"#ffcc3399","Rune":"06","Correct":-1,"Choice":32,"RT":366.0200000012992,"Accuracy":0,"Sham":0,"Outcome":"+1","Keys":[1867.3600000038277],"TotalKeys":1,"Block":2,"Trial":121,"Action":"No-Go","Robot":2,"trial_type":"pit-trial","trial_index":135,"time_elapsed":599773,"internal_node_id":"0.0-135.0"},{"Valence":"Lose","Color":"#3366ff99","Rune":"05","Correct":-1,"Choice":-1,"RT":-1,"Accuracy":1,"Sham":0,"Outcome":"-1","Keys":[],"TotalKeys":0,"Block":2,"Trial":122,"Action":"No-Go","Robot":4,"trial_type":"pit-trial","trial_index":136,"time_elapsed":603779,"internal_node_id":"0.0-136.0"},{"Valence":"Lose","Color":"#3366ff99","Rune":"03","Correct":32,"Choice":32,"RT":533.8750000010477,"Accuracy":1,"Sham":0,"Outcome":"-1","Keys":[2034.9199999982957],"TotalKeys":1,"Block":2,"Trial":123,"Action":"Go","Robot":3,"trial_type":"pit-trial","trial_index":137,"time_elapsed":606821,"internal_node_id":"0.0-137.0"},{"Valence":"Win","Color":"#ffcc3399","Rune":"04","Correct":32,"Choice":32,"RT":295.2549999973271,"Accuracy":1,"Sham":1,"Outcome":"1","Keys":[1796.4449999999488],"TotalKeys":1,"Block":2,"Trial":124,"Action":"Go","Robot":1,"trial_type":"pit-trial","trial_index":138,"time_elapsed":609622,"internal_node_id":"0.0-138.0"},{"Valence":"Lose","Color":"#3366ff99","Rune":"03","Correct":32,"Choice":32,"RT":885.6149999992922,"Accuracy":1,"Sham":1,"Outcome":"-10","Keys":[2386.579999998561],"TotalKeys":1,"Block":2,"Trial":125,"Action":"Go","Robot":3,"trial_type":"pit-trial","trial_index":139,"time_elapsed":613013,"internal_node_id":"0.0-139.0"},{"Valence":"Lose","Color":"#3366ff99","Rune":"05","Correct":-1,"Choice":-1,"RT":-1,"Accuracy":1,"Sham":0,"Outcome":"-1","Keys":[],"TotalKeys":0,"Block":2,"Trial":126,"Action":"No-Go","Robot":4,"trial_type":"pit-trial","trial_index":140,"time_elapsed":617017,"internal_node_id":"0.0-140.0"},{"Valence":"Win","Color":"#ffcc3399","Rune":"06","Correct":-1,"Choice":32,"RT":331.2750000040978,"Accuracy":0,"Sham":0,"Outcome":"+1","Keys":[1832.640000000596],"TotalKeys":1,"Block":2,"Trial":127,"Action":"No-Go","Robot":2,"trial_type":"pit-trial","trial_index":141,"time_elapsed":619854,"internal_node_id":"0.0-141.0"},{"Valence":"Win","Color":"#ffcc3399","Rune":"04","Correct":32,"Choice":32,"RT":318.93500000296626,"Accuracy":1,"Sham":0,"Outcome":"+10","Keys":[1819.6699999971315],"TotalKeys":1,"Block":2,"Trial":128,"Action":"Go","Robot":1,"trial_type":"pit-trial","trial_index":142,"time_elapsed":622677,"internal_node_id":"0.0-142.0"},{"Valence":"Lose","Color":"#3366ff99","Rune":"05","Correct":-1,"Choice":-1,"RT":-1,"Accuracy":1,"Sham":0,"Outcome":"-1","Keys":[],"TotalKeys":0,"Block":2,"Trial":129,"Action":"No-Go","Robot":4,"trial_type":"pit-trial","trial_index":143,"time_elapsed":626682,"internal_node_id":"0.0-143.0"},{"Valence":"Win","Color":"#ffcc3399","Rune":"04","Correct":32,"Choice":32,"RT":449.91500000469387,"Accuracy":1,"Sham":0,"Outcome":"+10","Keys":[1950.830000001588],"TotalKeys":1,"Block":2,"Trial":130,"Action":"Go","Robot":1,"trial_type":"pit-trial","trial_index":144,"time_elapsed":629636,"internal_node_id":"0.0-144.0"},{"Valence":"Lose","Color":"#3366ff99","Rune":"03","Correct":32,"Choice":32,"RT":601.779999997234,"Accuracy":1,"Sham":0,"Outcome":"-1","Keys":[2102.0999999964843],"TotalKeys":1,"Block":2,"Trial":131,"Action":"Go","Robot":3,"trial_type":"pit-trial","trial_index":145,"time_elapsed":632743,"internal_node_id":"0.0-145.0"},{"Valence":"Win","Color":"#ffcc3399","Rune":"06","Correct":-1,"Choice":32,"RT":406.4150000049267,"Accuracy":0,"Sham":0,"Outcome":"+1","Keys":[1906.5400000035297],"TotalKeys":1,"Block":2,"Trial":132,"Action":"No-Go","Robot":2,"trial_type":"pit-trial","trial_index":146,"time_elapsed":635653,"internal_node_id":"0.0-146.0"},{"Valence":"Lose","Color":"#3366ff99","Rune":"05","Correct":-1,"Choice":-1,"RT":-1,"Accuracy":1,"Sham":0,"Outcome":"-1","Keys":[],"TotalKeys":0,"Block":2,"Trial":133,"Action":"No-Go","Robot":4,"trial_type":"pit-trial","trial_index":147,"time_elapsed":639657,"internal_node_id":"0.0-147.0"},{"Valence":"Win","Color":"#ffcc3399","Rune":"04","Correct":32,"Choice":32,"RT":434.4700000002049,"Accuracy":1,"Sham":0,"Outcome":"+10","Keys":[1935.9449999973876],"TotalKeys":1,"Block":2,"Trial":134,"Action":"Go","Robot":1,"trial_type":"pit-trial","trial_index":148,"time_elapsed":642597,"internal_node_id":"0.0-148.0"},{"Valence":"Lose","Color":"#3366ff99","Rune":"03","Correct":32,"Choice":32,"RT":535.6049999973038,"Accuracy":1,"Sham":0,"Outcome":"-1","Keys":[2036.4950000003446],"TotalKeys":1,"Block":2,"Trial":135,"Action":"Go","Robot":3,"trial_type":"pit-trial","trial_index":149,"time_elapsed":645637,"internal_node_id":"0.0-149.0"},{"Valence":"Win","Color":"#ffcc3399","Rune":"06","Correct":-1,"Choice":32,"RT":374.1449999943143,"Accuracy":0,"Sham":0,"Outcome":"+1","Keys":[1875.605000001029],"TotalKeys":1,"Block":2,"Trial":136,"Action":"No-Go","Robot":2,"trial_type":"pit-trial","trial_index":150,"time_elapsed":648517,"internal_node_id":"0.0-150.0"},{"Valence":"Lose","Color":"#3366ff99","Rune":"05","Correct":-1,"Choice":-1,"RT":-1,"Accuracy":1,"Sham":1,"Outcome":"-10","Keys":[],"TotalKeys":0,"Block":2,"Trial":137,"Action":"No-Go","Robot":4,"trial_type":"pit-trial","trial_index":151,"time_elapsed":652522,"internal_node_id":"0.0-151.0"},{"Valence":"Win","Color":"#ffcc3399","Rune":"04","Correct":32,"Choice":32,"RT":378.19499999750406,"Accuracy":1,"Sham":0,"Outcome":"+10","Keys":[1879.5149999932619],"TotalKeys":1,"Block":2,"Trial":138,"Action":"Go","Robot":1,"trial_type":"pit-trial","trial_index":152,"time_elapsed":655405,"internal_node_id":"0.0-152.0"},{"Valence":"Lose","Color":"#3366ff99","Rune":"03","Correct":32,"Choice":32,"RT":583.0200000054901,"Accuracy":1,"Sham":0,"Outcome":"-1","Keys":[2084.065000002738],"TotalKeys":1,"Block":2,"Trial":139,"Action":"Go","Robot":3,"trial_type":"pit-trial","trial_index":153,"time_elapsed":658493,"internal_node_id":"0.0-153.0"},{"Valence":"Win","Color":"#ffcc3399","Rune":"06","Correct":-1,"Choice":32,"RT":325.7900000025984,"Accuracy":0,"Sham":1,"Outcome":"+10","Keys":[1827.4600000004284],"TotalKeys":1,"Block":2,"Trial":140,"Action":"No-Go","Robot":2,"trial_type":"pit-trial","trial_index":154,"time_elapsed":661324,"internal_node_id":"0.0-154.0"},{"Valence":"Win","Color":"#ffcc3399","Rune":"06","Correct":-1,"Choice":32,"RT":343.7299999932293,"Accuracy":0,"Sham":1,"Outcome":"+10","Keys":[1845.2450000040699],"TotalKeys":1,"Block":2,"Trial":141,"Action":"No-Go","Robot":2,"trial_type":"pit-trial","trial_index":155,"time_elapsed":664173,"internal_node_id":"0.0-155.0"},{"Valence":"Lose","Color":"#3366ff99","Rune":"03","Correct":32,"Choice":32,"RT":535.5500000005122,"Accuracy":1,"Sham":0,"Outcome":"-1","Keys":[2035.9349999999395],"TotalKeys":1,"Block":2,"Trial":142,"Action":"Go","Robot":3,"trial_type":"pit-trial","trial_index":156,"time_elapsed":667213,"internal_node_id":"0.0-156.0"},{"Valence":"Win","Color":"#ffcc3399","Rune":"04","Correct":32,"Choice":32,"RT":373.4649999969406,"Accuracy":1,"Sham":0,"Outcome":"+10","Keys":[1874.3949999988545],"TotalKeys":1,"Block":2,"Trial":143,"Action":"Go","Robot":1,"trial_type":"pit-trial","trial_index":157,"time_elapsed":670093,"internal_node_id":"0.0-157.0"},{"Valence":"Lose","Color":"#3366ff99","Rune":"05","Correct":-1,"Choice":-1,"RT":-1,"Accuracy":1,"Sham":0,"Outcome":"-1","Keys":[],"TotalKeys":0,"Block":2,"Trial":144,"Action":"No-Go","Robot":4,"trial_type":"pit-trial","trial_index":158,"time_elapsed":674097,"internal_node_id":"0.0-158.0"},{"Valence":"Lose","Color":"#3366ff99","Rune":"05","Correct":-1,"Choice":-1,"RT":-1,"Accuracy":1,"Sham":0,"Outcome":"-1","Keys":[],"TotalKeys":0,"Block":2,"Trial":145,"Action":"No-Go","Robot":4,"trial_type":"pit-trial","trial_index":159,"time_elapsed":678104,"internal_node_id":"0.0-159.0"},{"Valence":"Win","Color":"#ffcc3399","Rune":"04","Correct":32,"Choice":32,"RT":427.48500000021886,"Accuracy":1,"Sham":0,"Outcome":"+10","Keys":[1929.1550000052666],"TotalKeys":1,"Block":2,"Trial":146,"Action":"Go","Robot":1,"trial_type":"pit-trial","trial_index":160,"time_elapsed":681037,"internal_node_id":"0.0-160.0"},{"Valence":"Lose","Color":"#3366ff99","Rune":"03","Correct":32,"Choice":32,"RT":471.0650000051828,"Accuracy":1,"Sham":0,"Outcome":"-1","Keys":[1971.929999999702],"TotalKeys":1,"Block":2,"Trial":147,"Action":"Go","Robot":3,"trial_type":"pit-trial","trial_index":161,"time_elapsed":684013,"internal_node_id":"0.0-161.0"},{"Valence":"Win","Color":"#ffcc3399","Rune":"06","Correct":-1,"Choice":32,"RT":279.51000000035856,"Accuracy":0,"Sham":0,"Outcome":"+1","Keys":[1780.8450000011362],"TotalKeys":1,"Block":2,"Trial":148,"Action":"No-Go","Robot":2,"trial_type":"pit-trial","trial_index":162,"time_elapsed":686797,"internal_node_id":"0.0-162.0"},{"Valence":"Win","Color":"#ffcc3399","Rune":"06","Correct":-1,"Choice":32,"RT":382.32000000425614,"Accuracy":0,"Sham":0,"Outcome":"+1","Keys":[1883.0749999979744],"TotalKeys":1,"Block":2,"Trial":149,"Action":"No-Go","Robot":2,"trial_type":"pit-trial","trial_index":163,"time_elapsed":689684,"internal_node_id":"0.0-163.0"},{"Valence":"Lose","Color":"#3366ff99","Rune":"05","Correct":-1,"Choice":-1,"RT":-1,"Accuracy":1,"Sham":0,"Outcome":"-1","Keys":[],"TotalKeys":0,"Block":2,"Trial":150,"Action":"No-Go","Robot":4,"trial_type":"pit-trial","trial_index":164,"time_elapsed":693689,"internal_node_id":"0.0-164.0"},{"Valence":"Lose","Color":"#3366ff99","Rune":"03","Correct":32,"Choice":32,"RT":546.8949999994365,"Accuracy":1,"Sham":0,"Outcome":"-1","Keys":[2047.834999997518],"TotalKeys":1,"Block":2,"Trial":151,"Action":"Go","Robot":3,"trial_type":"pit-trial","trial_index":165,"time_elapsed":696741,"internal_node_id":"0.0-165.0"},{"Valence":"Win","Color":"#ffcc3399","Rune":"04","Correct":32,"Choice":32,"RT":390.3950000021141,"Accuracy":1,"Sham":0,"Outcome":"+10","Keys":[1891.025000004447],"TotalKeys":1,"Block":2,"Trial":152,"Action":"Go","Robot":1,"trial_type":"pit-trial","trial_index":166,"time_elapsed":699637,"internal_node_id":"0.0-166.0"},{"Valence":"Win","Color":"#ffcc3399","Rune":"04","Correct":32,"Choice":32,"RT":390.08499999914784,"Accuracy":1,"Sham":0,"Outcome":"+10","Keys":[1891.669999997248],"TotalKeys":1,"Block":2,"Trial":153,"Action":"Go","Robot":1,"trial_type":"pit-trial","trial_index":167,"time_elapsed":702533,"internal_node_id":"0.0-167.0"},{"Valence":"Lose","Color":"#3366ff99","Rune":"05","Correct":-1,"Choice":-1,"RT":-1,"Accuracy":1,"Sham":0,"Outcome":"-1","Keys":[],"TotalKeys":0,"Block":2,"Trial":154,"Action":"No-Go","Robot":4,"trial_type":"pit-trial","trial_index":168,"time_elapsed":706537,"internal_node_id":"0.0-168.0"},{"Valence":"Lose","Color":"#3366ff99","Rune":"03","Correct":32,"Choice":32,"RT":411.1800000027288,"Accuracy":1,"Sham":0,"Outcome":"-1","Keys":[1911.454999994021],"TotalKeys":1,"Block":2,"Trial":155,"Action":"Go","Robot":3,"trial_type":"pit-trial","trial_index":169,"time_elapsed":709452,"internal_node_id":"0.0-169.0"},{"Valence":"Win","Color":"#ffcc3399","Rune":"06","Correct":-1,"Choice":32,"RT":391.75999999861233,"Accuracy":0,"Sham":0,"Outcome":"+1","Keys":[1892.0799999978626],"TotalKeys":1,"Block":2,"Trial":156,"Action":"No-Go","Robot":2,"trial_type":"pit-trial","trial_index":170,"time_elapsed":712348,"internal_node_id":"0.0-170.0"},{"Valence":"Lose","Color":"#3366ff99","Rune":"03","Correct":32,"Choice":32,"RT":630.6699999986449,"Accuracy":1,"Sham":1,"Outcome":"-10","Keys":[2130.790000002831],"TotalKeys":1,"Block":2,"Trial":157,"Action":"Go","Robot":3,"trial_type":"pit-trial","trial_index":171,"time_elapsed":715484,"internal_node_id":"0.0-171.0"},{"Valence":"Lose","Color":"#3366ff99","Rune":"05","Correct":-1,"Choice":-1,"RT":-1,"Accuracy":1,"Sham":1,"Outcome":"-10","Keys":[],"TotalKeys":0,"Block":2,"Trial":158,"Action":"No-Go","Robot":4,"trial_type":"pit-trial","trial_index":172,"time_elapsed":719488,"internal_node_id":"0.0-172.0"},{"Valence":"Win","Color":"#ffcc3399","Rune":"06","Correct":-1,"Choice":32,"RT":372.29500000108965,"Accuracy":0,"Sham":0,"Outcome":"+1","Keys":[1873.509999997681],"TotalKeys":1,"Block":2,"Trial":159,"Action":"No-Go","Robot":2,"trial_type":"pit-trial","trial_index":173,"time_elapsed":722366,"internal_node_id":"0.0-173.0"},{"Valence":"Win","Color":"#ffcc3399","Rune":"04","Correct":32,"Choice":32,"RT":324.5549999992363,"Accuracy":1,"Sham":1,"Outcome":"1","Keys":[1825.4250000027241],"TotalKeys":1,"Block":2,"Trial":160,"Action":"Go","Robot":1,"trial_type":"pit-trial","trial_index":174,"time_elapsed":725196,"internal_node_id":"0.0-174.0"},{"rt":14643.014999994193,"demographics":{"age":"51","gender-categorical":"Female","ethnicity":"Not Hispanic or Latino","race":"White","english":"Yes","fluency":"Very well"},"trial_type":"survey-demo","trial_index":175,"time_elapsed":739843,"internal_node_id":"0.0-175.0"},{"rt":56347.39999999874,"debriefgraphics":{"difficulty":"4","fun":"5","clarity":"5","strategy":"There were two symbols on the robot's chest that were purely up to chance.","feedback":"Thank you, and have a nice day!"},"trial_type":"survey-debrief","trial_index":176,"time_elapsed":796193,"internal_node_id":"0.0-176.0","interactions":"[{\"event\":\"blur\",\"trial\":94,\"time\":462229},{\"event\":\"focus\",\"trial\":94,\"time\":464458}]"}]