[{"view_history":"[{\"page_index\":0,\"viewing_time\":1876},{\"page_index\":1,\"viewing_time\":3182},{\"page_index\":2,\"viewing_time\":9569},{\"page_index\":3,\"viewing_time\":5003},{\"page_index\":4,\"viewing_time\":3448}]","rt":23078,"trial_type":"pit-instructions","trial_index":0,"time_elapsed":23079,"internal_node_id":"0.0-0.0"},{"Rune":"01","Correct":32,"Choice":-1,"RT":-1,"Accuracy":0,"Sham":0,"Outcome":"+0","Keys":[],"TotalKeys":0,"trial_type":"pit-trial","trial_index":1,"time_elapsed":27083,"internal_node_id":"0.0-1.0"},{"Rune":"01","Correct":32,"Choice":-1,"RT":-1,"Accuracy":0,"Sham":0,"Outcome":"+0","Keys":[3554],"TotalKeys":1,"trial_type":"pit-trial","trial_index":2,"time_elapsed":31087,"internal_node_id":"0.0-2.0"},{"Rune":"01","Correct":32,"Choice":-1,"RT":-1,"Accuracy":0,"Sham":0,"Outcome":"+0","Keys":[3871],"TotalKeys":1,"trial_type":"pit-trial","trial_index":3,"time_elapsed":35092,"internal_node_id":"0.0-3.0"},{"Rune":"01","Correct":32,"Choice":-1,"RT":-1,"Accuracy":0,"Sham":0,"Outcome":"+0","Keys":[3607],"TotalKeys":1,"trial_type":"pit-trial","trial_index":4,"time_elapsed":39096,"internal_node_id":"0.0-4.0"},{"view_history":"[{\"page_index\":0,\"viewing_time\":5003}]","rt":5003,"trial_type":"pit-instructions","trial_index":5,"time_elapsed":44100,"internal_node_id":"0.0-5.0"},{"Rune":"02","Correct":-1,"Choice":-1,"RT":-1,"Accuracy":1,"Sham":0,"Outcome":"+10","Keys":[],"TotalKeys":0,"trial_type":"pit-trial","trial_index":6,"time_elapsed":48104,"internal_node_id":"0.0-6.0"},{"Rune":"02","Correct":-1,"Choice":-1,"RT":-1,"Accuracy":1,"Sham":0,"Outcome":"+10","Keys":[],"TotalKeys":0,"trial_type":"pit-trial","trial_index":7,"time_elapsed":52108,"internal_node_id":"0.0-7.0"},{"Rune":"02","Correct":-1,"Choice":-1,"RT":-1,"Accuracy":1,"Sham":0,"Outcome":"+10","Keys":[],"TotalKeys":0,"trial_type":"pit-trial","trial_index":8,"time_elapsed":56110,"internal_node_id":"0.0-8.0"},{"Rune":"02","Correct":-1,"Choice":-1,"RT":-1,"Accuracy":1,"Sham":0,"Outcome":"+10","Keys":[],"TotalKeys":0,"trial_type":"pit-trial","trial_index":9,"time_elapsed":60113,"internal_node_id":"0.0-9.0"},{"view_history":"[{\"page_index\":0,\"viewing_time\":3384},{\"page_index\":1,\"viewing_time\":16389},{\"page_index\":2,\"viewing_time\":6749},{\"page_index\":3,\"viewing_time\":6845},{\"page_index\":4,\"viewing_time\":5675},{\"page_index\":5,\"viewing_time\":3306},{\"page_index\":6,\"viewing_time\":2369},{\"page_index\":7,\"viewing_time\":1644}]","rt":46361,"trial_type":"pit-instructions","trial_index":10,"time_elapsed":106475,"internal_node_id":"0.0-10.0"},{"rt":30356,"responses":"{\"no-press\":\"Do nothing\",\"context-win\":\"+10\",\"context-lose\":\"+0\",\"feedback\":\"True\"}","errors":2,"trial_type":"pit-comprehension","trial_index":11,"time_elapsed":136834,"internal_node_id":"0.0-11.0"},{"view_history":"[{\"page_index\":0,\"viewing_time\":6239}]","rt":6239,"trial_type":"pit-instructions","trial_index":12,"time_elapsed":143075,"internal_node_id":"0.0-12.0"},{"Rune":"06","Correct":-1,"Choice":32,"RT":582,"Accuracy":0,"Sham":0,"Outcome":"+0","Keys":[2083],"TotalKeys":1,"Block":1,"Trial":1,"Valence":"Win","Action":"No-Go","Robot":2,"trial_type":"pit-trial","trial_index":13,"time_elapsed":146159,"internal_node_id":"0.0-13.0"},{"Rune":"04","Correct":32,"Choice":-1,"RT":-1,"Accuracy":0,"Sham":0,"Outcome":"-10","Keys":[],"TotalKeys":0,"Block":1,"Trial":2,"Valence":"Lose","Action":"Go","Robot":3,"trial_type":"pit-trial","trial_index":14,"time_elapsed":150161,"internal_node_id":"0.0-14.0"},{"Rune":"05","Correct":-1,"Choice":32,"RT":770,"Accuracy":0,"Sham":0,"Outcome":"-10","Keys":[2270],"TotalKeys":1,"Block":1,"Trial":3,"Valence":"Lose","Action":"No-Go","Robot":4,"trial_type":"pit-trial","trial_index":15,"time_elapsed":153433,"internal_node_id":"0.0-15.0"},{"Rune":"03","Correct":32,"Choice":32,"RT":525,"Accuracy":1,"Sham":0,"Outcome":"+10","Keys":[2025],"TotalKeys":1,"Block":1,"Trial":4,"Valence":"Win","Action":"Go","Robot":1,"trial_type":"pit-trial","trial_index":16,"time_elapsed":156459,"internal_node_id":"0.0-16.0"},{"Rune":"04","Correct":32,"Choice":32,"RT":761,"Accuracy":1,"Sham":1,"Outcome":"-10","Keys":[2261],"TotalKeys":1,"Block":1,"Trial":5,"Valence":"Lose","Action":"Go","Robot":3,"trial_type":"pit-trial","trial_index":17,"time_elapsed":159723,"internal_node_id":"0.0-17.0"},{"Rune":"05","Correct":-1,"Choice":-1,"RT":-1,"Accuracy":1,"Sham":0,"Outcome":"+0","Keys":[],"TotalKeys":0,"Block":1,"Trial":6,"Valence":"Lose","Action":"No-Go","Robot":4,"trial_type":"pit-trial","trial_index":18,"time_elapsed":163727,"internal_node_id":"0.0-18.0"},{"Rune":"03","Correct":32,"Choice":32,"RT":471,"Accuracy":1,"Sham":0,"Outcome":"+10","Keys":[1971],"TotalKeys":1,"Block":1,"Trial":7,"Valence":"Win","Action":"Go","Robot":1,"trial_type":"pit-trial","trial_index":19,"time_elapsed":166698,"internal_node_id":"0.0-19.0"},{"Rune":"06","Correct":-1,"Choice":32,"RT":711,"Accuracy":0,"Sham":0,"Outcome":"+0","Keys":[2211],"TotalKeys":1,"Block":1,"Trial":8,"Valence":"Win","Action":"No-Go","Robot":2,"trial_type":"pit-trial","trial_index":20,"time_elapsed":169912,"internal_node_id":"0.0-20.0"},{"Rune":"03","Correct":32,"Choice":32,"RT":760,"Accuracy":1,"Sham":0,"Outcome":"+10","Keys":[2261],"TotalKeys":1,"Block":1,"Trial":9,"Valence":"Win","Action":"Go","Robot":1,"trial_type":"pit-trial","trial_index":21,"time_elapsed":173175,"internal_node_id":"0.0-21.0"},{"Rune":"04","Correct":32,"Choice":32,"RT":981,"Accuracy":1,"Sham":0,"Outcome":"+0","Keys":[2481],"TotalKeys":1,"Block":1,"Trial":10,"Valence":"Lose","Action":"Go","Robot":3,"trial_type":"pit-trial","trial_index":22,"time_elapsed":176659,"internal_node_id":"0.0-22.0"},{"Rune":"06","Correct":-1,"Choice":32,"RT":798,"Accuracy":0,"Sham":0,"Outcome":"+0","Keys":[2300],"TotalKeys":1,"Block":1,"Trial":11,"Valence":"Win","Action":"No-Go","Robot":2,"trial_type":"pit-trial","trial_index":23,"time_elapsed":179961,"internal_node_id":"0.0-23.0"},{"Rune":"05","Correct":-1,"Choice":-1,"RT":-1,"Accuracy":1,"Sham":0,"Outcome":"+0","Keys":[],"TotalKeys":0,"Block":1,"Trial":12,"Valence":"Lose","Action":"No-Go","Robot":4,"trial_type":"pit-trial","trial_index":24,"time_elapsed":183963,"internal_node_id":"0.0-24.0"},{"Rune":"03","Correct":32,"Choice":32,"RT":587,"Accuracy":1,"Sham":0,"Outcome":"+10","Keys":[2087],"TotalKeys":1,"Block":1,"Trial":13,"Valence":"Win","Action":"Go","Robot":1,"trial_type":"pit-trial","trial_index":25,"time_elapsed":187052,"internal_node_id":"0.0-25.0"},{"Rune":"06","Correct":-1,"Choice":32,"RT":865,"Accuracy":0,"Sham":0,"Outcome":"+0","Keys":[2365],"TotalKeys":1,"Block":1,"Trial":14,"Valence":"Win","Action":"No-Go","Robot":2,"trial_type":"pit-trial","trial_index":26,"time_elapsed":190420,"internal_node_id":"0.0-26.0"},{"Rune":"04","Correct":32,"Choice":-1,"RT":-1,"Accuracy":0,"Sham":0,"Outcome":"-10","Keys":[],"TotalKeys":0,"Block":1,"Trial":15,"Valence":"Lose","Action":"Go","Robot":3,"trial_type":"pit-trial","trial_index":27,"time_elapsed":194422,"internal_node_id":"0.0-27.0"},{"Rune":"05","Correct":-1,"Choice":-1,"RT":-1,"Accuracy":1,"Sham":1,"Outcome":"-10","Keys":[],"TotalKeys":0,"Block":1,"Trial":16,"Valence":"Lose","Action":"No-Go","Robot":4,"trial_type":"pit-trial","trial_index":28,"time_elapsed":198425,"internal_node_id":"0.0-28.0"},{"Rune":"03","Correct":32,"Choice":32,"RT":488,"Accuracy":1,"Sham":1,"Outcome":"+0","Keys":[1990],"TotalKeys":1,"Block":1,"Trial":17,"Valence":"Win","Action":"Go","Robot":1,"trial_type":"pit-trial","trial_index":29,"time_elapsed":201416,"internal_node_id":"0.0-29.0"},{"Rune":"04","Correct":32,"Choice":32,"RT":714,"Accuracy":1,"Sham":0,"Outcome":"+0","Keys":[2215],"TotalKeys":1,"Block":1,"Trial":18,"Valence":"Lose","Action":"Go","Robot":3,"trial_type":"pit-trial","trial_index":30,"time_elapsed":204633,"internal_node_id":"0.0-30.0"},{"Rune":"06","Correct":-1,"Choice":32,"RT":674,"Accuracy":0,"Sham":1,"Outcome":"+10","Keys":[2176],"TotalKeys":1,"Block":1,"Trial":19,"Valence":"Win","Action":"No-Go","Robot":2,"trial_type":"pit-trial","trial_index":31,"time_elapsed":207812,"internal_node_id":"0.0-31.0"},{"Rune":"05","Correct":-1,"Choice":32,"RT":780,"Accuracy":0,"Sham":0,"Outcome":"-10","Keys":[2281],"TotalKeys":1,"Block":1,"Trial":20,"Valence":"Lose","Action":"No-Go","Robot":4,"trial_type":"pit-trial","trial_index":32,"time_elapsed":211094,"internal_node_id":"0.0-32.0"},{"Rune":"05","Correct":-1,"Choice":32,"RT":1007,"Accuracy":0,"Sham":0,"Outcome":"-10","Keys":[2507],"TotalKeys":1,"Block":1,"Trial":21,"Valence":"Lose","Action":"No-Go","Robot":4,"trial_type":"pit-trial","trial_index":33,"time_elapsed":214602,"internal_node_id":"0.0-33.0"},{"Rune":"06","Correct":-1,"Choice":32,"RT":634,"Accuracy":0,"Sham":0,"Outcome":"+0","Keys":[2136],"TotalKeys":1,"Block":1,"Trial":22,"Valence":"Win","Action":"No-Go","Robot":2,"trial_type":"pit-trial","trial_index":34,"time_elapsed":217741,"internal_node_id":"0.0-34.0"},{"Rune":"03","Correct":32,"Choice":32,"RT":508,"Accuracy":1,"Sham":0,"Outcome":"+10","Keys":[2009],"TotalKeys":1,"Block":1,"Trial":23,"Valence":"Win","Action":"Go","Robot":1,"trial_type":"pit-trial","trial_index":35,"time_elapsed":220752,"internal_node_id":"0.0-35.0"},{"Rune":"04","Correct":32,"Choice":32,"RT":1151,"Accuracy":1,"Sham":0,"Outcome":"+0","Keys":[2650],"TotalKeys":1,"Block":1,"Trial":24,"Valence":"Lose","Action":"Go","Robot":3,"trial_type":"pit-trial","trial_index":36,"time_elapsed":224406,"internal_node_id":"0.0-36.0"},{"Rune":"05","Correct":-1,"Choice":-1,"RT":-1,"Accuracy":1,"Sham":0,"Outcome":"+0","Keys":[],"TotalKeys":0,"Block":1,"Trial":25,"Valence":"Lose","Action":"No-Go","Robot":4,"trial_type":"pit-trial","trial_index":37,"time_elapsed":228408,"internal_node_id":"0.0-37.0"},{"Rune":"03","Correct":32,"Choice":32,"RT":547,"Accuracy":1,"Sham":0,"Outcome":"+10","Keys":[2047],"TotalKeys":1,"Block":1,"Trial":26,"Valence":"Win","Action":"Go","Robot":1,"trial_type":"pit-trial","trial_index":38,"time_elapsed":231457,"internal_node_id":"0.0-38.0"},{"Rune":"04","Correct":32,"Choice":32,"RT":1192,"Accuracy":1,"Sham":0,"Outcome":"+0","Keys":[2692],"TotalKeys":1,"Block":1,"Trial":27,"Valence":"Lose","Action":"Go","Robot":3,"trial_type":"pit-trial","trial_index":39,"time_elapsed":235152,"internal_node_id":"0.0-39.0"},{"Rune":"06","Correct":-1,"Choice":32,"RT":569,"Accuracy":0,"Sham":0,"Outcome":"+0","Keys":[2069],"TotalKeys":1,"Block":1,"Trial":28,"Valence":"Win","Action":"No-Go","Robot":2,"trial_type":"pit-trial","trial_index":40,"time_elapsed":238223,"internal_node_id":"0.0-40.0"},{"Rune":"04","Correct":32,"Choice":-1,"RT":-1,"Accuracy":0,"Sham":0,"Outcome":"-10","Keys":[],"TotalKeys":0,"Block":1,"Trial":29,"Valence":"Lose","Action":"Go","Robot":3,"trial_type":"pit-trial","trial_index":41,"time_elapsed":242226,"internal_node_id":"0.0-41.0"},{"Rune":"06","Correct":-1,"Choice":32,"RT":637,"Accuracy":0,"Sham":1,"Outcome":"+10","Keys":[2137],"TotalKeys":1,"Block":1,"Trial":30,"Valence":"Win","Action":"No-Go","Robot":2,"trial_type":"pit-trial","trial_index":42,"time_elapsed":245365,"internal_node_id":"0.0-42.0"},{"Rune":"03","Correct":32,"Choice":32,"RT":459,"Accuracy":1,"Sham":1,"Outcome":"+0","Keys":[1961],"TotalKeys":1,"Block":1,"Trial":31,"Valence":"Win","Action":"Go","Robot":1,"trial_type":"pit-trial","trial_index":43,"time_elapsed":248327,"internal_node_id":"0.0-43.0"},{"Rune":"05","Correct":-1,"Choice":-1,"RT":-1,"Accuracy":1,"Sham":0,"Outcome":"+0","Keys":[],"TotalKeys":0,"Block":1,"Trial":32,"Valence":"Lose","Action":"No-Go","Robot":4,"trial_type":"pit-trial","trial_index":44,"time_elapsed":252328,"internal_node_id":"0.0-44.0"},{"Rune":"05","Correct":-1,"Choice":-1,"RT":-1,"Accuracy":1,"Sham":0,"Outcome":"+0","Keys":[],"TotalKeys":0,"Block":1,"Trial":33,"Valence":"Lose","Action":"No-Go","Robot":4,"trial_type":"pit-trial","trial_index":45,"time_elapsed":256332,"internal_node_id":"0.0-45.0"},{"Rune":"06","Correct":-1,"Choice":32,"RT":540,"Accuracy":0,"Sham":0,"Outcome":"+0","Keys":[2040],"TotalKeys":1,"Block":1,"Trial":34,"Valence":"Win","Action":"No-Go","Robot":2,"trial_type":"pit-trial","trial_index":46,"time_elapsed":259374,"internal_node_id":"0.0-46.0"},{"Rune":"03","Correct":32,"Choice":32,"RT":466,"Accuracy":1,"Sham":0,"Outcome":"+10","Keys":[1966],"TotalKeys":1,"Block":1,"Trial":35,"Valence":"Win","Action":"Go","Robot":1,"trial_type":"pit-trial","trial_index":47,"time_elapsed":262341,"internal_node_id":"0.0-47.0"},{"Rune":"04","Correct":32,"Choice":32,"RT":405,"Accuracy":1,"Sham":1,"Outcome":"-10","Keys":[1906],"TotalKeys":1,"Block":1,"Trial":36,"Valence":"Lose","Action":"Go","Robot":3,"trial_type":"pit-trial","trial_index":48,"time_elapsed":265248,"internal_node_id":"0.0-48.0"},{"Rune":"05","Correct":-1,"Choice":-1,"RT":-1,"Accuracy":1,"Sham":1,"Outcome":"-10","Keys":[],"TotalKeys":0,"Block":1,"Trial":37,"Valence":"Lose","Action":"No-Go","Robot":4,"trial_type":"pit-trial","trial_index":49,"time_elapsed":269252,"internal_node_id":"0.0-49.0"},{"Rune":"04","Correct":32,"Choice":32,"RT":1097,"Accuracy":1,"Sham":0,"Outcome":"+0","Keys":[2598],"TotalKeys":1,"Block":1,"Trial":38,"Valence":"Lose","Action":"Go","Robot":3,"trial_type":"pit-trial","trial_index":50,"time_elapsed":272850,"internal_node_id":"0.0-50.0"},{"Rune":"03","Correct":32,"Choice":32,"RT":423,"Accuracy":1,"Sham":0,"Outcome":"+10","Keys":[1925],"TotalKeys":1,"Block":1,"Trial":39,"Valence":"Win","Action":"Go","Robot":1,"trial_type":"pit-trial","trial_index":51,"time_elapsed":275778,"internal_node_id":"0.0-51.0"},{"Rune":"06","Correct":-1,"Choice":32,"RT":471,"Accuracy":0,"Sham":0,"Outcome":"+0","Keys":[1971],"TotalKeys":1,"Block":1,"Trial":40,"Valence":"Win","Action":"No-Go","Robot":2,"trial_type":"pit-trial","trial_index":52,"time_elapsed":278749,"internal_node_id":"0.0-52.0"},{"Rune":"04","Correct":32,"Choice":32,"RT":932,"Accuracy":1,"Sham":1,"Outcome":"-10","Keys":[2432],"TotalKeys":1,"Block":1,"Trial":41,"Valence":"Lose","Action":"Go","Robot":3,"trial_type":"pit-trial","trial_index":53,"time_elapsed":282183,"internal_node_id":"0.0-53.0"},{"Rune":"06","Correct":-1,"Choice":32,"RT":565,"Accuracy":0,"Sham":0,"Outcome":"+0","Keys":[2064],"TotalKeys":1,"Block":1,"Trial":42,"Valence":"Win","Action":"No-Go","Robot":2,"trial_type":"pit-trial","trial_index":54,"time_elapsed":285249,"internal_node_id":"0.0-54.0"},{"Rune":"05","Correct":-1,"Choice":32,"RT":836,"Accuracy":0,"Sham":0,"Outcome":"-10","Keys":[2337],"TotalKeys":1,"Block":1,"Trial":43,"Valence":"Lose","Action":"No-Go","Robot":4,"trial_type":"pit-trial","trial_index":55,"time_elapsed":288589,"internal_node_id":"0.0-55.0"},{"Rune":"03","Correct":32,"Choice":32,"RT":482,"Accuracy":1,"Sham":0,"Outcome":"+10","Keys":[1984],"TotalKeys":1,"Block":1,"Trial":44,"Valence":"Win","Action":"Go","Robot":1,"trial_type":"pit-trial","trial_index":56,"time_elapsed":291575,"internal_node_id":"0.0-56.0"},{"Rune":"05","Correct":-1,"Choice":-1,"RT":-1,"Accuracy":1,"Sham":0,"Outcome":"+0","Keys":[],"TotalKeys":0,"Block":1,"Trial":45,"Valence":"Lose","Action":"No-Go","Robot":4,"trial_type":"pit-trial","trial_index":57,"time_elapsed":295578,"internal_node_id":"0.0-57.0"},{"Rune":"06","Correct":-1,"Choice":32,"RT":553,"Accuracy":0,"Sham":1,"Outcome":"+10","Keys":[2051],"TotalKeys":1,"Block":1,"Trial":46,"Valence":"Win","Action":"No-Go","Robot":2,"trial_type":"pit-trial","trial_index":58,"time_elapsed":298631,"internal_node_id":"0.0-58.0"},{"Rune":"04","Correct":32,"Choice":32,"RT":901,"Accuracy":1,"Sham":0,"Outcome":"+0","Keys":[2401],"TotalKeys":1,"Block":1,"Trial":47,"Valence":"Lose","Action":"Go","Robot":3,"trial_type":"pit-trial","trial_index":59,"time_elapsed":302035,"internal_node_id":"0.0-59.0"},{"Rune":"03","Correct":32,"Choice":32,"RT":548,"Accuracy":1,"Sham":0,"Outcome":"+10","Keys":[2050],"TotalKeys":1,"Block":1,"Trial":48,"Valence":"Win","Action":"Go","Robot":1,"trial_type":"pit-trial","trial_index":60,"time_elapsed":305087,"internal_node_id":"0.0-60.0"},{"Rune":"05","Correct":-1,"Choice":32,"RT":884,"Accuracy":0,"Sham":0,"Outcome":"-10","Keys":[2385],"TotalKeys":1,"Block":1,"Trial":49,"Valence":"Lose","Action":"No-Go","Robot":4,"trial_type":"pit-trial","trial_index":61,"time_elapsed":308476,"internal_node_id":"0.0-61.0"},{"Rune":"03","Correct":32,"Choice":32,"RT":479,"Accuracy":1,"Sham":0,"Outcome":"+10","Keys":[1979],"TotalKeys":1,"Block":1,"Trial":50,"Valence":"Win","Action":"Go","Robot":1,"trial_type":"pit-trial","trial_index":62,"time_elapsed":311458,"internal_node_id":"0.0-62.0"},{"Rune":"06","Correct":-1,"Choice":32,"RT":549,"Accuracy":0,"Sham":0,"Outcome":"+0","Keys":[2049],"TotalKeys":1,"Block":1,"Trial":51,"Valence":"Win","Action":"No-Go","Robot":2,"trial_type":"pit-trial","trial_index":63,"time_elapsed":314510,"internal_node_id":"0.0-63.0"},{"Rune":"04","Correct":32,"Choice":32,"RT":1100,"Accuracy":1,"Sham":0,"Outcome":"+0","Keys":[2601],"TotalKeys":1,"Block":1,"Trial":52,"Valence":"Lose","Action":"Go","Robot":3,"trial_type":"pit-trial","trial_index":64,"time_elapsed":318112,"internal_node_id":"0.0-64.0"},{"Rune":"06","Correct":-1,"Choice":32,"RT":540,"Accuracy":0,"Sham":0,"Outcome":"+0","Keys":[2040],"TotalKeys":1,"Block":1,"Trial":53,"Valence":"Win","Action":"No-Go","Robot":2,"trial_type":"pit-trial","trial_index":65,"time_elapsed":321155,"internal_node_id":"0.0-65.0"},{"Rune":"04","Correct":32,"Choice":32,"RT":1198,"Accuracy":1,"Sham":0,"Outcome":"+0","Keys":[2697],"TotalKeys":1,"Block":1,"Trial":54,"Valence":"Lose","Action":"Go","Robot":3,"trial_type":"pit-trial","trial_index":66,"time_elapsed":324854,"internal_node_id":"0.0-66.0"},{"Rune":"05","Correct":-1,"Choice":-1,"RT":-1,"Accuracy":1,"Sham":0,"Outcome":"+0","Keys":[],"TotalKeys":0,"Block":1,"Trial":55,"Valence":"Lose","Action":"No-Go","Robot":4,"trial_type":"pit-trial","trial_index":67,"time_elapsed":328857,"internal_node_id":"0.0-67.0"},{"Rune":"03","Correct":32,"Choice":32,"RT":471,"Accuracy":1,"Sham":0,"Outcome":"+10","Keys":[1972],"TotalKeys":1,"Block":1,"Trial":56,"Valence":"Win","Action":"Go","Robot":1,"trial_type":"pit-trial","trial_index":68,"time_elapsed":331832,"internal_node_id":"0.0-68.0"},{"Rune":"03","Correct":32,"Choice":32,"RT":495,"Accuracy":1,"Sham":1,"Outcome":"+0","Keys":[1995],"TotalKeys":1,"Block":1,"Trial":57,"Valence":"Win","Action":"Go","Robot":1,"trial_type":"pit-trial","trial_index":69,"time_elapsed":334829,"internal_node_id":"0.0-69.0"},{"Rune":"04","Correct":32,"Choice":32,"RT":875,"Accuracy":1,"Sham":0,"Outcome":"+0","Keys":[2376],"TotalKeys":1,"Block":1,"Trial":58,"Valence":"Lose","Action":"Go","Robot":3,"trial_type":"pit-trial","trial_index":70,"time_elapsed":338205,"internal_node_id":"0.0-70.0"},{"Rune":"05","Correct":-1,"Choice":-1,"RT":-1,"Accuracy":1,"Sham":1,"Outcome":"-10","Keys":[],"TotalKeys":0,"Block":1,"Trial":59,"Valence":"Lose","Action":"No-Go","Robot":4,"trial_type":"pit-trial","trial_index":71,"time_elapsed":342208,"internal_node_id":"0.0-71.0"},{"Rune":"06","Correct":-1,"Choice":32,"RT":548,"Accuracy":0,"Sham":0,"Outcome":"+0","Keys":[2047],"TotalKeys":1,"Block":1,"Trial":60,"Valence":"Win","Action":"No-Go","Robot":2,"trial_type":"pit-trial","trial_index":72,"time_elapsed":345258,"internal_node_id":"0.0-72.0"},{"Rune":"06","Correct":-1,"Choice":32,"RT":568,"Accuracy":0,"Sham":0,"Outcome":"+0","Keys":[2070],"TotalKeys":1,"Block":1,"Trial":61,"Valence":"Win","Action":"No-Go","Robot":2,"trial_type":"pit-trial","trial_index":73,"time_elapsed":348331,"internal_node_id":"0.0-73.0"},{"Rune":"04","Correct":32,"Choice":-1,"RT":-1,"Accuracy":0,"Sham":0,"Outcome":"-10","Keys":[],"TotalKeys":0,"Block":1,"Trial":62,"Valence":"Lose","Action":"Go","Robot":3,"trial_type":"pit-trial","trial_index":74,"time_elapsed":352334,"internal_node_id":"0.0-74.0"},{"Rune":"05","Correct":-1,"Choice":-1,"RT":-1,"Accuracy":1,"Sham":0,"Outcome":"+0","Keys":[],"TotalKeys":0,"Block":1,"Trial":63,"Valence":"Lose","Action":"No-Go","Robot":4,"trial_type":"pit-trial","trial_index":75,"time_elapsed":356336,"internal_node_id":"0.0-75.0"},{"Rune":"03","Correct":32,"Choice":32,"RT":466,"Accuracy":1,"Sham":0,"Outcome":"+10","Keys":[1967],"TotalKeys":1,"Block":1,"Trial":64,"Valence":"Win","Action":"Go","Robot":1,"trial_type":"pit-trial","trial_index":76,"time_elapsed":359305,"internal_node_id":"0.0-76.0"},{"Rune":"06","Correct":-1,"Choice":32,"RT":490,"Accuracy":0,"Sham":0,"Outcome":"+0","Keys":[1990],"TotalKeys":1,"Block":1,"Trial":65,"Valence":"Win","Action":"No-Go","Robot":2,"trial_type":"pit-trial","trial_index":77,"time_elapsed":362297,"internal_node_id":"0.0-77.0"},{"Rune":"05","Correct":-1,"Choice":-1,"RT":-1,"Accuracy":1,"Sham":0,"Outcome":"+0","Keys":[],"TotalKeys":0,"Block":1,"Trial":66,"Valence":"Lose","Action":"No-Go","Robot":4,"trial_type":"pit-trial","trial_index":78,"time_elapsed":366300,"internal_node_id":"0.0-78.0"},{"Rune":"03","Correct":32,"Choice":32,"RT":491,"Accuracy":1,"Sham":1,"Outcome":"+0","Keys":[1992],"TotalKeys":1,"Block":1,"Trial":67,"Valence":"Win","Action":"Go","Robot":1,"trial_type":"pit-trial","trial_index":79,"time_elapsed":369295,"internal_node_id":"0.0-79.0"},{"Rune":"04","Correct":32,"Choice":32,"RT":604,"Accuracy":1,"Sham":0,"Outcome":"+0","Keys":[2104],"TotalKeys":1,"Block":1,"Trial":68,"Valence":"Lose","Action":"Go","Robot":3,"trial_type":"pit-trial","trial_index":80,"time_elapsed":372401,"internal_node_id":"0.0-80.0"},{"Rune":"05","Correct":-1,"Choice":-1,"RT":-1,"Accuracy":1,"Sham":1,"Outcome":"-10","Keys":[],"TotalKeys":0,"Block":1,"Trial":69,"Valence":"Lose","Action":"No-Go","Robot":4,"trial_type":"pit-trial","trial_index":81,"time_elapsed":376404,"internal_node_id":"0.0-81.0"},{"Rune":"04","Correct":32,"Choice":32,"RT":1343,"Accuracy":1,"Sham":0,"Outcome":"+0","Keys":[2844],"TotalKeys":1,"Block":1,"Trial":70,"Valence":"Lose","Action":"Go","Robot":3,"trial_type":"pit-trial","trial_index":82,"time_elapsed":380250,"internal_node_id":"0.0-82.0"},{"Rune":"03","Correct":32,"Choice":32,"RT":485,"Accuracy":1,"Sham":0,"Outcome":"+10","Keys":[1985],"TotalKeys":1,"Block":1,"Trial":71,"Valence":"Win","Action":"Go","Robot":1,"trial_type":"pit-trial","trial_index":83,"time_elapsed":383237,"internal_node_id":"0.0-83.0"},{"Rune":"06","Correct":-1,"Choice":32,"RT":511,"Accuracy":0,"Sham":0,"Outcome":"+0","Keys":[2011],"TotalKeys":1,"Block":1,"Trial":72,"Valence":"Win","Action":"No-Go","Robot":2,"trial_type":"pit-trial","trial_index":84,"time_elapsed":386250,"internal_node_id":"0.0-84.0"},{"Rune":"06","Correct":-1,"Choice":32,"RT":459,"Accuracy":0,"Sham":0,"Outcome":"+0","Keys":[1960],"TotalKeys":1,"Block":1,"Trial":73,"Valence":"Win","Action":"No-Go","Robot":2,"trial_type":"pit-trial","trial_index":85,"time_elapsed":389211,"internal_node_id":"0.0-85.0"},{"Rune":"04","Correct":32,"Choice":32,"RT":896,"Accuracy":1,"Sham":1,"Outcome":"-10","Keys":[2397],"TotalKeys":1,"Block":1,"Trial":74,"Valence":"Lose","Action":"Go","Robot":3,"trial_type":"pit-trial","trial_index":86,"time_elapsed":392608,"internal_node_id":"0.0-86.0"},{"Rune":"03","Correct":32,"Choice":32,"RT":501,"Accuracy":1,"Sham":0,"Outcome":"+10","Keys":[2001],"TotalKeys":1,"Block":1,"Trial":75,"Valence":"Win","Action":"Go","Robot":1,"trial_type":"pit-trial","trial_index":87,"time_elapsed":395611,"internal_node_id":"0.0-87.0"},{"Rune":"05","Correct":-1,"Choice":-1,"RT":-1,"Accuracy":1,"Sham":0,"Outcome":"+0","Keys":[],"TotalKeys":0,"Block":1,"Trial":76,"Valence":"Lose","Action":"No-Go","Robot":4,"trial_type":"pit-trial","trial_index":88,"time_elapsed":399614,"internal_node_id":"0.0-88.0"},{"Rune":"06","Correct":-1,"Choice":32,"RT":561,"Accuracy":0,"Sham":1,"Outcome":"+10","Keys":[2062],"TotalKeys":1,"Block":1,"Trial":77,"Valence":"Win","Action":"No-Go","Robot":2,"trial_type":"pit-trial","trial_index":89,"time_elapsed":402678,"internal_node_id":"0.0-89.0"},{"Rune":"03","Correct":32,"Choice":32,"RT":495,"Accuracy":1,"Sham":0,"Outcome":"+10","Keys":[1995],"TotalKeys":1,"Block":1,"Trial":78,"Valence":"Win","Action":"Go","Robot":1,"trial_type":"pit-trial","trial_index":90,"time_elapsed":405675,"internal_node_id":"0.0-90.0"},{"Rune":"05","Correct":-1,"Choice":-1,"RT":-1,"Accuracy":1,"Sham":0,"Outcome":"+0","Keys":[],"TotalKeys":0,"Block":1,"Trial":79,"Valence":"Lose","Action":"No-Go","Robot":4,"trial_type":"pit-trial","trial_index":91,"time_elapsed":409677,"internal_node_id":"0.0-91.0"},{"Rune":"04","Correct":32,"Choice":32,"RT":462,"Accuracy":1,"Sham":0,"Outcome":"+0","Keys":[1964],"TotalKeys":1,"Block":1,"Trial":80,"Valence":"Lose","Action":"Go","Robot":3,"trial_type":"pit-trial","trial_index":92,"time_elapsed":412642,"internal_node_id":"0.0-92.0"},{"value":false,"trial_type":"call-function","trial_index":93,"time_elapsed":412644,"internal_node_id":"0.0-93.0"},{"RT":2570,"trial_type":"pit-pause","trial_index":94,"time_elapsed":418312,"internal_node_id":"0.0-94.0"},{"Rune":"03","Correct":32,"Choice":32,"RT":497,"Accuracy":1,"Sham":0,"Outcome":"+10","Keys":[1999],"TotalKeys":1,"Block":2,"Trial":81,"Valence":"Win","Action":"Go","Robot":1,"trial_type":"pit-trial","trial_index":95,"time_elapsed":421313,"internal_node_id":"0.0-95.0"},{"Rune":"06","Correct":-1,"Choice":32,"RT":463,"Accuracy":0,"Sham":0,"Outcome":"+0","Keys":[1965],"TotalKeys":1,"Block":2,"Trial":82,"Valence":"Win","Action":"No-Go","Robot":2,"trial_type":"pit-trial","trial_index":96,"time_elapsed":424279,"internal_node_id":"0.0-96.0"},{"Rune":"05","Correct":-1,"Choice":-1,"RT":-1,"Accuracy":1,"Sham":0,"Outcome":"+0","Keys":[],"TotalKeys":0,"Block":2,"Trial":83,"Valence":"Lose","Action":"No-Go","Robot":4,"trial_type":"pit-trial","trial_index":97,"time_elapsed":428283,"internal_node_id":"0.0-97.0"},{"Rune":"04","Correct":32,"Choice":32,"RT":376,"Accuracy":1,"Sham":0,"Outcome":"+0","Keys":[1875],"TotalKeys":1,"Block":2,"Trial":84,"Valence":"Lose","Action":"Go","Robot":3,"trial_type":"pit-trial","trial_index":98,"time_elapsed":431161,"internal_node_id":"0.0-98.0"},{"Rune":"03","Correct":32,"Choice":32,"RT":453,"Accuracy":1,"Sham":0,"Outcome":"+10","Keys":[1954],"TotalKeys":1,"Block":2,"Trial":85,"Valence":"Win","Action":"Go","Robot":1,"trial_type":"pit-trial","trial_index":99,"time_elapsed":434118,"internal_node_id":"0.0-99.0"},{"Rune":"06","Correct":-1,"Choice":32,"RT":540,"Accuracy":0,"Sham":0,"Outcome":"+0","Keys":[2040],"TotalKeys":1,"Block":2,"Trial":86,"Valence":"Win","Action":"No-Go","Robot":2,"trial_type":"pit-trial","trial_index":100,"time_elapsed":437160,"internal_node_id":"0.0-100.0"},{"Rune":"04","Correct":32,"Choice":32,"RT":822,"Accuracy":1,"Sham":0,"Outcome":"+0","Keys":[2321],"TotalKeys":1,"Block":2,"Trial":87,"Valence":"Lose","Action":"Go","Robot":3,"trial_type":"pit-trial","trial_index":101,"time_elapsed":440483,"internal_node_id":"0.0-101.0"},{"Rune":"05","Correct":-1,"Choice":-1,"RT":-1,"Accuracy":1,"Sham":0,"Outcome":"+0","Keys":[],"TotalKeys":0,"Block":2,"Trial":88,"Valence":"Lose","Action":"No-Go","Robot":4,"trial_type":"pit-trial","trial_index":102,"time_elapsed":444486,"internal_node_id":"0.0-102.0"},{"Rune":"04","Correct":32,"Choice":32,"RT":727,"Accuracy":1,"Sham":1,"Outcome":"-10","Keys":[2227],"TotalKeys":1,"Block":2,"Trial":89,"Valence":"Lose","Action":"Go","Robot":3,"trial_type":"pit-trial","trial_index":103,"time_elapsed":447716,"internal_node_id":"0.0-103.0"},{"Rune":"03","Correct":32,"Choice":32,"RT":565,"Accuracy":1,"Sham":1,"Outcome":"+0","Keys":[2066],"TotalKeys":1,"Block":2,"Trial":90,"Valence":"Win","Action":"Go","Robot":1,"trial_type":"pit-trial","trial_index":104,"time_elapsed":450783,"internal_node_id":"0.0-104.0"},{"Rune":"06","Correct":-1,"Choice":32,"RT":491,"Accuracy":0,"Sham":0,"Outcome":"+0","Keys":[1991],"TotalKeys":1,"Block":2,"Trial":91,"Valence":"Win","Action":"No-Go","Robot":2,"trial_type":"pit-trial","trial_index":105,"time_elapsed":453775,"internal_node_id":"0.0-105.0"},{"Rune":"05","Correct":-1,"Choice":-1,"RT":-1,"Accuracy":1,"Sham":0,"Outcome":"+0","Keys":[],"TotalKeys":0,"Block":2,"Trial":92,"Valence":"Lose","Action":"No-Go","Robot":4,"trial_type":"pit-trial","trial_index":106,"time_elapsed":457778,"internal_node_id":"0.0-106.0"},{"Rune":"05","Correct":-1,"Choice":-1,"RT":-1,"Accuracy":1,"Sham":0,"Outcome":"+0","Keys":[],"TotalKeys":0,"Block":2,"Trial":93,"Valence":"Lose","Action":"No-Go","Robot":4,"trial_type":"pit-trial","trial_index":107,"time_elapsed":461782,"internal_node_id":"0.0-107.0"},{"Rune":"03","Correct":32,"Choice":32,"RT":397,"Accuracy":1,"Sham":0,"Outcome":"+10","Keys":[1897],"TotalKeys":1,"Block":2,"Trial":94,"Valence":"Win","Action":"Go","Robot":1,"trial_type":"pit-trial","trial_index":108,"time_elapsed":464680,"internal_node_id":"0.0-108.0"},{"Rune":"04","Correct":32,"Choice":32,"RT":431,"Accuracy":1,"Sham":0,"Outcome":"+0","Keys":[1931],"TotalKeys":1,"Block":2,"Trial":95,"Valence":"Lose","Action":"Go","Robot":3,"trial_type":"pit-trial","trial_index":109,"time_elapsed":467613,"internal_node_id":"0.0-109.0"},{"Rune":"06","Correct":-1,"Choice":-1,"RT":-1,"Accuracy":1,"Sham":1,"Outcome":"+0","Keys":[],"TotalKeys":0,"Block":2,"Trial":96,"Valence":"Win","Action":"No-Go","Robot":2,"trial_type":"pit-trial","trial_index":110,"time_elapsed":471616,"internal_node_id":"0.0-110.0"},{"Rune":"05","Correct":-1,"Choice":32,"RT":1438,"Accuracy":0,"Sham":1,"Outcome":"+0","Keys":[2938],"TotalKeys":1,"Block":2,"Trial":97,"Valence":"Lose","Action":"No-Go","Robot":4,"trial_type":"pit-trial","trial_index":111,"time_elapsed":475555,"internal_node_id":"0.0-111.0"},{"Rune":"03","Correct":32,"Choice":32,"RT":554,"Accuracy":1,"Sham":0,"Outcome":"+10","Keys":[2056],"TotalKeys":1,"Block":2,"Trial":98,"Valence":"Win","Action":"Go","Robot":1,"trial_type":"pit-trial","trial_index":112,"time_elapsed":478614,"internal_node_id":"0.0-112.0"},{"Rune":"04","Correct":32,"Choice":32,"RT":786,"Accuracy":1,"Sham":0,"Outcome":"+0","Keys":[2287],"TotalKeys":1,"Block":2,"Trial":99,"Valence":"Lose","Action":"Go","Robot":3,"trial_type":"pit-trial","trial_index":113,"time_elapsed":481901,"internal_node_id":"0.0-113.0"},{"Rune":"06","Correct":-1,"Choice":32,"RT":539,"Accuracy":0,"Sham":0,"Outcome":"+0","Keys":[2040],"TotalKeys":1,"Block":2,"Trial":100,"Valence":"Win","Action":"No-Go","Robot":2,"trial_type":"pit-trial","trial_index":114,"time_elapsed":484943,"internal_node_id":"0.0-114.0"},{"Rune":"05","Correct":-1,"Choice":-1,"RT":-1,"Accuracy":1,"Sham":0,"Outcome":"+0","Keys":[],"TotalKeys":0,"Block":2,"Trial":101,"Valence":"Lose","Action":"No-Go","Robot":4,"trial_type":"pit-trial","trial_index":115,"time_elapsed":488946,"internal_node_id":"0.0-115.0"},{"Rune":"04","Correct":32,"Choice":32,"RT":610,"Accuracy":1,"Sham":0,"Outcome":"+0","Keys":[2112],"TotalKeys":1,"Block":2,"Trial":102,"Valence":"Lose","Action":"Go","Robot":3,"trial_type":"pit-trial","trial_index":116,"time_elapsed":492061,"internal_node_id":"0.0-116.0"},{"Rune":"03","Correct":32,"Choice":32,"RT":459,"Accuracy":1,"Sham":1,"Outcome":"+0","Keys":[1960],"TotalKeys":1,"Block":2,"Trial":103,"Valence":"Win","Action":"Go","Robot":1,"trial_type":"pit-trial","trial_index":117,"time_elapsed":495022,"internal_node_id":"0.0-117.0"},{"Rune":"06","Correct":-1,"Choice":32,"RT":526,"Accuracy":0,"Sham":1,"Outcome":"+10","Keys":[2027],"TotalKeys":1,"Block":2,"Trial":104,"Valence":"Win","Action":"No-Go","Robot":2,"trial_type":"pit-trial","trial_index":118,"time_elapsed":498049,"internal_node_id":"0.0-118.0"},{"Rune":"04","Correct":32,"Choice":32,"RT":836,"Accuracy":1,"Sham":0,"Outcome":"+0","Keys":[2337],"TotalKeys":1,"Block":2,"Trial":105,"Valence":"Lose","Action":"Go","Robot":3,"trial_type":"pit-trial","trial_index":119,"time_elapsed":501387,"internal_node_id":"0.0-119.0"},{"Rune":"03","Correct":32,"Choice":32,"RT":461,"Accuracy":1,"Sham":0,"Outcome":"+10","Keys":[1961],"TotalKeys":1,"Block":2,"Trial":106,"Valence":"Win","Action":"Go","Robot":1,"trial_type":"pit-trial","trial_index":120,"time_elapsed":504350,"internal_node_id":"0.0-120.0"},{"Rune":"06","Correct":-1,"Choice":32,"RT":533,"Accuracy":0,"Sham":0,"Outcome":"+0","Keys":[2034],"TotalKeys":1,"Block":2,"Trial":107,"Valence":"Win","Action":"No-Go","Robot":2,"trial_type":"pit-trial","trial_index":121,"time_elapsed":507388,"internal_node_id":"0.0-121.0"},{"Rune":"05","Correct":-1,"Choice":-1,"RT":-1,"Accuracy":1,"Sham":0,"Outcome":"+0","Keys":[],"TotalKeys":0,"Block":2,"Trial":108,"Valence":"Lose","Action":"No-Go","Robot":4,"trial_type":"pit-trial","trial_index":122,"time_elapsed":511391,"internal_node_id":"0.0-122.0"},{"Rune":"06","Correct":-1,"Choice":32,"RT":630,"Accuracy":0,"Sham":0,"Outcome":"+0","Keys":[2129],"TotalKeys":1,"Block":2,"Trial":109,"Valence":"Win","Action":"No-Go","Robot":2,"trial_type":"pit-trial","trial_index":123,"time_elapsed":514523,"internal_node_id":"0.0-123.0"},{"Rune":"05","Correct":-1,"Choice":-1,"RT":-1,"Accuracy":1,"Sham":0,"Outcome":"+0","Keys":[],"TotalKeys":0,"Block":2,"Trial":110,"Valence":"Lose","Action":"No-Go","Robot":4,"trial_type":"pit-trial","trial_index":124,"time_elapsed":518525,"internal_node_id":"0.0-124.0"},{"Rune":"03","Correct":32,"Choice":32,"RT":593,"Accuracy":1,"Sham":0,"Outcome":"+10","Keys":[2094],"TotalKeys":1,"Block":2,"Trial":111,"Valence":"Win","Action":"Go","Robot":1,"trial_type":"pit-trial","trial_index":125,"time_elapsed":521620,"internal_node_id":"0.0-125.0"},{"Rune":"04","Correct":32,"Choice":32,"RT":1306,"Accuracy":1,"Sham":0,"Outcome":"+0","Keys":[2807],"TotalKeys":1,"Block":2,"Trial":112,"Valence":"Lose","Action":"Go","Robot":3,"trial_type":"pit-trial","trial_index":126,"time_elapsed":525429,"internal_node_id":"0.0-126.0"},{"Rune":"06","Correct":-1,"Choice":32,"RT":985,"Accuracy":0,"Sham":0,"Outcome":"+0","Keys":[2486],"TotalKeys":1,"Block":2,"Trial":113,"Valence":"Win","Action":"No-Go","Robot":2,"trial_type":"pit-trial","trial_index":127,"time_elapsed":528917,"internal_node_id":"0.0-127.0"},{"Rune":"05","Correct":-1,"Choice":-1,"RT":-1,"Accuracy":1,"Sham":0,"Outcome":"+0","Keys":[],"TotalKeys":0,"Block":2,"Trial":114,"Valence":"Lose","Action":"No-Go","Robot":4,"trial_type":"pit-trial","trial_index":128,"time_elapsed":532921,"internal_node_id":"0.0-128.0"},{"Rune":"04","Correct":32,"Choice":32,"RT":656,"Accuracy":1,"Sham":1,"Outcome":"-10","Keys":[2157],"TotalKeys":1,"Block":2,"Trial":115,"Valence":"Lose","Action":"Go","Robot":3,"trial_type":"pit-trial","trial_index":129,"time_elapsed":536079,"internal_node_id":"0.0-129.0"},{"Rune":"03","Correct":32,"Choice":32,"RT":459,"Accuracy":1,"Sham":0,"Outcome":"+10","Keys":[1960],"TotalKeys":1,"Block":2,"Trial":116,"Valence":"Win","Action":"Go","Robot":1,"trial_type":"pit-trial","trial_index":130,"time_elapsed":539040,"internal_node_id":"0.0-130.0"},{"Rune":"05","Correct":-1,"Choice":-1,"RT":-1,"Accuracy":1,"Sham":1,"Outcome":"-10","Keys":[],"TotalKeys":0,"Block":2,"Trial":117,"Valence":"Lose","Action":"No-Go","Robot":4,"trial_type":"pit-trial","trial_index":131,"time_elapsed":543043,"internal_node_id":"0.0-131.0"},{"Rune":"04","Correct":32,"Choice":32,"RT":1123,"Accuracy":1,"Sham":0,"Outcome":"+0","Keys":[2625],"TotalKeys":1,"Block":2,"Trial":118,"Valence":"Lose","Action":"Go","Robot":3,"trial_type":"pit-trial","trial_index":132,"time_elapsed":546669,"internal_node_id":"0.0-132.0"},{"Rune":"06","Correct":-1,"Choice":32,"RT":1232,"Accuracy":0,"Sham":0,"Outcome":"+0","Keys":[2732],"TotalKeys":1,"Block":2,"Trial":119,"Valence":"Win","Action":"No-Go","Robot":2,"trial_type":"pit-trial","trial_index":133,"time_elapsed":550403,"internal_node_id":"0.0-133.0"},{"Rune":"03","Correct":32,"Choice":32,"RT":474,"Accuracy":1,"Sham":0,"Outcome":"+10","Keys":[1975],"TotalKeys":1,"Block":2,"Trial":120,"Valence":"Win","Action":"Go","Robot":1,"trial_type":"pit-trial","trial_index":134,"time_elapsed":553381,"internal_node_id":"0.0-134.0"},{"Rune":"06","Correct":-1,"Choice":32,"RT":651,"Accuracy":0,"Sham":0,"Outcome":"+0","Keys":[2151],"TotalKeys":1,"Block":2,"Trial":121,"Valence":"Win","Action":"No-Go","Robot":2,"trial_type":"pit-trial","trial_index":135,"time_elapsed":556534,"internal_node_id":"0.0-135.0"},{"Rune":"05","Correct":-1,"Choice":-1,"RT":-1,"Accuracy":1,"Sham":0,"Outcome":"+0","Keys":[],"TotalKeys":0,"Block":2,"Trial":122,"Valence":"Lose","Action":"No-Go","Robot":4,"trial_type":"pit-trial","trial_index":136,"time_elapsed":560536,"internal_node_id":"0.0-136.0"},{"Rune":"04","Correct":32,"Choice":32,"RT":802,"Accuracy":1,"Sham":0,"Outcome":"+0","Keys":[2302],"TotalKeys":1,"Block":2,"Trial":123,"Valence":"Lose","Action":"Go","Robot":3,"trial_type":"pit-trial","trial_index":137,"time_elapsed":563840,"internal_node_id":"0.0-137.0"},{"Rune":"03","Correct":32,"Choice":32,"RT":765,"Accuracy":1,"Sham":1,"Outcome":"+0","Keys":[2265],"TotalKeys":1,"Block":2,"Trial":124,"Valence":"Win","Action":"Go","Robot":1,"trial_type":"pit-trial","trial_index":138,"time_elapsed":567108,"internal_node_id":"0.0-138.0"},{"Rune":"04","Correct":32,"Choice":32,"RT":688,"Accuracy":1,"Sham":1,"Outcome":"-10","Keys":[2190],"TotalKeys":1,"Block":2,"Trial":125,"Valence":"Lose","Action":"Go","Robot":3,"trial_type":"pit-trial","trial_index":139,"time_elapsed":570300,"internal_node_id":"0.0-139.0"},{"Rune":"05","Correct":-1,"Choice":-1,"RT":-1,"Accuracy":1,"Sham":0,"Outcome":"+0","Keys":[],"TotalKeys":0,"Block":2,"Trial":126,"Valence":"Lose","Action":"No-Go","Robot":4,"trial_type":"pit-trial","trial_index":140,"time_elapsed":574302,"internal_node_id":"0.0-140.0"},{"Rune":"06","Correct":-1,"Choice":-1,"RT":-1,"Accuracy":1,"Sham":0,"Outcome":"+10","Keys":[],"TotalKeys":0,"Block":2,"Trial":127,"Valence":"Win","Action":"No-Go","Robot":2,"trial_type":"pit-trial","trial_index":141,"time_elapsed":578304,"internal_node_id":"0.0-141.0"},{"Rune":"03","Correct":32,"Choice":32,"RT":680,"Accuracy":1,"Sham":0,"Outcome":"+10","Keys":[2180],"TotalKeys":1,"Block":2,"Trial":128,"Valence":"Win","Action":"Go","Robot":1,"trial_type":"pit-trial","trial_index":142,"time_elapsed":581487,"internal_node_id":"0.0-142.0"},{"Rune":"05","Correct":-1,"Choice":-1,"RT":-1,"Accuracy":1,"Sham":0,"Outcome":"+0","Keys":[],"TotalKeys":0,"Block":2,"Trial":129,"Valence":"Lose","Action":"No-Go","Robot":4,"trial_type":"pit-trial","trial_index":143,"time_elapsed":585490,"internal_node_id":"0.0-143.0"},{"Rune":"03","Correct":32,"Choice":32,"RT":973,"Accuracy":1,"Sham":0,"Outcome":"+10","Keys":[2473],"TotalKeys":1,"Block":2,"Trial":130,"Valence":"Win","Action":"Go","Robot":1,"trial_type":"pit-trial","trial_index":144,"time_elapsed":588964,"internal_node_id":"0.0-144.0"},{"Rune":"04","Correct":32,"Choice":32,"RT":706,"Accuracy":1,"Sham":0,"Outcome":"+0","Keys":[2207],"TotalKeys":1,"Block":2,"Trial":131,"Valence":"Lose","Action":"Go","Robot":3,"trial_type":"pit-trial","trial_index":145,"time_elapsed":592174,"internal_node_id":"0.0-145.0"},{"Rune":"06","Correct":-1,"Choice":-1,"RT":-1,"Accuracy":1,"Sham":0,"Outcome":"+10","Keys":[],"TotalKeys":0,"Block":2,"Trial":132,"Valence":"Win","Action":"No-Go","Robot":2,"trial_type":"pit-trial","trial_index":146,"time_elapsed":596177,"internal_node_id":"0.0-146.0"},{"Rune":"05","Correct":-1,"Choice":-1,"RT":-1,"Accuracy":1,"Sham":0,"Outcome":"+0","Keys":[],"TotalKeys":0,"Block":2,"Trial":133,"Valence":"Lose","Action":"No-Go","Robot":4,"trial_type":"pit-trial","trial_index":147,"time_elapsed":600180,"internal_node_id":"0.0-147.0"},{"Rune":"03","Correct":32,"Choice":32,"RT":1298,"Accuracy":1,"Sham":0,"Outcome":"+10","Keys":[2799],"TotalKeys":1,"Block":2,"Trial":134,"Valence":"Win","Action":"Go","Robot":1,"trial_type":"pit-trial","trial_index":148,"time_elapsed":603981,"internal_node_id":"0.0-148.0"},{"Rune":"04","Correct":32,"Choice":32,"RT":915,"Accuracy":1,"Sham":0,"Outcome":"+0","Keys":[2415],"TotalKeys":1,"Block":2,"Trial":135,"Valence":"Lose","Action":"Go","Robot":3,"trial_type":"pit-trial","trial_index":149,"time_elapsed":607400,"internal_node_id":"0.0-149.0"},{"Rune":"06","Correct":-1,"Choice":-1,"RT":-1,"Accuracy":1,"Sham":0,"Outcome":"+10","Keys":[],"TotalKeys":0,"Block":2,"Trial":136,"Valence":"Win","Action":"No-Go","Robot":2,"trial_type":"pit-trial","trial_index":150,"time_elapsed":611401,"internal_node_id":"0.0-150.0"},{"Rune":"05","Correct":-1,"Choice":-1,"RT":-1,"Accuracy":1,"Sham":1,"Outcome":"-10","Keys":[],"TotalKeys":0,"Block":2,"Trial":137,"Valence":"Lose","Action":"No-Go","Robot":4,"trial_type":"pit-trial","trial_index":151,"time_elapsed":615405,"internal_node_id":"0.0-151.0"},{"Rune":"03","Correct":32,"Choice":32,"RT":1280,"Accuracy":1,"Sham":0,"Outcome":"+10","Keys":[2780],"TotalKeys":1,"Block":2,"Trial":138,"Valence":"Win","Action":"Go","Robot":1,"trial_type":"pit-trial","trial_index":152,"time_elapsed":619186,"internal_node_id":"0.0-152.0"},{"Rune":"04","Correct":32,"Choice":32,"RT":552,"Accuracy":1,"Sham":0,"Outcome":"+0","Keys":[2051],"TotalKeys":1,"Block":2,"Trial":139,"Valence":"Lose","Action":"Go","Robot":3,"trial_type":"pit-trial","trial_index":153,"time_elapsed":622240,"internal_node_id":"0.0-153.0"},{"Rune":"06","Correct":-1,"Choice":-1,"RT":-1,"Accuracy":1,"Sham":1,"Outcome":"+0","Keys":[],"TotalKeys":0,"Block":2,"Trial":140,"Valence":"Win","Action":"No-Go","Robot":2,"trial_type":"pit-trial","trial_index":154,"time_elapsed":626242,"internal_node_id":"0.0-154.0"},{"Rune":"06","Correct":-1,"Choice":32,"RT":1087,"Accuracy":0,"Sham":1,"Outcome":"+10","Keys":[2588],"TotalKeys":1,"Block":2,"Trial":141,"Valence":"Win","Action":"No-Go","Robot":2,"trial_type":"pit-trial","trial_index":155,"time_elapsed":629832,"internal_node_id":"0.0-155.0"},{"Rune":"04","Correct":32,"Choice":32,"RT":503,"Accuracy":1,"Sham":0,"Outcome":"+0","Keys":[2004],"TotalKeys":1,"Block":2,"Trial":142,"Valence":"Lose","Action":"Go","Robot":3,"trial_type":"pit-trial","trial_index":156,"time_elapsed":632839,"internal_node_id":"0.0-156.0"},{"Rune":"03","Correct":32,"Choice":32,"RT":938,"Accuracy":1,"Sham":0,"Outcome":"+10","Keys":[2437],"TotalKeys":1,"Block":2,"Trial":143,"Valence":"Win","Action":"Go","Robot":1,"trial_type":"pit-trial","trial_index":157,"time_elapsed":636278,"internal_node_id":"0.0-157.0"},{"Rune":"05","Correct":-1,"Choice":-1,"RT":-1,"Accuracy":1,"Sham":0,"Outcome":"+0","Keys":[],"TotalKeys":0,"Block":2,"Trial":144,"Valence":"Lose","Action":"No-Go","Robot":4,"trial_type":"pit-trial","trial_index":158,"time_elapsed":640280,"internal_node_id":"0.0-158.0"},{"Rune":"05","Correct":-1,"Choice":-1,"RT":-1,"Accuracy":1,"Sham":0,"Outcome":"+0","Keys":[],"TotalKeys":0,"Block":2,"Trial":145,"Valence":"Lose","Action":"No-Go","Robot":4,"trial_type":"pit-trial","trial_index":159,"time_elapsed":644283,"internal_node_id":"0.0-159.0"},{"Rune":"03","Correct":32,"Choice":32,"RT":717,"Accuracy":1,"Sham":0,"Outcome":"+10","Keys":[2218],"TotalKeys":1,"Block":2,"Trial":146,"Valence":"Win","Action":"Go","Robot":1,"trial_type":"pit-trial","trial_index":160,"time_elapsed":647503,"internal_node_id":"0.0-160.0"},{"Rune":"04","Correct":32,"Choice":32,"RT":610,"Accuracy":1,"Sham":0,"Outcome":"+0","Keys":[2111],"TotalKeys":1,"Block":2,"Trial":147,"Valence":"Lose","Action":"Go","Robot":3,"trial_type":"pit-trial","trial_index":161,"time_elapsed":650616,"internal_node_id":"0.0-161.0"},{"Rune":"06","Correct":-1,"Choice":32,"RT":734,"Accuracy":0,"Sham":0,"Outcome":"+0","Keys":[2235],"TotalKeys":1,"Block":2,"Trial":148,"Valence":"Win","Action":"No-Go","Robot":2,"trial_type":"pit-trial","trial_index":162,"time_elapsed":653854,"internal_node_id":"0.0-162.0"},{"Rune":"06","Correct":-1,"Choice":-1,"RT":-1,"Accuracy":1,"Sham":0,"Outcome":"+10","Keys":[],"TotalKeys":0,"Block":2,"Trial":149,"Valence":"Win","Action":"No-Go","Robot":2,"trial_type":"pit-trial","trial_index":163,"time_elapsed":657857,"internal_node_id":"0.0-163.0"},{"Rune":"05","Correct":-1,"Choice":-1,"RT":-1,"Accuracy":1,"Sham":0,"Outcome":"+0","Keys":[],"TotalKeys":0,"Block":2,"Trial":150,"Valence":"Lose","Action":"No-Go","Robot":4,"trial_type":"pit-trial","trial_index":164,"time_elapsed":661861,"internal_node_id":"0.0-164.0"},{"Rune":"04","Correct":32,"Choice":32,"RT":542,"Accuracy":1,"Sham":0,"Outcome":"+0","Keys":[2042],"TotalKeys":1,"Block":2,"Trial":151,"Valence":"Lose","Action":"Go","Robot":3,"trial_type":"pit-trial","trial_index":165,"time_elapsed":664905,"internal_node_id":"0.0-165.0"},{"Rune":"03","Correct":32,"Choice":32,"RT":419,"Accuracy":1,"Sham":0,"Outcome":"+10","Keys":[1920],"TotalKeys":1,"Block":2,"Trial":152,"Valence":"Win","Action":"Go","Robot":1,"trial_type":"pit-trial","trial_index":166,"time_elapsed":667827,"internal_node_id":"0.0-166.0"},{"Rune":"03","Correct":32,"Choice":32,"RT":645,"Accuracy":1,"Sham":0,"Outcome":"+10","Keys":[2145],"TotalKeys":1,"Block":2,"Trial":153,"Valence":"Win","Action":"Go","Robot":1,"trial_type":"pit-trial","trial_index":167,"time_elapsed":670975,"internal_node_id":"0.0-167.0"},{"Rune":"05","Correct":-1,"Choice":-1,"RT":-1,"Accuracy":1,"Sham":0,"Outcome":"+0","Keys":[],"TotalKeys":0,"Block":2,"Trial":154,"Valence":"Lose","Action":"No-Go","Robot":4,"trial_type":"pit-trial","trial_index":168,"time_elapsed":674978,"internal_node_id":"0.0-168.0"},{"Rune":"04","Correct":32,"Choice":32,"RT":622,"Accuracy":1,"Sham":0,"Outcome":"+0","Keys":[2121],"TotalKeys":1,"Block":2,"Trial":155,"Valence":"Lose","Action":"Go","Robot":3,"trial_type":"pit-trial","trial_index":169,"time_elapsed":678102,"internal_node_id":"0.0-169.0"},{"Rune":"06","Correct":-1,"Choice":-1,"RT":-1,"Accuracy":1,"Sham":0,"Outcome":"+10","Keys":[],"TotalKeys":0,"Block":2,"Trial":156,"Valence":"Win","Action":"No-Go","Robot":2,"trial_type":"pit-trial","trial_index":170,"time_elapsed":682104,"internal_node_id":"0.0-170.0"},{"Rune":"04","Correct":32,"Choice":32,"RT":497,"Accuracy":1,"Sham":1,"Outcome":"-10","Keys":[1998],"TotalKeys":1,"Block":2,"Trial":157,"Valence":"Lose","Action":"Go","Robot":3,"trial_type":"pit-trial","trial_index":171,"time_elapsed":685103,"internal_node_id":"0.0-171.0"},{"Rune":"05","Correct":-1,"Choice":-1,"RT":-1,"Accuracy":1,"Sham":1,"Outcome":"-10","Keys":[],"TotalKeys":0,"Block":2,"Trial":158,"Valence":"Lose","Action":"No-Go","Robot":4,"trial_type":"pit-trial","trial_index":172,"time_elapsed":689105,"internal_node_id":"0.0-172.0"},{"Rune":"06","Correct":-1,"Choice":-1,"RT":-1,"Accuracy":1,"Sham":0,"Outcome":"+10","Keys":[],"TotalKeys":0,"Block":2,"Trial":159,"Valence":"Win","Action":"No-Go","Robot":2,"trial_type":"pit-trial","trial_index":173,"time_elapsed":693106,"internal_node_id":"0.0-173.0"},{"Rune":"03","Correct":32,"Choice":32,"RT":550,"Accuracy":1,"Sham":1,"Outcome":"+0","Keys":[2050],"TotalKeys":1,"Block":2,"Trial":160,"Valence":"Win","Action":"Go","Robot":1,"trial_type":"pit-trial","trial_index":174,"time_elapsed":696158,"internal_node_id":"0.0-174.0"},{"rt":19893,"demographics":{"age":"52","gender-categorical":"Male","ethnicity":"Not Hispanic or Latino","race":"White","english":"Yes","fluency":"Very well"},"trial_type":"survey-demo","trial_index":175,"time_elapsed":716055,"internal_node_id":"0.0-175.0"},{"rt":41098,"debriefgraphics":{"difficulty":"3","fun":"3","clarity":"5","strategy":"no ","feedback":""},"trial_type":"survey-debrief","trial_index":176,"time_elapsed":757155,"internal_node_id":"0.0-176.0","interactions":"[{\"event\":\"focus\",\"trial\":0,\"time\":0}]"}]