[{"view_history":"[{\"page_index\":0,\"viewing_time\":14976.165000000037},{\"page_index\":1,\"viewing_time\":2166.1999999778345},{\"page_index\":2,\"viewing_time\":8082.0300000486895},{\"page_index\":3,\"viewing_time\":2602.5599999702536},{\"page_index\":4,\"viewing_time\":2011.6200000047684}]","rt":29839.905000000726,"trial_type":"pit-instructions","trial_index":0,"time_elapsed":29841,"internal_node_id":"0.0-0.0"},{"Valence":"Practice","Color":"#fffff080","Rune":"01","Correct":32,"Choice":32,"RT":1218.5950000421144,"Accuracy":1,"Sham":0,"Outcome":"+10","Keys":[2719.2899999790825],"TotalKeys":1,"trial_type":"pit-trial","trial_index":1,"time_elapsed":33572,"internal_node_id":"0.0-1.0"},{"Valence":"Practice","Color":"#fffff080","Rune":"01","Correct":32,"Choice":32,"RT":977.3900000145659,"Accuracy":1,"Sham":0,"Outcome":"+10","Keys":[2478.3300000126474],"TotalKeys":1,"trial_type":"pit-trial","trial_index":2,"time_elapsed":37056,"internal_node_id":"0.0-2.0"},{"Valence":"Practice","Color":"#fffff080","Rune":"01","Correct":32,"Choice":32,"RT":548.7349999602884,"Accuracy":1,"Sham":0,"Outcome":"+10","Keys":[2049.0850000060163],"TotalKeys":1,"trial_type":"pit-trial","trial_index":3,"time_elapsed":40111,"internal_node_id":"0.0-3.0"},{"Valence":"Practice","Color":"#fffff080","Rune":"01","Correct":32,"Choice":32,"RT":660.9450000105426,"Accuracy":1,"Sham":0,"Outcome":"+10","Keys":[2161.3600000273436],"TotalKeys":1,"trial_type":"pit-trial","trial_index":4,"time_elapsed":43280,"internal_node_id":"0.0-4.0"},{"view_history":"[{\"page_index\":0,\"viewing_time\":2808.199999970384}]","rt":2808.7149999919347,"trial_type":"pit-instructions","trial_index":5,"time_elapsed":46092,"internal_node_id":"0.0-5.0"},{"Valence":"Practice","Color":"#fffff080","Rune":"02","Correct":-1,"Choice":-1,"RT":-1,"Accuracy":1,"Sham":0,"Outcome":"+10","Keys":[],"TotalKeys":0,"trial_type":"pit-trial","trial_index":6,"time_elapsed":50099,"internal_node_id":"0.0-6.0"},{"Valence":"Practice","Color":"#fffff080","Rune":"02","Correct":-1,"Choice":-1,"RT":-1,"Accuracy":1,"Sham":0,"Outcome":"+10","Keys":[],"TotalKeys":0,"trial_type":"pit-trial","trial_index":7,"time_elapsed":54106,"internal_node_id":"0.0-7.0"},{"Valence":"Practice","Color":"#fffff080","Rune":"02","Correct":-1,"Choice":-1,"RT":-1,"Accuracy":1,"Sham":0,"Outcome":"+10","Keys":[],"TotalKeys":0,"trial_type":"pit-trial","trial_index":8,"time_elapsed":58114,"internal_node_id":"0.0-8.0"},{"Valence":"Practice","Color":"#fffff080","Rune":"02","Correct":-1,"Choice":-1,"RT":-1,"Accuracy":1,"Sham":0,"Outcome":"+10","Keys":[],"TotalKeys":0,"trial_type":"pit-trial","trial_index":9,"time_elapsed":62119,"internal_node_id":"0.0-9.0"},{"view_history":"[{\"page_index\":0,\"viewing_time\":2118.524999998044},{\"page_index\":1,\"viewing_time\":6562.135000014678},{\"page_index\":2,\"viewing_time\":6911.83999995701},{\"page_index\":3,\"viewing_time\":3974.0900000324473},{\"page_index\":4,\"viewing_time\":2353.929999982938},{\"page_index\":5,\"viewing_time\":8470.030000025872},{\"page_index\":6,\"viewing_time\":1433.9150000014342},{\"page_index\":7,\"viewing_time\":1168.0099999648519}]","rt":32993.115000019316,"trial_type":"pit-instructions","trial_index":10,"time_elapsed":95116,"internal_node_id":"0.0-10.0"},{"rt":10508.874999999534,"responses":"{\"no-press\":\"Do nothing\",\"context-win\":\"+10\",\"context-lose\":\"-1\",\"feedback\":\"True\"}","errors":0,"trial_type":"pit-comprehension","trial_index":11,"time_elapsed":105639,"internal_node_id":"0.0-11.0"},{"view_history":"[{\"page_index\":0,\"viewing_time\":3219.9900000123307}]","rt":3220.46500002034,"trial_type":"pit-instructions","trial_index":12,"time_elapsed":108869,"internal_node_id":"0.0-12.0"},{"Valence":"Win","Color":"#ffcc3399","Rune":"05","Correct":-1,"Choice":32,"RT":1205.7999999960884,"Accuracy":0,"Sham":0,"Outcome":"+1","Keys":[2707.5150000164285],"TotalKeys":1,"Block":1,"Trial":1,"Action":"No-Go","Robot":2,"trial_type":"pit-trial","trial_index":13,"time_elapsed":112582,"internal_node_id":"0.0-13.0"},{"Valence":"Lose","Color":"#3366ff99","Rune":"04","Correct":32,"Choice":32,"RT":629.9949999665841,"Accuracy":1,"Sham":0,"Outcome":"-1","Keys":[2130.6149999727495],"TotalKeys":1,"Block":1,"Trial":2,"Action":"Go","Robot":3,"trial_type":"pit-trial","trial_index":14,"time_elapsed":115719,"internal_node_id":"0.0-14.0"},{"Valence":"Lose","Color":"#3366ff99","Rune":"03","Correct":-1,"Choice":-1,"RT":-1,"Accuracy":1,"Sham":0,"Outcome":"-1","Keys":[],"TotalKeys":0,"Block":1,"Trial":3,"Action":"No-Go","Robot":4,"trial_type":"pit-trial","trial_index":15,"time_elapsed":119725,"internal_node_id":"0.0-15.0"},{"Valence":"Win","Color":"#ffcc3399","Rune":"06","Correct":32,"Choice":-1,"RT":-1,"Accuracy":0,"Sham":0,"Outcome":"+1","Keys":[],"TotalKeys":0,"Block":1,"Trial":4,"Action":"Go","Robot":1,"trial_type":"pit-trial","trial_index":16,"time_elapsed":123735,"internal_node_id":"0.0-16.0"},{"Valence":"Lose","Color":"#3366ff99","Rune":"04","Correct":32,"Choice":-1,"RT":-1,"Accuracy":0,"Sham":1,"Outcome":"-1","Keys":[],"TotalKeys":0,"Block":1,"Trial":5,"Action":"Go","Robot":3,"trial_type":"pit-trial","trial_index":17,"time_elapsed":127744,"internal_node_id":"0.0-17.0"},{"Valence":"Lose","Color":"#3366ff99","Rune":"03","Correct":-1,"Choice":32,"RT":763.8199999928474,"Accuracy":0,"Sham":0,"Outcome":"-10","Keys":[2265.4200000106357],"TotalKeys":1,"Block":1,"Trial":6,"Action":"No-Go","Robot":4,"trial_type":"pit-trial","trial_index":18,"time_elapsed":131014,"internal_node_id":"0.0-18.0"},{"Valence":"Win","Color":"#ffcc3399","Rune":"06","Correct":32,"Choice":32,"RT":759.650000021793,"Accuracy":1,"Sham":0,"Outcome":"+10","Keys":[2672.374999965541],"TotalKeys":1,"Block":1,"Trial":7,"Action":"Go","Robot":1,"trial_type":"pit-trial","trial_index":19,"time_elapsed":134695,"internal_node_id":"0.0-19.0"},{"Valence":"Win","Color":"#ffcc3399","Rune":"05","Correct":-1,"Choice":-1,"RT":-1,"Accuracy":1,"Sham":0,"Outcome":"+10","Keys":[],"TotalKeys":0,"Block":1,"Trial":8,"Action":"No-Go","Robot":2,"trial_type":"pit-trial","trial_index":20,"time_elapsed":138703,"internal_node_id":"0.0-20.0"},{"Valence":"Win","Color":"#ffcc3399","Rune":"06","Correct":32,"Choice":32,"RT":582.2199999820441,"Accuracy":1,"Sham":0,"Outcome":"+10","Keys":[2083.3699999493547],"TotalKeys":1,"Block":1,"Trial":9,"Action":"Go","Robot":1,"trial_type":"pit-trial","trial_index":21,"time_elapsed":141791,"internal_node_id":"0.0-21.0"},{"Valence":"Lose","Color":"#3366ff99","Rune":"04","Correct":32,"Choice":-1,"RT":-1,"Accuracy":0,"Sham":0,"Outcome":"-10","Keys":[],"TotalKeys":0,"Block":1,"Trial":10,"Action":"Go","Robot":3,"trial_type":"pit-trial","trial_index":22,"time_elapsed":146176,"internal_node_id":"0.0-22.0"},{"Valence":"Win","Color":"#ffcc3399","Rune":"05","Correct":-1,"Choice":32,"RT":669.5099999778904,"Accuracy":0,"Sham":0,"Outcome":"+1","Keys":[2171.105000015814],"TotalKeys":1,"Block":1,"Trial":11,"Action":"No-Go","Robot":2,"trial_type":"pit-trial","trial_index":23,"time_elapsed":149354,"internal_node_id":"0.0-23.0"},{"Valence":"Lose","Color":"#3366ff99","Rune":"03","Correct":-1,"Choice":-1,"RT":-1,"Accuracy":1,"Sham":0,"Outcome":"-1","Keys":[],"TotalKeys":0,"Block":1,"Trial":12,"Action":"No-Go","Robot":4,"trial_type":"pit-trial","trial_index":24,"time_elapsed":153360,"internal_node_id":"0.0-24.0"},{"Valence":"Win","Color":"#ffcc3399","Rune":"06","Correct":32,"Choice":32,"RT":680.9000000357628,"Accuracy":1,"Sham":0,"Outcome":"+10","Keys":[2181.240000005346],"TotalKeys":1,"Block":1,"Trial":13,"Action":"Go","Robot":1,"trial_type":"pit-trial","trial_index":25,"time_elapsed":156545,"internal_node_id":"0.0-25.0"},{"Valence":"Win","Color":"#ffcc3399","Rune":"05","Correct":-1,"Choice":32,"RT":518.5300000011921,"Accuracy":0,"Sham":0,"Outcome":"+1","Keys":[2019.365000014659],"TotalKeys":1,"Block":1,"Trial":14,"Action":"No-Go","Robot":2,"trial_type":"pit-trial","trial_index":26,"time_elapsed":159569,"internal_node_id":"0.0-26.0"},{"Valence":"Lose","Color":"#3366ff99","Rune":"04","Correct":32,"Choice":32,"RT":803.9600000483915,"Accuracy":1,"Sham":0,"Outcome":"-1","Keys":[2304.795000003651],"TotalKeys":1,"Block":1,"Trial":15,"Action":"Go","Robot":3,"trial_type":"pit-trial","trial_index":27,"time_elapsed":162879,"internal_node_id":"0.0-27.0"},{"Valence":"Lose","Color":"#3366ff99","Rune":"03","Correct":-1,"Choice":-1,"RT":-1,"Accuracy":1,"Sham":1,"Outcome":"-10","Keys":[],"TotalKeys":0,"Block":1,"Trial":16,"Action":"No-Go","Robot":4,"trial_type":"pit-trial","trial_index":28,"time_elapsed":166885,"internal_node_id":"0.0-28.0"},{"Valence":"Win","Color":"#ffcc3399","Rune":"06","Correct":32,"Choice":32,"RT":476.48500005016103,"Accuracy":1,"Sham":1,"Outcome":"1","Keys":[1976.8800000310875],"TotalKeys":1,"Block":1,"Trial":17,"Action":"Go","Robot":1,"trial_type":"pit-trial","trial_index":29,"time_elapsed":169868,"internal_node_id":"0.0-29.0"},{"Valence":"Lose","Color":"#3366ff99","Rune":"04","Correct":32,"Choice":32,"RT":681.3350000302307,"Accuracy":1,"Sham":0,"Outcome":"-1","Keys":[2181.685000017751],"TotalKeys":1,"Block":1,"Trial":18,"Action":"Go","Robot":3,"trial_type":"pit-trial","trial_index":30,"time_elapsed":173055,"internal_node_id":"0.0-30.0"},{"Valence":"Win","Color":"#ffcc3399","Rune":"05","Correct":-1,"Choice":32,"RT":537.3099999851547,"Accuracy":0,"Sham":1,"Outcome":"+10","Keys":[2037.5599999679253],"TotalKeys":1,"Block":1,"Trial":19,"Action":"No-Go","Robot":2,"trial_type":"pit-trial","trial_index":31,"time_elapsed":176100,"internal_node_id":"0.0-31.0"},{"Valence":"Lose","Color":"#3366ff99","Rune":"03","Correct":-1,"Choice":32,"RT":508.0350000062026,"Accuracy":0,"Sham":0,"Outcome":"-10","Keys":[2009.7400000086054],"TotalKeys":1,"Block":1,"Trial":20,"Action":"No-Go","Robot":4,"trial_type":"pit-trial","trial_index":32,"time_elapsed":179114,"internal_node_id":"0.0-32.0"},{"Valence":"Lose","Color":"#3366ff99","Rune":"03","Correct":-1,"Choice":-1,"RT":-1,"Accuracy":1,"Sham":0,"Outcome":"-1","Keys":[],"TotalKeys":0,"Block":1,"Trial":21,"Action":"No-Go","Robot":4,"trial_type":"pit-trial","trial_index":33,"time_elapsed":183120,"internal_node_id":"0.0-33.0"},{"Valence":"Win","Color":"#ffcc3399","Rune":"05","Correct":-1,"Choice":32,"RT":394.09499999601394,"Accuracy":0,"Sham":0,"Outcome":"+1","Keys":[1894.9349999893457],"TotalKeys":1,"Block":1,"Trial":22,"Action":"No-Go","Robot":2,"trial_type":"pit-trial","trial_index":34,"time_elapsed":186238,"internal_node_id":"0.0-34.0"},{"Valence":"Win","Color":"#ffcc3399","Rune":"06","Correct":32,"Choice":32,"RT":450.3050000057556,"Accuracy":1,"Sham":0,"Outcome":"+10","Keys":[1952.1700000041164],"TotalKeys":1,"Block":1,"Trial":23,"Action":"Go","Robot":1,"trial_type":"pit-trial","trial_index":35,"time_elapsed":189198,"internal_node_id":"0.0-35.0"},{"Valence":"Lose","Color":"#3366ff99","Rune":"04","Correct":32,"Choice":32,"RT":751.5950000379235,"Accuracy":1,"Sham":0,"Outcome":"-1","Keys":[2252.4149999953806],"TotalKeys":1,"Block":1,"Trial":24,"Action":"Go","Robot":3,"trial_type":"pit-trial","trial_index":36,"time_elapsed":192456,"internal_node_id":"0.0-36.0"},{"Valence":"Lose","Color":"#3366ff99","Rune":"03","Correct":-1,"Choice":-1,"RT":-1,"Accuracy":1,"Sham":0,"Outcome":"-1","Keys":[],"TotalKeys":0,"Block":1,"Trial":25,"Action":"No-Go","Robot":4,"trial_type":"pit-trial","trial_index":37,"time_elapsed":196462,"internal_node_id":"0.0-37.0"},{"Valence":"Win","Color":"#ffcc3399","Rune":"06","Correct":32,"Choice":32,"RT":536.4249999984168,"Accuracy":1,"Sham":0,"Outcome":"+10","Keys":[2037.8499999642372],"TotalKeys":1,"Block":1,"Trial":26,"Action":"Go","Robot":1,"trial_type":"pit-trial","trial_index":38,"time_elapsed":199505,"internal_node_id":"0.0-38.0"},{"Valence":"Lose","Color":"#3366ff99","Rune":"04","Correct":32,"Choice":-1,"RT":-1,"Accuracy":0,"Sham":0,"Outcome":"-10","Keys":[],"TotalKeys":0,"Block":1,"Trial":27,"Action":"Go","Robot":3,"trial_type":"pit-trial","trial_index":39,"time_elapsed":203512,"internal_node_id":"0.0-39.0"},{"Valence":"Win","Color":"#ffcc3399","Rune":"05","Correct":-1,"Choice":32,"RT":477.16000000946224,"Accuracy":0,"Sham":0,"Outcome":"+1","Keys":[1978.7650000071153],"TotalKeys":1,"Block":1,"Trial":28,"Action":"No-Go","Robot":2,"trial_type":"pit-trial","trial_index":40,"time_elapsed":206495,"internal_node_id":"0.0-40.0"},{"Valence":"Lose","Color":"#3366ff99","Rune":"04","Correct":32,"Choice":-1,"RT":-1,"Accuracy":0,"Sham":0,"Outcome":"-10","Keys":[3326.1599999968894],"TotalKeys":1,"Block":1,"Trial":29,"Action":"Go","Robot":3,"trial_type":"pit-trial","trial_index":41,"time_elapsed":210562,"internal_node_id":"0.0-41.0"},{"Valence":"Win","Color":"#ffcc3399","Rune":"05","Correct":-1,"Choice":32,"RT":444.8349999729544,"Accuracy":0,"Sham":1,"Outcome":"+10","Keys":[1946.3600000017323],"TotalKeys":1,"Block":1,"Trial":30,"Action":"No-Go","Robot":2,"trial_type":"pit-trial","trial_index":42,"time_elapsed":213514,"internal_node_id":"0.0-42.0"},{"Valence":"Win","Color":"#ffcc3399","Rune":"06","Correct":32,"Choice":32,"RT":408.6300000199117,"Accuracy":1,"Sham":1,"Outcome":"1","Keys":[1908.8850000407547],"TotalKeys":1,"Block":1,"Trial":31,"Action":"Go","Robot":1,"trial_type":"pit-trial","trial_index":43,"time_elapsed":216430,"internal_node_id":"0.0-43.0"},{"Valence":"Lose","Color":"#3366ff99","Rune":"03","Correct":-1,"Choice":-1,"RT":-1,"Accuracy":1,"Sham":0,"Outcome":"-1","Keys":[],"TotalKeys":0,"Block":1,"Trial":32,"Action":"No-Go","Robot":4,"trial_type":"pit-trial","trial_index":44,"time_elapsed":220435,"internal_node_id":"0.0-44.0"},{"Valence":"Lose","Color":"#3366ff99","Rune":"03","Correct":-1,"Choice":32,"RT":609.1700000106357,"Accuracy":0,"Sham":0,"Outcome":"-10","Keys":[2109.2899999930523],"TotalKeys":1,"Block":1,"Trial":33,"Action":"No-Go","Robot":4,"trial_type":"pit-trial","trial_index":45,"time_elapsed":223550,"internal_node_id":"0.0-45.0"},{"Valence":"Win","Color":"#ffcc3399","Rune":"05","Correct":-1,"Choice":32,"RT":517.519999993965,"Accuracy":0,"Sham":0,"Outcome":"+1","Keys":[2018.9799999934621],"TotalKeys":1,"Block":1,"Trial":34,"Action":"No-Go","Robot":2,"trial_type":"pit-trial","trial_index":46,"time_elapsed":226576,"internal_node_id":"0.0-46.0"},{"Valence":"Win","Color":"#ffcc3399","Rune":"06","Correct":32,"Choice":32,"RT":630.7399999932386,"Accuracy":1,"Sham":0,"Outcome":"+10","Keys":[2133.8049999903888],"TotalKeys":1,"Block":1,"Trial":35,"Action":"Go","Robot":1,"trial_type":"pit-trial","trial_index":47,"time_elapsed":230236,"internal_node_id":"0.0-47.0"},{"Valence":"Lose","Color":"#3366ff99","Rune":"04","Correct":32,"Choice":32,"RT":634.0049999998882,"Accuracy":1,"Sham":1,"Outcome":"-10","Keys":[2134.169999975711],"TotalKeys":1,"Block":1,"Trial":36,"Action":"Go","Robot":3,"trial_type":"pit-trial","trial_index":48,"time_elapsed":233381,"internal_node_id":"0.0-48.0"},{"Valence":"Lose","Color":"#3366ff99","Rune":"03","Correct":-1,"Choice":-1,"RT":-1,"Accuracy":1,"Sham":1,"Outcome":"-10","Keys":[],"TotalKeys":0,"Block":1,"Trial":37,"Action":"No-Go","Robot":4,"trial_type":"pit-trial","trial_index":49,"time_elapsed":237389,"internal_node_id":"0.0-49.0"},{"Valence":"Lose","Color":"#3366ff99","Rune":"04","Correct":32,"Choice":32,"RT":543.8250000006519,"Accuracy":1,"Sham":0,"Outcome":"-1","Keys":[2045.2749999822117],"TotalKeys":1,"Block":1,"Trial":38,"Action":"Go","Robot":3,"trial_type":"pit-trial","trial_index":50,"time_elapsed":240440,"internal_node_id":"0.0-50.0"},{"Valence":"Win","Color":"#ffcc3399","Rune":"06","Correct":32,"Choice":32,"RT":528.6450000130571,"Accuracy":1,"Sham":0,"Outcome":"+10","Keys":[2029.6899999957532],"TotalKeys":1,"Block":1,"Trial":39,"Action":"Go","Robot":1,"trial_type":"pit-trial","trial_index":51,"time_elapsed":243475,"internal_node_id":"0.0-51.0"},{"Valence":"Win","Color":"#ffcc3399","Rune":"05","Correct":-1,"Choice":32,"RT":588.3000000030734,"Accuracy":0,"Sham":0,"Outcome":"+1","Keys":[2089.070000045467],"TotalKeys":1,"Block":1,"Trial":40,"Action":"No-Go","Robot":2,"trial_type":"pit-trial","trial_index":52,"time_elapsed":246571,"internal_node_id":"0.0-52.0"},{"Valence":"Lose","Color":"#3366ff99","Rune":"04","Correct":32,"Choice":32,"RT":596.5949999517761,"Accuracy":1,"Sham":1,"Outcome":"-10","Keys":[2098.1700000120327],"TotalKeys":1,"Block":1,"Trial":41,"Action":"Go","Robot":3,"trial_type":"pit-trial","trial_index":53,"time_elapsed":249677,"internal_node_id":"0.0-53.0"},{"Valence":"Win","Color":"#ffcc3399","Rune":"05","Correct":-1,"Choice":32,"RT":485.8150000218302,"Accuracy":0,"Sham":0,"Outcome":"+1","Keys":[1986.5350000327453],"TotalKeys":1,"Block":1,"Trial":42,"Action":"No-Go","Robot":2,"trial_type":"pit-trial","trial_index":54,"time_elapsed":252671,"internal_node_id":"0.0-54.0"},{"Valence":"Lose","Color":"#3366ff99","Rune":"03","Correct":-1,"Choice":-1,"RT":-1,"Accuracy":1,"Sham":0,"Outcome":"-1","Keys":[],"TotalKeys":0,"Block":1,"Trial":43,"Action":"No-Go","Robot":4,"trial_type":"pit-trial","trial_index":55,"time_elapsed":256682,"internal_node_id":"0.0-55.0"},{"Valence":"Win","Color":"#ffcc3399","Rune":"06","Correct":32,"Choice":32,"RT":410.2299999794923,"Accuracy":1,"Sham":0,"Outcome":"+10","Keys":[1910.8499999856576],"TotalKeys":1,"Block":1,"Trial":44,"Action":"Go","Robot":1,"trial_type":"pit-trial","trial_index":56,"time_elapsed":259598,"internal_node_id":"0.0-56.0"},{"Valence":"Lose","Color":"#3366ff99","Rune":"03","Correct":-1,"Choice":-1,"RT":-1,"Accuracy":1,"Sham":0,"Outcome":"-1","Keys":[],"TotalKeys":0,"Block":1,"Trial":45,"Action":"No-Go","Robot":4,"trial_type":"pit-trial","trial_index":57,"time_elapsed":263604,"internal_node_id":"0.0-57.0"},{"Valence":"Win","Color":"#ffcc3399","Rune":"05","Correct":-1,"Choice":-1,"RT":-1,"Accuracy":1,"Sham":1,"Outcome":"1","Keys":[],"TotalKeys":0,"Block":1,"Trial":46,"Action":"No-Go","Robot":2,"trial_type":"pit-trial","trial_index":58,"time_elapsed":267611,"internal_node_id":"0.0-58.0"},{"Valence":"Lose","Color":"#3366ff99","Rune":"04","Correct":32,"Choice":32,"RT":702.0500000216998,"Accuracy":1,"Sham":0,"Outcome":"-1","Keys":[2202.534999989439],"TotalKeys":1,"Block":1,"Trial":47,"Action":"Go","Robot":3,"trial_type":"pit-trial","trial_index":59,"time_elapsed":270821,"internal_node_id":"0.0-59.0"},{"Valence":"Win","Color":"#ffcc3399","Rune":"06","Correct":32,"Choice":32,"RT":452.6649999897927,"Accuracy":1,"Sham":0,"Outcome":"+10","Keys":[1953.6950000328943],"TotalKeys":1,"Block":1,"Trial":48,"Action":"Go","Robot":1,"trial_type":"pit-trial","trial_index":60,"time_elapsed":273782,"internal_node_id":"0.0-60.0"},{"Valence":"Lose","Color":"#3366ff99","Rune":"03","Correct":-1,"Choice":-1,"RT":-1,"Accuracy":1,"Sham":0,"Outcome":"-1","Keys":[],"TotalKeys":0,"Block":1,"Trial":49,"Action":"No-Go","Robot":4,"trial_type":"pit-trial","trial_index":61,"time_elapsed":277789,"internal_node_id":"0.0-61.0"},{"Valence":"Win","Color":"#ffcc3399","Rune":"06","Correct":32,"Choice":32,"RT":487.7599999890663,"Accuracy":1,"Sham":0,"Outcome":"+10","Keys":[1988.7149999849498],"TotalKeys":1,"Block":1,"Trial":50,"Action":"Go","Robot":1,"trial_type":"pit-trial","trial_index":62,"time_elapsed":280786,"internal_node_id":"0.0-62.0"},{"Valence":"Win","Color":"#ffcc3399","Rune":"05","Correct":-1,"Choice":32,"RT":773.92999996664,"Accuracy":0,"Sham":0,"Outcome":"+1","Keys":[2275.6749999825843],"TotalKeys":1,"Block":1,"Trial":51,"Action":"No-Go","Robot":2,"trial_type":"pit-trial","trial_index":63,"time_elapsed":284072,"internal_node_id":"0.0-63.0"},{"Valence":"Lose","Color":"#3366ff99","Rune":"04","Correct":32,"Choice":32,"RT":527.6500000036322,"Accuracy":1,"Sham":0,"Outcome":"-1","Keys":[2028.5099999746308],"TotalKeys":1,"Block":1,"Trial":52,"Action":"Go","Robot":3,"trial_type":"pit-trial","trial_index":64,"time_elapsed":287108,"internal_node_id":"0.0-64.0"},{"Valence":"Win","Color":"#ffcc3399","Rune":"05","Correct":-1,"Choice":32,"RT":645.9100000211038,"Accuracy":0,"Sham":0,"Outcome":"+1","Keys":[2146.6099999961443],"TotalKeys":1,"Block":1,"Trial":53,"Action":"No-Go","Robot":2,"trial_type":"pit-trial","trial_index":65,"time_elapsed":290262,"internal_node_id":"0.0-65.0"},{"Valence":"Lose","Color":"#3366ff99","Rune":"04","Correct":32,"Choice":32,"RT":456.26499998616055,"Accuracy":1,"Sham":0,"Outcome":"-1","Keys":[1956.4949999912642],"TotalKeys":1,"Block":1,"Trial":54,"Action":"Go","Robot":3,"trial_type":"pit-trial","trial_index":66,"time_elapsed":293225,"internal_node_id":"0.0-66.0"},{"Valence":"Lose","Color":"#3366ff99","Rune":"03","Correct":-1,"Choice":-1,"RT":-1,"Accuracy":1,"Sham":0,"Outcome":"-1","Keys":[],"TotalKeys":0,"Block":1,"Trial":55,"Action":"No-Go","Robot":4,"trial_type":"pit-trial","trial_index":67,"time_elapsed":297237,"internal_node_id":"0.0-67.0"},{"Valence":"Win","Color":"#ffcc3399","Rune":"06","Correct":32,"Choice":32,"RT":418.0849999538623,"Accuracy":1,"Sham":0,"Outcome":"+10","Keys":[1919.0299999900162],"TotalKeys":1,"Block":1,"Trial":56,"Action":"Go","Robot":1,"trial_type":"pit-trial","trial_index":68,"time_elapsed":300164,"internal_node_id":"0.0-68.0"},{"Valence":"Win","Color":"#ffcc3399","Rune":"06","Correct":32,"Choice":32,"RT":374.23999997554347,"Accuracy":1,"Sham":1,"Outcome":"1","Keys":[1875.2349999849685],"TotalKeys":1,"Block":1,"Trial":57,"Action":"Go","Robot":1,"trial_type":"pit-trial","trial_index":69,"time_elapsed":303044,"internal_node_id":"0.0-69.0"},{"Valence":"Lose","Color":"#3366ff99","Rune":"04","Correct":32,"Choice":32,"RT":560.4150000144728,"Accuracy":1,"Sham":0,"Outcome":"-1","Keys":[2060.9800000092946],"TotalKeys":1,"Block":1,"Trial":58,"Action":"Go","Robot":3,"trial_type":"pit-trial","trial_index":70,"time_elapsed":306235,"internal_node_id":"0.0-70.0"},{"Valence":"Lose","Color":"#3366ff99","Rune":"03","Correct":-1,"Choice":-1,"RT":-1,"Accuracy":1,"Sham":1,"Outcome":"-10","Keys":[],"TotalKeys":0,"Block":1,"Trial":59,"Action":"No-Go","Robot":4,"trial_type":"pit-trial","trial_index":71,"time_elapsed":310249,"internal_node_id":"0.0-71.0"},{"Valence":"Win","Color":"#ffcc3399","Rune":"05","Correct":-1,"Choice":32,"RT":559.3649999937043,"Accuracy":0,"Sham":0,"Outcome":"+1","Keys":[2061.109999951441],"TotalKeys":1,"Block":1,"Trial":60,"Action":"No-Go","Robot":2,"trial_type":"pit-trial","trial_index":72,"time_elapsed":313318,"internal_node_id":"0.0-72.0"},{"Valence":"Win","Color":"#ffcc3399","Rune":"05","Correct":-1,"Choice":32,"RT":538.1850000121631,"Accuracy":0,"Sham":0,"Outcome":"+1","Keys":[2038.620000006631],"TotalKeys":1,"Block":1,"Trial":61,"Action":"No-Go","Robot":2,"trial_type":"pit-trial","trial_index":73,"time_elapsed":316363,"internal_node_id":"0.0-73.0"},{"Valence":"Lose","Color":"#3366ff99","Rune":"04","Correct":32,"Choice":32,"RT":425.5149999517016,"Accuracy":1,"Sham":0,"Outcome":"-1","Keys":[1926.8649999867193],"TotalKeys":1,"Block":1,"Trial":62,"Action":"Go","Robot":3,"trial_type":"pit-trial","trial_index":74,"time_elapsed":319553,"internal_node_id":"0.0-74.0"},{"Valence":"Lose","Color":"#3366ff99","Rune":"03","Correct":-1,"Choice":32,"RT":446.799999976065,"Accuracy":0,"Sham":0,"Outcome":"-10","Keys":[1947.0849999925122],"TotalKeys":1,"Block":1,"Trial":63,"Action":"No-Go","Robot":4,"trial_type":"pit-trial","trial_index":75,"time_elapsed":322506,"internal_node_id":"0.0-75.0"},{"Valence":"Win","Color":"#ffcc3399","Rune":"06","Correct":32,"Choice":32,"RT":405.9300000080839,"Accuracy":1,"Sham":0,"Outcome":"+10","Keys":[1907.184999960009],"TotalKeys":1,"Block":1,"Trial":64,"Action":"Go","Robot":1,"trial_type":"pit-trial","trial_index":76,"time_elapsed":325419,"internal_node_id":"0.0-76.0"},{"Valence":"Win","Color":"#ffcc3399","Rune":"05","Correct":-1,"Choice":32,"RT":689.974999986589,"Accuracy":0,"Sham":0,"Outcome":"+1","Keys":[2190.539999981411],"TotalKeys":1,"Block":1,"Trial":65,"Action":"No-Go","Robot":2,"trial_type":"pit-trial","trial_index":77,"time_elapsed":328618,"internal_node_id":"0.0-77.0"},{"Valence":"Lose","Color":"#3366ff99","Rune":"03","Correct":-1,"Choice":32,"RT":571.1299999966286,"Accuracy":0,"Sham":0,"Outcome":"-10","Keys":[2072.325000015553],"TotalKeys":1,"Block":1,"Trial":66,"Action":"No-Go","Robot":4,"trial_type":"pit-trial","trial_index":78,"time_elapsed":331700,"internal_node_id":"0.0-78.0"},{"Valence":"Win","Color":"#ffcc3399","Rune":"06","Correct":32,"Choice":32,"RT":380.4849999723956,"Accuracy":1,"Sham":1,"Outcome":"1","Keys":[1880.6700000423007],"TotalKeys":1,"Block":1,"Trial":67,"Action":"Go","Robot":1,"trial_type":"pit-trial","trial_index":79,"time_elapsed":334586,"internal_node_id":"0.0-79.0"},{"Valence":"Lose","Color":"#3366ff99","Rune":"04","Correct":32,"Choice":32,"RT":518.804999999702,"Accuracy":1,"Sham":0,"Outcome":"-1","Keys":[2019.8799999780022],"TotalKeys":1,"Block":1,"Trial":68,"Action":"Go","Robot":3,"trial_type":"pit-trial","trial_index":80,"time_elapsed":337613,"internal_node_id":"0.0-80.0"},{"Valence":"Lose","Color":"#3366ff99","Rune":"03","Correct":-1,"Choice":-1,"RT":-1,"Accuracy":1,"Sham":1,"Outcome":"-10","Keys":[],"TotalKeys":0,"Block":1,"Trial":69,"Action":"No-Go","Robot":4,"trial_type":"pit-trial","trial_index":81,"time_elapsed":341623,"internal_node_id":"0.0-81.0"},{"Valence":"Lose","Color":"#3366ff99","Rune":"04","Correct":32,"Choice":32,"RT":625.9699999936856,"Accuracy":1,"Sham":0,"Outcome":"-1","Keys":[2126.585000019986],"TotalKeys":1,"Block":1,"Trial":70,"Action":"Go","Robot":3,"trial_type":"pit-trial","trial_index":82,"time_elapsed":344754,"internal_node_id":"0.0-82.0"},{"Valence":"Win","Color":"#ffcc3399","Rune":"06","Correct":32,"Choice":32,"RT":386.6750000161119,"Accuracy":1,"Sham":0,"Outcome":"+10","Keys":[1888.0500000086613],"TotalKeys":1,"Block":1,"Trial":71,"Action":"Go","Robot":1,"trial_type":"pit-trial","trial_index":83,"time_elapsed":347648,"internal_node_id":"0.0-83.0"},{"Valence":"Win","Color":"#ffcc3399","Rune":"05","Correct":-1,"Choice":32,"RT":774.2649999563582,"Accuracy":0,"Sham":0,"Outcome":"+1","Keys":[2276.1800000444055],"TotalKeys":1,"Block":1,"Trial":72,"Action":"No-Go","Robot":2,"trial_type":"pit-trial","trial_index":84,"time_elapsed":350931,"internal_node_id":"0.0-84.0"},{"Valence":"Win","Color":"#ffcc3399","Rune":"05","Correct":-1,"Choice":32,"RT":705.5750000290573,"Accuracy":0,"Sham":0,"Outcome":"+1","Keys":[2206.4600000157952],"TotalKeys":1,"Block":1,"Trial":73,"Action":"No-Go","Robot":2,"trial_type":"pit-trial","trial_index":85,"time_elapsed":354143,"internal_node_id":"0.0-85.0"},{"Valence":"Lose","Color":"#3366ff99","Rune":"04","Correct":32,"Choice":32,"RT":619.9100000085309,"Accuracy":1,"Sham":1,"Outcome":"-10","Keys":[2120.200000004843],"TotalKeys":1,"Block":1,"Trial":74,"Action":"Go","Robot":3,"trial_type":"pit-trial","trial_index":86,"time_elapsed":357272,"internal_node_id":"0.0-86.0"},{"Valence":"Win","Color":"#ffcc3399","Rune":"06","Correct":32,"Choice":32,"RT":520.2900000149384,"Accuracy":1,"Sham":0,"Outcome":"+10","Keys":[2021.2249999749474],"TotalKeys":1,"Block":1,"Trial":75,"Action":"Go","Robot":1,"trial_type":"pit-trial","trial_index":87,"time_elapsed":360299,"internal_node_id":"0.0-87.0"},{"Valence":"Lose","Color":"#3366ff99","Rune":"03","Correct":-1,"Choice":-1,"RT":-1,"Accuracy":1,"Sham":0,"Outcome":"-1","Keys":[],"TotalKeys":0,"Block":1,"Trial":76,"Action":"No-Go","Robot":4,"trial_type":"pit-trial","trial_index":88,"time_elapsed":364308,"internal_node_id":"0.0-88.0"},{"Valence":"Win","Color":"#ffcc3399","Rune":"05","Correct":-1,"Choice":-1,"RT":-1,"Accuracy":1,"Sham":1,"Outcome":"1","Keys":[],"TotalKeys":0,"Block":1,"Trial":77,"Action":"No-Go","Robot":2,"trial_type":"pit-trial","trial_index":89,"time_elapsed":368314,"internal_node_id":"0.0-89.0"},{"Valence":"Win","Color":"#ffcc3399","Rune":"06","Correct":32,"Choice":32,"RT":528.2799999695271,"Accuracy":1,"Sham":0,"Outcome":"+10","Keys":[2029.195000010077],"TotalKeys":1,"Block":1,"Trial":78,"Action":"Go","Robot":1,"trial_type":"pit-trial","trial_index":90,"time_elapsed":371348,"internal_node_id":"0.0-90.0"},{"Valence":"Lose","Color":"#3366ff99","Rune":"03","Correct":-1,"Choice":-1,"RT":-1,"Accuracy":1,"Sham":0,"Outcome":"-1","Keys":[],"TotalKeys":0,"Block":1,"Trial":79,"Action":"No-Go","Robot":4,"trial_type":"pit-trial","trial_index":91,"time_elapsed":375355,"internal_node_id":"0.0-91.0"},{"Valence":"Lose","Color":"#3366ff99","Rune":"04","Correct":32,"Choice":32,"RT":819.2949999938719,"Accuracy":1,"Sham":0,"Outcome":"-1","Keys":[2319.789999979548],"TotalKeys":1,"Block":1,"Trial":80,"Action":"Go","Robot":3,"trial_type":"pit-trial","trial_index":92,"time_elapsed":378681,"internal_node_id":"0.0-92.0"},{"value":false,"trial_type":"call-function","trial_index":93,"time_elapsed":378690,"internal_node_id":"0.0-93.0"},{"RT":17652.014999999665,"trial_type":"pit-pause","trial_index":94,"time_elapsed":398265,"internal_node_id":"0.0-94.0"},{"Valence":"Win","Color":"#ffcc3399","Rune":"06","Correct":32,"Choice":32,"RT":494.5050000096671,"Accuracy":1,"Sham":0,"Outcome":"+10","Keys":[1995.085000002291],"TotalKeys":1,"Block":2,"Trial":81,"Action":"Go","Robot":1,"trial_type":"pit-trial","trial_index":95,"time_elapsed":401270,"internal_node_id":"0.0-95.0"},{"Valence":"Win","Color":"#ffcc3399","Rune":"05","Correct":-1,"Choice":-1,"RT":-1,"Accuracy":1,"Sham":0,"Outcome":"+10","Keys":[],"TotalKeys":0,"Block":2,"Trial":82,"Action":"No-Go","Robot":2,"trial_type":"pit-trial","trial_index":96,"time_elapsed":405275,"internal_node_id":"0.0-96.0"},{"Valence":"Lose","Color":"#3366ff99","Rune":"03","Correct":-1,"Choice":-1,"RT":-1,"Accuracy":1,"Sham":0,"Outcome":"-1","Keys":[],"TotalKeys":0,"Block":2,"Trial":83,"Action":"No-Go","Robot":4,"trial_type":"pit-trial","trial_index":97,"time_elapsed":409284,"internal_node_id":"0.0-97.0"},{"Valence":"Lose","Color":"#3366ff99","Rune":"04","Correct":32,"Choice":32,"RT":498.99499997263774,"Accuracy":1,"Sham":0,"Outcome":"-1","Keys":[2000.945000036154],"TotalKeys":1,"Block":2,"Trial":84,"Action":"Go","Robot":3,"trial_type":"pit-trial","trial_index":98,"time_elapsed":412290,"internal_node_id":"0.0-98.0"},{"Valence":"Win","Color":"#ffcc3399","Rune":"06","Correct":32,"Choice":32,"RT":589.9099999805912,"Accuracy":1,"Sham":0,"Outcome":"+10","Keys":[2089.9999999674037],"TotalKeys":1,"Block":2,"Trial":85,"Action":"Go","Robot":1,"trial_type":"pit-trial","trial_index":99,"time_elapsed":415387,"internal_node_id":"0.0-99.0"},{"Valence":"Win","Color":"#ffcc3399","Rune":"05","Correct":-1,"Choice":-1,"RT":-1,"Accuracy":1,"Sham":0,"Outcome":"+10","Keys":[],"TotalKeys":0,"Block":2,"Trial":86,"Action":"No-Go","Robot":2,"trial_type":"pit-trial","trial_index":100,"time_elapsed":419395,"internal_node_id":"0.0-100.0"},{"Valence":"Lose","Color":"#3366ff99","Rune":"04","Correct":32,"Choice":32,"RT":503.4299999824725,"Accuracy":1,"Sham":0,"Outcome":"-1","Keys":[2005.1450000028126],"TotalKeys":1,"Block":2,"Trial":87,"Action":"Go","Robot":3,"trial_type":"pit-trial","trial_index":101,"time_elapsed":422408,"internal_node_id":"0.0-101.0"},{"Valence":"Lose","Color":"#3366ff99","Rune":"03","Correct":-1,"Choice":-1,"RT":-1,"Accuracy":1,"Sham":0,"Outcome":"-1","Keys":[],"TotalKeys":0,"Block":2,"Trial":88,"Action":"No-Go","Robot":4,"trial_type":"pit-trial","trial_index":102,"time_elapsed":426415,"internal_node_id":"0.0-102.0"},{"Valence":"Lose","Color":"#3366ff99","Rune":"04","Correct":32,"Choice":32,"RT":465.46000003581867,"Accuracy":1,"Sham":1,"Outcome":"-10","Keys":[1967.1650000382215],"TotalKeys":1,"Block":2,"Trial":89,"Action":"Go","Robot":3,"trial_type":"pit-trial","trial_index":103,"time_elapsed":429388,"internal_node_id":"0.0-103.0"},{"Valence":"Win","Color":"#ffcc3399","Rune":"06","Correct":32,"Choice":32,"RT":425.27000000700355,"Accuracy":1,"Sham":1,"Outcome":"1","Keys":[1925.7649999926798],"TotalKeys":1,"Block":2,"Trial":90,"Action":"Go","Robot":1,"trial_type":"pit-trial","trial_index":104,"time_elapsed":432318,"internal_node_id":"0.0-104.0"},{"Valence":"Win","Color":"#ffcc3399","Rune":"05","Correct":-1,"Choice":-1,"RT":-1,"Accuracy":1,"Sham":0,"Outcome":"+10","Keys":[],"TotalKeys":0,"Block":2,"Trial":91,"Action":"No-Go","Robot":2,"trial_type":"pit-trial","trial_index":105,"time_elapsed":436327,"internal_node_id":"0.0-105.0"},{"Valence":"Lose","Color":"#3366ff99","Rune":"03","Correct":-1,"Choice":-1,"RT":-1,"Accuracy":1,"Sham":0,"Outcome":"-1","Keys":[],"TotalKeys":0,"Block":2,"Trial":92,"Action":"No-Go","Robot":4,"trial_type":"pit-trial","trial_index":106,"time_elapsed":440334,"internal_node_id":"0.0-106.0"},{"Valence":"Lose","Color":"#3366ff99","Rune":"03","Correct":-1,"Choice":-1,"RT":-1,"Accuracy":1,"Sham":0,"Outcome":"-1","Keys":[],"TotalKeys":0,"Block":2,"Trial":93,"Action":"No-Go","Robot":4,"trial_type":"pit-trial","trial_index":107,"time_elapsed":444341,"internal_node_id":"0.0-107.0"},{"Valence":"Win","Color":"#ffcc3399","Rune":"06","Correct":32,"Choice":-1,"RT":-1,"Accuracy":0,"Sham":0,"Outcome":"+1","Keys":[],"TotalKeys":0,"Block":2,"Trial":94,"Action":"Go","Robot":1,"trial_type":"pit-trial","trial_index":108,"time_elapsed":448348,"internal_node_id":"0.0-108.0"},{"Valence":"Lose","Color":"#3366ff99","Rune":"04","Correct":32,"Choice":32,"RT":687.8249999717809,"Accuracy":1,"Sham":0,"Outcome":"-1","Keys":[2188.0099999834783],"TotalKeys":1,"Block":2,"Trial":95,"Action":"Go","Robot":3,"trial_type":"pit-trial","trial_index":109,"time_elapsed":451541,"internal_node_id":"0.0-109.0"},{"Valence":"Win","Color":"#ffcc3399","Rune":"05","Correct":-1,"Choice":-1,"RT":-1,"Accuracy":1,"Sham":1,"Outcome":"1","Keys":[],"TotalKeys":0,"Block":2,"Trial":96,"Action":"No-Go","Robot":2,"trial_type":"pit-trial","trial_index":110,"time_elapsed":455551,"internal_node_id":"0.0-110.0"},{"Valence":"Lose","Color":"#3366ff99","Rune":"03","Correct":-1,"Choice":-1,"RT":-1,"Accuracy":1,"Sham":1,"Outcome":"-10","Keys":[],"TotalKeys":0,"Block":2,"Trial":97,"Action":"No-Go","Robot":4,"trial_type":"pit-trial","trial_index":111,"time_elapsed":459558,"internal_node_id":"0.0-111.0"},{"Valence":"Win","Color":"#ffcc3399","Rune":"06","Correct":32,"Choice":32,"RT":565.3249999741092,"Accuracy":1,"Sham":0,"Outcome":"+10","Keys":[2066.2299999967217],"TotalKeys":1,"Block":2,"Trial":98,"Action":"Go","Robot":1,"trial_type":"pit-trial","trial_index":112,"time_elapsed":462630,"internal_node_id":"0.0-112.0"},{"Valence":"Lose","Color":"#3366ff99","Rune":"04","Correct":32,"Choice":32,"RT":589.2900000326335,"Accuracy":1,"Sham":0,"Outcome":"-1","Keys":[2090.0699999765493],"TotalKeys":1,"Block":2,"Trial":99,"Action":"Go","Robot":3,"trial_type":"pit-trial","trial_index":113,"time_elapsed":465725,"internal_node_id":"0.0-113.0"},{"Valence":"Win","Color":"#ffcc3399","Rune":"05","Correct":-1,"Choice":-1,"RT":-1,"Accuracy":1,"Sham":0,"Outcome":"+10","Keys":[],"TotalKeys":0,"Block":2,"Trial":100,"Action":"No-Go","Robot":2,"trial_type":"pit-trial","trial_index":114,"time_elapsed":469731,"internal_node_id":"0.0-114.0"},{"Valence":"Lose","Color":"#3366ff99","Rune":"03","Correct":-1,"Choice":-1,"RT":-1,"Accuracy":1,"Sham":0,"Outcome":"-1","Keys":[],"TotalKeys":0,"Block":2,"Trial":101,"Action":"No-Go","Robot":4,"trial_type":"pit-trial","trial_index":115,"time_elapsed":473757,"internal_node_id":"0.0-115.0"},{"Valence":"Lose","Color":"#3366ff99","Rune":"04","Correct":32,"Choice":32,"RT":542.0099999755621,"Accuracy":1,"Sham":0,"Outcome":"-1","Keys":[2042.9350000340492],"TotalKeys":1,"Block":2,"Trial":102,"Action":"Go","Robot":3,"trial_type":"pit-trial","trial_index":116,"time_elapsed":476806,"internal_node_id":"0.0-116.0"},{"Valence":"Win","Color":"#ffcc3399","Rune":"06","Correct":32,"Choice":32,"RT":568.7700000125915,"Accuracy":1,"Sham":1,"Outcome":"1","Keys":[2070.0599999981932],"TotalKeys":1,"Block":2,"Trial":103,"Action":"Go","Robot":1,"trial_type":"pit-trial","trial_index":117,"time_elapsed":479882,"internal_node_id":"0.0-117.0"},{"Valence":"Win","Color":"#ffcc3399","Rune":"05","Correct":-1,"Choice":-1,"RT":-1,"Accuracy":1,"Sham":1,"Outcome":"1","Keys":[],"TotalKeys":0,"Block":2,"Trial":104,"Action":"No-Go","Robot":2,"trial_type":"pit-trial","trial_index":118,"time_elapsed":483890,"internal_node_id":"0.0-118.0"},{"Valence":"Lose","Color":"#3366ff99","Rune":"04","Correct":32,"Choice":32,"RT":544.1700000083074,"Accuracy":1,"Sham":0,"Outcome":"-1","Keys":[2044.9850000441074],"TotalKeys":1,"Block":2,"Trial":105,"Action":"Go","Robot":3,"trial_type":"pit-trial","trial_index":119,"time_elapsed":486944,"internal_node_id":"0.0-119.0"},{"Valence":"Win","Color":"#ffcc3399","Rune":"06","Correct":32,"Choice":32,"RT":529.7549999668263,"Accuracy":1,"Sham":0,"Outcome":"+10","Keys":[2029.8249999759719],"TotalKeys":1,"Block":2,"Trial":106,"Action":"Go","Robot":1,"trial_type":"pit-trial","trial_index":120,"time_elapsed":489979,"internal_node_id":"0.0-120.0"},{"Valence":"Win","Color":"#ffcc3399","Rune":"05","Correct":-1,"Choice":32,"RT":559.8500000196509,"Accuracy":0,"Sham":0,"Outcome":"+1","Keys":[2060.924999997951],"TotalKeys":1,"Block":2,"Trial":107,"Action":"No-Go","Robot":2,"trial_type":"pit-trial","trial_index":121,"time_elapsed":493046,"internal_node_id":"0.0-121.0"},{"Valence":"Lose","Color":"#3366ff99","Rune":"03","Correct":-1,"Choice":-1,"RT":-1,"Accuracy":1,"Sham":0,"Outcome":"-1","Keys":[],"TotalKeys":0,"Block":2,"Trial":108,"Action":"No-Go","Robot":4,"trial_type":"pit-trial","trial_index":122,"time_elapsed":497053,"internal_node_id":"0.0-122.0"},{"Valence":"Win","Color":"#ffcc3399","Rune":"05","Correct":-1,"Choice":32,"RT":414.51999999117106,"Accuracy":0,"Sham":0,"Outcome":"+1","Keys":[1914.8600000189617],"TotalKeys":1,"Block":2,"Trial":109,"Action":"No-Go","Robot":2,"trial_type":"pit-trial","trial_index":123,"time_elapsed":499974,"internal_node_id":"0.0-123.0"},{"Valence":"Lose","Color":"#3366ff99","Rune":"03","Correct":-1,"Choice":-1,"RT":-1,"Accuracy":1,"Sham":0,"Outcome":"-1","Keys":[],"TotalKeys":0,"Block":2,"Trial":110,"Action":"No-Go","Robot":4,"trial_type":"pit-trial","trial_index":124,"time_elapsed":503981,"internal_node_id":"0.0-124.0"},{"Valence":"Win","Color":"#ffcc3399","Rune":"06","Correct":32,"Choice":32,"RT":415.7250000280328,"Accuracy":1,"Sham":0,"Outcome":"+10","Keys":[1917.0300000114366],"TotalKeys":1,"Block":2,"Trial":111,"Action":"Go","Robot":1,"trial_type":"pit-trial","trial_index":125,"time_elapsed":506905,"internal_node_id":"0.0-125.0"},{"Valence":"Lose","Color":"#3366ff99","Rune":"04","Correct":32,"Choice":32,"RT":672.8449999936856,"Accuracy":1,"Sham":0,"Outcome":"-1","Keys":[2173.8200000254437],"TotalKeys":1,"Block":2,"Trial":112,"Action":"Go","Robot":3,"trial_type":"pit-trial","trial_index":126,"time_elapsed":510084,"internal_node_id":"0.0-126.0"},{"Valence":"Win","Color":"#ffcc3399","Rune":"05","Correct":-1,"Choice":-1,"RT":-1,"Accuracy":1,"Sham":0,"Outcome":"+10","Keys":[],"TotalKeys":0,"Block":2,"Trial":113,"Action":"No-Go","Robot":2,"trial_type":"pit-trial","trial_index":127,"time_elapsed":514090,"internal_node_id":"0.0-127.0"},{"Valence":"Lose","Color":"#3366ff99","Rune":"03","Correct":-1,"Choice":-1,"RT":-1,"Accuracy":1,"Sham":0,"Outcome":"-1","Keys":[],"TotalKeys":0,"Block":2,"Trial":114,"Action":"No-Go","Robot":4,"trial_type":"pit-trial","trial_index":128,"time_elapsed":518099,"internal_node_id":"0.0-128.0"},{"Valence":"Lose","Color":"#3366ff99","Rune":"04","Correct":32,"Choice":32,"RT":505.8799999533221,"Accuracy":1,"Sham":1,"Outcome":"-10","Keys":[2006.8299999693409],"TotalKeys":1,"Block":2,"Trial":115,"Action":"Go","Robot":3,"trial_type":"pit-trial","trial_index":129,"time_elapsed":521112,"internal_node_id":"0.0-129.0"},{"Valence":"Win","Color":"#ffcc3399","Rune":"06","Correct":32,"Choice":32,"RT":568.425000004936,"Accuracy":1,"Sham":0,"Outcome":"+10","Keys":[2070.080000034068],"TotalKeys":1,"Block":2,"Trial":116,"Action":"Go","Robot":1,"trial_type":"pit-trial","trial_index":130,"time_elapsed":524188,"internal_node_id":"0.0-130.0"},{"Valence":"Lose","Color":"#3366ff99","Rune":"03","Correct":-1,"Choice":-1,"RT":-1,"Accuracy":1,"Sham":1,"Outcome":"-10","Keys":[],"TotalKeys":0,"Block":2,"Trial":117,"Action":"No-Go","Robot":4,"trial_type":"pit-trial","trial_index":131,"time_elapsed":528193,"internal_node_id":"0.0-131.0"},{"Valence":"Lose","Color":"#3366ff99","Rune":"04","Correct":32,"Choice":32,"RT":468.18500000517815,"Accuracy":1,"Sham":0,"Outcome":"-1","Keys":[1969.234999967739],"TotalKeys":1,"Block":2,"Trial":118,"Action":"Go","Robot":3,"trial_type":"pit-trial","trial_index":132,"time_elapsed":531169,"internal_node_id":"0.0-132.0"},{"Valence":"Win","Color":"#ffcc3399","Rune":"05","Correct":-1,"Choice":32,"RT":578.5500000347383,"Accuracy":0,"Sham":0,"Outcome":"+1","Keys":[2079.0450000204146],"TotalKeys":1,"Block":2,"Trial":119,"Action":"No-Go","Robot":2,"trial_type":"pit-trial","trial_index":133,"time_elapsed":534253,"internal_node_id":"0.0-133.0"},{"Valence":"Win","Color":"#ffcc3399","Rune":"06","Correct":32,"Choice":32,"RT":442.28999997721985,"Accuracy":1,"Sham":0,"Outcome":"+10","Keys":[1945.9500000230037],"TotalKeys":1,"Block":2,"Trial":120,"Action":"Go","Robot":1,"trial_type":"pit-trial","trial_index":134,"time_elapsed":537207,"internal_node_id":"0.0-134.0"},{"Valence":"Win","Color":"#ffcc3399","Rune":"05","Correct":-1,"Choice":-1,"RT":-1,"Accuracy":1,"Sham":0,"Outcome":"+10","Keys":[],"TotalKeys":0,"Block":2,"Trial":121,"Action":"No-Go","Robot":2,"trial_type":"pit-trial","trial_index":135,"time_elapsed":541214,"internal_node_id":"0.0-135.0"},{"Valence":"Lose","Color":"#3366ff99","Rune":"03","Correct":-1,"Choice":-1,"RT":-1,"Accuracy":1,"Sham":0,"Outcome":"-1","Keys":[],"TotalKeys":0,"Block":2,"Trial":122,"Action":"No-Go","Robot":4,"trial_type":"pit-trial","trial_index":136,"time_elapsed":545221,"internal_node_id":"0.0-136.0"},{"Valence":"Lose","Color":"#3366ff99","Rune":"04","Correct":32,"Choice":32,"RT":478.32500003278255,"Accuracy":1,"Sham":0,"Outcome":"-1","Keys":[1978.3699999679811],"TotalKeys":1,"Block":2,"Trial":123,"Action":"Go","Robot":3,"trial_type":"pit-trial","trial_index":137,"time_elapsed":548205,"internal_node_id":"0.0-137.0"},{"Valence":"Win","Color":"#ffcc3399","Rune":"06","Correct":32,"Choice":32,"RT":548.0100000277162,"Accuracy":1,"Sham":1,"Outcome":"1","Keys":[2050.1299999887124],"TotalKeys":1,"Block":2,"Trial":124,"Action":"Go","Robot":1,"trial_type":"pit-trial","trial_index":138,"time_elapsed":551261,"internal_node_id":"0.0-138.0"},{"Valence":"Lose","Color":"#3366ff99","Rune":"04","Correct":32,"Choice":32,"RT":496.3050000369549,"Accuracy":1,"Sham":1,"Outcome":"-10","Keys":[1997.3050000262447],"TotalKeys":1,"Block":2,"Trial":125,"Action":"Go","Robot":3,"trial_type":"pit-trial","trial_index":139,"time_elapsed":554267,"internal_node_id":"0.0-139.0"},{"Valence":"Lose","Color":"#3366ff99","Rune":"03","Correct":-1,"Choice":-1,"RT":-1,"Accuracy":1,"Sham":0,"Outcome":"-1","Keys":[],"TotalKeys":0,"Block":2,"Trial":126,"Action":"No-Go","Robot":4,"trial_type":"pit-trial","trial_index":140,"time_elapsed":558274,"internal_node_id":"0.0-140.0"},{"Valence":"Win","Color":"#ffcc3399","Rune":"05","Correct":-1,"Choice":32,"RT":581.160000001546,"Accuracy":0,"Sham":0,"Outcome":"+1","Keys":[2081.9550000014715],"TotalKeys":1,"Block":2,"Trial":127,"Action":"No-Go","Robot":2,"trial_type":"pit-trial","trial_index":141,"time_elapsed":561362,"internal_node_id":"0.0-141.0"},{"Valence":"Win","Color":"#ffcc3399","Rune":"06","Correct":32,"Choice":32,"RT":528.905000013765,"Accuracy":1,"Sham":0,"Outcome":"+10","Keys":[2029.1500000166707],"TotalKeys":1,"Block":2,"Trial":128,"Action":"Go","Robot":1,"trial_type":"pit-trial","trial_index":142,"time_elapsed":564397,"internal_node_id":"0.0-142.0"},{"Valence":"Lose","Color":"#3366ff99","Rune":"03","Correct":-1,"Choice":-1,"RT":-1,"Accuracy":1,"Sham":0,"Outcome":"-1","Keys":[],"TotalKeys":0,"Block":2,"Trial":129,"Action":"No-Go","Robot":4,"trial_type":"pit-trial","trial_index":143,"time_elapsed":568404,"internal_node_id":"0.0-143.0"},{"Valence":"Win","Color":"#ffcc3399","Rune":"06","Correct":32,"Choice":32,"RT":425.1149999909103,"Accuracy":1,"Sham":0,"Outcome":"+10","Keys":[1926.6150000039488],"TotalKeys":1,"Block":2,"Trial":130,"Action":"Go","Robot":1,"trial_type":"pit-trial","trial_index":144,"time_elapsed":571344,"internal_node_id":"0.0-144.0"},{"Valence":"Lose","Color":"#3366ff99","Rune":"04","Correct":32,"Choice":32,"RT":673.8200000254437,"Accuracy":1,"Sham":0,"Outcome":"-1","Keys":[2174.8099999967963],"TotalKeys":1,"Block":2,"Trial":131,"Action":"Go","Robot":3,"trial_type":"pit-trial","trial_index":145,"time_elapsed":574527,"internal_node_id":"0.0-145.0"},{"Valence":"Win","Color":"#ffcc3399","Rune":"05","Correct":-1,"Choice":-1,"RT":-1,"Accuracy":1,"Sham":0,"Outcome":"+10","Keys":[],"TotalKeys":0,"Block":2,"Trial":132,"Action":"No-Go","Robot":2,"trial_type":"pit-trial","trial_index":146,"time_elapsed":578534,"internal_node_id":"0.0-146.0"},{"Valence":"Lose","Color":"#3366ff99","Rune":"03","Correct":-1,"Choice":-1,"RT":-1,"Accuracy":1,"Sham":0,"Outcome":"-1","Keys":[],"TotalKeys":0,"Block":2,"Trial":133,"Action":"No-Go","Robot":4,"trial_type":"pit-trial","trial_index":147,"time_elapsed":582541,"internal_node_id":"0.0-147.0"},{"Valence":"Win","Color":"#ffcc3399","Rune":"06","Correct":32,"Choice":32,"RT":559.2949999845587,"Accuracy":1,"Sham":0,"Outcome":"+10","Keys":[2059.8400000017136],"TotalKeys":1,"Block":2,"Trial":134,"Action":"Go","Robot":1,"trial_type":"pit-trial","trial_index":148,"time_elapsed":585607,"internal_node_id":"0.0-148.0"},{"Valence":"Lose","Color":"#3366ff99","Rune":"04","Correct":32,"Choice":32,"RT":611.4299999899231,"Accuracy":1,"Sham":0,"Outcome":"-1","Keys":[2112.940000020899],"TotalKeys":1,"Block":2,"Trial":135,"Action":"Go","Robot":3,"trial_type":"pit-trial","trial_index":149,"time_elapsed":588724,"internal_node_id":"0.0-149.0"},{"Valence":"Win","Color":"#ffcc3399","Rune":"05","Correct":-1,"Choice":-1,"RT":-1,"Accuracy":1,"Sham":0,"Outcome":"+10","Keys":[],"TotalKeys":0,"Block":2,"Trial":136,"Action":"No-Go","Robot":2,"trial_type":"pit-trial","trial_index":150,"time_elapsed":592731,"internal_node_id":"0.0-150.0"},{"Valence":"Lose","Color":"#3366ff99","Rune":"03","Correct":-1,"Choice":-1,"RT":-1,"Accuracy":1,"Sham":1,"Outcome":"-10","Keys":[],"TotalKeys":0,"Block":2,"Trial":137,"Action":"No-Go","Robot":4,"trial_type":"pit-trial","trial_index":151,"time_elapsed":596738,"internal_node_id":"0.0-151.0"},{"Valence":"Win","Color":"#ffcc3399","Rune":"06","Correct":32,"Choice":32,"RT":562.4749999842606,"Accuracy":1,"Sham":0,"Outcome":"+10","Keys":[2064.3449999624863],"TotalKeys":1,"Block":2,"Trial":138,"Action":"Go","Robot":1,"trial_type":"pit-trial","trial_index":152,"time_elapsed":599808,"internal_node_id":"0.0-152.0"},{"Valence":"Lose","Color":"#3366ff99","Rune":"04","Correct":32,"Choice":32,"RT":506.95499998982996,"Accuracy":1,"Sham":0,"Outcome":"-1","Keys":[2007.7499999897555],"TotalKeys":1,"Block":2,"Trial":139,"Action":"Go","Robot":3,"trial_type":"pit-trial","trial_index":153,"time_elapsed":602823,"internal_node_id":"0.0-153.0"},{"Valence":"Win","Color":"#ffcc3399","Rune":"05","Correct":-1,"Choice":-1,"RT":-1,"Accuracy":1,"Sham":1,"Outcome":"1","Keys":[],"TotalKeys":0,"Block":2,"Trial":140,"Action":"No-Go","Robot":2,"trial_type":"pit-trial","trial_index":154,"time_elapsed":606829,"internal_node_id":"0.0-154.0"},{"Valence":"Win","Color":"#ffcc3399","Rune":"05","Correct":-1,"Choice":-1,"RT":-1,"Accuracy":1,"Sham":1,"Outcome":"1","Keys":[],"TotalKeys":0,"Block":2,"Trial":141,"Action":"No-Go","Robot":2,"trial_type":"pit-trial","trial_index":155,"time_elapsed":610835,"internal_node_id":"0.0-155.0"},{"Valence":"Lose","Color":"#3366ff99","Rune":"04","Correct":32,"Choice":32,"RT":492.1600000234321,"Accuracy":1,"Sham":0,"Outcome":"-1","Keys":[1993.3999999775551],"TotalKeys":1,"Block":2,"Trial":142,"Action":"Go","Robot":3,"trial_type":"pit-trial","trial_index":156,"time_elapsed":613833,"internal_node_id":"0.0-156.0"},{"Valence":"Win","Color":"#ffcc3399","Rune":"06","Correct":32,"Choice":32,"RT":364.02500001713634,"Accuracy":1,"Sham":0,"Outcome":"+10","Keys":[1864.6450000233017],"TotalKeys":1,"Block":2,"Trial":143,"Action":"Go","Robot":1,"trial_type":"pit-trial","trial_index":157,"time_elapsed":616706,"internal_node_id":"0.0-157.0"},{"Valence":"Lose","Color":"#3366ff99","Rune":"03","Correct":-1,"Choice":-1,"RT":-1,"Accuracy":1,"Sham":0,"Outcome":"-1","Keys":[],"TotalKeys":0,"Block":2,"Trial":144,"Action":"No-Go","Robot":4,"trial_type":"pit-trial","trial_index":158,"time_elapsed":620712,"internal_node_id":"0.0-158.0"},{"Valence":"Lose","Color":"#3366ff99","Rune":"03","Correct":-1,"Choice":-1,"RT":-1,"Accuracy":1,"Sham":0,"Outcome":"-1","Keys":[],"TotalKeys":0,"Block":2,"Trial":145,"Action":"No-Go","Robot":4,"trial_type":"pit-trial","trial_index":159,"time_elapsed":624718,"internal_node_id":"0.0-159.0"},{"Valence":"Win","Color":"#ffcc3399","Rune":"06","Correct":32,"Choice":32,"RT":441.5949999820441,"Accuracy":1,"Sham":0,"Outcome":"+10","Keys":[1943.1500000064261],"TotalKeys":1,"Block":2,"Trial":146,"Action":"Go","Robot":1,"trial_type":"pit-trial","trial_index":160,"time_elapsed":627667,"internal_node_id":"0.0-160.0"},{"Valence":"Lose","Color":"#3366ff99","Rune":"04","Correct":32,"Choice":32,"RT":448.61500000115484,"Accuracy":1,"Sham":0,"Outcome":"-1","Keys":[1950.0699999625795],"TotalKeys":1,"Block":2,"Trial":147,"Action":"Go","Robot":3,"trial_type":"pit-trial","trial_index":161,"time_elapsed":630623,"internal_node_id":"0.0-161.0"},{"Valence":"Win","Color":"#ffcc3399","Rune":"05","Correct":-1,"Choice":-1,"RT":-1,"Accuracy":1,"Sham":0,"Outcome":"+10","Keys":[],"TotalKeys":0,"Block":2,"Trial":148,"Action":"No-Go","Robot":2,"trial_type":"pit-trial","trial_index":162,"time_elapsed":634630,"internal_node_id":"0.0-162.0"},{"Valence":"Win","Color":"#ffcc3399","Rune":"05","Correct":-1,"Choice":-1,"RT":-1,"Accuracy":1,"Sham":0,"Outcome":"+10","Keys":[],"TotalKeys":0,"Block":2,"Trial":149,"Action":"No-Go","Robot":2,"trial_type":"pit-trial","trial_index":163,"time_elapsed":638636,"internal_node_id":"0.0-163.0"},{"Valence":"Lose","Color":"#3366ff99","Rune":"03","Correct":-1,"Choice":-1,"RT":-1,"Accuracy":1,"Sham":0,"Outcome":"-1","Keys":[],"TotalKeys":0,"Block":2,"Trial":150,"Action":"No-Go","Robot":4,"trial_type":"pit-trial","trial_index":164,"time_elapsed":642646,"internal_node_id":"0.0-164.0"},{"Valence":"Lose","Color":"#3366ff99","Rune":"04","Correct":32,"Choice":32,"RT":479.894999996759,"Accuracy":1,"Sham":0,"Outcome":"-1","Keys":[1981.6699999500997],"TotalKeys":1,"Block":2,"Trial":151,"Action":"Go","Robot":3,"trial_type":"pit-trial","trial_index":165,"time_elapsed":645636,"internal_node_id":"0.0-165.0"},{"Valence":"Win","Color":"#ffcc3399","Rune":"06","Correct":32,"Choice":32,"RT":397.8699999861419,"Accuracy":1,"Sham":0,"Outcome":"+10","Keys":[1898.9099999889731],"TotalKeys":1,"Block":2,"Trial":152,"Action":"Go","Robot":1,"trial_type":"pit-trial","trial_index":166,"time_elapsed":648541,"internal_node_id":"0.0-166.0"},{"Valence":"Win","Color":"#ffcc3399","Rune":"06","Correct":32,"Choice":32,"RT":385.2900000056252,"Accuracy":1,"Sham":0,"Outcome":"+10","Keys":[1886.069999949541],"TotalKeys":1,"Block":2,"Trial":153,"Action":"Go","Robot":1,"trial_type":"pit-trial","trial_index":167,"time_elapsed":651432,"internal_node_id":"0.0-167.0"},{"Valence":"Lose","Color":"#3366ff99","Rune":"03","Correct":-1,"Choice":-1,"RT":-1,"Accuracy":1,"Sham":0,"Outcome":"-1","Keys":[],"TotalKeys":0,"Block":2,"Trial":154,"Action":"No-Go","Robot":4,"trial_type":"pit-trial","trial_index":168,"time_elapsed":655438,"internal_node_id":"0.0-168.0"},{"Valence":"Lose","Color":"#3366ff99","Rune":"04","Correct":32,"Choice":32,"RT":435.7099999906495,"Accuracy":1,"Sham":0,"Outcome":"-1","Keys":[1936.2350000301376],"TotalKeys":1,"Block":2,"Trial":155,"Action":"Go","Robot":3,"trial_type":"pit-trial","trial_index":169,"time_elapsed":658384,"internal_node_id":"0.0-169.0"},{"Valence":"Win","Color":"#ffcc3399","Rune":"05","Correct":-1,"Choice":32,"RT":386.5349999978207,"Accuracy":0,"Sham":0,"Outcome":"+1","Keys":[1887.2950000222772],"TotalKeys":1,"Block":2,"Trial":156,"Action":"No-Go","Robot":2,"trial_type":"pit-trial","trial_index":170,"time_elapsed":661279,"internal_node_id":"0.0-170.0"},{"Valence":"Lose","Color":"#3366ff99","Rune":"04","Correct":32,"Choice":32,"RT":550.6549999699928,"Accuracy":1,"Sham":1,"Outcome":"-10","Keys":[2051.979999989271],"TotalKeys":1,"Block":2,"Trial":157,"Action":"Go","Robot":3,"trial_type":"pit-trial","trial_index":171,"time_elapsed":664337,"internal_node_id":"0.0-171.0"},{"Valence":"Lose","Color":"#3366ff99","Rune":"03","Correct":-1,"Choice":-1,"RT":-1,"Accuracy":1,"Sham":1,"Outcome":"-10","Keys":[],"TotalKeys":0,"Block":2,"Trial":158,"Action":"No-Go","Robot":4,"trial_type":"pit-trial","trial_index":172,"time_elapsed":668342,"internal_node_id":"0.0-172.0"},{"Valence":"Win","Color":"#ffcc3399","Rune":"05","Correct":-1,"Choice":-1,"RT":-1,"Accuracy":1,"Sham":0,"Outcome":"+10","Keys":[],"TotalKeys":0,"Block":2,"Trial":159,"Action":"No-Go","Robot":2,"trial_type":"pit-trial","trial_index":173,"time_elapsed":672350,"internal_node_id":"0.0-173.0"},{"Valence":"Win","Color":"#ffcc3399","Rune":"06","Correct":32,"Choice":32,"RT":433.530000038445,"Accuracy":1,"Sham":1,"Outcome":"1","Keys":[1942.304999975022],"TotalKeys":1,"Block":2,"Trial":160,"Action":"Go","Robot":1,"trial_type":"pit-trial","trial_index":174,"time_elapsed":675298,"internal_node_id":"0.0-174.0"},{"rt":10017.035000026226,"demographics":{"age":"30","gender-categorical":"Female","ethnicity":"Not Hispanic or Latino","race":"White","english":"Yes","fluency":"Very well"},"trial_type":"survey-demo","trial_index":175,"time_elapsed":685320,"internal_node_id":"0.0-175.0"},{"rt":14779.694999975618,"debriefgraphics":{"difficulty":"2","fun":"4","clarity":"5","strategy":"I just tried to remember the shapes in my head.","feedback":""},"trial_type":"survey-debrief","trial_index":176,"time_elapsed":700111,"internal_node_id":"0.0-176.0","interactions":"[{\"event\":\"focus\",\"trial\":0,\"time\":13286},{\"event\":\"blur\",\"trial\":0,\"time\":17606},{\"event\":\"focus\",\"trial\":0,\"time\":20414},{\"event\":\"blur\",\"trial\":10,\"time\":86758},{\"event\":\"focus\",\"trial\":10,\"time\":88103},{\"event\":\"blur\",\"trial\":19,\"time\":131868},{\"event\":\"focus\",\"trial\":19,\"time\":132933},{\"event\":\"blur\",\"trial\":22,\"time\":145457},{\"event\":\"focus\",\"trial\":23,\"time\":146191},{\"event\":\"blur\",\"trial\":31,\"time\":173219},{\"event\":\"focus\",\"trial\":31,\"time\":173900},{\"event\":\"blur\",\"trial\":34,\"time\":185576},{\"event\":\"focus\",\"trial\":35,\"time\":186255},{\"event\":\"blur\",\"trial\":41,\"time\":206718},{\"event\":\"focus\",\"trial\":41,\"time\":209177},{\"event\":\"blur\",\"trial\":47,\"time\":227159},{\"event\":\"focus\",\"trial\":47,\"time\":227933},{\"event\":\"blur\",\"trial\":47,\"time\":229411},{\"event\":\"focus\",\"trial\":48,\"time\":230264},{\"event\":\"blur\",\"trial\":70,\"time\":305616},{\"event\":\"focus\",\"trial\":71,\"time\":306359},{\"event\":\"blur\",\"trial\":72,\"time\":311306},{\"event\":\"focus\",\"trial\":72,\"time\":311580},{\"event\":\"blur\",\"trial\":74,\"time\":318896},{\"event\":\"focus\",\"trial\":75,\"time\":319567},{\"event\":\"blur\",\"trial\":86,\"time\":354500},{\"event\":\"focus\",\"trial\":86,\"time\":355120}]"}]