[{"view_history":"[{\"page_index\":0,\"viewing_time\":10505.64000000304},{\"page_index\":1,\"viewing_time\":3319.644999995944},{\"page_index\":2,\"viewing_time\":4742.484999995213},{\"page_index\":3,\"viewing_time\":15564.760000008391},{\"page_index\":4,\"viewing_time\":1211.3399999943795},{\"page_index\":3,\"viewing_time\":3283.2600000110688},{\"page_index\":4,\"viewing_time\":3320.7099999999627}]","rt":41949.50499999686,"trial_type":"pit-instructions","trial_index":0,"time_elapsed":41967,"internal_node_id":"0.0-0.0"},{"Rune":"01","Correct":32,"Choice":-1,"RT":-1,"Accuracy":0,"Sham":0,"Outcome":"+0","Keys":[],"TotalKeys":0,"trial_type":"pit-trial","trial_index":1,"time_elapsed":45977,"internal_node_id":"0.0-1.0"},{"Rune":"01","Correct":32,"Choice":-1,"RT":-1,"Accuracy":0,"Sham":0,"Outcome":"+0","Keys":[],"TotalKeys":0,"trial_type":"pit-trial","trial_index":2,"time_elapsed":49984,"internal_node_id":"0.0-2.0"},{"Rune":"01","Correct":32,"Choice":-1,"RT":-1,"Accuracy":0,"Sham":0,"Outcome":"+0","Keys":[],"TotalKeys":0,"trial_type":"pit-trial","trial_index":3,"time_elapsed":53993,"internal_node_id":"0.0-3.0"},{"Rune":"01","Correct":32,"Choice":32,"RT":1405.4100000066683,"Accuracy":1,"Sham":0,"Outcome":"+10","Keys":[2905.879999991157],"TotalKeys":1,"trial_type":"pit-trial","trial_index":4,"time_elapsed":57908,"internal_node_id":"0.0-4.0"},{"view_history":"[{\"page_index\":0,\"viewing_time\":3331.1399999947753}]","rt":3331.420000002254,"trial_type":"pit-instructions","trial_index":5,"time_elapsed":61242,"internal_node_id":"0.0-5.0"},{"Rune":"02","Correct":-1,"Choice":-1,"RT":-1,"Accuracy":1,"Sham":0,"Outcome":"+10","Keys":[],"TotalKeys":0,"trial_type":"pit-trial","trial_index":6,"time_elapsed":65250,"internal_node_id":"0.0-6.0"},{"Rune":"02","Correct":-1,"Choice":-1,"RT":-1,"Accuracy":1,"Sham":0,"Outcome":"+10","Keys":[80.534999986412],"TotalKeys":1,"trial_type":"pit-trial","trial_index":7,"time_elapsed":69257,"internal_node_id":"0.0-7.0"},{"Rune":"02","Correct":-1,"Choice":32,"RT":342.4100000120234,"Accuracy":0,"Sham":0,"Outcome":"+0","Keys":[1843.3300000033341],"TotalKeys":1,"trial_type":"pit-trial","trial_index":8,"time_elapsed":72107,"internal_node_id":"0.0-8.0"},{"Rune":"02","Correct":-1,"Choice":-1,"RT":-1,"Accuracy":1,"Sham":0,"Outcome":"+10","Keys":[1328.9850000001024,3521.615000005113],"TotalKeys":2,"trial_type":"pit-trial","trial_index":9,"time_elapsed":76113,"internal_node_id":"0.0-9.0"},{"view_history":"[{\"page_index\":0,\"viewing_time\":2762.570000006235},{\"page_index\":1,\"viewing_time\":4301.525000002584},{\"page_index\":2,\"viewing_time\":9957.49000000069},{\"page_index\":3,\"viewing_time\":15126.479999991716},{\"page_index\":4,\"viewing_time\":2812.644999998156},{\"page_index\":5,\"viewing_time\":10108.160000003409},{\"page_index\":6,\"viewing_time\":1014.8100000078557},{\"page_index\":7,\"viewing_time\":923.5849999968195}]","rt":47007.88000000466,"trial_type":"pit-instructions","trial_index":10,"time_elapsed":123124,"internal_node_id":"0.0-10.0"},{"rt":21097.695000004023,"responses":"{\"no-press\":\"Do nothing\",\"context-win\":\"+10\",\"context-lose\":\"+0\",\"feedback\":\"True\"}","errors":1,"trial_type":"pit-comprehension","trial_index":11,"time_elapsed":144229,"internal_node_id":"0.0-11.0"},{"view_history":"[{\"page_index\":0,\"viewing_time\":1772.850000008475}]","rt":1773.4000000054948,"trial_type":"pit-instructions","trial_index":12,"time_elapsed":146012,"internal_node_id":"0.0-12.0"},{"Rune":"03","Correct":-1,"Choice":32,"RT":370.9649999946123,"Accuracy":0,"Sham":0,"Outcome":"+0","Keys":[1871.2150000064867],"TotalKeys":1,"Block":1,"Trial":1,"Valence":"Win","Action":"No-Go","Robot":2,"trial_type":"pit-trial","trial_index":13,"time_elapsed":148891,"internal_node_id":"0.0-13.0"},{"Rune":"06","Correct":32,"Choice":-1,"RT":-1,"Accuracy":0,"Sham":0,"Outcome":"-10","Keys":[],"TotalKeys":0,"Block":1,"Trial":2,"Valence":"Lose","Action":"Go","Robot":3,"trial_type":"pit-trial","trial_index":14,"time_elapsed":152909,"internal_node_id":"0.0-14.0"},{"Rune":"05","Correct":-1,"Choice":32,"RT":1336.605000004056,"Accuracy":0,"Sham":0,"Outcome":"-10","Keys":[2837.0750000030966],"TotalKeys":1,"Block":1,"Trial":3,"Valence":"Lose","Action":"No-Go","Robot":4,"trial_type":"pit-trial","trial_index":15,"time_elapsed":156753,"internal_node_id":"0.0-15.0"},{"Rune":"04","Correct":32,"Choice":32,"RT":420.97999999532476,"Accuracy":1,"Sham":0,"Outcome":"+10","Keys":[1921.2199999892619],"TotalKeys":1,"Block":1,"Trial":4,"Valence":"Win","Action":"Go","Robot":1,"trial_type":"pit-trial","trial_index":16,"time_elapsed":159683,"internal_node_id":"0.0-16.0"},{"Rune":"06","Correct":32,"Choice":-1,"RT":-1,"Accuracy":0,"Sham":1,"Outcome":"+0","Keys":[],"TotalKeys":0,"Block":1,"Trial":5,"Valence":"Lose","Action":"Go","Robot":3,"trial_type":"pit-trial","trial_index":17,"time_elapsed":163693,"internal_node_id":"0.0-17.0"},{"Rune":"05","Correct":-1,"Choice":-1,"RT":-1,"Accuracy":1,"Sham":0,"Outcome":"+0","Keys":[],"TotalKeys":0,"Block":1,"Trial":6,"Valence":"Lose","Action":"No-Go","Robot":4,"trial_type":"pit-trial","trial_index":18,"time_elapsed":167700,"internal_node_id":"0.0-18.0"},{"Rune":"04","Correct":32,"Choice":32,"RT":428.75500000081956,"Accuracy":1,"Sham":0,"Outcome":"+10","Keys":[1929.0800000017043],"TotalKeys":1,"Block":1,"Trial":7,"Valence":"Win","Action":"Go","Robot":1,"trial_type":"pit-trial","trial_index":19,"time_elapsed":170633,"internal_node_id":"0.0-19.0"},{"Rune":"03","Correct":-1,"Choice":32,"RT":717.6000000035856,"Accuracy":0,"Sham":0,"Outcome":"+0","Keys":[2219.0149999951245],"TotalKeys":1,"Block":1,"Trial":8,"Valence":"Win","Action":"No-Go","Robot":2,"trial_type":"pit-trial","trial_index":20,"time_elapsed":173859,"internal_node_id":"0.0-20.0"},{"Rune":"04","Correct":32,"Choice":32,"RT":534.6949999948265,"Accuracy":1,"Sham":0,"Outcome":"+10","Keys":[2036.1200000043027],"TotalKeys":1,"Block":1,"Trial":9,"Valence":"Win","Action":"Go","Robot":1,"trial_type":"pit-trial","trial_index":21,"time_elapsed":176905,"internal_node_id":"0.0-21.0"},{"Rune":"06","Correct":32,"Choice":-1,"RT":-1,"Accuracy":0,"Sham":0,"Outcome":"-10","Keys":[],"TotalKeys":0,"Block":1,"Trial":10,"Valence":"Lose","Action":"Go","Robot":3,"trial_type":"pit-trial","trial_index":22,"time_elapsed":180912,"internal_node_id":"0.0-22.0"},{"Rune":"03","Correct":-1,"Choice":32,"RT":311.90000000060536,"Accuracy":0,"Sham":0,"Outcome":"+0","Keys":[1813.0250000103842],"TotalKeys":1,"Block":1,"Trial":11,"Valence":"Win","Action":"No-Go","Robot":2,"trial_type":"pit-trial","trial_index":23,"time_elapsed":183730,"internal_node_id":"0.0-23.0"},{"Rune":"05","Correct":-1,"Choice":-1,"RT":-1,"Accuracy":1,"Sham":0,"Outcome":"+0","Keys":[],"TotalKeys":0,"Block":1,"Trial":12,"Valence":"Lose","Action":"No-Go","Robot":4,"trial_type":"pit-trial","trial_index":24,"time_elapsed":187737,"internal_node_id":"0.0-24.0"},{"Rune":"04","Correct":32,"Choice":32,"RT":707.4500000016997,"Accuracy":1,"Sham":0,"Outcome":"+10","Keys":[2208.8999999978114],"TotalKeys":1,"Block":1,"Trial":13,"Valence":"Win","Action":"Go","Robot":1,"trial_type":"pit-trial","trial_index":25,"time_elapsed":190953,"internal_node_id":"0.0-25.0"},{"Rune":"03","Correct":-1,"Choice":32,"RT":416.929999992135,"Accuracy":0,"Sham":0,"Outcome":"+0","Keys":[1917.635000005248],"TotalKeys":1,"Block":1,"Trial":14,"Valence":"Win","Action":"No-Go","Robot":2,"trial_type":"pit-trial","trial_index":26,"time_elapsed":193876,"internal_node_id":"0.0-26.0"},{"Rune":"06","Correct":32,"Choice":-1,"RT":-1,"Accuracy":0,"Sham":0,"Outcome":"-10","Keys":[],"TotalKeys":0,"Block":1,"Trial":15,"Valence":"Lose","Action":"Go","Robot":3,"trial_type":"pit-trial","trial_index":27,"time_elapsed":197889,"internal_node_id":"0.0-27.0"},{"Rune":"05","Correct":-1,"Choice":-1,"RT":-1,"Accuracy":1,"Sham":1,"Outcome":"-10","Keys":[],"TotalKeys":0,"Block":1,"Trial":16,"Valence":"Lose","Action":"No-Go","Robot":4,"trial_type":"pit-trial","trial_index":28,"time_elapsed":201898,"internal_node_id":"0.0-28.0"},{"Rune":"04","Correct":32,"Choice":32,"RT":286.3999999972293,"Accuracy":1,"Sham":1,"Outcome":"+0","Keys":[1786.7799999949057],"TotalKeys":1,"Block":1,"Trial":17,"Valence":"Win","Action":"Go","Robot":1,"trial_type":"pit-trial","trial_index":29,"time_elapsed":204690,"internal_node_id":"0.0-29.0"},{"Rune":"06","Correct":32,"Choice":-1,"RT":-1,"Accuracy":0,"Sham":0,"Outcome":"-10","Keys":[],"TotalKeys":0,"Block":1,"Trial":18,"Valence":"Lose","Action":"Go","Robot":3,"trial_type":"pit-trial","trial_index":30,"time_elapsed":208700,"internal_node_id":"0.0-30.0"},{"Rune":"03","Correct":-1,"Choice":32,"RT":343.5800000006566,"Accuracy":0,"Sham":1,"Outcome":"+10","Keys":[1845.2699999907054],"TotalKeys":1,"Block":1,"Trial":19,"Valence":"Win","Action":"No-Go","Robot":2,"trial_type":"pit-trial","trial_index":31,"time_elapsed":211553,"internal_node_id":"0.0-31.0"},{"Rune":"05","Correct":-1,"Choice":-1,"RT":-1,"Accuracy":1,"Sham":0,"Outcome":"+0","Keys":[913.3699999947567],"TotalKeys":1,"Block":1,"Trial":20,"Valence":"Lose","Action":"No-Go","Robot":4,"trial_type":"pit-trial","trial_index":32,"time_elapsed":215561,"internal_node_id":"0.0-32.0"},{"Rune":"05","Correct":-1,"Choice":-1,"RT":-1,"Accuracy":1,"Sham":0,"Outcome":"+0","Keys":[],"TotalKeys":0,"Block":1,"Trial":21,"Valence":"Lose","Action":"No-Go","Robot":4,"trial_type":"pit-trial","trial_index":33,"time_elapsed":219569,"internal_node_id":"0.0-33.0"},{"Rune":"03","Correct":-1,"Choice":32,"RT":413.4899999917252,"Accuracy":0,"Sham":0,"Outcome":"+0","Keys":[1913.8050000037765],"TotalKeys":1,"Block":1,"Trial":22,"Valence":"Win","Action":"No-Go","Robot":2,"trial_type":"pit-trial","trial_index":34,"time_elapsed":222490,"internal_node_id":"0.0-34.0"},{"Rune":"04","Correct":32,"Choice":32,"RT":452.3150000022724,"Accuracy":1,"Sham":0,"Outcome":"+10","Keys":[1953.9800000056857],"TotalKeys":1,"Block":1,"Trial":23,"Valence":"Win","Action":"Go","Robot":1,"trial_type":"pit-trial","trial_index":35,"time_elapsed":225449,"internal_node_id":"0.0-35.0"},{"Rune":"06","Correct":32,"Choice":-1,"RT":-1,"Accuracy":0,"Sham":0,"Outcome":"-10","Keys":[],"TotalKeys":0,"Block":1,"Trial":24,"Valence":"Lose","Action":"Go","Robot":3,"trial_type":"pit-trial","trial_index":36,"time_elapsed":229455,"internal_node_id":"0.0-36.0"},{"Rune":"05","Correct":-1,"Choice":-1,"RT":-1,"Accuracy":1,"Sham":0,"Outcome":"+0","Keys":[],"TotalKeys":0,"Block":1,"Trial":25,"Valence":"Lose","Action":"No-Go","Robot":4,"trial_type":"pit-trial","trial_index":37,"time_elapsed":233464,"internal_node_id":"0.0-37.0"},{"Rune":"04","Correct":32,"Choice":32,"RT":316.87999999849126,"Accuracy":1,"Sham":0,"Outcome":"+10","Keys":[1818.2949999900302],"TotalKeys":1,"Block":1,"Trial":26,"Valence":"Win","Action":"Go","Robot":1,"trial_type":"pit-trial","trial_index":38,"time_elapsed":236291,"internal_node_id":"0.0-38.0"},{"Rune":"06","Correct":32,"Choice":-1,"RT":-1,"Accuracy":0,"Sham":0,"Outcome":"-10","Keys":[],"TotalKeys":0,"Block":1,"Trial":27,"Valence":"Lose","Action":"Go","Robot":3,"trial_type":"pit-trial","trial_index":39,"time_elapsed":240300,"internal_node_id":"0.0-39.0"},{"Rune":"03","Correct":-1,"Choice":32,"RT":267.2549999988405,"Accuracy":0,"Sham":0,"Outcome":"+0","Keys":[1767.3150000046007],"TotalKeys":1,"Block":1,"Trial":28,"Valence":"Win","Action":"No-Go","Robot":2,"trial_type":"pit-trial","trial_index":40,"time_elapsed":243074,"internal_node_id":"0.0-40.0"},{"Rune":"06","Correct":32,"Choice":32,"RT":428.5249999957159,"Accuracy":1,"Sham":0,"Outcome":"+0","Keys":[1930.114999995567],"TotalKeys":1,"Block":1,"Trial":29,"Valence":"Lose","Action":"Go","Robot":3,"trial_type":"pit-trial","trial_index":41,"time_elapsed":246010,"internal_node_id":"0.0-41.0"},{"Rune":"03","Correct":-1,"Choice":32,"RT":266.87500000116415,"Accuracy":0,"Sham":1,"Outcome":"+10","Keys":[1770.0000000040745],"TotalKeys":1,"Block":1,"Trial":30,"Valence":"Win","Action":"No-Go","Robot":2,"trial_type":"pit-trial","trial_index":42,"time_elapsed":248785,"internal_node_id":"0.0-42.0"},{"Rune":"04","Correct":32,"Choice":32,"RT":1206.9349999947008,"Accuracy":1,"Sham":1,"Outcome":"+0","Keys":[2708.375000001979],"TotalKeys":1,"Block":1,"Trial":31,"Valence":"Win","Action":"Go","Robot":1,"trial_type":"pit-trial","trial_index":43,"time_elapsed":252497,"internal_node_id":"0.0-43.0"},{"Rune":"05","Correct":-1,"Choice":-1,"RT":-1,"Accuracy":1,"Sham":0,"Outcome":"+0","Keys":[],"TotalKeys":0,"Block":1,"Trial":32,"Valence":"Lose","Action":"No-Go","Robot":4,"trial_type":"pit-trial","trial_index":44,"time_elapsed":256504,"internal_node_id":"0.0-44.0"},{"Rune":"05","Correct":-1,"Choice":-1,"RT":-1,"Accuracy":1,"Sham":0,"Outcome":"+0","Keys":[],"TotalKeys":0,"Block":1,"Trial":33,"Valence":"Lose","Action":"No-Go","Robot":4,"trial_type":"pit-trial","trial_index":45,"time_elapsed":260512,"internal_node_id":"0.0-45.0"},{"Rune":"03","Correct":-1,"Choice":32,"RT":369.1099999996368,"Accuracy":0,"Sham":0,"Outcome":"+0","Keys":[1869.2000000010012],"TotalKeys":1,"Block":1,"Trial":34,"Valence":"Win","Action":"No-Go","Robot":2,"trial_type":"pit-trial","trial_index":46,"time_elapsed":263388,"internal_node_id":"0.0-46.0"},{"Rune":"04","Correct":32,"Choice":-1,"RT":-1,"Accuracy":0,"Sham":0,"Outcome":"+0","Keys":[3399.234999989858],"TotalKeys":1,"Block":1,"Trial":35,"Valence":"Win","Action":"Go","Robot":1,"trial_type":"pit-trial","trial_index":47,"time_elapsed":267396,"internal_node_id":"0.0-47.0"},{"Rune":"06","Correct":32,"Choice":-1,"RT":-1,"Accuracy":0,"Sham":1,"Outcome":"+0","Keys":[3411.825000002864],"TotalKeys":1,"Block":1,"Trial":36,"Valence":"Lose","Action":"Go","Robot":3,"trial_type":"pit-trial","trial_index":48,"time_elapsed":271406,"internal_node_id":"0.0-48.0"},{"Rune":"05","Correct":-1,"Choice":-1,"RT":-1,"Accuracy":1,"Sham":1,"Outcome":"-10","Keys":[],"TotalKeys":0,"Block":1,"Trial":37,"Valence":"Lose","Action":"No-Go","Robot":4,"trial_type":"pit-trial","trial_index":49,"time_elapsed":275413,"internal_node_id":"0.0-49.0"},{"Rune":"06","Correct":32,"Choice":-1,"RT":-1,"Accuracy":0,"Sham":0,"Outcome":"-10","Keys":[],"TotalKeys":0,"Block":1,"Trial":38,"Valence":"Lose","Action":"Go","Robot":3,"trial_type":"pit-trial","trial_index":50,"time_elapsed":279420,"internal_node_id":"0.0-50.0"},{"Rune":"04","Correct":32,"Choice":32,"RT":723.8500000094064,"Accuracy":1,"Sham":0,"Outcome":"+10","Keys":[2225.2599999919767],"TotalKeys":1,"Block":1,"Trial":39,"Valence":"Win","Action":"Go","Robot":1,"trial_type":"pit-trial","trial_index":51,"time_elapsed":282651,"internal_node_id":"0.0-51.0"},{"Rune":"03","Correct":-1,"Choice":32,"RT":362.14500000642147,"Accuracy":0,"Sham":0,"Outcome":"+0","Keys":[1863.6050000059186],"TotalKeys":1,"Block":1,"Trial":40,"Valence":"Win","Action":"No-Go","Robot":2,"trial_type":"pit-trial","trial_index":52,"time_elapsed":285521,"internal_node_id":"0.0-52.0"},{"Rune":"06","Correct":32,"Choice":-1,"RT":-1,"Accuracy":0,"Sham":1,"Outcome":"+0","Keys":[],"TotalKeys":0,"Block":1,"Trial":41,"Valence":"Lose","Action":"Go","Robot":3,"trial_type":"pit-trial","trial_index":53,"time_elapsed":289528,"internal_node_id":"0.0-53.0"},{"Rune":"03","Correct":-1,"Choice":32,"RT":294.6200000005774,"Accuracy":0,"Sham":0,"Outcome":"+0","Keys":[1796.1250000080327],"TotalKeys":1,"Block":1,"Trial":42,"Valence":"Win","Action":"No-Go","Robot":2,"trial_type":"pit-trial","trial_index":54,"time_elapsed":292330,"internal_node_id":"0.0-54.0"},{"Rune":"05","Correct":-1,"Choice":-1,"RT":-1,"Accuracy":1,"Sham":0,"Outcome":"+0","Keys":[],"TotalKeys":0,"Block":1,"Trial":43,"Valence":"Lose","Action":"No-Go","Robot":4,"trial_type":"pit-trial","trial_index":55,"time_elapsed":296335,"internal_node_id":"0.0-55.0"},{"Rune":"04","Correct":32,"Choice":32,"RT":357.70500000217,"Accuracy":1,"Sham":0,"Outcome":"+10","Keys":[1860.4649999906542],"TotalKeys":1,"Block":1,"Trial":44,"Valence":"Win","Action":"Go","Robot":1,"trial_type":"pit-trial","trial_index":56,"time_elapsed":299201,"internal_node_id":"0.0-56.0"},{"Rune":"05","Correct":-1,"Choice":-1,"RT":-1,"Accuracy":1,"Sham":0,"Outcome":"+0","Keys":[],"TotalKeys":0,"Block":1,"Trial":45,"Valence":"Lose","Action":"No-Go","Robot":4,"trial_type":"pit-trial","trial_index":57,"time_elapsed":303206,"internal_node_id":"0.0-57.0"},{"Rune":"03","Correct":-1,"Choice":32,"RT":298.41999999189284,"Accuracy":0,"Sham":1,"Outcome":"+10","Keys":[1798.7100000027567],"TotalKeys":1,"Block":1,"Trial":46,"Valence":"Win","Action":"No-Go","Robot":2,"trial_type":"pit-trial","trial_index":58,"time_elapsed":306011,"internal_node_id":"0.0-58.0"},{"Rune":"06","Correct":32,"Choice":-1,"RT":-1,"Accuracy":0,"Sham":0,"Outcome":"-10","Keys":[],"TotalKeys":0,"Block":1,"Trial":47,"Valence":"Lose","Action":"Go","Robot":3,"trial_type":"pit-trial","trial_index":59,"time_elapsed":310018,"internal_node_id":"0.0-59.0"},{"Rune":"04","Correct":32,"Choice":32,"RT":373.17500000062864,"Accuracy":1,"Sham":0,"Outcome":"+10","Keys":[1873.780000008992],"TotalKeys":1,"Block":1,"Trial":48,"Valence":"Win","Action":"Go","Robot":1,"trial_type":"pit-trial","trial_index":60,"time_elapsed":312898,"internal_node_id":"0.0-60.0"},{"Rune":"05","Correct":-1,"Choice":-1,"RT":-1,"Accuracy":1,"Sham":0,"Outcome":"+0","Keys":[],"TotalKeys":0,"Block":1,"Trial":49,"Valence":"Lose","Action":"No-Go","Robot":4,"trial_type":"pit-trial","trial_index":61,"time_elapsed":316904,"internal_node_id":"0.0-61.0"},{"Rune":"04","Correct":32,"Choice":32,"RT":295.8050000015646,"Accuracy":1,"Sham":0,"Outcome":"+10","Keys":[1796.825000012177],"TotalKeys":1,"Block":1,"Trial":50,"Valence":"Win","Action":"Go","Robot":1,"trial_type":"pit-trial","trial_index":62,"time_elapsed":319707,"internal_node_id":"0.0-62.0"},{"Rune":"03","Correct":-1,"Choice":32,"RT":345.8299999911105,"Accuracy":0,"Sham":0,"Outcome":"+0","Keys":[1846.174999998766],"TotalKeys":1,"Block":1,"Trial":51,"Valence":"Win","Action":"No-Go","Robot":2,"trial_type":"pit-trial","trial_index":63,"time_elapsed":322562,"internal_node_id":"0.0-63.0"},{"Rune":"06","Correct":32,"Choice":-1,"RT":-1,"Accuracy":0,"Sham":0,"Outcome":"-10","Keys":[],"TotalKeys":0,"Block":1,"Trial":52,"Valence":"Lose","Action":"Go","Robot":3,"trial_type":"pit-trial","trial_index":64,"time_elapsed":326572,"internal_node_id":"0.0-64.0"},{"Rune":"03","Correct":-1,"Choice":32,"RT":282.6000000059139,"Accuracy":0,"Sham":0,"Outcome":"+0","Keys":[1784.5850000012433],"TotalKeys":1,"Block":1,"Trial":53,"Valence":"Win","Action":"No-Go","Robot":2,"trial_type":"pit-trial","trial_index":65,"time_elapsed":329366,"internal_node_id":"0.0-65.0"},{"Rune":"06","Correct":32,"Choice":-1,"RT":-1,"Accuracy":0,"Sham":0,"Outcome":"-10","Keys":[],"TotalKeys":0,"Block":1,"Trial":54,"Valence":"Lose","Action":"Go","Robot":3,"trial_type":"pit-trial","trial_index":66,"time_elapsed":333374,"internal_node_id":"0.0-66.0"},{"Rune":"05","Correct":-1,"Choice":-1,"RT":-1,"Accuracy":1,"Sham":0,"Outcome":"+0","Keys":[],"TotalKeys":0,"Block":1,"Trial":55,"Valence":"Lose","Action":"No-Go","Robot":4,"trial_type":"pit-trial","trial_index":67,"time_elapsed":337379,"internal_node_id":"0.0-67.0"},{"Rune":"04","Correct":32,"Choice":32,"RT":315.8350000012433,"Accuracy":1,"Sham":0,"Outcome":"+10","Keys":[1817.2599999961676],"TotalKeys":1,"Block":1,"Trial":56,"Valence":"Win","Action":"Go","Robot":1,"trial_type":"pit-trial","trial_index":68,"time_elapsed":340201,"internal_node_id":"0.0-68.0"},{"Rune":"04","Correct":32,"Choice":32,"RT":486.6849999962142,"Accuracy":1,"Sham":1,"Outcome":"+0","Keys":[1987.055000005057],"TotalKeys":1,"Block":1,"Trial":57,"Valence":"Win","Action":"Go","Robot":1,"trial_type":"pit-trial","trial_index":69,"time_elapsed":343193,"internal_node_id":"0.0-69.0"},{"Rune":"06","Correct":32,"Choice":-1,"RT":-1,"Accuracy":0,"Sham":0,"Outcome":"-10","Keys":[],"TotalKeys":0,"Block":1,"Trial":58,"Valence":"Lose","Action":"Go","Robot":3,"trial_type":"pit-trial","trial_index":70,"time_elapsed":347196,"internal_node_id":"0.0-70.0"},{"Rune":"05","Correct":-1,"Choice":-1,"RT":-1,"Accuracy":1,"Sham":1,"Outcome":"-10","Keys":[],"TotalKeys":0,"Block":1,"Trial":59,"Valence":"Lose","Action":"No-Go","Robot":4,"trial_type":"pit-trial","trial_index":71,"time_elapsed":351202,"internal_node_id":"0.0-71.0"},{"Rune":"03","Correct":-1,"Choice":32,"RT":349.6749999903841,"Accuracy":0,"Sham":0,"Outcome":"+0","Keys":[1850.0500000081956],"TotalKeys":1,"Block":1,"Trial":60,"Valence":"Win","Action":"No-Go","Robot":2,"trial_type":"pit-trial","trial_index":72,"time_elapsed":354059,"internal_node_id":"0.0-72.0"},{"Rune":"03","Correct":-1,"Choice":32,"RT":285.03499999351334,"Accuracy":0,"Sham":0,"Outcome":"+0","Keys":[1786.1700000066776],"TotalKeys":1,"Block":1,"Trial":61,"Valence":"Win","Action":"No-Go","Robot":2,"trial_type":"pit-trial","trial_index":73,"time_elapsed":356849,"internal_node_id":"0.0-73.0"},{"Rune":"06","Correct":32,"Choice":-1,"RT":-1,"Accuracy":0,"Sham":0,"Outcome":"-10","Keys":[],"TotalKeys":0,"Block":1,"Trial":62,"Valence":"Lose","Action":"Go","Robot":3,"trial_type":"pit-trial","trial_index":74,"time_elapsed":360855,"internal_node_id":"0.0-74.0"},{"Rune":"05","Correct":-1,"Choice":-1,"RT":-1,"Accuracy":1,"Sham":0,"Outcome":"+0","Keys":[],"TotalKeys":0,"Block":1,"Trial":63,"Valence":"Lose","Action":"No-Go","Robot":4,"trial_type":"pit-trial","trial_index":75,"time_elapsed":364862,"internal_node_id":"0.0-75.0"},{"Rune":"04","Correct":32,"Choice":32,"RT":312.6999999949476,"Accuracy":1,"Sham":0,"Outcome":"+10","Keys":[1812.9049999988638],"TotalKeys":1,"Block":1,"Trial":64,"Valence":"Win","Action":"Go","Robot":1,"trial_type":"pit-trial","trial_index":76,"time_elapsed":367681,"internal_node_id":"0.0-76.0"},{"Rune":"03","Correct":-1,"Choice":32,"RT":789.5399999979418,"Accuracy":0,"Sham":0,"Outcome":"+0","Keys":[2291.1350000067614],"TotalKeys":1,"Block":1,"Trial":65,"Valence":"Win","Action":"No-Go","Robot":2,"trial_type":"pit-trial","trial_index":77,"time_elapsed":370977,"internal_node_id":"0.0-77.0"},{"Rune":"05","Correct":-1,"Choice":-1,"RT":-1,"Accuracy":1,"Sham":0,"Outcome":"+0","Keys":[],"TotalKeys":0,"Block":1,"Trial":66,"Valence":"Lose","Action":"No-Go","Robot":4,"trial_type":"pit-trial","trial_index":78,"time_elapsed":374984,"internal_node_id":"0.0-78.0"},{"Rune":"04","Correct":32,"Choice":32,"RT":399.1400000086287,"Accuracy":1,"Sham":1,"Outcome":"+0","Keys":[1899.9299999995856],"TotalKeys":1,"Block":1,"Trial":67,"Valence":"Win","Action":"Go","Robot":1,"trial_type":"pit-trial","trial_index":79,"time_elapsed":377889,"internal_node_id":"0.0-79.0"},{"Rune":"06","Correct":32,"Choice":-1,"RT":-1,"Accuracy":0,"Sham":0,"Outcome":"-10","Keys":[],"TotalKeys":0,"Block":1,"Trial":68,"Valence":"Lose","Action":"Go","Robot":3,"trial_type":"pit-trial","trial_index":80,"time_elapsed":381895,"internal_node_id":"0.0-80.0"},{"Rune":"05","Correct":-1,"Choice":-1,"RT":-1,"Accuracy":1,"Sham":1,"Outcome":"-10","Keys":[],"TotalKeys":0,"Block":1,"Trial":69,"Valence":"Lose","Action":"No-Go","Robot":4,"trial_type":"pit-trial","trial_index":81,"time_elapsed":385904,"internal_node_id":"0.0-81.0"},{"Rune":"06","Correct":32,"Choice":-1,"RT":-1,"Accuracy":0,"Sham":0,"Outcome":"-10","Keys":[],"TotalKeys":0,"Block":1,"Trial":70,"Valence":"Lose","Action":"Go","Robot":3,"trial_type":"pit-trial","trial_index":82,"time_elapsed":389911,"internal_node_id":"0.0-82.0"},{"Rune":"04","Correct":32,"Choice":32,"RT":273.00000000104774,"Accuracy":1,"Sham":0,"Outcome":"+10","Keys":[1774.2399999988265],"TotalKeys":1,"Block":1,"Trial":71,"Valence":"Win","Action":"Go","Robot":1,"trial_type":"pit-trial","trial_index":83,"time_elapsed":392692,"internal_node_id":"0.0-83.0"},{"Rune":"03","Correct":-1,"Choice":32,"RT":1450.1299999974435,"Accuracy":0,"Sham":0,"Outcome":"+0","Keys":[2950.299999996787],"TotalKeys":1,"Block":1,"Trial":72,"Valence":"Win","Action":"No-Go","Robot":2,"trial_type":"pit-trial","trial_index":84,"time_elapsed":396649,"internal_node_id":"0.0-84.0"},{"Rune":"03","Correct":-1,"Choice":32,"RT":752.0150000054855,"Accuracy":0,"Sham":0,"Outcome":"+0","Keys":[2252.9749999957858],"TotalKeys":1,"Block":1,"Trial":73,"Valence":"Win","Action":"No-Go","Robot":2,"trial_type":"pit-trial","trial_index":85,"time_elapsed":399906,"internal_node_id":"0.0-85.0"},{"Rune":"06","Correct":32,"Choice":-1,"RT":-1,"Accuracy":0,"Sham":1,"Outcome":"+0","Keys":[],"TotalKeys":0,"Block":1,"Trial":74,"Valence":"Lose","Action":"Go","Robot":3,"trial_type":"pit-trial","trial_index":86,"time_elapsed":403912,"internal_node_id":"0.0-86.0"},{"Rune":"04","Correct":32,"Choice":32,"RT":290.53500000736676,"Accuracy":1,"Sham":0,"Outcome":"+10","Keys":[1790.3350000124192],"TotalKeys":1,"Block":1,"Trial":75,"Valence":"Win","Action":"Go","Robot":1,"trial_type":"pit-trial","trial_index":87,"time_elapsed":406710,"internal_node_id":"0.0-87.0"},{"Rune":"05","Correct":-1,"Choice":-1,"RT":-1,"Accuracy":1,"Sham":0,"Outcome":"+0","Keys":[],"TotalKeys":0,"Block":1,"Trial":76,"Valence":"Lose","Action":"No-Go","Robot":4,"trial_type":"pit-trial","trial_index":88,"time_elapsed":410720,"internal_node_id":"0.0-88.0"},{"Rune":"03","Correct":-1,"Choice":32,"RT":668.4749999985797,"Accuracy":0,"Sham":1,"Outcome":"+10","Keys":[2170.20500000217],"TotalKeys":1,"Block":1,"Trial":77,"Valence":"Win","Action":"No-Go","Robot":2,"trial_type":"pit-trial","trial_index":89,"time_elapsed":413899,"internal_node_id":"0.0-89.0"},{"Rune":"04","Correct":32,"Choice":32,"RT":828.9800000056857,"Accuracy":1,"Sham":0,"Outcome":"+10","Keys":[2329.714999999851],"TotalKeys":1,"Block":1,"Trial":78,"Valence":"Win","Action":"Go","Robot":1,"trial_type":"pit-trial","trial_index":90,"time_elapsed":417235,"internal_node_id":"0.0-90.0"},{"Rune":"05","Correct":-1,"Choice":-1,"RT":-1,"Accuracy":1,"Sham":0,"Outcome":"+0","Keys":[],"TotalKeys":0,"Block":1,"Trial":79,"Valence":"Lose","Action":"No-Go","Robot":4,"trial_type":"pit-trial","trial_index":91,"time_elapsed":421243,"internal_node_id":"0.0-91.0"},{"Rune":"06","Correct":32,"Choice":-1,"RT":-1,"Accuracy":0,"Sham":0,"Outcome":"-10","Keys":[],"TotalKeys":0,"Block":1,"Trial":80,"Valence":"Lose","Action":"Go","Robot":3,"trial_type":"pit-trial","trial_index":92,"time_elapsed":425252,"internal_node_id":"0.0-92.0"},{"value":false,"trial_type":"call-function","trial_index":93,"time_elapsed":425262,"internal_node_id":"0.0-93.0"},{"RT":1330.8099999994738,"trial_type":"pit-pause","trial_index":94,"time_elapsed":428161,"internal_node_id":"0.0-94.0"},{"Rune":"04","Correct":32,"Choice":32,"RT":1316.770000004908,"Accuracy":1,"Sham":0,"Outcome":"+10","Keys":[2816.8399999995017],"TotalKeys":1,"Block":2,"Trial":81,"Valence":"Win","Action":"Go","Robot":1,"trial_type":"pit-trial","trial_index":95,"time_elapsed":431985,"internal_node_id":"0.0-95.0"},{"Rune":"03","Correct":-1,"Choice":32,"RT":342.53999999782536,"Accuracy":0,"Sham":0,"Outcome":"+0","Keys":[1842.929999998887],"TotalKeys":1,"Block":2,"Trial":82,"Valence":"Win","Action":"No-Go","Robot":2,"trial_type":"pit-trial","trial_index":96,"time_elapsed":434834,"internal_node_id":"0.0-96.0"},{"Rune":"05","Correct":-1,"Choice":-1,"RT":-1,"Accuracy":1,"Sham":0,"Outcome":"+0","Keys":[],"TotalKeys":0,"Block":2,"Trial":83,"Valence":"Lose","Action":"No-Go","Robot":4,"trial_type":"pit-trial","trial_index":97,"time_elapsed":438848,"internal_node_id":"0.0-97.0"},{"Rune":"06","Correct":32,"Choice":32,"RT":7.469999996828847,"Accuracy":1,"Sham":0,"Outcome":"+0","Keys":[1507.9200000036508],"TotalKeys":1,"Block":2,"Trial":84,"Valence":"Lose","Action":"Go","Robot":3,"trial_type":"pit-trial","trial_index":98,"time_elapsed":441362,"internal_node_id":"0.0-98.0"},{"Rune":"04","Correct":32,"Choice":32,"RT":337.8799999918556,"Accuracy":1,"Sham":0,"Outcome":"+10","Keys":[1838.6800000007497],"TotalKeys":1,"Block":2,"Trial":85,"Valence":"Win","Action":"Go","Robot":1,"trial_type":"pit-trial","trial_index":99,"time_elapsed":444209,"internal_node_id":"0.0-99.0"},{"Rune":"03","Correct":-1,"Choice":32,"RT":287.6000000105705,"Accuracy":0,"Sham":0,"Outcome":"+0","Keys":[1788.7999999948079],"TotalKeys":1,"Block":2,"Trial":86,"Valence":"Win","Action":"No-Go","Robot":2,"trial_type":"pit-trial","trial_index":100,"time_elapsed":447002,"internal_node_id":"0.0-100.0"},{"Rune":"06","Correct":32,"Choice":-1,"RT":-1,"Accuracy":0,"Sham":0,"Outcome":"-10","Keys":[],"TotalKeys":0,"Block":2,"Trial":87,"Valence":"Lose","Action":"Go","Robot":3,"trial_type":"pit-trial","trial_index":101,"time_elapsed":451009,"internal_node_id":"0.0-101.0"},{"Rune":"05","Correct":-1,"Choice":-1,"RT":-1,"Accuracy":1,"Sham":0,"Outcome":"+0","Keys":[],"TotalKeys":0,"Block":2,"Trial":88,"Valence":"Lose","Action":"No-Go","Robot":4,"trial_type":"pit-trial","trial_index":102,"time_elapsed":455013,"internal_node_id":"0.0-102.0"},{"Rune":"06","Correct":32,"Choice":-1,"RT":-1,"Accuracy":0,"Sham":1,"Outcome":"+0","Keys":[],"TotalKeys":0,"Block":2,"Trial":89,"Valence":"Lose","Action":"Go","Robot":3,"trial_type":"pit-trial","trial_index":103,"time_elapsed":459019,"internal_node_id":"0.0-103.0"},{"Rune":"04","Correct":32,"Choice":32,"RT":349.0299999975832,"Accuracy":1,"Sham":1,"Outcome":"+0","Keys":[1849.5499999989988],"TotalKeys":1,"Block":2,"Trial":90,"Valence":"Win","Action":"Go","Robot":1,"trial_type":"pit-trial","trial_index":104,"time_elapsed":461886,"internal_node_id":"0.0-104.0"},{"Rune":"03","Correct":-1,"Choice":32,"RT":361.2649999995483,"Accuracy":0,"Sham":0,"Outcome":"+0","Keys":[1861.575000002631],"TotalKeys":1,"Block":2,"Trial":91,"Valence":"Win","Action":"No-Go","Robot":2,"trial_type":"pit-trial","trial_index":105,"time_elapsed":464763,"internal_node_id":"0.0-105.0"},{"Rune":"05","Correct":-1,"Choice":-1,"RT":-1,"Accuracy":1,"Sham":0,"Outcome":"+0","Keys":[],"TotalKeys":0,"Block":2,"Trial":92,"Valence":"Lose","Action":"No-Go","Robot":4,"trial_type":"pit-trial","trial_index":106,"time_elapsed":468771,"internal_node_id":"0.0-106.0"},{"Rune":"05","Correct":-1,"Choice":-1,"RT":-1,"Accuracy":1,"Sham":0,"Outcome":"+0","Keys":[],"TotalKeys":0,"Block":2,"Trial":93,"Valence":"Lose","Action":"No-Go","Robot":4,"trial_type":"pit-trial","trial_index":107,"time_elapsed":472779,"internal_node_id":"0.0-107.0"},{"Rune":"04","Correct":32,"Choice":32,"RT":661.6849999991246,"Accuracy":1,"Sham":0,"Outcome":"+10","Keys":[2162.8700000001118],"TotalKeys":1,"Block":2,"Trial":94,"Valence":"Win","Action":"Go","Robot":1,"trial_type":"pit-trial","trial_index":108,"time_elapsed":475948,"internal_node_id":"0.0-108.0"},{"Rune":"06","Correct":32,"Choice":-1,"RT":-1,"Accuracy":0,"Sham":0,"Outcome":"-10","Keys":[],"TotalKeys":0,"Block":2,"Trial":95,"Valence":"Lose","Action":"Go","Robot":3,"trial_type":"pit-trial","trial_index":109,"time_elapsed":479953,"internal_node_id":"0.0-109.0"},{"Rune":"03","Correct":-1,"Choice":32,"RT":302.0350000006147,"Accuracy":0,"Sham":1,"Outcome":"+10","Keys":[1802.8950000007171],"TotalKeys":1,"Block":2,"Trial":96,"Valence":"Win","Action":"No-Go","Robot":2,"trial_type":"pit-trial","trial_index":110,"time_elapsed":482763,"internal_node_id":"0.0-110.0"},{"Rune":"05","Correct":-1,"Choice":-1,"RT":-1,"Accuracy":1,"Sham":1,"Outcome":"-10","Keys":[],"TotalKeys":0,"Block":2,"Trial":97,"Valence":"Lose","Action":"No-Go","Robot":4,"trial_type":"pit-trial","trial_index":111,"time_elapsed":486777,"internal_node_id":"0.0-111.0"},{"Rune":"04","Correct":32,"Choice":32,"RT":285.3599999943981,"Accuracy":1,"Sham":0,"Outcome":"+10","Keys":[1786.2549999990733],"TotalKeys":1,"Block":2,"Trial":98,"Valence":"Win","Action":"Go","Robot":1,"trial_type":"pit-trial","trial_index":112,"time_elapsed":489571,"internal_node_id":"0.0-112.0"},{"Rune":"06","Correct":32,"Choice":-1,"RT":-1,"Accuracy":0,"Sham":0,"Outcome":"-10","Keys":[],"TotalKeys":0,"Block":2,"Trial":99,"Valence":"Lose","Action":"Go","Robot":3,"trial_type":"pit-trial","trial_index":113,"time_elapsed":493577,"internal_node_id":"0.0-113.0"},{"Rune":"03","Correct":-1,"Choice":32,"RT":349.9900000024354,"Accuracy":0,"Sham":0,"Outcome":"+0","Keys":[1850.059999997029],"TotalKeys":1,"Block":2,"Trial":100,"Valence":"Win","Action":"No-Go","Robot":2,"trial_type":"pit-trial","trial_index":114,"time_elapsed":496433,"internal_node_id":"0.0-114.0"},{"Rune":"05","Correct":-1,"Choice":-1,"RT":-1,"Accuracy":1,"Sham":0,"Outcome":"+0","Keys":[],"TotalKeys":0,"Block":2,"Trial":101,"Valence":"Lose","Action":"No-Go","Robot":4,"trial_type":"pit-trial","trial_index":115,"time_elapsed":500441,"internal_node_id":"0.0-115.0"},{"Rune":"06","Correct":32,"Choice":-1,"RT":-1,"Accuracy":0,"Sham":0,"Outcome":"-10","Keys":[],"TotalKeys":0,"Block":2,"Trial":102,"Valence":"Lose","Action":"Go","Robot":3,"trial_type":"pit-trial","trial_index":116,"time_elapsed":504446,"internal_node_id":"0.0-116.0"},{"Rune":"04","Correct":32,"Choice":32,"RT":992.8150000050664,"Accuracy":1,"Sham":1,"Outcome":"+0","Keys":[2494.569999995292],"TotalKeys":1,"Block":2,"Trial":103,"Valence":"Win","Action":"Go","Robot":1,"trial_type":"pit-trial","trial_index":117,"time_elapsed":507945,"internal_node_id":"0.0-117.0"},{"Rune":"03","Correct":-1,"Choice":-1,"RT":-1,"Accuracy":1,"Sham":1,"Outcome":"+0","Keys":[3473.9450000051875],"TotalKeys":1,"Block":2,"Trial":104,"Valence":"Win","Action":"No-Go","Robot":2,"trial_type":"pit-trial","trial_index":118,"time_elapsed":511952,"internal_node_id":"0.0-118.0"},{"Rune":"06","Correct":32,"Choice":-1,"RT":-1,"Accuracy":0,"Sham":0,"Outcome":"-10","Keys":[],"TotalKeys":0,"Block":2,"Trial":105,"Valence":"Lose","Action":"Go","Robot":3,"trial_type":"pit-trial","trial_index":119,"time_elapsed":515960,"internal_node_id":"0.0-119.0"},{"Rune":"04","Correct":32,"Choice":32,"RT":301.484999989043,"Accuracy":1,"Sham":0,"Outcome":"+10","Keys":[1802.0650000107707],"TotalKeys":1,"Block":2,"Trial":106,"Valence":"Win","Action":"Go","Robot":1,"trial_type":"pit-trial","trial_index":120,"time_elapsed":518769,"internal_node_id":"0.0-120.0"},{"Rune":"03","Correct":-1,"Choice":32,"RT":854.0450000000419,"Accuracy":0,"Sham":0,"Outcome":"+0","Keys":[2354.619999998249],"TotalKeys":1,"Block":2,"Trial":107,"Valence":"Win","Action":"No-Go","Robot":2,"trial_type":"pit-trial","trial_index":121,"time_elapsed":522129,"internal_node_id":"0.0-121.0"},{"Rune":"05","Correct":-1,"Choice":-1,"RT":-1,"Accuracy":1,"Sham":0,"Outcome":"+0","Keys":[],"TotalKeys":0,"Block":2,"Trial":108,"Valence":"Lose","Action":"No-Go","Robot":4,"trial_type":"pit-trial","trial_index":122,"time_elapsed":526134,"internal_node_id":"0.0-122.0"},{"Rune":"03","Correct":-1,"Choice":32,"RT":328.9749999967171,"Accuracy":0,"Sham":0,"Outcome":"+0","Keys":[1829.5950000028824],"TotalKeys":1,"Block":2,"Trial":109,"Valence":"Win","Action":"No-Go","Robot":2,"trial_type":"pit-trial","trial_index":123,"time_elapsed":528969,"internal_node_id":"0.0-123.0"},{"Rune":"05","Correct":-1,"Choice":-1,"RT":-1,"Accuracy":1,"Sham":0,"Outcome":"+0","Keys":[],"TotalKeys":0,"Block":2,"Trial":110,"Valence":"Lose","Action":"No-Go","Robot":4,"trial_type":"pit-trial","trial_index":124,"time_elapsed":532976,"internal_node_id":"0.0-124.0"},{"Rune":"04","Correct":32,"Choice":32,"RT":367.9149999952642,"Accuracy":1,"Sham":0,"Outcome":"+10","Keys":[1868.865000011283],"TotalKeys":1,"Block":2,"Trial":111,"Valence":"Win","Action":"Go","Robot":1,"trial_type":"pit-trial","trial_index":125,"time_elapsed":535850,"internal_node_id":"0.0-125.0"},{"Rune":"06","Correct":32,"Choice":-1,"RT":-1,"Accuracy":0,"Sham":0,"Outcome":"-10","Keys":[],"TotalKeys":0,"Block":2,"Trial":112,"Valence":"Lose","Action":"Go","Robot":3,"trial_type":"pit-trial","trial_index":126,"time_elapsed":539859,"internal_node_id":"0.0-126.0"},{"Rune":"03","Correct":-1,"Choice":32,"RT":180.5000000022119,"Accuracy":0,"Sham":0,"Outcome":"+0","Keys":[1681.1300000117626],"TotalKeys":1,"Block":2,"Trial":113,"Valence":"Win","Action":"No-Go","Robot":2,"trial_type":"pit-trial","trial_index":127,"time_elapsed":542546,"internal_node_id":"0.0-127.0"},{"Rune":"05","Correct":-1,"Choice":-1,"RT":-1,"Accuracy":1,"Sham":0,"Outcome":"+0","Keys":[],"TotalKeys":0,"Block":2,"Trial":114,"Valence":"Lose","Action":"No-Go","Robot":4,"trial_type":"pit-trial","trial_index":128,"time_elapsed":546561,"internal_node_id":"0.0-128.0"},{"Rune":"06","Correct":32,"Choice":-1,"RT":-1,"Accuracy":0,"Sham":1,"Outcome":"+0","Keys":[],"TotalKeys":0,"Block":2,"Trial":115,"Valence":"Lose","Action":"Go","Robot":3,"trial_type":"pit-trial","trial_index":129,"time_elapsed":550571,"internal_node_id":"0.0-129.0"},{"Rune":"04","Correct":32,"Choice":32,"RT":516.3599999941653,"Accuracy":1,"Sham":0,"Outcome":"+10","Keys":[2017.1600000030594],"TotalKeys":1,"Block":2,"Trial":116,"Valence":"Win","Action":"Go","Robot":1,"trial_type":"pit-trial","trial_index":130,"time_elapsed":553593,"internal_node_id":"0.0-130.0"},{"Rune":"05","Correct":-1,"Choice":-1,"RT":-1,"Accuracy":1,"Sham":1,"Outcome":"-10","Keys":[],"TotalKeys":0,"Block":2,"Trial":117,"Valence":"Lose","Action":"No-Go","Robot":4,"trial_type":"pit-trial","trial_index":131,"time_elapsed":557599,"internal_node_id":"0.0-131.0"},{"Rune":"06","Correct":32,"Choice":-1,"RT":-1,"Accuracy":0,"Sham":0,"Outcome":"-10","Keys":[],"TotalKeys":0,"Block":2,"Trial":118,"Valence":"Lose","Action":"Go","Robot":3,"trial_type":"pit-trial","trial_index":132,"time_elapsed":561608,"internal_node_id":"0.0-132.0"},{"Rune":"03","Correct":-1,"Choice":32,"RT":335.2349999913713,"Accuracy":0,"Sham":0,"Outcome":"+0","Keys":[1835.5049999954645],"TotalKeys":1,"Block":2,"Trial":119,"Valence":"Win","Action":"No-Go","Robot":2,"trial_type":"pit-trial","trial_index":133,"time_elapsed":564449,"internal_node_id":"0.0-133.0"},{"Rune":"04","Correct":32,"Choice":32,"RT":836.9600000005448,"Accuracy":1,"Sham":0,"Outcome":"+10","Keys":[2338.6650000029476],"TotalKeys":1,"Block":2,"Trial":120,"Valence":"Win","Action":"Go","Robot":1,"trial_type":"pit-trial","trial_index":134,"time_elapsed":567793,"internal_node_id":"0.0-134.0"},{"Rune":"03","Correct":-1,"Choice":32,"RT":694.4400000065798,"Accuracy":0,"Sham":0,"Outcome":"+0","Keys":[2194.424999994226],"TotalKeys":1,"Block":2,"Trial":121,"Valence":"Win","Action":"No-Go","Robot":2,"trial_type":"pit-trial","trial_index":135,"time_elapsed":570995,"internal_node_id":"0.0-135.0"},{"Rune":"05","Correct":-1,"Choice":-1,"RT":-1,"Accuracy":1,"Sham":0,"Outcome":"+0","Keys":[],"TotalKeys":0,"Block":2,"Trial":122,"Valence":"Lose","Action":"No-Go","Robot":4,"trial_type":"pit-trial","trial_index":136,"time_elapsed":575001,"internal_node_id":"0.0-136.0"},{"Rune":"06","Correct":32,"Choice":-1,"RT":-1,"Accuracy":0,"Sham":0,"Outcome":"-10","Keys":[],"TotalKeys":0,"Block":2,"Trial":123,"Valence":"Lose","Action":"Go","Robot":3,"trial_type":"pit-trial","trial_index":137,"time_elapsed":579009,"internal_node_id":"0.0-137.0"},{"Rune":"04","Correct":32,"Choice":32,"RT":301.259999992908,"Accuracy":1,"Sham":1,"Outcome":"+0","Keys":[1802.5300000008428],"TotalKeys":1,"Block":2,"Trial":124,"Valence":"Win","Action":"Go","Robot":1,"trial_type":"pit-trial","trial_index":138,"time_elapsed":581818,"internal_node_id":"0.0-138.0"},{"Rune":"06","Correct":32,"Choice":-1,"RT":-1,"Accuracy":0,"Sham":1,"Outcome":"+0","Keys":[],"TotalKeys":0,"Block":2,"Trial":125,"Valence":"Lose","Action":"Go","Robot":3,"trial_type":"pit-trial","trial_index":139,"time_elapsed":585825,"internal_node_id":"0.0-139.0"},{"Rune":"05","Correct":-1,"Choice":-1,"RT":-1,"Accuracy":1,"Sham":0,"Outcome":"+0","Keys":[],"TotalKeys":0,"Block":2,"Trial":126,"Valence":"Lose","Action":"No-Go","Robot":4,"trial_type":"pit-trial","trial_index":140,"time_elapsed":589831,"internal_node_id":"0.0-140.0"},{"Rune":"03","Correct":-1,"Choice":32,"RT":265.87999999173917,"Accuracy":0,"Sham":0,"Outcome":"+0","Keys":[1766.1599999992177],"TotalKeys":1,"Block":2,"Trial":127,"Valence":"Win","Action":"No-Go","Robot":2,"trial_type":"pit-trial","trial_index":141,"time_elapsed":592602,"internal_node_id":"0.0-141.0"},{"Rune":"04","Correct":32,"Choice":32,"RT":1447.0049999945331,"Accuracy":1,"Sham":0,"Outcome":"+10","Keys":[2947.4500000069384],"TotalKeys":1,"Block":2,"Trial":128,"Valence":"Win","Action":"Go","Robot":1,"trial_type":"pit-trial","trial_index":142,"time_elapsed":596554,"internal_node_id":"0.0-142.0"},{"Rune":"05","Correct":-1,"Choice":-1,"RT":-1,"Accuracy":1,"Sham":0,"Outcome":"+0","Keys":[],"TotalKeys":0,"Block":2,"Trial":129,"Valence":"Lose","Action":"No-Go","Robot":4,"trial_type":"pit-trial","trial_index":143,"time_elapsed":600560,"internal_node_id":"0.0-143.0"},{"Rune":"04","Correct":32,"Choice":-1,"RT":-1,"Accuracy":0,"Sham":0,"Outcome":"+0","Keys":[3236.4749999978812],"TotalKeys":1,"Block":2,"Trial":130,"Valence":"Win","Action":"Go","Robot":1,"trial_type":"pit-trial","trial_index":144,"time_elapsed":604566,"internal_node_id":"0.0-144.0"},{"Rune":"06","Correct":32,"Choice":-1,"RT":-1,"Accuracy":0,"Sham":0,"Outcome":"-10","Keys":[],"TotalKeys":0,"Block":2,"Trial":131,"Valence":"Lose","Action":"Go","Robot":3,"trial_type":"pit-trial","trial_index":145,"time_elapsed":608572,"internal_node_id":"0.0-145.0"},{"Rune":"03","Correct":-1,"Choice":32,"RT":288.96000000531785,"Accuracy":0,"Sham":0,"Outcome":"+0","Keys":[1790.6499999953667],"TotalKeys":1,"Block":2,"Trial":132,"Valence":"Win","Action":"No-Go","Robot":2,"trial_type":"pit-trial","trial_index":146,"time_elapsed":611368,"internal_node_id":"0.0-146.0"},{"Rune":"05","Correct":-1,"Choice":-1,"RT":-1,"Accuracy":1,"Sham":0,"Outcome":"+0","Keys":[],"TotalKeys":0,"Block":2,"Trial":133,"Valence":"Lose","Action":"No-Go","Robot":4,"trial_type":"pit-trial","trial_index":147,"time_elapsed":615376,"internal_node_id":"0.0-147.0"},{"Rune":"04","Correct":32,"Choice":32,"RT":255.06000001041684,"Accuracy":1,"Sham":0,"Outcome":"+10","Keys":[1756.2699999980396],"TotalKeys":1,"Block":2,"Trial":134,"Valence":"Win","Action":"Go","Robot":1,"trial_type":"pit-trial","trial_index":148,"time_elapsed":618139,"internal_node_id":"0.0-148.0"},{"Rune":"06","Correct":32,"Choice":-1,"RT":-1,"Accuracy":0,"Sham":0,"Outcome":"-10","Keys":[],"TotalKeys":0,"Block":2,"Trial":135,"Valence":"Lose","Action":"Go","Robot":3,"trial_type":"pit-trial","trial_index":149,"time_elapsed":622150,"internal_node_id":"0.0-149.0"},{"Rune":"03","Correct":-1,"Choice":32,"RT":304.5799999963492,"Accuracy":0,"Sham":0,"Outcome":"+0","Keys":[1804.6049999975367],"TotalKeys":1,"Block":2,"Trial":136,"Valence":"Win","Action":"No-Go","Robot":2,"trial_type":"pit-trial","trial_index":150,"time_elapsed":624961,"internal_node_id":"0.0-150.0"},{"Rune":"05","Correct":-1,"Choice":-1,"RT":-1,"Accuracy":1,"Sham":1,"Outcome":"-10","Keys":[],"TotalKeys":0,"Block":2,"Trial":137,"Valence":"Lose","Action":"No-Go","Robot":4,"trial_type":"pit-trial","trial_index":151,"time_elapsed":628966,"internal_node_id":"0.0-151.0"},{"Rune":"04","Correct":32,"Choice":32,"RT":1280.574999997043,"Accuracy":1,"Sham":0,"Outcome":"+10","Keys":[2781.069999997271],"TotalKeys":1,"Block":2,"Trial":138,"Valence":"Win","Action":"Go","Robot":1,"trial_type":"pit-trial","trial_index":152,"time_elapsed":632754,"internal_node_id":"0.0-152.0"},{"Rune":"06","Correct":32,"Choice":-1,"RT":-1,"Accuracy":0,"Sham":0,"Outcome":"-10","Keys":[],"TotalKeys":0,"Block":2,"Trial":139,"Valence":"Lose","Action":"Go","Robot":3,"trial_type":"pit-trial","trial_index":153,"time_elapsed":636761,"internal_node_id":"0.0-153.0"},{"Rune":"03","Correct":-1,"Choice":32,"RT":372.6449999958277,"Accuracy":0,"Sham":1,"Outcome":"+10","Keys":[1872.9549999989104],"TotalKeys":1,"Block":2,"Trial":140,"Valence":"Win","Action":"No-Go","Robot":2,"trial_type":"pit-trial","trial_index":154,"time_elapsed":639642,"internal_node_id":"0.0-154.0"},{"Rune":"03","Correct":-1,"Choice":32,"RT":966.1199999973178,"Accuracy":0,"Sham":1,"Outcome":"+10","Keys":[2466.6250000009313],"TotalKeys":1,"Block":2,"Trial":141,"Valence":"Win","Action":"No-Go","Robot":2,"trial_type":"pit-trial","trial_index":155,"time_elapsed":643115,"internal_node_id":"0.0-155.0"},{"Rune":"06","Correct":32,"Choice":-1,"RT":-1,"Accuracy":0,"Sham":0,"Outcome":"-10","Keys":[],"TotalKeys":0,"Block":2,"Trial":142,"Valence":"Lose","Action":"Go","Robot":3,"trial_type":"pit-trial","trial_index":156,"time_elapsed":647126,"internal_node_id":"0.0-156.0"},{"Rune":"04","Correct":32,"Choice":32,"RT":1317.4200000066776,"Accuracy":1,"Sham":0,"Outcome":"+10","Keys":[2818.4849999961443],"TotalKeys":1,"Block":2,"Trial":143,"Valence":"Win","Action":"Go","Robot":1,"trial_type":"pit-trial","trial_index":157,"time_elapsed":650953,"internal_node_id":"0.0-157.0"},{"Rune":"05","Correct":-1,"Choice":-1,"RT":-1,"Accuracy":1,"Sham":0,"Outcome":"+0","Keys":[],"TotalKeys":0,"Block":2,"Trial":144,"Valence":"Lose","Action":"No-Go","Robot":4,"trial_type":"pit-trial","trial_index":158,"time_elapsed":654960,"internal_node_id":"0.0-158.0"},{"Rune":"05","Correct":-1,"Choice":-1,"RT":-1,"Accuracy":1,"Sham":0,"Outcome":"+0","Keys":[3715.7899999874644],"TotalKeys":1,"Block":2,"Trial":145,"Valence":"Lose","Action":"No-Go","Robot":4,"trial_type":"pit-trial","trial_index":159,"time_elapsed":658967,"internal_node_id":"0.0-159.0"},{"Rune":"04","Correct":32,"Choice":-1,"RT":-1,"Accuracy":0,"Sham":0,"Outcome":"+0","Keys":[],"TotalKeys":0,"Block":2,"Trial":146,"Valence":"Win","Action":"Go","Robot":1,"trial_type":"pit-trial","trial_index":160,"time_elapsed":662977,"internal_node_id":"0.0-160.0"},{"Rune":"06","Correct":32,"Choice":-1,"RT":-1,"Accuracy":0,"Sham":0,"Outcome":"-10","Keys":[],"TotalKeys":0,"Block":2,"Trial":147,"Valence":"Lose","Action":"Go","Robot":3,"trial_type":"pit-trial","trial_index":161,"time_elapsed":666984,"internal_node_id":"0.0-161.0"},{"Rune":"03","Correct":-1,"Choice":32,"RT":343.3450000011362,"Accuracy":0,"Sham":0,"Outcome":"+0","Keys":[1843.590000004042],"TotalKeys":1,"Block":2,"Trial":148,"Valence":"Win","Action":"No-Go","Robot":2,"trial_type":"pit-trial","trial_index":162,"time_elapsed":669834,"internal_node_id":"0.0-162.0"},{"Rune":"03","Correct":-1,"Choice":-1,"RT":-1,"Accuracy":1,"Sham":0,"Outcome":"+10","Keys":[3880.414999992354],"TotalKeys":1,"Block":2,"Trial":149,"Valence":"Win","Action":"No-Go","Robot":2,"trial_type":"pit-trial","trial_index":163,"time_elapsed":673843,"internal_node_id":"0.0-163.0"},{"Rune":"05","Correct":-1,"Choice":-1,"RT":-1,"Accuracy":1,"Sham":0,"Outcome":"+0","Keys":[],"TotalKeys":0,"Block":2,"Trial":150,"Valence":"Lose","Action":"No-Go","Robot":4,"trial_type":"pit-trial","trial_index":164,"time_elapsed":677849,"internal_node_id":"0.0-164.0"},{"Rune":"06","Correct":32,"Choice":-1,"RT":-1,"Accuracy":0,"Sham":0,"Outcome":"-10","Keys":[],"TotalKeys":0,"Block":2,"Trial":151,"Valence":"Lose","Action":"Go","Robot":3,"trial_type":"pit-trial","trial_index":165,"time_elapsed":681855,"internal_node_id":"0.0-165.0"},{"Rune":"04","Correct":32,"Choice":32,"RT":314.1450000111945,"Accuracy":1,"Sham":0,"Outcome":"+10","Keys":[1814.3399999971734],"TotalKeys":1,"Block":2,"Trial":152,"Valence":"Win","Action":"Go","Robot":1,"trial_type":"pit-trial","trial_index":166,"time_elapsed":684674,"internal_node_id":"0.0-166.0"},{"Rune":"04","Correct":32,"Choice":32,"RT":283.53000000061,"Accuracy":1,"Sham":0,"Outcome":"+10","Keys":[1785.5799999961164],"TotalKeys":1,"Block":2,"Trial":153,"Valence":"Win","Action":"Go","Robot":1,"trial_type":"pit-trial","trial_index":167,"time_elapsed":687467,"internal_node_id":"0.0-167.0"},{"Rune":"05","Correct":-1,"Choice":-1,"RT":-1,"Accuracy":1,"Sham":0,"Outcome":"+0","Keys":[],"TotalKeys":0,"Block":2,"Trial":154,"Valence":"Lose","Action":"No-Go","Robot":4,"trial_type":"pit-trial","trial_index":168,"time_elapsed":691474,"internal_node_id":"0.0-168.0"},{"Rune":"06","Correct":32,"Choice":-1,"RT":-1,"Accuracy":0,"Sham":0,"Outcome":"-10","Keys":[],"TotalKeys":0,"Block":2,"Trial":155,"Valence":"Lose","Action":"Go","Robot":3,"trial_type":"pit-trial","trial_index":169,"time_elapsed":695480,"internal_node_id":"0.0-169.0"},{"Rune":"03","Correct":-1,"Choice":32,"RT":271.5650000027381,"Accuracy":0,"Sham":0,"Outcome":"+0","Keys":[1771.9499999948312],"TotalKeys":1,"Block":2,"Trial":156,"Valence":"Win","Action":"No-Go","Robot":2,"trial_type":"pit-trial","trial_index":170,"time_elapsed":698258,"internal_node_id":"0.0-170.0"},{"Rune":"06","Correct":32,"Choice":-1,"RT":-1,"Accuracy":0,"Sham":1,"Outcome":"+0","Keys":[],"TotalKeys":0,"Block":2,"Trial":157,"Valence":"Lose","Action":"Go","Robot":3,"trial_type":"pit-trial","trial_index":171,"time_elapsed":702264,"internal_node_id":"0.0-171.0"},{"Rune":"05","Correct":-1,"Choice":-1,"RT":-1,"Accuracy":1,"Sham":1,"Outcome":"-10","Keys":[],"TotalKeys":0,"Block":2,"Trial":158,"Valence":"Lose","Action":"No-Go","Robot":4,"trial_type":"pit-trial","trial_index":172,"time_elapsed":706270,"internal_node_id":"0.0-172.0"},{"Rune":"03","Correct":-1,"Choice":32,"RT":474.6949999971548,"Accuracy":0,"Sham":0,"Outcome":"+0","Keys":[1975.9950000006938],"TotalKeys":1,"Block":2,"Trial":159,"Valence":"Win","Action":"No-Go","Robot":2,"trial_type":"pit-trial","trial_index":173,"time_elapsed":709254,"internal_node_id":"0.0-173.0"},{"Rune":"04","Correct":32,"Choice":-1,"RT":-1,"Accuracy":0,"Sham":1,"Outcome":"+10","Keys":[3103.350000004866],"TotalKeys":1,"Block":2,"Trial":160,"Valence":"Win","Action":"Go","Robot":1,"trial_type":"pit-trial","trial_index":174,"time_elapsed":713258,"internal_node_id":"0.0-174.0"},{"rt":11539.830000008806,"demographics":{"age":"30","gender-categorical":"Female","ethnicity":"Not Hispanic or Latino","race":"Black or African American","english":"Yes","fluency":"Very well"},"trial_type":"survey-demo","trial_index":175,"time_elapsed":724812,"internal_node_id":"0.0-175.0"},{"rt":32198.44500000181,"debriefgraphics":{"difficulty":"3","fun":"4","clarity":"5","strategy":"looking at the lights","feedback":""},"trial_type":"survey-debrief","trial_index":176,"time_elapsed":757015,"internal_node_id":"0.0-176.0","interactions":"[{\"event\":\"blur\",\"trial\":0,\"time\":0},{\"event\":\"focus\",\"trial\":0,\"time\":7127},{\"event\":\"blur\",\"trial\":10,\"time\":96173},{\"event\":\"focus\",\"trial\":10,\"time\":106483}]"}]