[{"view_history":"[{\"page_index\":0,\"viewing_time\":2143.4250000020256},{\"page_index\":1,\"viewing_time\":4233.689999993658},{\"page_index\":2,\"viewing_time\":6079.960000002757},{\"page_index\":3,\"viewing_time\":5789.944999996806},{\"page_index\":4,\"viewing_time\":4537.960000001476}]","rt":22785.8899999992,"trial_type":"pit-instructions","trial_index":0,"time_elapsed":22789,"internal_node_id":"0.0-0.0"},{"Rune":"01","Correct":32,"Choice":-1,"RT":-1,"Accuracy":0,"Sham":0,"Outcome":"+0","Keys":[3344.8950000019977],"TotalKeys":1,"trial_type":"pit-trial","trial_index":1,"time_elapsed":26810,"internal_node_id":"0.0-1.0"},{"Rune":"01","Correct":32,"Choice":32,"RT":1328.5350000078324,"Accuracy":1,"Sham":0,"Outcome":"+10","Keys":[2829.409999991185],"TotalKeys":1,"trial_type":"pit-trial","trial_index":2,"time_elapsed":30658,"internal_node_id":"0.0-2.0"},{"Rune":"01","Correct":32,"Choice":32,"RT":945.7649999967543,"Accuracy":1,"Sham":0,"Outcome":"+10","Keys":[2446.7599999916274],"TotalKeys":1,"trial_type":"pit-trial","trial_index":3,"time_elapsed":34125,"internal_node_id":"0.0-3.0"},{"Rune":"01","Correct":32,"Choice":32,"RT":930.2049999969313,"Accuracy":1,"Sham":0,"Outcome":"+10","Keys":[2431.1299999972107],"TotalKeys":1,"trial_type":"pit-trial","trial_index":4,"time_elapsed":37586,"internal_node_id":"0.0-4.0"},{"view_history":"[{\"page_index\":0,\"viewing_time\":3777.4999999965075}]","rt":3777.845000004163,"trial_type":"pit-instructions","trial_index":5,"time_elapsed":41380,"internal_node_id":"0.0-5.0"},{"Rune":"02","Correct":-1,"Choice":-1,"RT":-1,"Accuracy":1,"Sham":0,"Outcome":"+10","Keys":[],"TotalKeys":0,"trial_type":"pit-trial","trial_index":6,"time_elapsed":45399,"internal_node_id":"0.0-6.0"},{"Rune":"02","Correct":-1,"Choice":-1,"RT":-1,"Accuracy":1,"Sham":0,"Outcome":"+10","Keys":[],"TotalKeys":0,"trial_type":"pit-trial","trial_index":7,"time_elapsed":49419,"internal_node_id":"0.0-7.0"},{"Rune":"02","Correct":-1,"Choice":-1,"RT":-1,"Accuracy":1,"Sham":0,"Outcome":"+10","Keys":[],"TotalKeys":0,"trial_type":"pit-trial","trial_index":8,"time_elapsed":53447,"internal_node_id":"0.0-8.0"},{"Rune":"02","Correct":-1,"Choice":-1,"RT":-1,"Accuracy":1,"Sham":0,"Outcome":"+10","Keys":[],"TotalKeys":0,"trial_type":"pit-trial","trial_index":9,"time_elapsed":57481,"internal_node_id":"0.0-9.0"},{"view_history":"[{\"page_index\":0,\"viewing_time\":4974.350000004051},{\"page_index\":1,\"viewing_time\":5332.079999992857},{\"page_index\":2,\"viewing_time\":13871.850000010454},{\"page_index\":3,\"viewing_time\":5195.924999992712},{\"page_index\":4,\"viewing_time\":5068.00500000827},{\"page_index\":5,\"viewing_time\":5539.894999994431},{\"page_index\":6,\"viewing_time\":2094.0149999951245},{\"page_index\":7,\"viewing_time\":1498.410000000149}]","rt":43575.190000003204,"trial_type":"pit-instructions","trial_index":10,"time_elapsed":101072,"internal_node_id":"0.0-10.0"},{"rt":18944.409999996424,"responses":"{\"no-press\":\"Do nothing\",\"context-win\":\"+10\",\"context-lose\":\"+0\",\"feedback\":\"True\"}","errors":0,"trial_type":"pit-comprehension","trial_index":11,"time_elapsed":120040,"internal_node_id":"0.0-11.0"},{"view_history":"[{\"page_index\":0,\"viewing_time\":1854.2750000051456}]","rt":1854.8500000033528,"trial_type":"pit-instructions","trial_index":12,"time_elapsed":121918,"internal_node_id":"0.0-12.0"},{"Rune":"03","Correct":-1,"Choice":32,"RT":1363.0249999987427,"Accuracy":0,"Sham":0,"Outcome":"+0","Keys":[2863.6350000015227],"TotalKeys":1,"Block":1,"Trial":1,"Valence":"Win","Action":"No-Go","Robot":2,"trial_type":"pit-trial","trial_index":13,"time_elapsed":125809,"internal_node_id":"0.0-13.0"},{"Rune":"04","Correct":32,"Choice":32,"RT":1292.974999989383,"Accuracy":1,"Sham":0,"Outcome":"+0","Keys":[2793.9400000032037],"TotalKeys":1,"Block":1,"Trial":2,"Valence":"Lose","Action":"Go","Robot":3,"trial_type":"pit-trial","trial_index":14,"time_elapsed":129621,"internal_node_id":"0.0-14.0"},{"Rune":"06","Correct":-1,"Choice":-1,"RT":-1,"Accuracy":1,"Sham":0,"Outcome":"+0","Keys":[],"TotalKeys":0,"Block":1,"Trial":3,"Valence":"Lose","Action":"No-Go","Robot":4,"trial_type":"pit-trial","trial_index":15,"time_elapsed":133641,"internal_node_id":"0.0-15.0"},{"Rune":"05","Correct":32,"Choice":32,"RT":1026.8150000047171,"Accuracy":1,"Sham":0,"Outcome":"+10","Keys":[2528.0599999969127],"TotalKeys":1,"Block":1,"Trial":4,"Valence":"Win","Action":"Go","Robot":1,"trial_type":"pit-trial","trial_index":16,"time_elapsed":137188,"internal_node_id":"0.0-16.0"},{"Rune":"04","Correct":32,"Choice":-1,"RT":-1,"Accuracy":0,"Sham":1,"Outcome":"+0","Keys":[],"TotalKeys":0,"Block":1,"Trial":5,"Valence":"Lose","Action":"Go","Robot":3,"trial_type":"pit-trial","trial_index":17,"time_elapsed":141209,"internal_node_id":"0.0-17.0"},{"Rune":"06","Correct":-1,"Choice":-1,"RT":-1,"Accuracy":1,"Sham":0,"Outcome":"+0","Keys":[],"TotalKeys":0,"Block":1,"Trial":6,"Valence":"Lose","Action":"No-Go","Robot":4,"trial_type":"pit-trial","trial_index":18,"time_elapsed":145229,"internal_node_id":"0.0-18.0"},{"Rune":"05","Correct":32,"Choice":32,"RT":791.5150000044378,"Accuracy":1,"Sham":0,"Outcome":"+10","Keys":[2292.939999999362],"TotalKeys":1,"Block":1,"Trial":7,"Valence":"Win","Action":"Go","Robot":1,"trial_type":"pit-trial","trial_index":19,"time_elapsed":148540,"internal_node_id":"0.0-19.0"},{"Rune":"03","Correct":-1,"Choice":32,"RT":1038.1150000030175,"Accuracy":0,"Sham":0,"Outcome":"+0","Keys":[2539.940000002389],"TotalKeys":1,"Block":1,"Trial":8,"Valence":"Win","Action":"No-Go","Robot":2,"trial_type":"pit-trial","trial_index":20,"time_elapsed":152098,"internal_node_id":"0.0-20.0"},{"Rune":"05","Correct":32,"Choice":32,"RT":686.7650000058347,"Accuracy":1,"Sham":0,"Outcome":"+10","Keys":[2187.275000003865],"TotalKeys":1,"Block":1,"Trial":9,"Valence":"Win","Action":"Go","Robot":1,"trial_type":"pit-trial","trial_index":21,"time_elapsed":155306,"internal_node_id":"0.0-21.0"},{"Rune":"04","Correct":32,"Choice":-1,"RT":-1,"Accuracy":0,"Sham":0,"Outcome":"-10","Keys":[],"TotalKeys":0,"Block":1,"Trial":10,"Valence":"Lose","Action":"Go","Robot":3,"trial_type":"pit-trial","trial_index":22,"time_elapsed":159324,"internal_node_id":"0.0-22.0"},{"Rune":"03","Correct":-1,"Choice":-1,"RT":-1,"Accuracy":1,"Sham":0,"Outcome":"+10","Keys":[],"TotalKeys":0,"Block":1,"Trial":11,"Valence":"Win","Action":"No-Go","Robot":2,"trial_type":"pit-trial","trial_index":23,"time_elapsed":163344,"internal_node_id":"0.0-23.0"},{"Rune":"06","Correct":-1,"Choice":32,"RT":1046.1899999936577,"Accuracy":0,"Sham":0,"Outcome":"-10","Keys":[2546.7199999984587],"TotalKeys":1,"Block":1,"Trial":12,"Valence":"Lose","Action":"No-Go","Robot":4,"trial_type":"pit-trial","trial_index":24,"time_elapsed":166910,"internal_node_id":"0.0-24.0"},{"Rune":"05","Correct":32,"Choice":32,"RT":794.7249999997439,"Accuracy":1,"Sham":0,"Outcome":"+10","Keys":[2295.4549999994924],"TotalKeys":1,"Block":1,"Trial":13,"Valence":"Win","Action":"Go","Robot":1,"trial_type":"pit-trial","trial_index":25,"time_elapsed":170230,"internal_node_id":"0.0-25.0"},{"Rune":"03","Correct":-1,"Choice":-1,"RT":-1,"Accuracy":1,"Sham":0,"Outcome":"+10","Keys":[],"TotalKeys":0,"Block":1,"Trial":14,"Valence":"Win","Action":"No-Go","Robot":2,"trial_type":"pit-trial","trial_index":26,"time_elapsed":174253,"internal_node_id":"0.0-26.0"},{"Rune":"04","Correct":32,"Choice":32,"RT":956.1749999993481,"Accuracy":1,"Sham":0,"Outcome":"+0","Keys":[2457.0700000040233],"TotalKeys":1,"Block":1,"Trial":15,"Valence":"Lose","Action":"Go","Robot":3,"trial_type":"pit-trial","trial_index":27,"time_elapsed":177732,"internal_node_id":"0.0-27.0"},{"Rune":"06","Correct":-1,"Choice":-1,"RT":-1,"Accuracy":1,"Sham":1,"Outcome":"-10","Keys":[],"TotalKeys":0,"Block":1,"Trial":16,"Valence":"Lose","Action":"No-Go","Robot":4,"trial_type":"pit-trial","trial_index":28,"time_elapsed":181755,"internal_node_id":"0.0-28.0"},{"Rune":"05","Correct":32,"Choice":32,"RT":628.3599999878788,"Accuracy":1,"Sham":1,"Outcome":"+0","Keys":[2129.0399999998044],"TotalKeys":1,"Block":1,"Trial":17,"Valence":"Win","Action":"Go","Robot":1,"trial_type":"pit-trial","trial_index":29,"time_elapsed":184925,"internal_node_id":"0.0-29.0"},{"Rune":"04","Correct":32,"Choice":-1,"RT":-1,"Accuracy":0,"Sham":0,"Outcome":"-10","Keys":[],"TotalKeys":0,"Block":1,"Trial":18,"Valence":"Lose","Action":"Go","Robot":3,"trial_type":"pit-trial","trial_index":30,"time_elapsed":188953,"internal_node_id":"0.0-30.0"},{"Rune":"03","Correct":-1,"Choice":-1,"RT":-1,"Accuracy":1,"Sham":1,"Outcome":"+0","Keys":[],"TotalKeys":0,"Block":1,"Trial":19,"Valence":"Win","Action":"No-Go","Robot":2,"trial_type":"pit-trial","trial_index":31,"time_elapsed":192972,"internal_node_id":"0.0-31.0"},{"Rune":"06","Correct":-1,"Choice":32,"RT":1091.500000009546,"Accuracy":0,"Sham":0,"Outcome":"-10","Keys":[2592.4099999974715],"TotalKeys":1,"Block":1,"Trial":20,"Valence":"Lose","Action":"No-Go","Robot":4,"trial_type":"pit-trial","trial_index":32,"time_elapsed":196583,"internal_node_id":"0.0-32.0"},{"Rune":"06","Correct":-1,"Choice":-1,"RT":-1,"Accuracy":1,"Sham":0,"Outcome":"+0","Keys":[],"TotalKeys":0,"Block":1,"Trial":21,"Valence":"Lose","Action":"No-Go","Robot":4,"trial_type":"pit-trial","trial_index":33,"time_elapsed":200613,"internal_node_id":"0.0-33.0"},{"Rune":"03","Correct":-1,"Choice":-1,"RT":-1,"Accuracy":1,"Sham":0,"Outcome":"+10","Keys":[],"TotalKeys":0,"Block":1,"Trial":22,"Valence":"Win","Action":"No-Go","Robot":2,"trial_type":"pit-trial","trial_index":34,"time_elapsed":204638,"internal_node_id":"0.0-34.0"},{"Rune":"05","Correct":32,"Choice":32,"RT":636.7500000051223,"Accuracy":1,"Sham":0,"Outcome":"+10","Keys":[2138.460000001942],"TotalKeys":1,"Block":1,"Trial":23,"Valence":"Win","Action":"Go","Robot":1,"trial_type":"pit-trial","trial_index":35,"time_elapsed":207794,"internal_node_id":"0.0-35.0"},{"Rune":"04","Correct":32,"Choice":32,"RT":798.1250000011642,"Accuracy":1,"Sham":0,"Outcome":"+0","Keys":[2298.6649999947986],"TotalKeys":1,"Block":1,"Trial":24,"Valence":"Lose","Action":"Go","Robot":3,"trial_type":"pit-trial","trial_index":36,"time_elapsed":211112,"internal_node_id":"0.0-36.0"},{"Rune":"06","Correct":-1,"Choice":-1,"RT":-1,"Accuracy":1,"Sham":0,"Outcome":"+0","Keys":[],"TotalKeys":0,"Block":1,"Trial":25,"Valence":"Lose","Action":"No-Go","Robot":4,"trial_type":"pit-trial","trial_index":37,"time_elapsed":215140,"internal_node_id":"0.0-37.0"},{"Rune":"05","Correct":32,"Choice":32,"RT":599.5499999989988,"Accuracy":1,"Sham":0,"Outcome":"+10","Keys":[2100.285000007716],"TotalKeys":1,"Block":1,"Trial":26,"Valence":"Win","Action":"Go","Robot":1,"trial_type":"pit-trial","trial_index":38,"time_elapsed":218260,"internal_node_id":"0.0-38.0"},{"Rune":"04","Correct":32,"Choice":32,"RT":825.2649999922141,"Accuracy":1,"Sham":0,"Outcome":"+0","Keys":[2326.6200000070967],"TotalKeys":1,"Block":1,"Trial":27,"Valence":"Lose","Action":"Go","Robot":3,"trial_type":"pit-trial","trial_index":39,"time_elapsed":221606,"internal_node_id":"0.0-39.0"},{"Rune":"03","Correct":-1,"Choice":-1,"RT":-1,"Accuracy":1,"Sham":0,"Outcome":"+10","Keys":[],"TotalKeys":0,"Block":1,"Trial":28,"Valence":"Win","Action":"No-Go","Robot":2,"trial_type":"pit-trial","trial_index":40,"time_elapsed":225625,"internal_node_id":"0.0-40.0"},{"Rune":"04","Correct":32,"Choice":32,"RT":689.1949999990175,"Accuracy":1,"Sham":0,"Outcome":"+0","Keys":[2189.2749999969965],"TotalKeys":1,"Block":1,"Trial":29,"Valence":"Lose","Action":"Go","Robot":3,"trial_type":"pit-trial","trial_index":41,"time_elapsed":228833,"internal_node_id":"0.0-41.0"},{"Rune":"03","Correct":-1,"Choice":-1,"RT":-1,"Accuracy":1,"Sham":1,"Outcome":"+0","Keys":[],"TotalKeys":0,"Block":1,"Trial":30,"Valence":"Win","Action":"No-Go","Robot":2,"trial_type":"pit-trial","trial_index":42,"time_elapsed":232855,"internal_node_id":"0.0-42.0"},{"Rune":"05","Correct":32,"Choice":32,"RT":862.2850000101607,"Accuracy":1,"Sham":1,"Outcome":"+0","Keys":[2362.6400000066496],"TotalKeys":1,"Block":1,"Trial":31,"Valence":"Win","Action":"Go","Robot":1,"trial_type":"pit-trial","trial_index":43,"time_elapsed":236239,"internal_node_id":"0.0-43.0"},{"Rune":"06","Correct":-1,"Choice":32,"RT":802.1199999930104,"Accuracy":0,"Sham":0,"Outcome":"-10","Keys":[2303.090000001248],"TotalKeys":1,"Block":1,"Trial":32,"Valence":"Lose","Action":"No-Go","Robot":4,"trial_type":"pit-trial","trial_index":44,"time_elapsed":239561,"internal_node_id":"0.0-44.0"},{"Rune":"06","Correct":-1,"Choice":-1,"RT":-1,"Accuracy":1,"Sham":0,"Outcome":"+0","Keys":[],"TotalKeys":0,"Block":1,"Trial":33,"Valence":"Lose","Action":"No-Go","Robot":4,"trial_type":"pit-trial","trial_index":45,"time_elapsed":243582,"internal_node_id":"0.0-45.0"},{"Rune":"03","Correct":-1,"Choice":-1,"RT":-1,"Accuracy":1,"Sham":0,"Outcome":"+10","Keys":[],"TotalKeys":0,"Block":1,"Trial":34,"Valence":"Win","Action":"No-Go","Robot":2,"trial_type":"pit-trial","trial_index":46,"time_elapsed":247601,"internal_node_id":"0.0-46.0"},{"Rune":"05","Correct":32,"Choice":32,"RT":435.65999998827465,"Accuracy":1,"Sham":0,"Outcome":"+10","Keys":[1936.280000008992],"TotalKeys":1,"Block":1,"Trial":35,"Valence":"Win","Action":"Go","Robot":1,"trial_type":"pit-trial","trial_index":47,"time_elapsed":250561,"internal_node_id":"0.0-47.0"},{"Rune":"04","Correct":32,"Choice":32,"RT":777.6549999980489,"Accuracy":1,"Sham":1,"Outcome":"-10","Keys":[2278.1099999992875],"TotalKeys":1,"Block":1,"Trial":36,"Valence":"Lose","Action":"Go","Robot":3,"trial_type":"pit-trial","trial_index":48,"time_elapsed":253857,"internal_node_id":"0.0-48.0"},{"Rune":"06","Correct":-1,"Choice":-1,"RT":-1,"Accuracy":1,"Sham":1,"Outcome":"-10","Keys":[],"TotalKeys":0,"Block":1,"Trial":37,"Valence":"Lose","Action":"No-Go","Robot":4,"trial_type":"pit-trial","trial_index":49,"time_elapsed":257877,"internal_node_id":"0.0-49.0"},{"Rune":"04","Correct":32,"Choice":32,"RT":771.5400000015507,"Accuracy":1,"Sham":0,"Outcome":"+0","Keys":[2272.1899999887682],"TotalKeys":1,"Block":1,"Trial":38,"Valence":"Lose","Action":"Go","Robot":3,"trial_type":"pit-trial","trial_index":50,"time_elapsed":261168,"internal_node_id":"0.0-50.0"},{"Rune":"05","Correct":32,"Choice":32,"RT":558.99999999383,"Accuracy":1,"Sham":0,"Outcome":"+10","Keys":[2060.9000000113156],"TotalKeys":1,"Block":1,"Trial":39,"Valence":"Win","Action":"Go","Robot":1,"trial_type":"pit-trial","trial_index":51,"time_elapsed":264250,"internal_node_id":"0.0-51.0"},{"Rune":"03","Correct":-1,"Choice":-1,"RT":-1,"Accuracy":1,"Sham":0,"Outcome":"+10","Keys":[],"TotalKeys":0,"Block":1,"Trial":40,"Valence":"Win","Action":"No-Go","Robot":2,"trial_type":"pit-trial","trial_index":52,"time_elapsed":268269,"internal_node_id":"0.0-52.0"},{"Rune":"04","Correct":32,"Choice":-1,"RT":-1,"Accuracy":0,"Sham":1,"Outcome":"+0","Keys":[],"TotalKeys":0,"Block":1,"Trial":41,"Valence":"Lose","Action":"Go","Robot":3,"trial_type":"pit-trial","trial_index":53,"time_elapsed":272290,"internal_node_id":"0.0-53.0"},{"Rune":"03","Correct":-1,"Choice":-1,"RT":-1,"Accuracy":1,"Sham":0,"Outcome":"+10","Keys":[],"TotalKeys":0,"Block":1,"Trial":42,"Valence":"Win","Action":"No-Go","Robot":2,"trial_type":"pit-trial","trial_index":54,"time_elapsed":276309,"internal_node_id":"0.0-54.0"},{"Rune":"06","Correct":-1,"Choice":-1,"RT":-1,"Accuracy":1,"Sham":0,"Outcome":"+0","Keys":[],"TotalKeys":0,"Block":1,"Trial":43,"Valence":"Lose","Action":"No-Go","Robot":4,"trial_type":"pit-trial","trial_index":55,"time_elapsed":280329,"internal_node_id":"0.0-55.0"},{"Rune":"05","Correct":32,"Choice":32,"RT":659.8549999907846,"Accuracy":1,"Sham":0,"Outcome":"+10","Keys":[2161.1549999943236],"TotalKeys":1,"Block":1,"Trial":44,"Valence":"Win","Action":"Go","Robot":1,"trial_type":"pit-trial","trial_index":56,"time_elapsed":283508,"internal_node_id":"0.0-56.0"},{"Rune":"06","Correct":-1,"Choice":-1,"RT":-1,"Accuracy":1,"Sham":0,"Outcome":"+0","Keys":[],"TotalKeys":0,"Block":1,"Trial":45,"Valence":"Lose","Action":"No-Go","Robot":4,"trial_type":"pit-trial","trial_index":57,"time_elapsed":287528,"internal_node_id":"0.0-57.0"},{"Rune":"03","Correct":-1,"Choice":-1,"RT":-1,"Accuracy":1,"Sham":1,"Outcome":"+0","Keys":[],"TotalKeys":0,"Block":1,"Trial":46,"Valence":"Win","Action":"No-Go","Robot":2,"trial_type":"pit-trial","trial_index":58,"time_elapsed":291548,"internal_node_id":"0.0-58.0"},{"Rune":"04","Correct":32,"Choice":32,"RT":754.2600000015227,"Accuracy":1,"Sham":0,"Outcome":"+0","Keys":[2254.3449999939185],"TotalKeys":1,"Block":1,"Trial":47,"Valence":"Lose","Action":"Go","Robot":3,"trial_type":"pit-trial","trial_index":59,"time_elapsed":294820,"internal_node_id":"0.0-59.0"},{"Rune":"05","Correct":32,"Choice":32,"RT":626.7800000059651,"Accuracy":1,"Sham":0,"Outcome":"+10","Keys":[2128.389999998035],"TotalKeys":1,"Block":1,"Trial":48,"Valence":"Win","Action":"Go","Robot":1,"trial_type":"pit-trial","trial_index":60,"time_elapsed":297968,"internal_node_id":"0.0-60.0"},{"Rune":"06","Correct":-1,"Choice":-1,"RT":-1,"Accuracy":1,"Sham":0,"Outcome":"+0","Keys":[],"TotalKeys":0,"Block":1,"Trial":49,"Valence":"Lose","Action":"No-Go","Robot":4,"trial_type":"pit-trial","trial_index":61,"time_elapsed":301988,"internal_node_id":"0.0-61.0"},{"Rune":"05","Correct":32,"Choice":32,"RT":589.6450000000186,"Accuracy":1,"Sham":0,"Outcome":"+10","Keys":[2090.200000006007],"TotalKeys":1,"Block":1,"Trial":50,"Valence":"Win","Action":"Go","Robot":1,"trial_type":"pit-trial","trial_index":62,"time_elapsed":305097,"internal_node_id":"0.0-62.0"},{"Rune":"03","Correct":-1,"Choice":-1,"RT":-1,"Accuracy":1,"Sham":0,"Outcome":"+10","Keys":[],"TotalKeys":0,"Block":1,"Trial":51,"Valence":"Win","Action":"No-Go","Robot":2,"trial_type":"pit-trial","trial_index":63,"time_elapsed":309119,"internal_node_id":"0.0-63.0"},{"Rune":"04","Correct":32,"Choice":32,"RT":743.5700000060024,"Accuracy":1,"Sham":0,"Outcome":"+0","Keys":[2244.204999995418],"TotalKeys":1,"Block":1,"Trial":52,"Valence":"Lose","Action":"Go","Robot":3,"trial_type":"pit-trial","trial_index":64,"time_elapsed":312393,"internal_node_id":"0.0-64.0"},{"Rune":"03","Correct":-1,"Choice":-1,"RT":-1,"Accuracy":1,"Sham":0,"Outcome":"+10","Keys":[],"TotalKeys":0,"Block":1,"Trial":53,"Valence":"Win","Action":"No-Go","Robot":2,"trial_type":"pit-trial","trial_index":65,"time_elapsed":316413,"internal_node_id":"0.0-65.0"},{"Rune":"04","Correct":32,"Choice":32,"RT":616.0950000048615,"Accuracy":1,"Sham":0,"Outcome":"+0","Keys":[2117.289999994682],"TotalKeys":1,"Block":1,"Trial":54,"Valence":"Lose","Action":"Go","Robot":3,"trial_type":"pit-trial","trial_index":66,"time_elapsed":319550,"internal_node_id":"0.0-66.0"},{"Rune":"06","Correct":-1,"Choice":-1,"RT":-1,"Accuracy":1,"Sham":0,"Outcome":"+0","Keys":[],"TotalKeys":0,"Block":1,"Trial":55,"Valence":"Lose","Action":"No-Go","Robot":4,"trial_type":"pit-trial","trial_index":67,"time_elapsed":323571,"internal_node_id":"0.0-67.0"},{"Rune":"05","Correct":32,"Choice":32,"RT":650.7649999985006,"Accuracy":1,"Sham":0,"Outcome":"+10","Keys":[2151.284999999916],"TotalKeys":1,"Block":1,"Trial":56,"Valence":"Win","Action":"Go","Robot":1,"trial_type":"pit-trial","trial_index":68,"time_elapsed":326745,"internal_node_id":"0.0-68.0"},{"Rune":"05","Correct":32,"Choice":32,"RT":503.9050000050338,"Accuracy":1,"Sham":1,"Outcome":"+0","Keys":[2005.3100000077393],"TotalKeys":1,"Block":1,"Trial":57,"Valence":"Win","Action":"Go","Robot":1,"trial_type":"pit-trial","trial_index":69,"time_elapsed":329770,"internal_node_id":"0.0-69.0"},{"Rune":"04","Correct":32,"Choice":32,"RT":712.5899999955436,"Accuracy":1,"Sham":0,"Outcome":"+0","Keys":[2214.0349999972386],"TotalKeys":1,"Block":1,"Trial":58,"Valence":"Lose","Action":"Go","Robot":3,"trial_type":"pit-trial","trial_index":70,"time_elapsed":333004,"internal_node_id":"0.0-70.0"},{"Rune":"06","Correct":-1,"Choice":32,"RT":867.0000000129221,"Accuracy":0,"Sham":1,"Outcome":"+0","Keys":[2367.465000002994],"TotalKeys":1,"Block":1,"Trial":59,"Valence":"Lose","Action":"No-Go","Robot":4,"trial_type":"pit-trial","trial_index":71,"time_elapsed":336390,"internal_node_id":"0.0-71.0"},{"Rune":"03","Correct":-1,"Choice":-1,"RT":-1,"Accuracy":1,"Sham":0,"Outcome":"+10","Keys":[],"TotalKeys":0,"Block":1,"Trial":60,"Valence":"Win","Action":"No-Go","Robot":2,"trial_type":"pit-trial","trial_index":72,"time_elapsed":340411,"internal_node_id":"0.0-72.0"},{"Rune":"03","Correct":-1,"Choice":-1,"RT":-1,"Accuracy":1,"Sham":0,"Outcome":"+10","Keys":[],"TotalKeys":0,"Block":1,"Trial":61,"Valence":"Win","Action":"No-Go","Robot":2,"trial_type":"pit-trial","trial_index":73,"time_elapsed":344433,"internal_node_id":"0.0-73.0"},{"Rune":"04","Correct":32,"Choice":32,"RT":834.0699999971548,"Accuracy":1,"Sham":0,"Outcome":"+0","Keys":[2334.2200000042794],"TotalKeys":1,"Block":1,"Trial":62,"Valence":"Lose","Action":"Go","Robot":3,"trial_type":"pit-trial","trial_index":74,"time_elapsed":347787,"internal_node_id":"0.0-74.0"},{"Rune":"06","Correct":-1,"Choice":32,"RT":685.2799999905983,"Accuracy":0,"Sham":0,"Outcome":"-10","Keys":[2186.1250000074506],"TotalKeys":1,"Block":1,"Trial":63,"Valence":"Lose","Action":"No-Go","Robot":4,"trial_type":"pit-trial","trial_index":75,"time_elapsed":350991,"internal_node_id":"0.0-75.0"},{"Rune":"05","Correct":32,"Choice":32,"RT":597.6300000038464,"Accuracy":1,"Sham":0,"Outcome":"+10","Keys":[2098.8300000026356],"TotalKeys":1,"Block":1,"Trial":64,"Valence":"Win","Action":"Go","Robot":1,"trial_type":"pit-trial","trial_index":76,"time_elapsed":354108,"internal_node_id":"0.0-76.0"},{"Rune":"03","Correct":-1,"Choice":-1,"RT":-1,"Accuracy":1,"Sham":0,"Outcome":"+10","Keys":[],"TotalKeys":0,"Block":1,"Trial":65,"Valence":"Win","Action":"No-Go","Robot":2,"trial_type":"pit-trial","trial_index":77,"time_elapsed":358129,"internal_node_id":"0.0-77.0"},{"Rune":"06","Correct":-1,"Choice":32,"RT":793.7049999891315,"Accuracy":0,"Sham":0,"Outcome":"-10","Keys":[2295.125000004191],"TotalKeys":1,"Block":1,"Trial":66,"Valence":"Lose","Action":"No-Go","Robot":4,"trial_type":"pit-trial","trial_index":78,"time_elapsed":361444,"internal_node_id":"0.0-78.0"},{"Rune":"05","Correct":32,"Choice":32,"RT":547.8500000026543,"Accuracy":1,"Sham":1,"Outcome":"+0","Keys":[2047.93499999505],"TotalKeys":1,"Block":1,"Trial":67,"Valence":"Win","Action":"Go","Robot":1,"trial_type":"pit-trial","trial_index":79,"time_elapsed":364511,"internal_node_id":"0.0-79.0"},{"Rune":"04","Correct":32,"Choice":32,"RT":716.8150000070455,"Accuracy":1,"Sham":0,"Outcome":"+0","Keys":[2217.0599999953993],"TotalKeys":1,"Block":1,"Trial":68,"Valence":"Lose","Action":"Go","Robot":3,"trial_type":"pit-trial","trial_index":80,"time_elapsed":367746,"internal_node_id":"0.0-80.0"},{"Rune":"06","Correct":-1,"Choice":-1,"RT":-1,"Accuracy":1,"Sham":1,"Outcome":"-10","Keys":[],"TotalKeys":0,"Block":1,"Trial":69,"Valence":"Lose","Action":"No-Go","Robot":4,"trial_type":"pit-trial","trial_index":81,"time_elapsed":371767,"internal_node_id":"0.0-81.0"},{"Rune":"04","Correct":32,"Choice":32,"RT":599.5649999968009,"Accuracy":1,"Sham":0,"Outcome":"+0","Keys":[2099.9600000068313],"TotalKeys":1,"Block":1,"Trial":70,"Valence":"Lose","Action":"Go","Robot":3,"trial_type":"pit-trial","trial_index":82,"time_elapsed":374886,"internal_node_id":"0.0-82.0"},{"Rune":"05","Correct":32,"Choice":32,"RT":514.8750000080327,"Accuracy":1,"Sham":0,"Outcome":"+10","Keys":[2015.5749999976251],"TotalKeys":1,"Block":1,"Trial":71,"Valence":"Win","Action":"Go","Robot":1,"trial_type":"pit-trial","trial_index":83,"time_elapsed":377921,"internal_node_id":"0.0-83.0"},{"Rune":"03","Correct":-1,"Choice":-1,"RT":-1,"Accuracy":1,"Sham":0,"Outcome":"+10","Keys":[],"TotalKeys":0,"Block":1,"Trial":72,"Valence":"Win","Action":"No-Go","Robot":2,"trial_type":"pit-trial","trial_index":84,"time_elapsed":381940,"internal_node_id":"0.0-84.0"},{"Rune":"03","Correct":-1,"Choice":-1,"RT":-1,"Accuracy":1,"Sham":0,"Outcome":"+10","Keys":[],"TotalKeys":0,"Block":1,"Trial":73,"Valence":"Win","Action":"No-Go","Robot":2,"trial_type":"pit-trial","trial_index":85,"time_elapsed":385961,"internal_node_id":"0.0-85.0"},{"Rune":"04","Correct":32,"Choice":32,"RT":763.4650000109104,"Accuracy":1,"Sham":1,"Outcome":"-10","Keys":[2264.1399999993155],"TotalKeys":1,"Block":1,"Trial":74,"Valence":"Lose","Action":"Go","Robot":3,"trial_type":"pit-trial","trial_index":86,"time_elapsed":389244,"internal_node_id":"0.0-86.0"},{"Rune":"05","Correct":32,"Choice":32,"RT":572.1550000016578,"Accuracy":1,"Sham":0,"Outcome":"+10","Keys":[2072.759999995469],"TotalKeys":1,"Block":1,"Trial":75,"Valence":"Win","Action":"Go","Robot":1,"trial_type":"pit-trial","trial_index":87,"time_elapsed":392342,"internal_node_id":"0.0-87.0"},{"Rune":"06","Correct":-1,"Choice":32,"RT":785.3500000055647,"Accuracy":0,"Sham":0,"Outcome":"-10","Keys":[2286.2000000022817],"TotalKeys":1,"Block":1,"Trial":76,"Valence":"Lose","Action":"No-Go","Robot":4,"trial_type":"pit-trial","trial_index":88,"time_elapsed":395647,"internal_node_id":"0.0-88.0"},{"Rune":"03","Correct":-1,"Choice":-1,"RT":-1,"Accuracy":1,"Sham":1,"Outcome":"+0","Keys":[],"TotalKeys":0,"Block":1,"Trial":77,"Valence":"Win","Action":"No-Go","Robot":2,"trial_type":"pit-trial","trial_index":89,"time_elapsed":399665,"internal_node_id":"0.0-89.0"},{"Rune":"05","Correct":32,"Choice":32,"RT":537.8599999967264,"Accuracy":1,"Sham":0,"Outcome":"+10","Keys":[2038.9649999997346],"TotalKeys":1,"Block":1,"Trial":78,"Valence":"Win","Action":"Go","Robot":1,"trial_type":"pit-trial","trial_index":90,"time_elapsed":402725,"internal_node_id":"0.0-90.0"},{"Rune":"06","Correct":-1,"Choice":-1,"RT":-1,"Accuracy":1,"Sham":0,"Outcome":"+0","Keys":[],"TotalKeys":0,"Block":1,"Trial":79,"Valence":"Lose","Action":"No-Go","Robot":4,"trial_type":"pit-trial","trial_index":91,"time_elapsed":406747,"internal_node_id":"0.0-91.0"},{"Rune":"04","Correct":32,"Choice":-1,"RT":-1,"Accuracy":0,"Sham":0,"Outcome":"-10","Keys":[],"TotalKeys":0,"Block":1,"Trial":80,"Valence":"Lose","Action":"Go","Robot":3,"trial_type":"pit-trial","trial_index":92,"time_elapsed":410768,"internal_node_id":"0.0-92.0"},{"value":false,"trial_type":"call-function","trial_index":93,"time_elapsed":410785,"internal_node_id":"0.0-93.0"},{"RT":1988.3600000030128,"trial_type":"pit-pause","trial_index":94,"time_elapsed":414829,"internal_node_id":"0.0-94.0"},{"Rune":"05","Correct":32,"Choice":32,"RT":554.4200000003912,"Accuracy":1,"Sham":0,"Outcome":"+10","Keys":[2055.355000004056],"TotalKeys":1,"Block":2,"Trial":81,"Valence":"Win","Action":"Go","Robot":1,"trial_type":"pit-trial","trial_index":95,"time_elapsed":417904,"internal_node_id":"0.0-95.0"},{"Rune":"03","Correct":-1,"Choice":-1,"RT":-1,"Accuracy":1,"Sham":0,"Outcome":"+10","Keys":[],"TotalKeys":0,"Block":2,"Trial":82,"Valence":"Win","Action":"No-Go","Robot":2,"trial_type":"pit-trial","trial_index":96,"time_elapsed":421933,"internal_node_id":"0.0-96.0"},{"Rune":"06","Correct":-1,"Choice":-1,"RT":-1,"Accuracy":1,"Sham":0,"Outcome":"+0","Keys":[],"TotalKeys":0,"Block":2,"Trial":83,"Valence":"Lose","Action":"No-Go","Robot":4,"trial_type":"pit-trial","trial_index":97,"time_elapsed":425953,"internal_node_id":"0.0-97.0"},{"Rune":"04","Correct":32,"Choice":-1,"RT":-1,"Accuracy":0,"Sham":0,"Outcome":"-10","Keys":[],"TotalKeys":0,"Block":2,"Trial":84,"Valence":"Lose","Action":"Go","Robot":3,"trial_type":"pit-trial","trial_index":98,"time_elapsed":429975,"internal_node_id":"0.0-98.0"},{"Rune":"05","Correct":32,"Choice":32,"RT":552.6350000000093,"Accuracy":1,"Sham":0,"Outcome":"+10","Keys":[2054.0650000039022],"TotalKeys":1,"Block":2,"Trial":85,"Valence":"Win","Action":"Go","Robot":1,"trial_type":"pit-trial","trial_index":99,"time_elapsed":433066,"internal_node_id":"0.0-99.0"},{"Rune":"03","Correct":-1,"Choice":-1,"RT":-1,"Accuracy":1,"Sham":0,"Outcome":"+10","Keys":[],"TotalKeys":0,"Block":2,"Trial":86,"Valence":"Win","Action":"No-Go","Robot":2,"trial_type":"pit-trial","trial_index":100,"time_elapsed":437094,"internal_node_id":"0.0-100.0"},{"Rune":"04","Correct":32,"Choice":32,"RT":669.899999993504,"Accuracy":1,"Sham":0,"Outcome":"+0","Keys":[2170.9799999953248],"TotalKeys":1,"Block":2,"Trial":87,"Valence":"Lose","Action":"Go","Robot":3,"trial_type":"pit-trial","trial_index":101,"time_elapsed":440293,"internal_node_id":"0.0-101.0"},{"Rune":"06","Correct":-1,"Choice":-1,"RT":-1,"Accuracy":1,"Sham":0,"Outcome":"+0","Keys":[],"TotalKeys":0,"Block":2,"Trial":88,"Valence":"Lose","Action":"No-Go","Robot":4,"trial_type":"pit-trial","trial_index":102,"time_elapsed":444312,"internal_node_id":"0.0-102.0"},{"Rune":"04","Correct":32,"Choice":32,"RT":730.9099999984028,"Accuracy":1,"Sham":1,"Outcome":"-10","Keys":[2232.0500000059837],"TotalKeys":1,"Block":2,"Trial":89,"Valence":"Lose","Action":"Go","Robot":3,"trial_type":"pit-trial","trial_index":103,"time_elapsed":447564,"internal_node_id":"0.0-103.0"},{"Rune":"05","Correct":32,"Choice":32,"RT":498.2350000063889,"Accuracy":1,"Sham":1,"Outcome":"+0","Keys":[1998.7699999910546],"TotalKeys":1,"Block":2,"Trial":90,"Valence":"Win","Action":"Go","Robot":1,"trial_type":"pit-trial","trial_index":104,"time_elapsed":450587,"internal_node_id":"0.0-104.0"},{"Rune":"03","Correct":-1,"Choice":-1,"RT":-1,"Accuracy":1,"Sham":0,"Outcome":"+10","Keys":[],"TotalKeys":0,"Block":2,"Trial":91,"Valence":"Win","Action":"No-Go","Robot":2,"trial_type":"pit-trial","trial_index":105,"time_elapsed":454608,"internal_node_id":"0.0-105.0"},{"Rune":"06","Correct":-1,"Choice":32,"RT":853.0849999951897,"Accuracy":0,"Sham":0,"Outcome":"-10","Keys":[2354.0849999990314],"TotalKeys":1,"Block":2,"Trial":92,"Valence":"Lose","Action":"No-Go","Robot":4,"trial_type":"pit-trial","trial_index":106,"time_elapsed":457983,"internal_node_id":"0.0-106.0"},{"Rune":"06","Correct":-1,"Choice":-1,"RT":-1,"Accuracy":1,"Sham":0,"Outcome":"+0","Keys":[],"TotalKeys":0,"Block":2,"Trial":93,"Valence":"Lose","Action":"No-Go","Robot":4,"trial_type":"pit-trial","trial_index":107,"time_elapsed":462003,"internal_node_id":"0.0-107.0"},{"Rune":"05","Correct":32,"Choice":32,"RT":471.53500000422355,"Accuracy":1,"Sham":0,"Outcome":"+10","Keys":[1972.5350000080653],"TotalKeys":1,"Block":2,"Trial":94,"Valence":"Win","Action":"Go","Robot":1,"trial_type":"pit-trial","trial_index":108,"time_elapsed":464999,"internal_node_id":"0.0-108.0"},{"Rune":"04","Correct":32,"Choice":32,"RT":720.2099999994971,"Accuracy":1,"Sham":0,"Outcome":"+0","Keys":[2221.445000002859],"TotalKeys":1,"Block":2,"Trial":95,"Valence":"Lose","Action":"Go","Robot":3,"trial_type":"pit-trial","trial_index":109,"time_elapsed":468241,"internal_node_id":"0.0-109.0"},{"Rune":"03","Correct":-1,"Choice":-1,"RT":-1,"Accuracy":1,"Sham":1,"Outcome":"+0","Keys":[],"TotalKeys":0,"Block":2,"Trial":96,"Valence":"Win","Action":"No-Go","Robot":2,"trial_type":"pit-trial","trial_index":110,"time_elapsed":472260,"internal_node_id":"0.0-110.0"},{"Rune":"06","Correct":-1,"Choice":32,"RT":1078.6100000113947,"Accuracy":0,"Sham":1,"Outcome":"+0","Keys":[2578.8749999919673],"TotalKeys":1,"Block":2,"Trial":97,"Valence":"Lose","Action":"No-Go","Robot":4,"trial_type":"pit-trial","trial_index":111,"time_elapsed":475863,"internal_node_id":"0.0-111.0"},{"Rune":"05","Correct":32,"Choice":32,"RT":667.9950000107056,"Accuracy":1,"Sham":0,"Outcome":"+10","Keys":[2168.210000003455],"TotalKeys":1,"Block":2,"Trial":98,"Valence":"Win","Action":"Go","Robot":1,"trial_type":"pit-trial","trial_index":112,"time_elapsed":479051,"internal_node_id":"0.0-112.0"},{"Rune":"04","Correct":32,"Choice":32,"RT":1201.855000006617,"Accuracy":1,"Sham":0,"Outcome":"+0","Keys":[2703.0349999986356],"TotalKeys":1,"Block":2,"Trial":99,"Valence":"Lose","Action":"Go","Robot":3,"trial_type":"pit-trial","trial_index":113,"time_elapsed":482780,"internal_node_id":"0.0-113.0"},{"Rune":"03","Correct":-1,"Choice":-1,"RT":-1,"Accuracy":1,"Sham":0,"Outcome":"+10","Keys":[],"TotalKeys":0,"Block":2,"Trial":100,"Valence":"Win","Action":"No-Go","Robot":2,"trial_type":"pit-trial","trial_index":114,"time_elapsed":486801,"internal_node_id":"0.0-114.0"},{"Rune":"06","Correct":-1,"Choice":-1,"RT":-1,"Accuracy":1,"Sham":0,"Outcome":"+0","Keys":[],"TotalKeys":0,"Block":2,"Trial":101,"Valence":"Lose","Action":"No-Go","Robot":4,"trial_type":"pit-trial","trial_index":115,"time_elapsed":490820,"internal_node_id":"0.0-115.0"},{"Rune":"04","Correct":32,"Choice":32,"RT":714.5350000064354,"Accuracy":1,"Sham":0,"Outcome":"+0","Keys":[2215.5600000114646],"TotalKeys":1,"Block":2,"Trial":102,"Valence":"Lose","Action":"Go","Robot":3,"trial_type":"pit-trial","trial_index":116,"time_elapsed":494054,"internal_node_id":"0.0-116.0"},{"Rune":"05","Correct":32,"Choice":32,"RT":642.4050000059651,"Accuracy":1,"Sham":1,"Outcome":"+0","Keys":[2143.080000008922],"TotalKeys":1,"Block":2,"Trial":103,"Valence":"Win","Action":"Go","Robot":1,"trial_type":"pit-trial","trial_index":117,"time_elapsed":497226,"internal_node_id":"0.0-117.0"},{"Rune":"03","Correct":-1,"Choice":-1,"RT":-1,"Accuracy":1,"Sham":1,"Outcome":"+0","Keys":[],"TotalKeys":0,"Block":2,"Trial":104,"Valence":"Win","Action":"No-Go","Robot":2,"trial_type":"pit-trial","trial_index":118,"time_elapsed":501255,"internal_node_id":"0.0-118.0"},{"Rune":"04","Correct":32,"Choice":32,"RT":631.3099999970291,"Accuracy":1,"Sham":0,"Outcome":"+0","Keys":[2132.1250000037253],"TotalKeys":1,"Block":2,"Trial":105,"Valence":"Lose","Action":"Go","Robot":3,"trial_type":"pit-trial","trial_index":119,"time_elapsed":504407,"internal_node_id":"0.0-119.0"},{"Rune":"05","Correct":32,"Choice":32,"RT":600.7600000011735,"Accuracy":1,"Sham":0,"Outcome":"+10","Keys":[2101.5299999999115],"TotalKeys":1,"Block":2,"Trial":106,"Valence":"Win","Action":"Go","Robot":1,"trial_type":"pit-trial","trial_index":120,"time_elapsed":507526,"internal_node_id":"0.0-120.0"},{"Rune":"03","Correct":-1,"Choice":-1,"RT":-1,"Accuracy":1,"Sham":0,"Outcome":"+10","Keys":[],"TotalKeys":0,"Block":2,"Trial":107,"Valence":"Win","Action":"No-Go","Robot":2,"trial_type":"pit-trial","trial_index":121,"time_elapsed":511546,"internal_node_id":"0.0-121.0"},{"Rune":"06","Correct":-1,"Choice":-1,"RT":-1,"Accuracy":1,"Sham":0,"Outcome":"+0","Keys":[],"TotalKeys":0,"Block":2,"Trial":108,"Valence":"Lose","Action":"No-Go","Robot":4,"trial_type":"pit-trial","trial_index":122,"time_elapsed":515568,"internal_node_id":"0.0-122.0"},{"Rune":"03","Correct":-1,"Choice":-1,"RT":-1,"Accuracy":1,"Sham":0,"Outcome":"+10","Keys":[],"TotalKeys":0,"Block":2,"Trial":109,"Valence":"Win","Action":"No-Go","Robot":2,"trial_type":"pit-trial","trial_index":123,"time_elapsed":519588,"internal_node_id":"0.0-123.0"},{"Rune":"06","Correct":-1,"Choice":-1,"RT":-1,"Accuracy":1,"Sham":0,"Outcome":"+0","Keys":[],"TotalKeys":0,"Block":2,"Trial":110,"Valence":"Lose","Action":"No-Go","Robot":4,"trial_type":"pit-trial","trial_index":124,"time_elapsed":523608,"internal_node_id":"0.0-124.0"},{"Rune":"05","Correct":32,"Choice":32,"RT":638.0599999974947,"Accuracy":1,"Sham":0,"Outcome":"+10","Keys":[2139.804999998887],"TotalKeys":1,"Block":2,"Trial":111,"Valence":"Win","Action":"Go","Robot":1,"trial_type":"pit-trial","trial_index":125,"time_elapsed":526765,"internal_node_id":"0.0-125.0"},{"Rune":"04","Correct":32,"Choice":32,"RT":683.3750000077998,"Accuracy":1,"Sham":0,"Outcome":"+0","Keys":[2183.8999999890802],"TotalKeys":1,"Block":2,"Trial":112,"Valence":"Lose","Action":"Go","Robot":3,"trial_type":"pit-trial","trial_index":126,"time_elapsed":529968,"internal_node_id":"0.0-126.0"},{"Rune":"03","Correct":-1,"Choice":-1,"RT":-1,"Accuracy":1,"Sham":0,"Outcome":"+10","Keys":[],"TotalKeys":0,"Block":2,"Trial":113,"Valence":"Win","Action":"No-Go","Robot":2,"trial_type":"pit-trial","trial_index":127,"time_elapsed":533988,"internal_node_id":"0.0-127.0"},{"Rune":"06","Correct":-1,"Choice":32,"RT":1000.224999996135,"Accuracy":0,"Sham":0,"Outcome":"-10","Keys":[2500.820000001113],"TotalKeys":1,"Block":2,"Trial":114,"Valence":"Lose","Action":"No-Go","Robot":4,"trial_type":"pit-trial","trial_index":128,"time_elapsed":537508,"internal_node_id":"0.0-128.0"},{"Rune":"04","Correct":32,"Choice":32,"RT":823.644999996759,"Accuracy":1,"Sham":1,"Outcome":"-10","Keys":[2325.3100000001723],"TotalKeys":1,"Block":2,"Trial":115,"Valence":"Lose","Action":"Go","Robot":3,"trial_type":"pit-trial","trial_index":129,"time_elapsed":540852,"internal_node_id":"0.0-129.0"},{"Rune":"05","Correct":32,"Choice":32,"RT":583.1900000048336,"Accuracy":1,"Sham":0,"Outcome":"+10","Keys":[2083.490000004531],"TotalKeys":1,"Block":2,"Trial":116,"Valence":"Win","Action":"Go","Robot":1,"trial_type":"pit-trial","trial_index":130,"time_elapsed":543953,"internal_node_id":"0.0-130.0"},{"Rune":"06","Correct":-1,"Choice":-1,"RT":-1,"Accuracy":1,"Sham":1,"Outcome":"-10","Keys":[],"TotalKeys":0,"Block":2,"Trial":117,"Valence":"Lose","Action":"No-Go","Robot":4,"trial_type":"pit-trial","trial_index":131,"time_elapsed":547974,"internal_node_id":"0.0-131.0"},{"Rune":"04","Correct":32,"Choice":32,"RT":738.3799999952316,"Accuracy":1,"Sham":0,"Outcome":"+0","Keys":[2238.9399999956368],"TotalKeys":1,"Block":2,"Trial":118,"Valence":"Lose","Action":"Go","Robot":3,"trial_type":"pit-trial","trial_index":132,"time_elapsed":551234,"internal_node_id":"0.0-132.0"},{"Rune":"03","Correct":-1,"Choice":-1,"RT":-1,"Accuracy":1,"Sham":0,"Outcome":"+10","Keys":[],"TotalKeys":0,"Block":2,"Trial":119,"Valence":"Win","Action":"No-Go","Robot":2,"trial_type":"pit-trial","trial_index":133,"time_elapsed":555254,"internal_node_id":"0.0-133.0"},{"Rune":"05","Correct":32,"Choice":32,"RT":889.5100000081584,"Accuracy":1,"Sham":0,"Outcome":"+10","Keys":[2390.1350000087405],"TotalKeys":1,"Block":2,"Trial":120,"Valence":"Win","Action":"Go","Robot":1,"trial_type":"pit-trial","trial_index":134,"time_elapsed":558665,"internal_node_id":"0.0-134.0"},{"Rune":"03","Correct":-1,"Choice":-1,"RT":-1,"Accuracy":1,"Sham":0,"Outcome":"+10","Keys":[],"TotalKeys":0,"Block":2,"Trial":121,"Valence":"Win","Action":"No-Go","Robot":2,"trial_type":"pit-trial","trial_index":135,"time_elapsed":562692,"internal_node_id":"0.0-135.0"},{"Rune":"06","Correct":-1,"Choice":-1,"RT":-1,"Accuracy":1,"Sham":0,"Outcome":"+0","Keys":[],"TotalKeys":0,"Block":2,"Trial":122,"Valence":"Lose","Action":"No-Go","Robot":4,"trial_type":"pit-trial","trial_index":136,"time_elapsed":566713,"internal_node_id":"0.0-136.0"},{"Rune":"04","Correct":32,"Choice":32,"RT":636.7699999973411,"Accuracy":1,"Sham":0,"Outcome":"+0","Keys":[2138.470000005327],"TotalKeys":1,"Block":2,"Trial":123,"Valence":"Lose","Action":"Go","Robot":3,"trial_type":"pit-trial","trial_index":137,"time_elapsed":569869,"internal_node_id":"0.0-137.0"},{"Rune":"05","Correct":32,"Choice":32,"RT":520.7450000016252,"Accuracy":1,"Sham":1,"Outcome":"+0","Keys":[2020.875000001979],"TotalKeys":1,"Block":2,"Trial":124,"Valence":"Win","Action":"Go","Robot":1,"trial_type":"pit-trial","trial_index":138,"time_elapsed":572910,"internal_node_id":"0.0-138.0"},{"Rune":"04","Correct":32,"Choice":32,"RT":796.9300000113435,"Accuracy":1,"Sham":1,"Outcome":"-10","Keys":[2297.2850000078324],"TotalKeys":1,"Block":2,"Trial":125,"Valence":"Lose","Action":"Go","Robot":3,"trial_type":"pit-trial","trial_index":139,"time_elapsed":576234,"internal_node_id":"0.0-139.0"},{"Rune":"06","Correct":-1,"Choice":-1,"RT":-1,"Accuracy":1,"Sham":0,"Outcome":"+0","Keys":[],"TotalKeys":0,"Block":2,"Trial":126,"Valence":"Lose","Action":"No-Go","Robot":4,"trial_type":"pit-trial","trial_index":140,"time_elapsed":580253,"internal_node_id":"0.0-140.0"},{"Rune":"03","Correct":-1,"Choice":-1,"RT":-1,"Accuracy":1,"Sham":0,"Outcome":"+10","Keys":[],"TotalKeys":0,"Block":2,"Trial":127,"Valence":"Win","Action":"No-Go","Robot":2,"trial_type":"pit-trial","trial_index":141,"time_elapsed":584280,"internal_node_id":"0.0-141.0"},{"Rune":"05","Correct":32,"Choice":32,"RT":374.40000000060536,"Accuracy":1,"Sham":0,"Outcome":"+10","Keys":[1875.5900000105612],"TotalKeys":1,"Block":2,"Trial":128,"Valence":"Win","Action":"Go","Robot":1,"trial_type":"pit-trial","trial_index":142,"time_elapsed":587175,"internal_node_id":"0.0-142.0"},{"Rune":"06","Correct":-1,"Choice":-1,"RT":-1,"Accuracy":1,"Sham":0,"Outcome":"+0","Keys":[],"TotalKeys":0,"Block":2,"Trial":129,"Valence":"Lose","Action":"No-Go","Robot":4,"trial_type":"pit-trial","trial_index":143,"time_elapsed":591194,"internal_node_id":"0.0-143.0"},{"Rune":"05","Correct":32,"Choice":32,"RT":642.9199999984121,"Accuracy":1,"Sham":0,"Outcome":"+10","Keys":[2143.769999995129],"TotalKeys":1,"Block":2,"Trial":130,"Valence":"Win","Action":"Go","Robot":1,"trial_type":"pit-trial","trial_index":144,"time_elapsed":594360,"internal_node_id":"0.0-144.0"},{"Rune":"04","Correct":32,"Choice":32,"RT":686.1249999928987,"Accuracy":1,"Sham":0,"Outcome":"+0","Keys":[2186.8649999960326],"TotalKeys":1,"Block":2,"Trial":131,"Valence":"Lose","Action":"Go","Robot":3,"trial_type":"pit-trial","trial_index":145,"time_elapsed":597566,"internal_node_id":"0.0-145.0"},{"Rune":"03","Correct":-1,"Choice":-1,"RT":-1,"Accuracy":1,"Sham":0,"Outcome":"+10","Keys":[],"TotalKeys":0,"Block":2,"Trial":132,"Valence":"Win","Action":"No-Go","Robot":2,"trial_type":"pit-trial","trial_index":146,"time_elapsed":601586,"internal_node_id":"0.0-146.0"},{"Rune":"06","Correct":-1,"Choice":-1,"RT":-1,"Accuracy":1,"Sham":0,"Outcome":"+0","Keys":[],"TotalKeys":0,"Block":2,"Trial":133,"Valence":"Lose","Action":"No-Go","Robot":4,"trial_type":"pit-trial","trial_index":147,"time_elapsed":605605,"internal_node_id":"0.0-147.0"},{"Rune":"05","Correct":32,"Choice":32,"RT":582.8499999915948,"Accuracy":1,"Sham":0,"Outcome":"+10","Keys":[2084.7050000011222],"TotalKeys":1,"Block":2,"Trial":134,"Valence":"Win","Action":"Go","Robot":1,"trial_type":"pit-trial","trial_index":148,"time_elapsed":608709,"internal_node_id":"0.0-148.0"},{"Rune":"04","Correct":32,"Choice":32,"RT":711.0800000082236,"Accuracy":1,"Sham":0,"Outcome":"+0","Keys":[2212.3700000083772],"TotalKeys":1,"Block":2,"Trial":135,"Valence":"Lose","Action":"Go","Robot":3,"trial_type":"pit-trial","trial_index":149,"time_elapsed":611939,"internal_node_id":"0.0-149.0"},{"Rune":"03","Correct":-1,"Choice":-1,"RT":-1,"Accuracy":1,"Sham":0,"Outcome":"+10","Keys":[],"TotalKeys":0,"Block":2,"Trial":136,"Valence":"Win","Action":"No-Go","Robot":2,"trial_type":"pit-trial","trial_index":150,"time_elapsed":615962,"internal_node_id":"0.0-150.0"},{"Rune":"06","Correct":-1,"Choice":-1,"RT":-1,"Accuracy":1,"Sham":1,"Outcome":"-10","Keys":[],"TotalKeys":0,"Block":2,"Trial":137,"Valence":"Lose","Action":"No-Go","Robot":4,"trial_type":"pit-trial","trial_index":151,"time_elapsed":619982,"internal_node_id":"0.0-151.0"},{"Rune":"05","Correct":32,"Choice":32,"RT":850.3249999921536,"Accuracy":1,"Sham":0,"Outcome":"+10","Keys":[2351.060000000871],"TotalKeys":1,"Block":2,"Trial":138,"Valence":"Win","Action":"Go","Robot":1,"trial_type":"pit-trial","trial_index":152,"time_elapsed":623352,"internal_node_id":"0.0-152.0"},{"Rune":"04","Correct":32,"Choice":32,"RT":617.5899999943795,"Accuracy":1,"Sham":0,"Outcome":"+0","Keys":[2117.7199999947334],"TotalKeys":1,"Block":2,"Trial":139,"Valence":"Lose","Action":"Go","Robot":3,"trial_type":"pit-trial","trial_index":153,"time_elapsed":626488,"internal_node_id":"0.0-153.0"},{"Rune":"03","Correct":-1,"Choice":-1,"RT":-1,"Accuracy":1,"Sham":1,"Outcome":"+0","Keys":[],"TotalKeys":0,"Block":2,"Trial":140,"Valence":"Win","Action":"No-Go","Robot":2,"trial_type":"pit-trial","trial_index":154,"time_elapsed":630506,"internal_node_id":"0.0-154.0"},{"Rune":"03","Correct":-1,"Choice":-1,"RT":-1,"Accuracy":1,"Sham":1,"Outcome":"+0","Keys":[],"TotalKeys":0,"Block":2,"Trial":141,"Valence":"Win","Action":"No-Go","Robot":2,"trial_type":"pit-trial","trial_index":155,"time_elapsed":634527,"internal_node_id":"0.0-155.0"},{"Rune":"04","Correct":32,"Choice":32,"RT":747.1850000001723,"Accuracy":1,"Sham":0,"Outcome":"+0","Keys":[2248.1799999950454],"TotalKeys":1,"Block":2,"Trial":142,"Valence":"Lose","Action":"Go","Robot":3,"trial_type":"pit-trial","trial_index":156,"time_elapsed":637795,"internal_node_id":"0.0-156.0"},{"Rune":"05","Correct":32,"Choice":32,"RT":936.2500000133878,"Accuracy":1,"Sham":0,"Outcome":"+10","Keys":[2436.665000001085],"TotalKeys":1,"Block":2,"Trial":143,"Valence":"Win","Action":"Go","Robot":1,"trial_type":"pit-trial","trial_index":157,"time_elapsed":641251,"internal_node_id":"0.0-157.0"},{"Rune":"06","Correct":-1,"Choice":32,"RT":981.0450000077253,"Accuracy":0,"Sham":0,"Outcome":"-10","Keys":[2481.6350000037346],"TotalKeys":1,"Block":2,"Trial":144,"Valence":"Lose","Action":"No-Go","Robot":4,"trial_type":"pit-trial","trial_index":158,"time_elapsed":644759,"internal_node_id":"0.0-158.0"},{"Rune":"06","Correct":-1,"Choice":-1,"RT":-1,"Accuracy":1,"Sham":0,"Outcome":"+0","Keys":[],"TotalKeys":0,"Block":2,"Trial":145,"Valence":"Lose","Action":"No-Go","Robot":4,"trial_type":"pit-trial","trial_index":159,"time_elapsed":648778,"internal_node_id":"0.0-159.0"},{"Rune":"05","Correct":32,"Choice":32,"RT":560.749999989639,"Accuracy":1,"Sham":0,"Outcome":"+10","Keys":[2061.6750000044703],"TotalKeys":1,"Block":2,"Trial":146,"Valence":"Win","Action":"Go","Robot":1,"trial_type":"pit-trial","trial_index":160,"time_elapsed":651858,"internal_node_id":"0.0-160.0"},{"Rune":"04","Correct":32,"Choice":32,"RT":709.2799999954877,"Accuracy":1,"Sham":0,"Outcome":"+0","Keys":[2210.895000011078],"TotalKeys":1,"Block":2,"Trial":147,"Valence":"Lose","Action":"Go","Robot":3,"trial_type":"pit-trial","trial_index":161,"time_elapsed":655088,"internal_node_id":"0.0-161.0"},{"Rune":"03","Correct":-1,"Choice":-1,"RT":-1,"Accuracy":1,"Sham":0,"Outcome":"+10","Keys":[],"TotalKeys":0,"Block":2,"Trial":148,"Valence":"Win","Action":"No-Go","Robot":2,"trial_type":"pit-trial","trial_index":162,"time_elapsed":659112,"internal_node_id":"0.0-162.0"},{"Rune":"03","Correct":-1,"Choice":-1,"RT":-1,"Accuracy":1,"Sham":0,"Outcome":"+10","Keys":[],"TotalKeys":0,"Block":2,"Trial":149,"Valence":"Win","Action":"No-Go","Robot":2,"trial_type":"pit-trial","trial_index":163,"time_elapsed":663133,"internal_node_id":"0.0-163.0"},{"Rune":"06","Correct":-1,"Choice":32,"RT":1380.0800000026356,"Accuracy":0,"Sham":0,"Outcome":"-10","Keys":[2880.6250000052387],"TotalKeys":1,"Block":2,"Trial":150,"Valence":"Lose","Action":"No-Go","Robot":4,"trial_type":"pit-trial","trial_index":164,"time_elapsed":667035,"internal_node_id":"0.0-164.0"},{"Rune":"04","Correct":32,"Choice":32,"RT":685.5700000014622,"Accuracy":1,"Sham":0,"Outcome":"+0","Keys":[2185.794999997597],"TotalKeys":1,"Block":2,"Trial":151,"Valence":"Lose","Action":"Go","Robot":3,"trial_type":"pit-trial","trial_index":165,"time_elapsed":670252,"internal_node_id":"0.0-165.0"},{"Rune":"05","Correct":32,"Choice":32,"RT":571.6099999990547,"Accuracy":1,"Sham":0,"Outcome":"+10","Keys":[2072.1550000016578],"TotalKeys":1,"Block":2,"Trial":152,"Valence":"Win","Action":"Go","Robot":1,"trial_type":"pit-trial","trial_index":166,"time_elapsed":673347,"internal_node_id":"0.0-166.0"},{"Rune":"05","Correct":32,"Choice":32,"RT":546.9650000013644,"Accuracy":1,"Sham":0,"Outcome":"+10","Keys":[2047.244999994291],"TotalKeys":1,"Block":2,"Trial":153,"Valence":"Win","Action":"Go","Robot":1,"trial_type":"pit-trial","trial_index":167,"time_elapsed":676418,"internal_node_id":"0.0-167.0"},{"Rune":"06","Correct":-1,"Choice":32,"RT":1253.9850000030128,"Accuracy":0,"Sham":0,"Outcome":"-10","Keys":[2755.734999998822],"TotalKeys":1,"Block":2,"Trial":154,"Valence":"Lose","Action":"No-Go","Robot":4,"trial_type":"pit-trial","trial_index":168,"time_elapsed":680203,"internal_node_id":"0.0-168.0"},{"Rune":"04","Correct":32,"Choice":32,"RT":650.549999991199,"Accuracy":1,"Sham":0,"Outcome":"+0","Keys":[2151.050000000396],"TotalKeys":1,"Block":2,"Trial":155,"Valence":"Lose","Action":"Go","Robot":3,"trial_type":"pit-trial","trial_index":169,"time_elapsed":683379,"internal_node_id":"0.0-169.0"},{"Rune":"03","Correct":-1,"Choice":-1,"RT":-1,"Accuracy":1,"Sham":0,"Outcome":"+10","Keys":[],"TotalKeys":0,"Block":2,"Trial":156,"Valence":"Win","Action":"No-Go","Robot":2,"trial_type":"pit-trial","trial_index":170,"time_elapsed":687400,"internal_node_id":"0.0-170.0"},{"Rune":"04","Correct":32,"Choice":32,"RT":1059.3099999969127,"Accuracy":1,"Sham":1,"Outcome":"-10","Keys":[2560.335000001942],"TotalKeys":1,"Block":2,"Trial":157,"Valence":"Lose","Action":"Go","Robot":3,"trial_type":"pit-trial","trial_index":171,"time_elapsed":690978,"internal_node_id":"0.0-171.0"},{"Rune":"06","Correct":-1,"Choice":-1,"RT":-1,"Accuracy":1,"Sham":1,"Outcome":"-10","Keys":[],"TotalKeys":0,"Block":2,"Trial":158,"Valence":"Lose","Action":"No-Go","Robot":4,"trial_type":"pit-trial","trial_index":172,"time_elapsed":694999,"internal_node_id":"0.0-172.0"},{"Rune":"03","Correct":-1,"Choice":-1,"RT":-1,"Accuracy":1,"Sham":0,"Outcome":"+10","Keys":[],"TotalKeys":0,"Block":2,"Trial":159,"Valence":"Win","Action":"No-Go","Robot":2,"trial_type":"pit-trial","trial_index":173,"time_elapsed":699019,"internal_node_id":"0.0-173.0"},{"Rune":"05","Correct":32,"Choice":32,"RT":501.0000000038417,"Accuracy":1,"Sham":1,"Outcome":"+0","Keys":[2003.1699999963166],"TotalKeys":1,"Block":2,"Trial":160,"Valence":"Win","Action":"Go","Robot":1,"trial_type":"pit-trial","trial_index":174,"time_elapsed":702051,"internal_node_id":"0.0-174.0"},{"rt":14044.800000003306,"demographics":{"age":"64","gender-categorical":"Male","ethnicity":"Not Hispanic or Latino","race":"White","english":"Yes","fluency":"Very well"},"trial_type":"survey-demo","trial_index":175,"time_elapsed":716124,"internal_node_id":"0.0-175.0"},{"rt":13065.955000012764,"debriefgraphics":{"difficulty":"4","fun":"4","clarity":"5","strategy":"no","feedback":""},"trial_type":"survey-debrief","trial_index":176,"time_elapsed":729219,"internal_node_id":"0.0-176.0","interactions":"[{\"event\":\"blur\",\"trial\":168,\"time\":679836},{\"event\":\"focus\",\"trial\":169,\"time\":681016}]"}]