[{"view_history":"[{\"page_index\":0,\"viewing_time\":9995.999999984633},{\"page_index\":1,\"viewing_time\":3054.999999993015},{\"page_index\":2,\"viewing_time\":6242.000000027474},{\"page_index\":3,\"viewing_time\":1876.9999999785796},{\"page_index\":4,\"viewing_time\":3082.9999999841675}]","rt":24255.000000004657,"trial_type":"pit-instructions","trial_index":0,"time_elapsed":24258,"internal_node_id":"0.0-0.0"},{"Valence":"Practice","Color":"#fffff080","Rune":"01","Correct":32,"Choice":32,"RT":413.00000000046566,"Accuracy":1,"Sham":0,"Outcome":"+10","Keys":[1913.9999999897555],"TotalKeys":1,"trial_type":"pit-trial","trial_index":1,"time_elapsed":27176,"internal_node_id":"0.0-1.0"},{"Valence":"Practice","Color":"#fffff080","Rune":"01","Correct":32,"Choice":-1,"RT":-1,"Accuracy":0,"Sham":0,"Outcome":"+0","Keys":[],"TotalKeys":0,"trial_type":"pit-trial","trial_index":2,"time_elapsed":31181,"internal_node_id":"0.0-2.0"},{"Valence":"Practice","Color":"#fffff080","Rune":"01","Correct":32,"Choice":32,"RT":191.9999999809079,"Accuracy":1,"Sham":0,"Outcome":"+10","Keys":[1691.999999980908],"TotalKeys":1,"trial_type":"pit-trial","trial_index":3,"time_elapsed":33875,"internal_node_id":"0.0-3.0"},{"Valence":"Practice","Color":"#fffff080","Rune":"01","Correct":32,"Choice":32,"RT":588.9999999781139,"Accuracy":1,"Sham":0,"Outcome":"+10","Keys":[2088.999999978114],"TotalKeys":1,"trial_type":"pit-trial","trial_index":4,"time_elapsed":36969,"internal_node_id":"0.0-4.0"},{"view_history":"[{\"page_index\":0,\"viewing_time\":8233.99999999674}]","rt":8234.99999998603,"trial_type":"pit-instructions","trial_index":5,"time_elapsed":45205,"internal_node_id":"0.0-5.0"},{"Valence":"Practice","Color":"#fffff080","Rune":"02","Correct":-1,"Choice":-1,"RT":-1,"Accuracy":1,"Sham":0,"Outcome":"+10","Keys":[1352.0000000135042],"TotalKeys":1,"trial_type":"pit-trial","trial_index":6,"time_elapsed":49209,"internal_node_id":"0.0-6.0"},{"Valence":"Practice","Color":"#fffff080","Rune":"02","Correct":-1,"Choice":-1,"RT":-1,"Accuracy":1,"Sham":0,"Outcome":"+10","Keys":[],"TotalKeys":0,"trial_type":"pit-trial","trial_index":7,"time_elapsed":53213,"internal_node_id":"0.0-7.0"},{"Valence":"Practice","Color":"#fffff080","Rune":"02","Correct":-1,"Choice":32,"RT":579.9999999580905,"Accuracy":0,"Sham":0,"Outcome":"+0","Keys":[2079.9999999580905],"TotalKeys":1,"trial_type":"pit-trial","trial_index":8,"time_elapsed":56295,"internal_node_id":"0.0-8.0"},{"Valence":"Practice","Color":"#fffff080","Rune":"02","Correct":-1,"Choice":32,"RT":748.9999999525025,"Accuracy":0,"Sham":0,"Outcome":"+0","Keys":[2248.9999999525025],"TotalKeys":1,"trial_type":"pit-trial","trial_index":9,"time_elapsed":59546,"internal_node_id":"0.0-9.0"},{"view_history":"[{\"page_index\":0,\"viewing_time\":10313.99999995483},{\"page_index\":1,\"viewing_time\":4836.000000010245},{\"page_index\":2,\"viewing_time\":2067.0000000391155},{\"page_index\":3,\"viewing_time\":1696.9999999855645},{\"page_index\":4,\"viewing_time\":1039.9999999790452},{\"page_index\":5,\"viewing_time\":928.0000000144355},{\"page_index\":6,\"viewing_time\":1477.0000000135042},{\"page_index\":7,\"viewing_time\":1336.0000000102445}]","rt":23695.000000006985,"trial_type":"pit-instructions","trial_index":10,"time_elapsed":83242,"internal_node_id":"0.0-10.0"},{"rt":26591.0000000149,"responses":"{\"no-press\":\"Do nothing\",\"context-win\":\"+10\",\"context-lose\":\"-1\",\"feedback\":\"True\"}","errors":2,"trial_type":"pit-comprehension","trial_index":11,"time_elapsed":109837,"internal_node_id":"0.0-11.0"},{"view_history":"[{\"page_index\":0,\"viewing_time\":2089.9999999674037}]","rt":2089.9999999674037,"trial_type":"pit-instructions","trial_index":12,"time_elapsed":111932,"internal_node_id":"0.0-12.0"},{"Valence":"Win","Color":"#3366ff99","Rune":"04","Correct":-1,"Choice":32,"RT":629.0000000153668,"Accuracy":0,"Sham":0,"Outcome":"+1","Keys":[2130.0000000046566,2551.999999966938],"TotalKeys":2,"Block":1,"Trial":1,"Action":"No-Go","Robot":2,"trial_type":"pit-trial","trial_index":13,"time_elapsed":115063,"internal_node_id":"0.0-13.0"},{"Valence":"Lose","Color":"#ffcc3399","Rune":"05","Correct":32,"Choice":32,"RT":202.9999999795109,"Accuracy":1,"Sham":0,"Outcome":"-1","Keys":[1702.999999979511],"TotalKeys":1,"Block":1,"Trial":2,"Action":"Go","Robot":3,"trial_type":"pit-trial","trial_index":14,"time_elapsed":117770,"internal_node_id":"0.0-14.0"},{"Valence":"Lose","Color":"#ffcc3399","Rune":"06","Correct":-1,"Choice":32,"RT":133.00000003073364,"Accuracy":0,"Sham":0,"Outcome":"-10","Keys":[1634.0000000200234],"TotalKeys":1,"Block":1,"Trial":3,"Action":"No-Go","Robot":4,"trial_type":"pit-trial","trial_index":15,"time_elapsed":120406,"internal_node_id":"0.0-15.0"},{"Valence":"Win","Color":"#3366ff99","Rune":"03","Correct":32,"Choice":32,"RT":93.99999998277053,"Accuracy":1,"Sham":0,"Outcome":"+10","Keys":[1594.9999999720603],"TotalKeys":1,"Block":1,"Trial":4,"Action":"Go","Robot":1,"trial_type":"pit-trial","trial_index":16,"time_elapsed":123006,"internal_node_id":"0.0-16.0"},{"Valence":"Lose","Color":"#ffcc3399","Rune":"05","Correct":32,"Choice":-1,"RT":-1,"Accuracy":0,"Sham":1,"Outcome":"-1","Keys":[1347.9999999981374],"TotalKeys":1,"Block":1,"Trial":5,"Action":"Go","Robot":3,"trial_type":"pit-trial","trial_index":17,"time_elapsed":127008,"internal_node_id":"0.0-17.0"},{"Valence":"Lose","Color":"#ffcc3399","Rune":"06","Correct":-1,"Choice":32,"RT":262.9999999771826,"Accuracy":0,"Sham":0,"Outcome":"-10","Keys":[1763.9999999664724],"TotalKeys":1,"Block":1,"Trial":6,"Action":"No-Go","Robot":4,"trial_type":"pit-trial","trial_index":18,"time_elapsed":129774,"internal_node_id":"0.0-18.0"},{"Valence":"Win","Color":"#3366ff99","Rune":"03","Correct":32,"Choice":32,"RT":873.0000000214204,"Accuracy":1,"Sham":0,"Outcome":"+10","Keys":[2374.00000001071],"TotalKeys":1,"Block":1,"Trial":7,"Action":"Go","Robot":1,"trial_type":"pit-trial","trial_index":19,"time_elapsed":133150,"internal_node_id":"0.0-19.0"},{"Valence":"Win","Color":"#3366ff99","Rune":"04","Correct":-1,"Choice":32,"RT":673.9999999990687,"Accuracy":0,"Sham":0,"Outcome":"+1","Keys":[2174.9999999883585],"TotalKeys":1,"Block":1,"Trial":8,"Action":"No-Go","Robot":2,"trial_type":"pit-trial","trial_index":20,"time_elapsed":136329,"internal_node_id":"0.0-20.0"},{"Valence":"Win","Color":"#3366ff99","Rune":"03","Correct":32,"Choice":32,"RT":488.0000000121072,"Accuracy":1,"Sham":0,"Outcome":"+10","Keys":[1989.000000001397],"TotalKeys":1,"Block":1,"Trial":9,"Action":"Go","Robot":1,"trial_type":"pit-trial","trial_index":21,"time_elapsed":139320,"internal_node_id":"0.0-21.0"},{"Valence":"Lose","Color":"#ffcc3399","Rune":"05","Correct":32,"Choice":-1,"RT":-1,"Accuracy":0,"Sham":0,"Outcome":"-10","Keys":[],"TotalKeys":0,"Block":1,"Trial":10,"Action":"Go","Robot":3,"trial_type":"pit-trial","trial_index":22,"time_elapsed":143324,"internal_node_id":"0.0-22.0"},{"Valence":"Win","Color":"#3366ff99","Rune":"04","Correct":-1,"Choice":32,"RT":1172.000000020489,"Accuracy":0,"Sham":0,"Outcome":"+1","Keys":[2673.000000009779],"TotalKeys":1,"Block":1,"Trial":11,"Action":"No-Go","Robot":2,"trial_type":"pit-trial","trial_index":23,"time_elapsed":146999,"internal_node_id":"0.0-23.0"},{"Valence":"Lose","Color":"#ffcc3399","Rune":"06","Correct":-1,"Choice":-1,"RT":-1,"Accuracy":1,"Sham":0,"Outcome":"-1","Keys":[],"TotalKeys":0,"Block":1,"Trial":12,"Action":"No-Go","Robot":4,"trial_type":"pit-trial","trial_index":24,"time_elapsed":151003,"internal_node_id":"0.0-24.0"},{"Valence":"Win","Color":"#3366ff99","Rune":"03","Correct":32,"Choice":32,"RT":146.99999999720603,"Accuracy":1,"Sham":0,"Outcome":"+10","Keys":[1648.9999999757856],"TotalKeys":1,"Block":1,"Trial":13,"Action":"Go","Robot":1,"trial_type":"pit-trial","trial_index":25,"time_elapsed":153654,"internal_node_id":"0.0-25.0"},{"Valence":"Win","Color":"#3366ff99","Rune":"04","Correct":-1,"Choice":-1,"RT":-1,"Accuracy":1,"Sham":0,"Outcome":"+10","Keys":[],"TotalKeys":0,"Block":1,"Trial":14,"Action":"No-Go","Robot":2,"trial_type":"pit-trial","trial_index":26,"time_elapsed":157659,"internal_node_id":"0.0-26.0"},{"Valence":"Lose","Color":"#ffcc3399","Rune":"05","Correct":32,"Choice":-1,"RT":-1,"Accuracy":0,"Sham":0,"Outcome":"-10","Keys":[],"TotalKeys":0,"Block":1,"Trial":15,"Action":"Go","Robot":3,"trial_type":"pit-trial","trial_index":27,"time_elapsed":161662,"internal_node_id":"0.0-27.0"},{"Valence":"Lose","Color":"#ffcc3399","Rune":"06","Correct":-1,"Choice":-1,"RT":-1,"Accuracy":1,"Sham":1,"Outcome":"-10","Keys":[],"TotalKeys":0,"Block":1,"Trial":16,"Action":"No-Go","Robot":4,"trial_type":"pit-trial","trial_index":28,"time_elapsed":165668,"internal_node_id":"0.0-28.0"},{"Valence":"Win","Color":"#3366ff99","Rune":"03","Correct":32,"Choice":32,"RT":178.0000000144355,"Accuracy":1,"Sham":1,"Outcome":"1","Keys":[271.00000000791624,1678.0000000144355],"TotalKeys":2,"Block":1,"Trial":17,"Action":"Go","Robot":1,"trial_type":"pit-trial","trial_index":29,"time_elapsed":168348,"internal_node_id":"0.0-29.0"},{"Valence":"Lose","Color":"#ffcc3399","Rune":"05","Correct":32,"Choice":-1,"RT":-1,"Accuracy":0,"Sham":0,"Outcome":"-10","Keys":[],"TotalKeys":0,"Block":1,"Trial":18,"Action":"Go","Robot":3,"trial_type":"pit-trial","trial_index":30,"time_elapsed":172352,"internal_node_id":"0.0-30.0"},{"Valence":"Win","Color":"#3366ff99","Rune":"04","Correct":-1,"Choice":-1,"RT":-1,"Accuracy":1,"Sham":1,"Outcome":"1","Keys":[3336.9999999995343],"TotalKeys":1,"Block":1,"Trial":19,"Action":"No-Go","Robot":2,"trial_type":"pit-trial","trial_index":31,"time_elapsed":176354,"internal_node_id":"0.0-31.0"},{"Valence":"Lose","Color":"#ffcc3399","Rune":"06","Correct":-1,"Choice":32,"RT":85.00000002095476,"Accuracy":0,"Sham":0,"Outcome":"-10","Keys":[1586.9999999995343],"TotalKeys":1,"Block":1,"Trial":20,"Action":"No-Go","Robot":4,"trial_type":"pit-trial","trial_index":32,"time_elapsed":178944,"internal_node_id":"0.0-32.0"},{"Valence":"Lose","Color":"#ffcc3399","Rune":"06","Correct":-1,"Choice":32,"RT":871.0000000428408,"Accuracy":0,"Sham":0,"Outcome":"-10","Keys":[2372.0000000321306],"TotalKeys":1,"Block":1,"Trial":21,"Action":"No-Go","Robot":4,"trial_type":"pit-trial","trial_index":33,"time_elapsed":182319,"internal_node_id":"0.0-33.0"},{"Valence":"Win","Color":"#3366ff99","Rune":"04","Correct":-1,"Choice":32,"RT":251.99999997857958,"Accuracy":0,"Sham":0,"Outcome":"+1","Keys":[1766.9999999925494],"TotalKeys":1,"Block":1,"Trial":22,"Action":"No-Go","Robot":2,"trial_type":"pit-trial","trial_index":34,"time_elapsed":185089,"internal_node_id":"0.0-34.0"},{"Valence":"Win","Color":"#3366ff99","Rune":"03","Correct":32,"Choice":32,"RT":911.9999999529682,"Accuracy":1,"Sham":0,"Outcome":"+10","Keys":[2442.9999999701977],"TotalKeys":1,"Block":1,"Trial":23,"Action":"Go","Robot":1,"trial_type":"pit-trial","trial_index":35,"time_elapsed":188536,"internal_node_id":"0.0-35.0"},{"Valence":"Lose","Color":"#ffcc3399","Rune":"05","Correct":32,"Choice":-1,"RT":-1,"Accuracy":0,"Sham":0,"Outcome":"-10","Keys":[],"TotalKeys":0,"Block":1,"Trial":24,"Action":"Go","Robot":3,"trial_type":"pit-trial","trial_index":36,"time_elapsed":192541,"internal_node_id":"0.0-36.0"},{"Valence":"Lose","Color":"#ffcc3399","Rune":"06","Correct":-1,"Choice":32,"RT":3.000000026077032,"Accuracy":0,"Sham":0,"Outcome":"-10","Keys":[1504.0000000153668],"TotalKeys":1,"Block":1,"Trial":25,"Action":"No-Go","Robot":4,"trial_type":"pit-trial","trial_index":37,"time_elapsed":195048,"internal_node_id":"0.0-37.0"},{"Valence":"Win","Color":"#3366ff99","Rune":"03","Correct":32,"Choice":32,"RT":182.00000002980232,"Accuracy":1,"Sham":0,"Outcome":"+10","Keys":[1682.0000000298023],"TotalKeys":1,"Block":1,"Trial":26,"Action":"Go","Robot":1,"trial_type":"pit-trial","trial_index":38,"time_elapsed":197732,"internal_node_id":"0.0-38.0"},{"Valence":"Lose","Color":"#ffcc3399","Rune":"05","Correct":32,"Choice":32,"RT":684.9999999976717,"Accuracy":1,"Sham":0,"Outcome":"-1","Keys":[2185.9999999869615],"TotalKeys":1,"Block":1,"Trial":27,"Action":"Go","Robot":3,"trial_type":"pit-trial","trial_index":39,"time_elapsed":200922,"internal_node_id":"0.0-39.0"},{"Valence":"Win","Color":"#3366ff99","Rune":"04","Correct":-1,"Choice":32,"RT":619.0000000060536,"Accuracy":0,"Sham":0,"Outcome":"+1","Keys":[2119.0000000060536],"TotalKeys":1,"Block":1,"Trial":28,"Action":"No-Go","Robot":2,"trial_type":"pit-trial","trial_index":40,"time_elapsed":204046,"internal_node_id":"0.0-40.0"},{"Valence":"Lose","Color":"#ffcc3399","Rune":"05","Correct":32,"Choice":-1,"RT":-1,"Accuracy":0,"Sham":0,"Outcome":"-10","Keys":[],"TotalKeys":0,"Block":1,"Trial":29,"Action":"Go","Robot":3,"trial_type":"pit-trial","trial_index":41,"time_elapsed":208050,"internal_node_id":"0.0-41.0"},{"Valence":"Win","Color":"#3366ff99","Rune":"04","Correct":-1,"Choice":32,"RT":51.99999996693805,"Accuracy":0,"Sham":1,"Outcome":"+10","Keys":[1557.9999999608845],"TotalKeys":1,"Block":1,"Trial":30,"Action":"No-Go","Robot":2,"trial_type":"pit-trial","trial_index":42,"time_elapsed":210611,"internal_node_id":"0.0-42.0"},{"Valence":"Win","Color":"#3366ff99","Rune":"03","Correct":32,"Choice":-1,"RT":-1,"Accuracy":0,"Sham":1,"Outcome":"+10","Keys":[],"TotalKeys":0,"Block":1,"Trial":31,"Action":"Go","Robot":1,"trial_type":"pit-trial","trial_index":43,"time_elapsed":214616,"internal_node_id":"0.0-43.0"},{"Valence":"Lose","Color":"#ffcc3399","Rune":"06","Correct":-1,"Choice":-1,"RT":-1,"Accuracy":1,"Sham":0,"Outcome":"-1","Keys":[],"TotalKeys":0,"Block":1,"Trial":32,"Action":"No-Go","Robot":4,"trial_type":"pit-trial","trial_index":44,"time_elapsed":218620,"internal_node_id":"0.0-44.0"},{"Valence":"Lose","Color":"#ffcc3399","Rune":"06","Correct":-1,"Choice":-1,"RT":-1,"Accuracy":1,"Sham":0,"Outcome":"-1","Keys":[],"TotalKeys":0,"Block":1,"Trial":33,"Action":"No-Go","Robot":4,"trial_type":"pit-trial","trial_index":45,"time_elapsed":222624,"internal_node_id":"0.0-45.0"},{"Valence":"Win","Color":"#3366ff99","Rune":"04","Correct":-1,"Choice":-1,"RT":-1,"Accuracy":1,"Sham":0,"Outcome":"+10","Keys":[1370.9999999846332],"TotalKeys":1,"Block":1,"Trial":34,"Action":"No-Go","Robot":2,"trial_type":"pit-trial","trial_index":46,"time_elapsed":226628,"internal_node_id":"0.0-46.0"},{"Valence":"Win","Color":"#3366ff99","Rune":"03","Correct":32,"Choice":32,"RT":208.9999999734573,"Accuracy":1,"Sham":0,"Outcome":"+10","Keys":[1708.9999999734573],"TotalKeys":1,"Block":1,"Trial":35,"Action":"Go","Robot":1,"trial_type":"pit-trial","trial_index":47,"time_elapsed":229337,"internal_node_id":"0.0-47.0"},{"Valence":"Lose","Color":"#ffcc3399","Rune":"05","Correct":32,"Choice":-1,"RT":-1,"Accuracy":0,"Sham":1,"Outcome":"-1","Keys":[],"TotalKeys":0,"Block":1,"Trial":36,"Action":"Go","Robot":3,"trial_type":"pit-trial","trial_index":48,"time_elapsed":233340,"internal_node_id":"0.0-48.0"},{"Valence":"Lose","Color":"#ffcc3399","Rune":"06","Correct":-1,"Choice":-1,"RT":-1,"Accuracy":1,"Sham":1,"Outcome":"-10","Keys":[],"TotalKeys":0,"Block":1,"Trial":37,"Action":"No-Go","Robot":4,"trial_type":"pit-trial","trial_index":49,"time_elapsed":237342,"internal_node_id":"0.0-49.0"},{"Valence":"Lose","Color":"#ffcc3399","Rune":"05","Correct":32,"Choice":-1,"RT":-1,"Accuracy":0,"Sham":0,"Outcome":"-10","Keys":[],"TotalKeys":0,"Block":1,"Trial":38,"Action":"Go","Robot":3,"trial_type":"pit-trial","trial_index":50,"time_elapsed":241344,"internal_node_id":"0.0-50.0"},{"Valence":"Win","Color":"#3366ff99","Rune":"03","Correct":32,"Choice":32,"RT":115.99999997997656,"Accuracy":1,"Sham":0,"Outcome":"+10","Keys":[1615.9999999799766],"TotalKeys":1,"Block":1,"Trial":39,"Action":"Go","Robot":1,"trial_type":"pit-trial","trial_index":51,"time_elapsed":243963,"internal_node_id":"0.0-51.0"},{"Valence":"Win","Color":"#3366ff99","Rune":"04","Correct":-1,"Choice":-1,"RT":-1,"Accuracy":1,"Sham":0,"Outcome":"+10","Keys":[],"TotalKeys":0,"Block":1,"Trial":40,"Action":"No-Go","Robot":2,"trial_type":"pit-trial","trial_index":52,"time_elapsed":247966,"internal_node_id":"0.0-52.0"},{"Valence":"Lose","Color":"#ffcc3399","Rune":"05","Correct":32,"Choice":-1,"RT":-1,"Accuracy":0,"Sham":1,"Outcome":"-1","Keys":[],"TotalKeys":0,"Block":1,"Trial":41,"Action":"Go","Robot":3,"trial_type":"pit-trial","trial_index":53,"time_elapsed":251967,"internal_node_id":"0.0-53.0"},{"Valence":"Win","Color":"#3366ff99","Rune":"04","Correct":-1,"Choice":-1,"RT":-1,"Accuracy":1,"Sham":0,"Outcome":"+10","Keys":[],"TotalKeys":0,"Block":1,"Trial":42,"Action":"No-Go","Robot":2,"trial_type":"pit-trial","trial_index":54,"time_elapsed":255970,"internal_node_id":"0.0-54.0"},{"Valence":"Lose","Color":"#ffcc3399","Rune":"06","Correct":-1,"Choice":-1,"RT":-1,"Accuracy":1,"Sham":0,"Outcome":"-1","Keys":[],"TotalKeys":0,"Block":1,"Trial":43,"Action":"No-Go","Robot":4,"trial_type":"pit-trial","trial_index":55,"time_elapsed":259973,"internal_node_id":"0.0-55.0"},{"Valence":"Win","Color":"#3366ff99","Rune":"03","Correct":32,"Choice":32,"RT":1129.0000000153668,"Accuracy":1,"Sham":0,"Outcome":"+10","Keys":[2630.0000000046566],"TotalKeys":1,"Block":1,"Trial":44,"Action":"Go","Robot":1,"trial_type":"pit-trial","trial_index":56,"time_elapsed":263631,"internal_node_id":"0.0-56.0"},{"Valence":"Lose","Color":"#ffcc3399","Rune":"06","Correct":-1,"Choice":-1,"RT":-1,"Accuracy":1,"Sham":0,"Outcome":"-1","Keys":[],"TotalKeys":0,"Block":1,"Trial":45,"Action":"No-Go","Robot":4,"trial_type":"pit-trial","trial_index":57,"time_elapsed":267633,"internal_node_id":"0.0-57.0"},{"Valence":"Win","Color":"#3366ff99","Rune":"04","Correct":-1,"Choice":32,"RT":1111.0000000335276,"Accuracy":0,"Sham":1,"Outcome":"+10","Keys":[2612.0000000228174],"TotalKeys":1,"Block":1,"Trial":46,"Action":"No-Go","Robot":2,"trial_type":"pit-trial","trial_index":58,"time_elapsed":271249,"internal_node_id":"0.0-58.0"},{"Valence":"Lose","Color":"#ffcc3399","Rune":"05","Correct":32,"Choice":-1,"RT":-1,"Accuracy":0,"Sham":0,"Outcome":"-10","Keys":[],"TotalKeys":0,"Block":1,"Trial":47,"Action":"Go","Robot":3,"trial_type":"pit-trial","trial_index":59,"time_elapsed":275252,"internal_node_id":"0.0-59.0"},{"Valence":"Win","Color":"#3366ff99","Rune":"03","Correct":32,"Choice":32,"RT":217.99999999348074,"Accuracy":1,"Sham":0,"Outcome":"+10","Keys":[1718.9999999827705],"TotalKeys":1,"Block":1,"Trial":48,"Action":"Go","Robot":1,"trial_type":"pit-trial","trial_index":60,"time_elapsed":277975,"internal_node_id":"0.0-60.0"},{"Valence":"Lose","Color":"#ffcc3399","Rune":"06","Correct":-1,"Choice":-1,"RT":-1,"Accuracy":1,"Sham":0,"Outcome":"-1","Keys":[],"TotalKeys":0,"Block":1,"Trial":49,"Action":"No-Go","Robot":4,"trial_type":"pit-trial","trial_index":61,"time_elapsed":281979,"internal_node_id":"0.0-61.0"},{"Valence":"Win","Color":"#3366ff99","Rune":"03","Correct":32,"Choice":-1,"RT":-1,"Accuracy":0,"Sham":0,"Outcome":"+1","Keys":[],"TotalKeys":0,"Block":1,"Trial":50,"Action":"Go","Robot":1,"trial_type":"pit-trial","trial_index":62,"time_elapsed":285985,"internal_node_id":"0.0-62.0"},{"Valence":"Win","Color":"#3366ff99","Rune":"04","Correct":-1,"Choice":-1,"RT":-1,"Accuracy":1,"Sham":0,"Outcome":"+10","Keys":[],"TotalKeys":0,"Block":1,"Trial":51,"Action":"No-Go","Robot":2,"trial_type":"pit-trial","trial_index":63,"time_elapsed":289990,"internal_node_id":"0.0-63.0"},{"Valence":"Lose","Color":"#ffcc3399","Rune":"05","Correct":32,"Choice":-1,"RT":-1,"Accuracy":0,"Sham":0,"Outcome":"-10","Keys":[],"TotalKeys":0,"Block":1,"Trial":52,"Action":"Go","Robot":3,"trial_type":"pit-trial","trial_index":64,"time_elapsed":293994,"internal_node_id":"0.0-64.0"},{"Valence":"Win","Color":"#3366ff99","Rune":"04","Correct":-1,"Choice":32,"RT":242.99999995855615,"Accuracy":0,"Sham":0,"Outcome":"+1","Keys":[851.0000000242144,1744.0000000060536],"TotalKeys":2,"Block":1,"Trial":53,"Action":"No-Go","Robot":2,"trial_type":"pit-trial","trial_index":65,"time_elapsed":296740,"internal_node_id":"0.0-65.0"},{"Valence":"Lose","Color":"#ffcc3399","Rune":"05","Correct":32,"Choice":-1,"RT":-1,"Accuracy":0,"Sham":0,"Outcome":"-10","Keys":[],"TotalKeys":0,"Block":1,"Trial":54,"Action":"Go","Robot":3,"trial_type":"pit-trial","trial_index":66,"time_elapsed":300744,"internal_node_id":"0.0-66.0"},{"Valence":"Lose","Color":"#ffcc3399","Rune":"06","Correct":-1,"Choice":32,"RT":364.9999999906868,"Accuracy":0,"Sham":0,"Outcome":"-10","Keys":[1866.0000000381842],"TotalKeys":1,"Block":1,"Trial":55,"Action":"No-Go","Robot":4,"trial_type":"pit-trial","trial_index":67,"time_elapsed":303612,"internal_node_id":"0.0-67.0"},{"Valence":"Win","Color":"#3366ff99","Rune":"03","Correct":32,"Choice":-1,"RT":-1,"Accuracy":0,"Sham":0,"Outcome":"+1","Keys":[],"TotalKeys":0,"Block":1,"Trial":56,"Action":"Go","Robot":1,"trial_type":"pit-trial","trial_index":68,"time_elapsed":307617,"internal_node_id":"0.0-68.0"},{"Valence":"Win","Color":"#3366ff99","Rune":"03","Correct":32,"Choice":-1,"RT":-1,"Accuracy":0,"Sham":1,"Outcome":"+10","Keys":[],"TotalKeys":0,"Block":1,"Trial":57,"Action":"Go","Robot":1,"trial_type":"pit-trial","trial_index":69,"time_elapsed":311620,"internal_node_id":"0.0-69.0"},{"Valence":"Lose","Color":"#ffcc3399","Rune":"05","Correct":32,"Choice":-1,"RT":-1,"Accuracy":0,"Sham":0,"Outcome":"-10","Keys":[],"TotalKeys":0,"Block":1,"Trial":58,"Action":"Go","Robot":3,"trial_type":"pit-trial","trial_index":70,"time_elapsed":315625,"internal_node_id":"0.0-70.0"},{"Valence":"Lose","Color":"#ffcc3399","Rune":"06","Correct":-1,"Choice":-1,"RT":-1,"Accuracy":1,"Sham":1,"Outcome":"-10","Keys":[],"TotalKeys":0,"Block":1,"Trial":59,"Action":"No-Go","Robot":4,"trial_type":"pit-trial","trial_index":71,"time_elapsed":319629,"internal_node_id":"0.0-71.0"},{"Valence":"Win","Color":"#3366ff99","Rune":"04","Correct":-1,"Choice":-1,"RT":-1,"Accuracy":1,"Sham":0,"Outcome":"+10","Keys":[],"TotalKeys":0,"Block":1,"Trial":60,"Action":"No-Go","Robot":2,"trial_type":"pit-trial","trial_index":72,"time_elapsed":323632,"internal_node_id":"0.0-72.0"},{"Valence":"Win","Color":"#3366ff99","Rune":"04","Correct":-1,"Choice":-1,"RT":-1,"Accuracy":1,"Sham":0,"Outcome":"+10","Keys":[],"TotalKeys":0,"Block":1,"Trial":61,"Action":"No-Go","Robot":2,"trial_type":"pit-trial","trial_index":73,"time_elapsed":327633,"internal_node_id":"0.0-73.0"},{"Valence":"Lose","Color":"#ffcc3399","Rune":"05","Correct":32,"Choice":-1,"RT":-1,"Accuracy":0,"Sham":0,"Outcome":"-10","Keys":[],"TotalKeys":0,"Block":1,"Trial":62,"Action":"Go","Robot":3,"trial_type":"pit-trial","trial_index":74,"time_elapsed":331635,"internal_node_id":"0.0-74.0"},{"Valence":"Lose","Color":"#ffcc3399","Rune":"06","Correct":-1,"Choice":-1,"RT":-1,"Accuracy":1,"Sham":0,"Outcome":"-1","Keys":[],"TotalKeys":0,"Block":1,"Trial":63,"Action":"No-Go","Robot":4,"trial_type":"pit-trial","trial_index":75,"time_elapsed":335638,"internal_node_id":"0.0-75.0"},{"Valence":"Win","Color":"#3366ff99","Rune":"03","Correct":32,"Choice":-1,"RT":-1,"Accuracy":0,"Sham":0,"Outcome":"+1","Keys":[],"TotalKeys":0,"Block":1,"Trial":64,"Action":"Go","Robot":1,"trial_type":"pit-trial","trial_index":76,"time_elapsed":339642,"internal_node_id":"0.0-76.0"},{"Valence":"Win","Color":"#3366ff99","Rune":"04","Correct":-1,"Choice":-1,"RT":-1,"Accuracy":1,"Sham":0,"Outcome":"+10","Keys":[],"TotalKeys":0,"Block":1,"Trial":65,"Action":"No-Go","Robot":2,"trial_type":"pit-trial","trial_index":77,"time_elapsed":343703,"internal_node_id":"0.0-77.0"},{"Valence":"Lose","Color":"#ffcc3399","Rune":"06","Correct":-1,"Choice":-1,"RT":-1,"Accuracy":1,"Sham":0,"Outcome":"-1","Keys":[],"TotalKeys":0,"Block":1,"Trial":66,"Action":"No-Go","Robot":4,"trial_type":"pit-trial","trial_index":78,"time_elapsed":347708,"internal_node_id":"0.0-78.0"},{"Valence":"Win","Color":"#3366ff99","Rune":"03","Correct":32,"Choice":-1,"RT":-1,"Accuracy":0,"Sham":1,"Outcome":"+10","Keys":[],"TotalKeys":0,"Block":1,"Trial":67,"Action":"Go","Robot":1,"trial_type":"pit-trial","trial_index":79,"time_elapsed":351712,"internal_node_id":"0.0-79.0"},{"Valence":"Lose","Color":"#ffcc3399","Rune":"05","Correct":32,"Choice":-1,"RT":-1,"Accuracy":0,"Sham":0,"Outcome":"-10","Keys":[],"TotalKeys":0,"Block":1,"Trial":68,"Action":"Go","Robot":3,"trial_type":"pit-trial","trial_index":80,"time_elapsed":355715,"internal_node_id":"0.0-80.0"},{"Valence":"Lose","Color":"#ffcc3399","Rune":"06","Correct":-1,"Choice":-1,"RT":-1,"Accuracy":1,"Sham":1,"Outcome":"-10","Keys":[],"TotalKeys":0,"Block":1,"Trial":69,"Action":"No-Go","Robot":4,"trial_type":"pit-trial","trial_index":81,"time_elapsed":359716,"internal_node_id":"0.0-81.0"},{"Valence":"Lose","Color":"#ffcc3399","Rune":"05","Correct":32,"Choice":-1,"RT":-1,"Accuracy":0,"Sham":0,"Outcome":"-10","Keys":[],"TotalKeys":0,"Block":1,"Trial":70,"Action":"Go","Robot":3,"trial_type":"pit-trial","trial_index":82,"time_elapsed":363719,"internal_node_id":"0.0-82.0"},{"Valence":"Win","Color":"#3366ff99","Rune":"03","Correct":32,"Choice":32,"RT":147.99999998649582,"Accuracy":1,"Sham":0,"Outcome":"+10","Keys":[1647.9999999864958],"TotalKeys":1,"Block":1,"Trial":71,"Action":"Go","Robot":1,"trial_type":"pit-trial","trial_index":83,"time_elapsed":366372,"internal_node_id":"0.0-83.0"},{"Valence":"Win","Color":"#3366ff99","Rune":"04","Correct":-1,"Choice":32,"RT":1310.9999999869615,"Accuracy":0,"Sham":0,"Outcome":"+1","Keys":[2811.9999999762513],"TotalKeys":1,"Block":1,"Trial":72,"Action":"No-Go","Robot":2,"trial_type":"pit-trial","trial_index":84,"time_elapsed":370185,"internal_node_id":"0.0-84.0"},{"Valence":"Win","Color":"#3366ff99","Rune":"04","Correct":-1,"Choice":-1,"RT":-1,"Accuracy":1,"Sham":0,"Outcome":"+10","Keys":[],"TotalKeys":0,"Block":1,"Trial":73,"Action":"No-Go","Robot":2,"trial_type":"pit-trial","trial_index":85,"time_elapsed":374189,"internal_node_id":"0.0-85.0"},{"Valence":"Lose","Color":"#ffcc3399","Rune":"05","Correct":32,"Choice":-1,"RT":-1,"Accuracy":0,"Sham":1,"Outcome":"-1","Keys":[],"TotalKeys":0,"Block":1,"Trial":74,"Action":"Go","Robot":3,"trial_type":"pit-trial","trial_index":86,"time_elapsed":378191,"internal_node_id":"0.0-86.0"},{"Valence":"Win","Color":"#3366ff99","Rune":"03","Correct":32,"Choice":-1,"RT":-1,"Accuracy":0,"Sham":0,"Outcome":"+1","Keys":[],"TotalKeys":0,"Block":1,"Trial":75,"Action":"Go","Robot":1,"trial_type":"pit-trial","trial_index":87,"time_elapsed":382195,"internal_node_id":"0.0-87.0"},{"Valence":"Lose","Color":"#ffcc3399","Rune":"06","Correct":-1,"Choice":-1,"RT":-1,"Accuracy":1,"Sham":0,"Outcome":"-1","Keys":[],"TotalKeys":0,"Block":1,"Trial":76,"Action":"No-Go","Robot":4,"trial_type":"pit-trial","trial_index":88,"time_elapsed":386199,"internal_node_id":"0.0-88.0"},{"Valence":"Win","Color":"#3366ff99","Rune":"04","Correct":-1,"Choice":-1,"RT":-1,"Accuracy":1,"Sham":1,"Outcome":"1","Keys":[],"TotalKeys":0,"Block":1,"Trial":77,"Action":"No-Go","Robot":2,"trial_type":"pit-trial","trial_index":89,"time_elapsed":390202,"internal_node_id":"0.0-89.0"},{"Valence":"Win","Color":"#3366ff99","Rune":"03","Correct":32,"Choice":-1,"RT":-1,"Accuracy":0,"Sham":0,"Outcome":"+1","Keys":[],"TotalKeys":0,"Block":1,"Trial":78,"Action":"Go","Robot":1,"trial_type":"pit-trial","trial_index":90,"time_elapsed":394207,"internal_node_id":"0.0-90.0"},{"Valence":"Lose","Color":"#ffcc3399","Rune":"06","Correct":-1,"Choice":-1,"RT":-1,"Accuracy":1,"Sham":0,"Outcome":"-1","Keys":[],"TotalKeys":0,"Block":1,"Trial":79,"Action":"No-Go","Robot":4,"trial_type":"pit-trial","trial_index":91,"time_elapsed":398210,"internal_node_id":"0.0-91.0"},{"Valence":"Lose","Color":"#ffcc3399","Rune":"05","Correct":32,"Choice":-1,"RT":-1,"Accuracy":0,"Sham":0,"Outcome":"-10","Keys":[],"TotalKeys":0,"Block":1,"Trial":80,"Action":"Go","Robot":3,"trial_type":"pit-trial","trial_index":92,"time_elapsed":402213,"internal_node_id":"0.0-92.0"},{"value":false,"trial_type":"call-function","trial_index":93,"time_elapsed":402215,"internal_node_id":"0.0-93.0"},{"RT":227119.00000000605,"trial_type":"pit-pause","trial_index":94,"time_elapsed":630963,"internal_node_id":"0.0-94.0"},{"Valence":"Win","Color":"#3366ff99","Rune":"03","Correct":32,"Choice":32,"RT":50.99999997764826,"Accuracy":1,"Sham":0,"Outcome":"+10","Keys":[1550.9999999776483],"TotalKeys":1,"Block":2,"Trial":81,"Action":"Go","Robot":1,"trial_type":"pit-trial","trial_index":95,"time_elapsed":633519,"internal_node_id":"0.0-95.0"},{"Valence":"Win","Color":"#3366ff99","Rune":"04","Correct":-1,"Choice":-1,"RT":-1,"Accuracy":1,"Sham":0,"Outcome":"+10","Keys":[],"TotalKeys":0,"Block":2,"Trial":82,"Action":"No-Go","Robot":2,"trial_type":"pit-trial","trial_index":96,"time_elapsed":637523,"internal_node_id":"0.0-96.0"},{"Valence":"Lose","Color":"#ffcc3399","Rune":"06","Correct":-1,"Choice":-1,"RT":-1,"Accuracy":1,"Sham":0,"Outcome":"-1","Keys":[],"TotalKeys":0,"Block":2,"Trial":83,"Action":"No-Go","Robot":4,"trial_type":"pit-trial","trial_index":97,"time_elapsed":641528,"internal_node_id":"0.0-97.0"},{"Valence":"Lose","Color":"#ffcc3399","Rune":"05","Correct":32,"Choice":-1,"RT":-1,"Accuracy":0,"Sham":0,"Outcome":"-10","Keys":[],"TotalKeys":0,"Block":2,"Trial":84,"Action":"Go","Robot":3,"trial_type":"pit-trial","trial_index":98,"time_elapsed":645532,"internal_node_id":"0.0-98.0"},{"Valence":"Win","Color":"#3366ff99","Rune":"03","Correct":32,"Choice":-1,"RT":-1,"Accuracy":0,"Sham":0,"Outcome":"+1","Keys":[],"TotalKeys":0,"Block":2,"Trial":85,"Action":"Go","Robot":1,"trial_type":"pit-trial","trial_index":99,"time_elapsed":649535,"internal_node_id":"0.0-99.0"},{"Valence":"Win","Color":"#3366ff99","Rune":"04","Correct":-1,"Choice":-1,"RT":-1,"Accuracy":1,"Sham":0,"Outcome":"+10","Keys":[],"TotalKeys":0,"Block":2,"Trial":86,"Action":"No-Go","Robot":2,"trial_type":"pit-trial","trial_index":100,"time_elapsed":653540,"internal_node_id":"0.0-100.0"},{"Valence":"Lose","Color":"#ffcc3399","Rune":"05","Correct":32,"Choice":-1,"RT":-1,"Accuracy":0,"Sham":0,"Outcome":"-10","Keys":[],"TotalKeys":0,"Block":2,"Trial":87,"Action":"Go","Robot":3,"trial_type":"pit-trial","trial_index":101,"time_elapsed":657544,"internal_node_id":"0.0-101.0"},{"Valence":"Lose","Color":"#ffcc3399","Rune":"06","Correct":-1,"Choice":-1,"RT":-1,"Accuracy":1,"Sham":0,"Outcome":"-1","Keys":[],"TotalKeys":0,"Block":2,"Trial":88,"Action":"No-Go","Robot":4,"trial_type":"pit-trial","trial_index":102,"time_elapsed":661545,"internal_node_id":"0.0-102.0"},{"Valence":"Lose","Color":"#ffcc3399","Rune":"05","Correct":32,"Choice":-1,"RT":-1,"Accuracy":0,"Sham":1,"Outcome":"-1","Keys":[],"TotalKeys":0,"Block":2,"Trial":89,"Action":"Go","Robot":3,"trial_type":"pit-trial","trial_index":103,"time_elapsed":665548,"internal_node_id":"0.0-103.0"},{"Valence":"Win","Color":"#3366ff99","Rune":"03","Correct":32,"Choice":-1,"RT":-1,"Accuracy":0,"Sham":1,"Outcome":"+10","Keys":[],"TotalKeys":0,"Block":2,"Trial":90,"Action":"Go","Robot":1,"trial_type":"pit-trial","trial_index":104,"time_elapsed":669551,"internal_node_id":"0.0-104.0"},{"Valence":"Win","Color":"#3366ff99","Rune":"04","Correct":-1,"Choice":-1,"RT":-1,"Accuracy":1,"Sham":0,"Outcome":"+10","Keys":[],"TotalKeys":0,"Block":2,"Trial":91,"Action":"No-Go","Robot":2,"trial_type":"pit-trial","trial_index":105,"time_elapsed":673556,"internal_node_id":"0.0-105.0"},{"Valence":"Lose","Color":"#ffcc3399","Rune":"06","Correct":-1,"Choice":-1,"RT":-1,"Accuracy":1,"Sham":0,"Outcome":"-1","Keys":[],"TotalKeys":0,"Block":2,"Trial":92,"Action":"No-Go","Robot":4,"trial_type":"pit-trial","trial_index":106,"time_elapsed":677560,"internal_node_id":"0.0-106.0"},{"Valence":"Lose","Color":"#ffcc3399","Rune":"06","Correct":-1,"Choice":-1,"RT":-1,"Accuracy":1,"Sham":0,"Outcome":"-1","Keys":[],"TotalKeys":0,"Block":2,"Trial":93,"Action":"No-Go","Robot":4,"trial_type":"pit-trial","trial_index":107,"time_elapsed":681564,"internal_node_id":"0.0-107.0"},{"Valence":"Win","Color":"#3366ff99","Rune":"03","Correct":32,"Choice":-1,"RT":-1,"Accuracy":0,"Sham":0,"Outcome":"+1","Keys":[],"TotalKeys":0,"Block":2,"Trial":94,"Action":"Go","Robot":1,"trial_type":"pit-trial","trial_index":108,"time_elapsed":685568,"internal_node_id":"0.0-108.0"},{"Valence":"Lose","Color":"#ffcc3399","Rune":"05","Correct":32,"Choice":-1,"RT":-1,"Accuracy":0,"Sham":0,"Outcome":"-10","Keys":[],"TotalKeys":0,"Block":2,"Trial":95,"Action":"Go","Robot":3,"trial_type":"pit-trial","trial_index":109,"time_elapsed":689573,"internal_node_id":"0.0-109.0"},{"Valence":"Win","Color":"#3366ff99","Rune":"04","Correct":-1,"Choice":-1,"RT":-1,"Accuracy":1,"Sham":1,"Outcome":"1","Keys":[],"TotalKeys":0,"Block":2,"Trial":96,"Action":"No-Go","Robot":2,"trial_type":"pit-trial","trial_index":110,"time_elapsed":693577,"internal_node_id":"0.0-110.0"},{"Valence":"Lose","Color":"#ffcc3399","Rune":"06","Correct":-1,"Choice":-1,"RT":-1,"Accuracy":1,"Sham":1,"Outcome":"-10","Keys":[],"TotalKeys":0,"Block":2,"Trial":97,"Action":"No-Go","Robot":4,"trial_type":"pit-trial","trial_index":111,"time_elapsed":697579,"internal_node_id":"0.0-111.0"},{"Valence":"Win","Color":"#3366ff99","Rune":"03","Correct":32,"Choice":-1,"RT":-1,"Accuracy":0,"Sham":0,"Outcome":"+1","Keys":[],"TotalKeys":0,"Block":2,"Trial":98,"Action":"Go","Robot":1,"trial_type":"pit-trial","trial_index":112,"time_elapsed":701584,"internal_node_id":"0.0-112.0"},{"Valence":"Lose","Color":"#ffcc3399","Rune":"05","Correct":32,"Choice":-1,"RT":-1,"Accuracy":0,"Sham":0,"Outcome":"-10","Keys":[],"TotalKeys":0,"Block":2,"Trial":99,"Action":"Go","Robot":3,"trial_type":"pit-trial","trial_index":113,"time_elapsed":705588,"internal_node_id":"0.0-113.0"},{"Valence":"Win","Color":"#3366ff99","Rune":"04","Correct":-1,"Choice":-1,"RT":-1,"Accuracy":1,"Sham":0,"Outcome":"+10","Keys":[],"TotalKeys":0,"Block":2,"Trial":100,"Action":"No-Go","Robot":2,"trial_type":"pit-trial","trial_index":114,"time_elapsed":709590,"internal_node_id":"0.0-114.0"},{"Valence":"Lose","Color":"#ffcc3399","Rune":"06","Correct":-1,"Choice":-1,"RT":-1,"Accuracy":1,"Sham":0,"Outcome":"-1","Keys":[],"TotalKeys":0,"Block":2,"Trial":101,"Action":"No-Go","Robot":4,"trial_type":"pit-trial","trial_index":115,"time_elapsed":713595,"internal_node_id":"0.0-115.0"},{"Valence":"Lose","Color":"#ffcc3399","Rune":"05","Correct":32,"Choice":-1,"RT":-1,"Accuracy":0,"Sham":0,"Outcome":"-10","Keys":[],"TotalKeys":0,"Block":2,"Trial":102,"Action":"Go","Robot":3,"trial_type":"pit-trial","trial_index":116,"time_elapsed":717598,"internal_node_id":"0.0-116.0"},{"Valence":"Win","Color":"#3366ff99","Rune":"03","Correct":32,"Choice":-1,"RT":-1,"Accuracy":0,"Sham":1,"Outcome":"+10","Keys":[],"TotalKeys":0,"Block":2,"Trial":103,"Action":"Go","Robot":1,"trial_type":"pit-trial","trial_index":117,"time_elapsed":721602,"internal_node_id":"0.0-117.0"},{"Valence":"Win","Color":"#3366ff99","Rune":"04","Correct":-1,"Choice":-1,"RT":-1,"Accuracy":1,"Sham":1,"Outcome":"1","Keys":[],"TotalKeys":0,"Block":2,"Trial":104,"Action":"No-Go","Robot":2,"trial_type":"pit-trial","trial_index":118,"time_elapsed":725605,"internal_node_id":"0.0-118.0"},{"Valence":"Lose","Color":"#ffcc3399","Rune":"05","Correct":32,"Choice":-1,"RT":-1,"Accuracy":0,"Sham":0,"Outcome":"-10","Keys":[],"TotalKeys":0,"Block":2,"Trial":105,"Action":"Go","Robot":3,"trial_type":"pit-trial","trial_index":119,"time_elapsed":729608,"internal_node_id":"0.0-119.0"},{"Valence":"Win","Color":"#3366ff99","Rune":"03","Correct":32,"Choice":-1,"RT":-1,"Accuracy":0,"Sham":0,"Outcome":"+1","Keys":[],"TotalKeys":0,"Block":2,"Trial":106,"Action":"Go","Robot":1,"trial_type":"pit-trial","trial_index":120,"time_elapsed":733612,"internal_node_id":"0.0-120.0"},{"Valence":"Win","Color":"#3366ff99","Rune":"04","Correct":-1,"Choice":-1,"RT":-1,"Accuracy":1,"Sham":0,"Outcome":"+10","Keys":[],"TotalKeys":0,"Block":2,"Trial":107,"Action":"No-Go","Robot":2,"trial_type":"pit-trial","trial_index":121,"time_elapsed":737616,"internal_node_id":"0.0-121.0"},{"Valence":"Lose","Color":"#ffcc3399","Rune":"06","Correct":-1,"Choice":-1,"RT":-1,"Accuracy":1,"Sham":0,"Outcome":"-1","Keys":[],"TotalKeys":0,"Block":2,"Trial":108,"Action":"No-Go","Robot":4,"trial_type":"pit-trial","trial_index":122,"time_elapsed":741620,"internal_node_id":"0.0-122.0"},{"Valence":"Win","Color":"#3366ff99","Rune":"04","Correct":-1,"Choice":-1,"RT":-1,"Accuracy":1,"Sham":0,"Outcome":"+10","Keys":[],"TotalKeys":0,"Block":2,"Trial":109,"Action":"No-Go","Robot":2,"trial_type":"pit-trial","trial_index":123,"time_elapsed":745624,"internal_node_id":"0.0-123.0"},{"Valence":"Lose","Color":"#ffcc3399","Rune":"06","Correct":-1,"Choice":-1,"RT":-1,"Accuracy":1,"Sham":0,"Outcome":"-1","Keys":[],"TotalKeys":0,"Block":2,"Trial":110,"Action":"No-Go","Robot":4,"trial_type":"pit-trial","trial_index":124,"time_elapsed":749627,"internal_node_id":"0.0-124.0"},{"Valence":"Win","Color":"#3366ff99","Rune":"03","Correct":32,"Choice":-1,"RT":-1,"Accuracy":0,"Sham":0,"Outcome":"+1","Keys":[],"TotalKeys":0,"Block":2,"Trial":111,"Action":"Go","Robot":1,"trial_type":"pit-trial","trial_index":125,"time_elapsed":753632,"internal_node_id":"0.0-125.0"},{"Valence":"Lose","Color":"#ffcc3399","Rune":"05","Correct":32,"Choice":-1,"RT":-1,"Accuracy":0,"Sham":0,"Outcome":"-10","Keys":[],"TotalKeys":0,"Block":2,"Trial":112,"Action":"Go","Robot":3,"trial_type":"pit-trial","trial_index":126,"time_elapsed":757635,"internal_node_id":"0.0-126.0"},{"Valence":"Win","Color":"#3366ff99","Rune":"04","Correct":-1,"Choice":-1,"RT":-1,"Accuracy":1,"Sham":0,"Outcome":"+10","Keys":[],"TotalKeys":0,"Block":2,"Trial":113,"Action":"No-Go","Robot":2,"trial_type":"pit-trial","trial_index":127,"time_elapsed":761638,"internal_node_id":"0.0-127.0"},{"Valence":"Lose","Color":"#ffcc3399","Rune":"06","Correct":-1,"Choice":-1,"RT":-1,"Accuracy":1,"Sham":0,"Outcome":"-1","Keys":[],"TotalKeys":0,"Block":2,"Trial":114,"Action":"No-Go","Robot":4,"trial_type":"pit-trial","trial_index":128,"time_elapsed":765642,"internal_node_id":"0.0-128.0"},{"Valence":"Lose","Color":"#ffcc3399","Rune":"05","Correct":32,"Choice":-1,"RT":-1,"Accuracy":0,"Sham":1,"Outcome":"-1","Keys":[],"TotalKeys":0,"Block":2,"Trial":115,"Action":"Go","Robot":3,"trial_type":"pit-trial","trial_index":129,"time_elapsed":769646,"internal_node_id":"0.0-129.0"},{"Valence":"Win","Color":"#3366ff99","Rune":"03","Correct":32,"Choice":-1,"RT":-1,"Accuracy":0,"Sham":0,"Outcome":"+1","Keys":[],"TotalKeys":0,"Block":2,"Trial":116,"Action":"Go","Robot":1,"trial_type":"pit-trial","trial_index":130,"time_elapsed":773650,"internal_node_id":"0.0-130.0"},{"Valence":"Lose","Color":"#ffcc3399","Rune":"06","Correct":-1,"Choice":-1,"RT":-1,"Accuracy":1,"Sham":1,"Outcome":"-10","Keys":[],"TotalKeys":0,"Block":2,"Trial":117,"Action":"No-Go","Robot":4,"trial_type":"pit-trial","trial_index":131,"time_elapsed":777654,"internal_node_id":"0.0-131.0"},{"Valence":"Lose","Color":"#ffcc3399","Rune":"05","Correct":32,"Choice":-1,"RT":-1,"Accuracy":0,"Sham":0,"Outcome":"-10","Keys":[],"TotalKeys":0,"Block":2,"Trial":118,"Action":"Go","Robot":3,"trial_type":"pit-trial","trial_index":132,"time_elapsed":781658,"internal_node_id":"0.0-132.0"},{"Valence":"Win","Color":"#3366ff99","Rune":"04","Correct":-1,"Choice":-1,"RT":-1,"Accuracy":1,"Sham":0,"Outcome":"+10","Keys":[],"TotalKeys":0,"Block":2,"Trial":119,"Action":"No-Go","Robot":2,"trial_type":"pit-trial","trial_index":133,"time_elapsed":785661,"internal_node_id":"0.0-133.0"},{"Valence":"Win","Color":"#3366ff99","Rune":"03","Correct":32,"Choice":-1,"RT":-1,"Accuracy":0,"Sham":0,"Outcome":"+1","Keys":[],"TotalKeys":0,"Block":2,"Trial":120,"Action":"Go","Robot":1,"trial_type":"pit-trial","trial_index":134,"time_elapsed":789666,"internal_node_id":"0.0-134.0"},{"Valence":"Win","Color":"#3366ff99","Rune":"04","Correct":-1,"Choice":-1,"RT":-1,"Accuracy":1,"Sham":0,"Outcome":"+10","Keys":[],"TotalKeys":0,"Block":2,"Trial":121,"Action":"No-Go","Robot":2,"trial_type":"pit-trial","trial_index":135,"time_elapsed":793670,"internal_node_id":"0.0-135.0"},{"Valence":"Lose","Color":"#ffcc3399","Rune":"06","Correct":-1,"Choice":32,"RT":1435.9999999869615,"Accuracy":0,"Sham":0,"Outcome":"-10","Keys":[2935.9999999869615],"TotalKeys":1,"Block":2,"Trial":122,"Action":"No-Go","Robot":4,"trial_type":"pit-trial","trial_index":136,"time_elapsed":797610,"internal_node_id":"0.0-136.0"},{"Valence":"Lose","Color":"#ffcc3399","Rune":"05","Correct":32,"Choice":-1,"RT":-1,"Accuracy":0,"Sham":0,"Outcome":"-10","Keys":[1402.9999999911524],"TotalKeys":1,"Block":2,"Trial":123,"Action":"Go","Robot":3,"trial_type":"pit-trial","trial_index":137,"time_elapsed":801613,"internal_node_id":"0.0-137.0"},{"Valence":"Win","Color":"#3366ff99","Rune":"03","Correct":32,"Choice":-1,"RT":-1,"Accuracy":0,"Sham":1,"Outcome":"+10","Keys":[3103.000000002794],"TotalKeys":1,"Block":2,"Trial":124,"Action":"Go","Robot":1,"trial_type":"pit-trial","trial_index":138,"time_elapsed":805617,"internal_node_id":"0.0-138.0"},{"Valence":"Lose","Color":"#ffcc3399","Rune":"05","Correct":32,"Choice":32,"RT":478.99999999208376,"Accuracy":1,"Sham":1,"Outcome":"-10","Keys":[1978.9999999920838],"TotalKeys":1,"Block":2,"Trial":125,"Action":"Go","Robot":3,"trial_type":"pit-trial","trial_index":139,"time_elapsed":808600,"internal_node_id":"0.0-139.0"},{"Valence":"Lose","Color":"#ffcc3399","Rune":"06","Correct":-1,"Choice":-1,"RT":-1,"Accuracy":1,"Sham":0,"Outcome":"-1","Keys":[401.00000001257285],"TotalKeys":1,"Block":2,"Trial":126,"Action":"No-Go","Robot":4,"trial_type":"pit-trial","trial_index":140,"time_elapsed":812605,"internal_node_id":"0.0-140.0"},{"Valence":"Win","Color":"#3366ff99","Rune":"04","Correct":-1,"Choice":32,"RT":939.0000000130385,"Accuracy":0,"Sham":0,"Outcome":"+1","Keys":[2440.0000000023283],"TotalKeys":1,"Block":2,"Trial":127,"Action":"No-Go","Robot":2,"trial_type":"pit-trial","trial_index":141,"time_elapsed":816050,"internal_node_id":"0.0-141.0"},{"Valence":"Win","Color":"#3366ff99","Rune":"03","Correct":32,"Choice":-1,"RT":-1,"Accuracy":0,"Sham":0,"Outcome":"+1","Keys":[],"TotalKeys":0,"Block":2,"Trial":128,"Action":"Go","Robot":1,"trial_type":"pit-trial","trial_index":142,"time_elapsed":820054,"internal_node_id":"0.0-142.0"},{"Valence":"Lose","Color":"#ffcc3399","Rune":"06","Correct":-1,"Choice":-1,"RT":-1,"Accuracy":1,"Sham":0,"Outcome":"-1","Keys":[],"TotalKeys":0,"Block":2,"Trial":129,"Action":"No-Go","Robot":4,"trial_type":"pit-trial","trial_index":143,"time_elapsed":824057,"internal_node_id":"0.0-143.0"},{"Valence":"Win","Color":"#3366ff99","Rune":"03","Correct":32,"Choice":-1,"RT":-1,"Accuracy":0,"Sham":0,"Outcome":"+1","Keys":[],"TotalKeys":0,"Block":2,"Trial":130,"Action":"Go","Robot":1,"trial_type":"pit-trial","trial_index":144,"time_elapsed":828061,"internal_node_id":"0.0-144.0"},{"Valence":"Lose","Color":"#ffcc3399","Rune":"05","Correct":32,"Choice":-1,"RT":-1,"Accuracy":0,"Sham":0,"Outcome":"-10","Keys":[],"TotalKeys":0,"Block":2,"Trial":131,"Action":"Go","Robot":3,"trial_type":"pit-trial","trial_index":145,"time_elapsed":832065,"internal_node_id":"0.0-145.0"},{"Valence":"Win","Color":"#3366ff99","Rune":"04","Correct":-1,"Choice":-1,"RT":-1,"Accuracy":1,"Sham":0,"Outcome":"+10","Keys":[],"TotalKeys":0,"Block":2,"Trial":132,"Action":"No-Go","Robot":2,"trial_type":"pit-trial","trial_index":146,"time_elapsed":836071,"internal_node_id":"0.0-146.0"},{"Valence":"Lose","Color":"#ffcc3399","Rune":"06","Correct":-1,"Choice":-1,"RT":-1,"Accuracy":1,"Sham":0,"Outcome":"-1","Keys":[],"TotalKeys":0,"Block":2,"Trial":133,"Action":"No-Go","Robot":4,"trial_type":"pit-trial","trial_index":147,"time_elapsed":840075,"internal_node_id":"0.0-147.0"},{"Valence":"Win","Color":"#3366ff99","Rune":"03","Correct":32,"Choice":-1,"RT":-1,"Accuracy":0,"Sham":0,"Outcome":"+1","Keys":[],"TotalKeys":0,"Block":2,"Trial":134,"Action":"Go","Robot":1,"trial_type":"pit-trial","trial_index":148,"time_elapsed":844079,"internal_node_id":"0.0-148.0"},{"Valence":"Lose","Color":"#ffcc3399","Rune":"05","Correct":32,"Choice":-1,"RT":-1,"Accuracy":0,"Sham":0,"Outcome":"-10","Keys":[],"TotalKeys":0,"Block":2,"Trial":135,"Action":"Go","Robot":3,"trial_type":"pit-trial","trial_index":149,"time_elapsed":848084,"internal_node_id":"0.0-149.0"},{"Valence":"Win","Color":"#3366ff99","Rune":"04","Correct":-1,"Choice":-1,"RT":-1,"Accuracy":1,"Sham":0,"Outcome":"+10","Keys":[],"TotalKeys":0,"Block":2,"Trial":136,"Action":"No-Go","Robot":2,"trial_type":"pit-trial","trial_index":150,"time_elapsed":852087,"internal_node_id":"0.0-150.0"},{"Valence":"Lose","Color":"#ffcc3399","Rune":"06","Correct":-1,"Choice":-1,"RT":-1,"Accuracy":1,"Sham":1,"Outcome":"-10","Keys":[],"TotalKeys":0,"Block":2,"Trial":137,"Action":"No-Go","Robot":4,"trial_type":"pit-trial","trial_index":151,"time_elapsed":856089,"internal_node_id":"0.0-151.0"},{"Valence":"Win","Color":"#3366ff99","Rune":"03","Correct":32,"Choice":-1,"RT":-1,"Accuracy":0,"Sham":0,"Outcome":"+1","Keys":[],"TotalKeys":0,"Block":2,"Trial":138,"Action":"Go","Robot":1,"trial_type":"pit-trial","trial_index":152,"time_elapsed":860091,"internal_node_id":"0.0-152.0"},{"Valence":"Lose","Color":"#ffcc3399","Rune":"05","Correct":32,"Choice":-1,"RT":-1,"Accuracy":0,"Sham":0,"Outcome":"-10","Keys":[],"TotalKeys":0,"Block":2,"Trial":139,"Action":"Go","Robot":3,"trial_type":"pit-trial","trial_index":153,"time_elapsed":864093,"internal_node_id":"0.0-153.0"},{"Valence":"Win","Color":"#3366ff99","Rune":"04","Correct":-1,"Choice":-1,"RT":-1,"Accuracy":1,"Sham":1,"Outcome":"1","Keys":[],"TotalKeys":0,"Block":2,"Trial":140,"Action":"No-Go","Robot":2,"trial_type":"pit-trial","trial_index":154,"time_elapsed":868094,"internal_node_id":"0.0-154.0"},{"Valence":"Win","Color":"#3366ff99","Rune":"04","Correct":-1,"Choice":-1,"RT":-1,"Accuracy":1,"Sham":1,"Outcome":"1","Keys":[],"TotalKeys":0,"Block":2,"Trial":141,"Action":"No-Go","Robot":2,"trial_type":"pit-trial","trial_index":155,"time_elapsed":872098,"internal_node_id":"0.0-155.0"},{"Valence":"Lose","Color":"#ffcc3399","Rune":"05","Correct":32,"Choice":-1,"RT":-1,"Accuracy":0,"Sham":0,"Outcome":"-10","Keys":[],"TotalKeys":0,"Block":2,"Trial":142,"Action":"Go","Robot":3,"trial_type":"pit-trial","trial_index":156,"time_elapsed":876100,"internal_node_id":"0.0-156.0"},{"Valence":"Win","Color":"#3366ff99","Rune":"03","Correct":32,"Choice":-1,"RT":-1,"Accuracy":0,"Sham":0,"Outcome":"+1","Keys":[],"TotalKeys":0,"Block":2,"Trial":143,"Action":"Go","Robot":1,"trial_type":"pit-trial","trial_index":157,"time_elapsed":880105,"internal_node_id":"0.0-157.0"},{"Valence":"Lose","Color":"#ffcc3399","Rune":"06","Correct":-1,"Choice":-1,"RT":-1,"Accuracy":1,"Sham":0,"Outcome":"-1","Keys":[],"TotalKeys":0,"Block":2,"Trial":144,"Action":"No-Go","Robot":4,"trial_type":"pit-trial","trial_index":158,"time_elapsed":884108,"internal_node_id":"0.0-158.0"},{"Valence":"Lose","Color":"#ffcc3399","Rune":"06","Correct":-1,"Choice":-1,"RT":-1,"Accuracy":1,"Sham":0,"Outcome":"-1","Keys":[],"TotalKeys":0,"Block":2,"Trial":145,"Action":"No-Go","Robot":4,"trial_type":"pit-trial","trial_index":159,"time_elapsed":888112,"internal_node_id":"0.0-159.0"},{"Valence":"Win","Color":"#3366ff99","Rune":"03","Correct":32,"Choice":-1,"RT":-1,"Accuracy":0,"Sham":0,"Outcome":"+1","Keys":[],"TotalKeys":0,"Block":2,"Trial":146,"Action":"Go","Robot":1,"trial_type":"pit-trial","trial_index":160,"time_elapsed":892115,"internal_node_id":"0.0-160.0"},{"Valence":"Lose","Color":"#ffcc3399","Rune":"05","Correct":32,"Choice":-1,"RT":-1,"Accuracy":0,"Sham":0,"Outcome":"-10","Keys":[],"TotalKeys":0,"Block":2,"Trial":147,"Action":"Go","Robot":3,"trial_type":"pit-trial","trial_index":161,"time_elapsed":896120,"internal_node_id":"0.0-161.0"},{"Valence":"Win","Color":"#3366ff99","Rune":"04","Correct":-1,"Choice":-1,"RT":-1,"Accuracy":1,"Sham":0,"Outcome":"+10","Keys":[],"TotalKeys":0,"Block":2,"Trial":148,"Action":"No-Go","Robot":2,"trial_type":"pit-trial","trial_index":162,"time_elapsed":900123,"internal_node_id":"0.0-162.0"},{"Valence":"Win","Color":"#3366ff99","Rune":"04","Correct":-1,"Choice":-1,"RT":-1,"Accuracy":1,"Sham":0,"Outcome":"+10","Keys":[],"TotalKeys":0,"Block":2,"Trial":149,"Action":"No-Go","Robot":2,"trial_type":"pit-trial","trial_index":163,"time_elapsed":904128,"internal_node_id":"0.0-163.0"},{"Valence":"Lose","Color":"#ffcc3399","Rune":"06","Correct":-1,"Choice":-1,"RT":-1,"Accuracy":1,"Sham":0,"Outcome":"-1","Keys":[],"TotalKeys":0,"Block":2,"Trial":150,"Action":"No-Go","Robot":4,"trial_type":"pit-trial","trial_index":164,"time_elapsed":908129,"internal_node_id":"0.0-164.0"},{"Valence":"Lose","Color":"#ffcc3399","Rune":"05","Correct":32,"Choice":-1,"RT":-1,"Accuracy":0,"Sham":0,"Outcome":"-10","Keys":[],"TotalKeys":0,"Block":2,"Trial":151,"Action":"Go","Robot":3,"trial_type":"pit-trial","trial_index":165,"time_elapsed":912143,"internal_node_id":"0.0-165.0"},{"Valence":"Win","Color":"#3366ff99","Rune":"03","Correct":32,"Choice":-1,"RT":-1,"Accuracy":0,"Sham":0,"Outcome":"+1","Keys":[],"TotalKeys":0,"Block":2,"Trial":152,"Action":"Go","Robot":1,"trial_type":"pit-trial","trial_index":166,"time_elapsed":916149,"internal_node_id":"0.0-166.0"},{"Valence":"Win","Color":"#3366ff99","Rune":"03","Correct":32,"Choice":-1,"RT":-1,"Accuracy":0,"Sham":0,"Outcome":"+1","Keys":[],"TotalKeys":0,"Block":2,"Trial":153,"Action":"Go","Robot":1,"trial_type":"pit-trial","trial_index":167,"time_elapsed":920153,"internal_node_id":"0.0-167.0"},{"Valence":"Lose","Color":"#ffcc3399","Rune":"06","Correct":-1,"Choice":-1,"RT":-1,"Accuracy":1,"Sham":0,"Outcome":"-1","Keys":[],"TotalKeys":0,"Block":2,"Trial":154,"Action":"No-Go","Robot":4,"trial_type":"pit-trial","trial_index":168,"time_elapsed":924158,"internal_node_id":"0.0-168.0"},{"Valence":"Lose","Color":"#ffcc3399","Rune":"05","Correct":32,"Choice":-1,"RT":-1,"Accuracy":0,"Sham":0,"Outcome":"-10","Keys":[],"TotalKeys":0,"Block":2,"Trial":155,"Action":"Go","Robot":3,"trial_type":"pit-trial","trial_index":169,"time_elapsed":928162,"internal_node_id":"0.0-169.0"},{"Valence":"Win","Color":"#3366ff99","Rune":"04","Correct":-1,"Choice":-1,"RT":-1,"Accuracy":1,"Sham":0,"Outcome":"+10","Keys":[],"TotalKeys":0,"Block":2,"Trial":156,"Action":"No-Go","Robot":2,"trial_type":"pit-trial","trial_index":170,"time_elapsed":932165,"internal_node_id":"0.0-170.0"},{"Valence":"Lose","Color":"#ffcc3399","Rune":"05","Correct":32,"Choice":-1,"RT":-1,"Accuracy":0,"Sham":1,"Outcome":"-1","Keys":[],"TotalKeys":0,"Block":2,"Trial":157,"Action":"Go","Robot":3,"trial_type":"pit-trial","trial_index":171,"time_elapsed":936170,"internal_node_id":"0.0-171.0"},{"Valence":"Lose","Color":"#ffcc3399","Rune":"06","Correct":-1,"Choice":-1,"RT":-1,"Accuracy":1,"Sham":1,"Outcome":"-10","Keys":[],"TotalKeys":0,"Block":2,"Trial":158,"Action":"No-Go","Robot":4,"trial_type":"pit-trial","trial_index":172,"time_elapsed":940171,"internal_node_id":"0.0-172.0"},{"Valence":"Win","Color":"#3366ff99","Rune":"04","Correct":-1,"Choice":-1,"RT":-1,"Accuracy":1,"Sham":0,"Outcome":"+10","Keys":[],"TotalKeys":0,"Block":2,"Trial":159,"Action":"No-Go","Robot":2,"trial_type":"pit-trial","trial_index":173,"time_elapsed":944175,"internal_node_id":"0.0-173.0"},{"Valence":"Win","Color":"#3366ff99","Rune":"03","Correct":32,"Choice":-1,"RT":-1,"Accuracy":0,"Sham":1,"Outcome":"+10","Keys":[],"TotalKeys":0,"Block":2,"Trial":160,"Action":"Go","Robot":1,"trial_type":"pit-trial","trial_index":174,"time_elapsed":948179,"internal_node_id":"0.0-174.0"},{"rt":395524.9999999651,"demographics":{"age":"28","gender-categorical":"Male","ethnicity":"Hispanic or Latino","race":"White","english":"Yes","fluency":"Very well"},"trial_type":"survey-demo","trial_index":175,"time_elapsed":1343708,"internal_node_id":"0.0-175.0"},{"rt":36058.00000001909,"debriefgraphics":{"difficulty":"5","fun":"5","clarity":"5","strategy":"No use of strategies","feedback":"Nothig"},"trial_type":"survey-debrief","trial_index":176,"time_elapsed":1379774,"internal_node_id":"0.0-176.0","interactions":"[{\"event\":\"blur\",\"trial\":70,\"time\":312259},{\"event\":\"focus\",\"trial\":70,\"time\":314813},{\"event\":\"blur\",\"trial\":71,\"time\":317353},{\"event\":\"focus\",\"trial\":82,\"time\":360445},{\"event\":\"blur\",\"trial\":86,\"time\":376828},{\"event\":\"focus\",\"trial\":94,\"time\":627363},{\"event\":\"blur\",\"trial\":96,\"time\":634637},{\"event\":\"focus\",\"trial\":136,\"time\":793952},{\"event\":\"blur\",\"trial\":175,\"time\":1318996},{\"event\":\"focus\",\"trial\":175,\"time\":1322982}]"}]