[{"view_history":"[{\"page_index\":0,\"viewing_time\":1533.7499999986903},{\"page_index\":1,\"viewing_time\":1783.6800000004587},{\"page_index\":2,\"viewing_time\":4400.00499999951},{\"page_index\":3,\"viewing_time\":3535.920000002079},{\"page_index\":4,\"viewing_time\":5520.134999998845}]","rt":16774.320000000444,"trial_type":"pit-instructions","trial_index":0,"time_elapsed":16776,"internal_node_id":"0.0-0.0"},{"Rune":"01","Correct":32,"Choice":32,"RT":342.4750000012864,"Accuracy":1,"Sham":0,"Outcome":"+10","Keys":[1843.2000000029802],"TotalKeys":1,"trial_type":"pit-trial","trial_index":1,"time_elapsed":19624,"internal_node_id":"0.0-1.0"},{"Rune":"01","Correct":32,"Choice":32,"RT":295.2899999982037,"Accuracy":1,"Sham":0,"Outcome":"+10","Keys":[1795.750000001135],"TotalKeys":1,"trial_type":"pit-trial","trial_index":2,"time_elapsed":22425,"internal_node_id":"0.0-2.0"},{"Rune":"01","Correct":32,"Choice":32,"RT":276.6400000000431,"Accuracy":1,"Sham":0,"Outcome":"+10","Keys":[1778.4649999994144],"TotalKeys":1,"trial_type":"pit-trial","trial_index":3,"time_elapsed":25208,"internal_node_id":"0.0-3.0"},{"Rune":"01","Correct":32,"Choice":32,"RT":271.0450000013225,"Accuracy":1,"Sham":0,"Outcome":"+10","Keys":[1771.7550000015763],"TotalKeys":1,"trial_type":"pit-trial","trial_index":4,"time_elapsed":27983,"internal_node_id":"0.0-4.0"},{"view_history":"[{\"page_index\":0,\"viewing_time\":3084.310000002006}]","rt":3084.6999999994296,"trial_type":"pit-instructions","trial_index":5,"time_elapsed":31071,"internal_node_id":"0.0-5.0"},{"Rune":"02","Correct":-1,"Choice":-1,"RT":-1,"Accuracy":1,"Sham":0,"Outcome":"+10","Keys":[],"TotalKeys":0,"trial_type":"pit-trial","trial_index":6,"time_elapsed":35076,"internal_node_id":"0.0-6.0"},{"Rune":"02","Correct":-1,"Choice":-1,"RT":-1,"Accuracy":1,"Sham":0,"Outcome":"+10","Keys":[],"TotalKeys":0,"trial_type":"pit-trial","trial_index":7,"time_elapsed":39082,"internal_node_id":"0.0-7.0"},{"Rune":"02","Correct":-1,"Choice":-1,"RT":-1,"Accuracy":1,"Sham":0,"Outcome":"+10","Keys":[],"TotalKeys":0,"trial_type":"pit-trial","trial_index":8,"time_elapsed":43087,"internal_node_id":"0.0-8.0"},{"Rune":"02","Correct":-1,"Choice":-1,"RT":-1,"Accuracy":1,"Sham":0,"Outcome":"+10","Keys":[],"TotalKeys":0,"trial_type":"pit-trial","trial_index":9,"time_elapsed":47091,"internal_node_id":"0.0-9.0"},{"view_history":"[{\"page_index\":0,\"viewing_time\":2137.3749999984284},{\"page_index\":1,\"viewing_time\":31.815000002097804},{\"page_index\":2,\"viewing_time\":1128.3149999981106},{\"page_index\":1,\"viewing_time\":3599.625000002561},{\"page_index\":2,\"viewing_time\":2208.039999997709},{\"page_index\":3,\"viewing_time\":2759.910000000673},{\"page_index\":4,\"viewing_time\":2632.310000000871},{\"page_index\":5,\"viewing_time\":3839.749999999185},{\"page_index\":6,\"viewing_time\":2503.9299999989453},{\"page_index\":7,\"viewing_time\":928.0450000005658}]","rt":21769.499999998516,"trial_type":"pit-instructions","trial_index":10,"time_elapsed":68863,"internal_node_id":"0.0-10.0"},{"rt":11516.55000000028,"responses":"{\"no-press\":\"Do nothing\",\"context-win\":\"+10\",\"context-lose\":\"+0\",\"feedback\":\"True\"}","errors":0,"trial_type":"pit-comprehension","trial_index":11,"time_elapsed":80384,"internal_node_id":"0.0-11.0"},{"view_history":"[{\"page_index\":0,\"viewing_time\":2322.100000001228}]","rt":2322.410000000673,"trial_type":"pit-instructions","trial_index":12,"time_elapsed":82711,"internal_node_id":"0.0-12.0"},{"Rune":"06","Correct":-1,"Choice":32,"RT":487.6850000000559,"Accuracy":0,"Sham":0,"Outcome":"+0","Keys":[1988.4799999999814],"TotalKeys":1,"Block":1,"Trial":1,"Valence":"Win","Action":"No-Go","Robot":2,"trial_type":"pit-trial","trial_index":13,"time_elapsed":85705,"internal_node_id":"0.0-13.0"},{"Rune":"05","Correct":32,"Choice":32,"RT":950.3800000020419,"Accuracy":1,"Sham":0,"Outcome":"+0","Keys":[2450.9800000014366],"TotalKeys":1,"Block":1,"Trial":2,"Valence":"Lose","Action":"Go","Robot":3,"trial_type":"pit-trial","trial_index":14,"time_elapsed":89161,"internal_node_id":"0.0-14.0"},{"Rune":"03","Correct":-1,"Choice":32,"RT":1102.4299999990035,"Accuracy":0,"Sham":0,"Outcome":"-10","Keys":[2603.4749999998894],"TotalKeys":1,"Block":1,"Trial":3,"Valence":"Lose","Action":"No-Go","Robot":4,"trial_type":"pit-trial","trial_index":15,"time_elapsed":92769,"internal_node_id":"0.0-15.0"},{"Rune":"04","Correct":32,"Choice":32,"RT":687.1600000013132,"Accuracy":1,"Sham":0,"Outcome":"+10","Keys":[2187.6049999991665],"TotalKeys":1,"Block":1,"Trial":4,"Valence":"Win","Action":"Go","Robot":1,"trial_type":"pit-trial","trial_index":16,"time_elapsed":95961,"internal_node_id":"0.0-16.0"},{"Rune":"05","Correct":32,"Choice":32,"RT":1078.2099999996717,"Accuracy":1,"Sham":1,"Outcome":"-10","Keys":[2578.43000000139],"TotalKeys":1,"Block":1,"Trial":5,"Valence":"Lose","Action":"Go","Robot":3,"trial_type":"pit-trial","trial_index":17,"time_elapsed":99544,"internal_node_id":"0.0-17.0"},{"Rune":"03","Correct":-1,"Choice":-1,"RT":-1,"Accuracy":1,"Sham":0,"Outcome":"+0","Keys":[],"TotalKeys":0,"Block":1,"Trial":6,"Valence":"Lose","Action":"No-Go","Robot":4,"trial_type":"pit-trial","trial_index":18,"time_elapsed":103551,"internal_node_id":"0.0-18.0"},{"Rune":"04","Correct":32,"Choice":32,"RT":664.7100000009232,"Accuracy":1,"Sham":0,"Outcome":"+10","Keys":[2165.305000002263],"TotalKeys":1,"Block":1,"Trial":7,"Valence":"Win","Action":"Go","Robot":1,"trial_type":"pit-trial","trial_index":19,"time_elapsed":106721,"internal_node_id":"0.0-19.0"},{"Rune":"06","Correct":-1,"Choice":-1,"RT":-1,"Accuracy":1,"Sham":0,"Outcome":"+10","Keys":[],"TotalKeys":0,"Block":1,"Trial":8,"Valence":"Win","Action":"No-Go","Robot":2,"trial_type":"pit-trial","trial_index":20,"time_elapsed":110726,"internal_node_id":"0.0-20.0"},{"Rune":"04","Correct":32,"Choice":32,"RT":544.9550000012096,"Accuracy":1,"Sham":0,"Outcome":"+10","Keys":[2046.1249999971187],"TotalKeys":1,"Block":1,"Trial":9,"Valence":"Win","Action":"Go","Robot":1,"trial_type":"pit-trial","trial_index":21,"time_elapsed":113777,"internal_node_id":"0.0-21.0"},{"Rune":"05","Correct":32,"Choice":-1,"RT":-1,"Accuracy":0,"Sham":0,"Outcome":"-10","Keys":[],"TotalKeys":0,"Block":1,"Trial":10,"Valence":"Lose","Action":"Go","Robot":3,"trial_type":"pit-trial","trial_index":22,"time_elapsed":117781,"internal_node_id":"0.0-22.0"},{"Rune":"06","Correct":-1,"Choice":-1,"RT":-1,"Accuracy":1,"Sham":0,"Outcome":"+10","Keys":[],"TotalKeys":0,"Block":1,"Trial":11,"Valence":"Win","Action":"No-Go","Robot":2,"trial_type":"pit-trial","trial_index":23,"time_elapsed":121787,"internal_node_id":"0.0-23.0"},{"Rune":"03","Correct":-1,"Choice":-1,"RT":-1,"Accuracy":1,"Sham":0,"Outcome":"+0","Keys":[],"TotalKeys":0,"Block":1,"Trial":12,"Valence":"Lose","Action":"No-Go","Robot":4,"trial_type":"pit-trial","trial_index":24,"time_elapsed":125793,"internal_node_id":"0.0-24.0"},{"Rune":"04","Correct":32,"Choice":32,"RT":444.9949999980163,"Accuracy":1,"Sham":0,"Outcome":"+10","Keys":[1947.0800000017334],"TotalKeys":1,"Block":1,"Trial":13,"Valence":"Win","Action":"Go","Robot":1,"trial_type":"pit-trial","trial_index":25,"time_elapsed":128744,"internal_node_id":"0.0-25.0"},{"Rune":"06","Correct":-1,"Choice":-1,"RT":-1,"Accuracy":1,"Sham":0,"Outcome":"+10","Keys":[],"TotalKeys":0,"Block":1,"Trial":14,"Valence":"Win","Action":"No-Go","Robot":2,"trial_type":"pit-trial","trial_index":26,"time_elapsed":132748,"internal_node_id":"0.0-26.0"},{"Rune":"05","Correct":32,"Choice":32,"RT":571.5500000005704,"Accuracy":1,"Sham":0,"Outcome":"+0","Keys":[2071.925000000192],"TotalKeys":1,"Block":1,"Trial":15,"Valence":"Lose","Action":"Go","Robot":3,"trial_type":"pit-trial","trial_index":27,"time_elapsed":135824,"internal_node_id":"0.0-27.0"},{"Rune":"03","Correct":-1,"Choice":-1,"RT":-1,"Accuracy":1,"Sham":1,"Outcome":"-10","Keys":[],"TotalKeys":0,"Block":1,"Trial":16,"Valence":"Lose","Action":"No-Go","Robot":4,"trial_type":"pit-trial","trial_index":28,"time_elapsed":139829,"internal_node_id":"0.0-28.0"},{"Rune":"04","Correct":32,"Choice":32,"RT":657.455000000482,"Accuracy":1,"Sham":1,"Outcome":"+0","Keys":[2158.690000000206],"TotalKeys":1,"Block":1,"Trial":17,"Valence":"Win","Action":"Go","Robot":1,"trial_type":"pit-trial","trial_index":29,"time_elapsed":142992,"internal_node_id":"0.0-29.0"},{"Rune":"05","Correct":32,"Choice":32,"RT":774.7699999999895,"Accuracy":1,"Sham":0,"Outcome":"+0","Keys":[2275.03500000239],"TotalKeys":1,"Block":1,"Trial":18,"Valence":"Lose","Action":"Go","Robot":3,"trial_type":"pit-trial","trial_index":30,"time_elapsed":146274,"internal_node_id":"0.0-30.0"},{"Rune":"06","Correct":-1,"Choice":-1,"RT":-1,"Accuracy":1,"Sham":1,"Outcome":"+0","Keys":[],"TotalKeys":0,"Block":1,"Trial":19,"Valence":"Win","Action":"No-Go","Robot":2,"trial_type":"pit-trial","trial_index":31,"time_elapsed":150283,"internal_node_id":"0.0-31.0"},{"Rune":"03","Correct":-1,"Choice":-1,"RT":-1,"Accuracy":1,"Sham":0,"Outcome":"+0","Keys":[],"TotalKeys":0,"Block":1,"Trial":20,"Valence":"Lose","Action":"No-Go","Robot":4,"trial_type":"pit-trial","trial_index":32,"time_elapsed":154289,"internal_node_id":"0.0-32.0"},{"Rune":"03","Correct":-1,"Choice":-1,"RT":-1,"Accuracy":1,"Sham":0,"Outcome":"+0","Keys":[],"TotalKeys":0,"Block":1,"Trial":21,"Valence":"Lose","Action":"No-Go","Robot":4,"trial_type":"pit-trial","trial_index":33,"time_elapsed":158295,"internal_node_id":"0.0-33.0"},{"Rune":"06","Correct":-1,"Choice":-1,"RT":-1,"Accuracy":1,"Sham":0,"Outcome":"+10","Keys":[],"TotalKeys":0,"Block":1,"Trial":22,"Valence":"Win","Action":"No-Go","Robot":2,"trial_type":"pit-trial","trial_index":34,"time_elapsed":162301,"internal_node_id":"0.0-34.0"},{"Rune":"04","Correct":32,"Choice":32,"RT":505.3750000006403,"Accuracy":1,"Sham":0,"Outcome":"+10","Keys":[2006.1050000003888],"TotalKeys":1,"Block":1,"Trial":23,"Valence":"Win","Action":"Go","Robot":1,"trial_type":"pit-trial","trial_index":35,"time_elapsed":165312,"internal_node_id":"0.0-35.0"},{"Rune":"05","Correct":32,"Choice":32,"RT":461.94000000105007,"Accuracy":1,"Sham":0,"Outcome":"+0","Keys":[1963.579999999638],"TotalKeys":1,"Block":1,"Trial":24,"Valence":"Lose","Action":"Go","Robot":3,"trial_type":"pit-trial","trial_index":36,"time_elapsed":168280,"internal_node_id":"0.0-36.0"},{"Rune":"03","Correct":-1,"Choice":-1,"RT":-1,"Accuracy":1,"Sham":0,"Outcome":"+0","Keys":[],"TotalKeys":0,"Block":1,"Trial":25,"Valence":"Lose","Action":"No-Go","Robot":4,"trial_type":"pit-trial","trial_index":37,"time_elapsed":172287,"internal_node_id":"0.0-37.0"},{"Rune":"04","Correct":32,"Choice":32,"RT":559.5649999995658,"Accuracy":1,"Sham":0,"Outcome":"+10","Keys":[2060.1300000016636],"TotalKeys":1,"Block":1,"Trial":26,"Valence":"Win","Action":"Go","Robot":1,"trial_type":"pit-trial","trial_index":38,"time_elapsed":175353,"internal_node_id":"0.0-38.0"},{"Rune":"05","Correct":32,"Choice":32,"RT":438.0399999972724,"Accuracy":1,"Sham":0,"Outcome":"+0","Keys":[1939.4350000002305],"TotalKeys":1,"Block":1,"Trial":27,"Valence":"Lose","Action":"Go","Robot":3,"trial_type":"pit-trial","trial_index":39,"time_elapsed":178298,"internal_node_id":"0.0-39.0"},{"Rune":"06","Correct":-1,"Choice":-1,"RT":-1,"Accuracy":1,"Sham":0,"Outcome":"+10","Keys":[],"TotalKeys":0,"Block":1,"Trial":28,"Valence":"Win","Action":"No-Go","Robot":2,"trial_type":"pit-trial","trial_index":40,"time_elapsed":182304,"internal_node_id":"0.0-40.0"},{"Rune":"05","Correct":32,"Choice":32,"RT":573.9600000015344,"Accuracy":1,"Sham":0,"Outcome":"+0","Keys":[2074.814999999944],"TotalKeys":1,"Block":1,"Trial":29,"Valence":"Lose","Action":"Go","Robot":3,"trial_type":"pit-trial","trial_index":41,"time_elapsed":185385,"internal_node_id":"0.0-41.0"},{"Rune":"06","Correct":-1,"Choice":-1,"RT":-1,"Accuracy":1,"Sham":1,"Outcome":"+0","Keys":[],"TotalKeys":0,"Block":1,"Trial":30,"Valence":"Win","Action":"No-Go","Robot":2,"trial_type":"pit-trial","trial_index":42,"time_elapsed":189391,"internal_node_id":"0.0-42.0"},{"Rune":"04","Correct":32,"Choice":32,"RT":464.37000000150874,"Accuracy":1,"Sham":1,"Outcome":"+0","Keys":[1965.3700000017125],"TotalKeys":1,"Block":1,"Trial":31,"Valence":"Win","Action":"Go","Robot":1,"trial_type":"pit-trial","trial_index":43,"time_elapsed":192361,"internal_node_id":"0.0-43.0"},{"Rune":"03","Correct":-1,"Choice":-1,"RT":-1,"Accuracy":1,"Sham":0,"Outcome":"+0","Keys":[],"TotalKeys":0,"Block":1,"Trial":32,"Valence":"Lose","Action":"No-Go","Robot":4,"trial_type":"pit-trial","trial_index":44,"time_elapsed":196367,"internal_node_id":"0.0-44.0"},{"Rune":"03","Correct":-1,"Choice":-1,"RT":-1,"Accuracy":1,"Sham":0,"Outcome":"+0","Keys":[],"TotalKeys":0,"Block":1,"Trial":33,"Valence":"Lose","Action":"No-Go","Robot":4,"trial_type":"pit-trial","trial_index":45,"time_elapsed":200372,"internal_node_id":"0.0-45.0"},{"Rune":"06","Correct":-1,"Choice":-1,"RT":-1,"Accuracy":1,"Sham":0,"Outcome":"+10","Keys":[],"TotalKeys":0,"Block":1,"Trial":34,"Valence":"Win","Action":"No-Go","Robot":2,"trial_type":"pit-trial","trial_index":46,"time_elapsed":204377,"internal_node_id":"0.0-46.0"},{"Rune":"04","Correct":32,"Choice":32,"RT":485.6099999997241,"Accuracy":1,"Sham":0,"Outcome":"+10","Keys":[1986.095000000205],"TotalKeys":1,"Block":1,"Trial":35,"Valence":"Win","Action":"Go","Robot":1,"trial_type":"pit-trial","trial_index":47,"time_elapsed":207368,"internal_node_id":"0.0-47.0"},{"Rune":"05","Correct":32,"Choice":32,"RT":565.7849999988684,"Accuracy":1,"Sham":1,"Outcome":"-10","Keys":[2067.4350000008417],"TotalKeys":1,"Block":1,"Trial":36,"Valence":"Lose","Action":"Go","Robot":3,"trial_type":"pit-trial","trial_index":48,"time_elapsed":210441,"internal_node_id":"0.0-48.0"},{"Rune":"03","Correct":-1,"Choice":-1,"RT":-1,"Accuracy":1,"Sham":1,"Outcome":"-10","Keys":[],"TotalKeys":0,"Block":1,"Trial":37,"Valence":"Lose","Action":"No-Go","Robot":4,"trial_type":"pit-trial","trial_index":49,"time_elapsed":214446,"internal_node_id":"0.0-49.0"},{"Rune":"05","Correct":32,"Choice":32,"RT":545.655000001716,"Accuracy":1,"Sham":0,"Outcome":"+0","Keys":[2045.6999999987602],"TotalKeys":1,"Block":1,"Trial":38,"Valence":"Lose","Action":"Go","Robot":3,"trial_type":"pit-trial","trial_index":50,"time_elapsed":217496,"internal_node_id":"0.0-50.0"},{"Rune":"04","Correct":32,"Choice":32,"RT":445.97000000067055,"Accuracy":1,"Sham":0,"Outcome":"+10","Keys":[1947.8149999995367],"TotalKeys":1,"Block":1,"Trial":39,"Valence":"Win","Action":"Go","Robot":1,"trial_type":"pit-trial","trial_index":51,"time_elapsed":220448,"internal_node_id":"0.0-51.0"},{"Rune":"06","Correct":-1,"Choice":-1,"RT":-1,"Accuracy":1,"Sham":0,"Outcome":"+10","Keys":[],"TotalKeys":0,"Block":1,"Trial":40,"Valence":"Win","Action":"No-Go","Robot":2,"trial_type":"pit-trial","trial_index":52,"time_elapsed":224454,"internal_node_id":"0.0-52.0"},{"Rune":"05","Correct":32,"Choice":32,"RT":457.2349999980361,"Accuracy":1,"Sham":1,"Outcome":"-10","Keys":[1957.8650000003108],"TotalKeys":1,"Block":1,"Trial":41,"Valence":"Lose","Action":"Go","Robot":3,"trial_type":"pit-trial","trial_index":53,"time_elapsed":227416,"internal_node_id":"0.0-53.0"},{"Rune":"06","Correct":-1,"Choice":-1,"RT":-1,"Accuracy":1,"Sham":0,"Outcome":"+10","Keys":[],"TotalKeys":0,"Block":1,"Trial":42,"Valence":"Win","Action":"No-Go","Robot":2,"trial_type":"pit-trial","trial_index":54,"time_elapsed":231421,"internal_node_id":"0.0-54.0"},{"Rune":"03","Correct":-1,"Choice":-1,"RT":-1,"Accuracy":1,"Sham":0,"Outcome":"+0","Keys":[],"TotalKeys":0,"Block":1,"Trial":43,"Valence":"Lose","Action":"No-Go","Robot":4,"trial_type":"pit-trial","trial_index":55,"time_elapsed":235426,"internal_node_id":"0.0-55.0"},{"Rune":"04","Correct":32,"Choice":32,"RT":421.2900000020454,"Accuracy":1,"Sham":0,"Outcome":"+10","Keys":[1921.5399999993679],"TotalKeys":1,"Block":1,"Trial":44,"Valence":"Win","Action":"Go","Robot":1,"trial_type":"pit-trial","trial_index":56,"time_elapsed":238352,"internal_node_id":"0.0-56.0"},{"Rune":"03","Correct":-1,"Choice":-1,"RT":-1,"Accuracy":1,"Sham":0,"Outcome":"+0","Keys":[],"TotalKeys":0,"Block":1,"Trial":45,"Valence":"Lose","Action":"No-Go","Robot":4,"trial_type":"pit-trial","trial_index":57,"time_elapsed":242359,"internal_node_id":"0.0-57.0"},{"Rune":"06","Correct":-1,"Choice":-1,"RT":-1,"Accuracy":1,"Sham":1,"Outcome":"+0","Keys":[],"TotalKeys":0,"Block":1,"Trial":46,"Valence":"Win","Action":"No-Go","Robot":2,"trial_type":"pit-trial","trial_index":58,"time_elapsed":246366,"internal_node_id":"0.0-58.0"},{"Rune":"05","Correct":32,"Choice":32,"RT":1008.415000000241,"Accuracy":1,"Sham":0,"Outcome":"+0","Keys":[2509.524999997666],"TotalKeys":1,"Block":1,"Trial":47,"Valence":"Lose","Action":"Go","Robot":3,"trial_type":"pit-trial","trial_index":59,"time_elapsed":249881,"internal_node_id":"0.0-59.0"},{"Rune":"04","Correct":32,"Choice":32,"RT":365.11500000051456,"Accuracy":1,"Sham":0,"Outcome":"+10","Keys":[1866.7999999997846],"TotalKeys":1,"Block":1,"Trial":48,"Valence":"Win","Action":"Go","Robot":1,"trial_type":"pit-trial","trial_index":60,"time_elapsed":252753,"internal_node_id":"0.0-60.0"},{"Rune":"03","Correct":-1,"Choice":-1,"RT":-1,"Accuracy":1,"Sham":0,"Outcome":"+0","Keys":[],"TotalKeys":0,"Block":1,"Trial":49,"Valence":"Lose","Action":"No-Go","Robot":4,"trial_type":"pit-trial","trial_index":61,"time_elapsed":256757,"internal_node_id":"0.0-61.0"},{"Rune":"04","Correct":32,"Choice":32,"RT":433.64999999903375,"Accuracy":1,"Sham":0,"Outcome":"+10","Keys":[1934.754999998404],"TotalKeys":1,"Block":1,"Trial":50,"Valence":"Win","Action":"Go","Robot":1,"trial_type":"pit-trial","trial_index":62,"time_elapsed":259697,"internal_node_id":"0.0-62.0"},{"Rune":"06","Correct":-1,"Choice":-1,"RT":-1,"Accuracy":1,"Sham":0,"Outcome":"+10","Keys":[],"TotalKeys":0,"Block":1,"Trial":51,"Valence":"Win","Action":"No-Go","Robot":2,"trial_type":"pit-trial","trial_index":63,"time_elapsed":263702,"internal_node_id":"0.0-63.0"},{"Rune":"05","Correct":32,"Choice":32,"RT":608.8449999988661,"Accuracy":1,"Sham":0,"Outcome":"+0","Keys":[2109.9949999989476],"TotalKeys":1,"Block":1,"Trial":52,"Valence":"Lose","Action":"Go","Robot":3,"trial_type":"pit-trial","trial_index":64,"time_elapsed":266818,"internal_node_id":"0.0-64.0"},{"Rune":"06","Correct":-1,"Choice":-1,"RT":-1,"Accuracy":1,"Sham":0,"Outcome":"+10","Keys":[],"TotalKeys":0,"Block":1,"Trial":53,"Valence":"Win","Action":"No-Go","Robot":2,"trial_type":"pit-trial","trial_index":65,"time_elapsed":270823,"internal_node_id":"0.0-65.0"},{"Rune":"05","Correct":32,"Choice":32,"RT":649.0300000004936,"Accuracy":1,"Sham":0,"Outcome":"+0","Keys":[2149.2550000002957],"TotalKeys":1,"Block":1,"Trial":54,"Valence":"Lose","Action":"Go","Robot":3,"trial_type":"pit-trial","trial_index":66,"time_elapsed":273977,"internal_node_id":"0.0-66.0"},{"Rune":"03","Correct":-1,"Choice":-1,"RT":-1,"Accuracy":1,"Sham":0,"Outcome":"+0","Keys":[],"TotalKeys":0,"Block":1,"Trial":55,"Valence":"Lose","Action":"No-Go","Robot":4,"trial_type":"pit-trial","trial_index":67,"time_elapsed":277981,"internal_node_id":"0.0-67.0"},{"Rune":"04","Correct":32,"Choice":32,"RT":442.2999999988242,"Accuracy":1,"Sham":0,"Outcome":"+10","Keys":[1942.575000000943],"TotalKeys":1,"Block":1,"Trial":56,"Valence":"Win","Action":"Go","Robot":1,"trial_type":"pit-trial","trial_index":68,"time_elapsed":280929,"internal_node_id":"0.0-68.0"},{"Rune":"04","Correct":32,"Choice":32,"RT":367.4350000001141,"Accuracy":1,"Sham":1,"Outcome":"+0","Keys":[1867.5699999985518],"TotalKeys":1,"Block":1,"Trial":57,"Valence":"Win","Action":"Go","Robot":1,"trial_type":"pit-trial","trial_index":69,"time_elapsed":283801,"internal_node_id":"0.0-69.0"},{"Rune":"05","Correct":32,"Choice":32,"RT":742.3100000014529,"Accuracy":1,"Sham":0,"Outcome":"+0","Keys":[2243.259999999311],"TotalKeys":1,"Block":1,"Trial":58,"Valence":"Lose","Action":"Go","Robot":3,"trial_type":"pit-trial","trial_index":70,"time_elapsed":287049,"internal_node_id":"0.0-70.0"},{"Rune":"03","Correct":-1,"Choice":-1,"RT":-1,"Accuracy":1,"Sham":1,"Outcome":"-10","Keys":[],"TotalKeys":0,"Block":1,"Trial":59,"Valence":"Lose","Action":"No-Go","Robot":4,"trial_type":"pit-trial","trial_index":71,"time_elapsed":291054,"internal_node_id":"0.0-71.0"},{"Rune":"06","Correct":-1,"Choice":-1,"RT":-1,"Accuracy":1,"Sham":0,"Outcome":"+10","Keys":[],"TotalKeys":0,"Block":1,"Trial":60,"Valence":"Win","Action":"No-Go","Robot":2,"trial_type":"pit-trial","trial_index":72,"time_elapsed":295060,"internal_node_id":"0.0-72.0"},{"Rune":"06","Correct":-1,"Choice":-1,"RT":-1,"Accuracy":1,"Sham":0,"Outcome":"+10","Keys":[],"TotalKeys":0,"Block":1,"Trial":61,"Valence":"Win","Action":"No-Go","Robot":2,"trial_type":"pit-trial","trial_index":73,"time_elapsed":299066,"internal_node_id":"0.0-73.0"},{"Rune":"05","Correct":32,"Choice":32,"RT":453.7799999998533,"Accuracy":1,"Sham":0,"Outcome":"+0","Keys":[1954.1800000006333],"TotalKeys":1,"Block":1,"Trial":62,"Valence":"Lose","Action":"Go","Robot":3,"trial_type":"pit-trial","trial_index":74,"time_elapsed":302026,"internal_node_id":"0.0-74.0"},{"Rune":"03","Correct":-1,"Choice":-1,"RT":-1,"Accuracy":1,"Sham":0,"Outcome":"+0","Keys":[],"TotalKeys":0,"Block":1,"Trial":63,"Valence":"Lose","Action":"No-Go","Robot":4,"trial_type":"pit-trial","trial_index":75,"time_elapsed":306031,"internal_node_id":"0.0-75.0"},{"Rune":"04","Correct":32,"Choice":32,"RT":400.8250000005937,"Accuracy":1,"Sham":0,"Outcome":"+10","Keys":[1901.0799999996088],"TotalKeys":1,"Block":1,"Trial":64,"Valence":"Win","Action":"Go","Robot":1,"trial_type":"pit-trial","trial_index":76,"time_elapsed":308936,"internal_node_id":"0.0-76.0"},{"Rune":"06","Correct":-1,"Choice":-1,"RT":-1,"Accuracy":1,"Sham":0,"Outcome":"+10","Keys":[],"TotalKeys":0,"Block":1,"Trial":65,"Valence":"Win","Action":"No-Go","Robot":2,"trial_type":"pit-trial","trial_index":77,"time_elapsed":312941,"internal_node_id":"0.0-77.0"},{"Rune":"03","Correct":-1,"Choice":-1,"RT":-1,"Accuracy":1,"Sham":0,"Outcome":"+0","Keys":[],"TotalKeys":0,"Block":1,"Trial":66,"Valence":"Lose","Action":"No-Go","Robot":4,"trial_type":"pit-trial","trial_index":78,"time_elapsed":316947,"internal_node_id":"0.0-78.0"},{"Rune":"04","Correct":32,"Choice":32,"RT":420.5949999996228,"Accuracy":1,"Sham":1,"Outcome":"+0","Keys":[1921.105000001262],"TotalKeys":1,"Block":1,"Trial":67,"Valence":"Win","Action":"Go","Robot":1,"trial_type":"pit-trial","trial_index":79,"time_elapsed":319873,"internal_node_id":"0.0-79.0"},{"Rune":"05","Correct":32,"Choice":32,"RT":477.84999999933643,"Accuracy":1,"Sham":0,"Outcome":"+0","Keys":[1979.2799999995623],"TotalKeys":1,"Block":1,"Trial":68,"Valence":"Lose","Action":"Go","Robot":3,"trial_type":"pit-trial","trial_index":80,"time_elapsed":322857,"internal_node_id":"0.0-80.0"},{"Rune":"03","Correct":-1,"Choice":-1,"RT":-1,"Accuracy":1,"Sham":1,"Outcome":"-10","Keys":[],"TotalKeys":0,"Block":1,"Trial":69,"Valence":"Lose","Action":"No-Go","Robot":4,"trial_type":"pit-trial","trial_index":81,"time_elapsed":326861,"internal_node_id":"0.0-81.0"},{"Rune":"05","Correct":32,"Choice":32,"RT":393.5349999992177,"Accuracy":1,"Sham":0,"Outcome":"+0","Keys":[1894.3550000003888],"TotalKeys":1,"Block":1,"Trial":70,"Valence":"Lose","Action":"Go","Robot":3,"trial_type":"pit-trial","trial_index":82,"time_elapsed":329760,"internal_node_id":"0.0-82.0"},{"Rune":"04","Correct":32,"Choice":32,"RT":342.6449999969918,"Accuracy":1,"Sham":0,"Outcome":"+10","Keys":[1843.5949999984587],"TotalKeys":1,"Block":1,"Trial":71,"Valence":"Win","Action":"Go","Robot":1,"trial_type":"pit-trial","trial_index":83,"time_elapsed":332608,"internal_node_id":"0.0-83.0"},{"Rune":"06","Correct":-1,"Choice":-1,"RT":-1,"Accuracy":1,"Sham":0,"Outcome":"+10","Keys":[],"TotalKeys":0,"Block":1,"Trial":72,"Valence":"Win","Action":"No-Go","Robot":2,"trial_type":"pit-trial","trial_index":84,"time_elapsed":336613,"internal_node_id":"0.0-84.0"},{"Rune":"06","Correct":-1,"Choice":-1,"RT":-1,"Accuracy":1,"Sham":0,"Outcome":"+10","Keys":[],"TotalKeys":0,"Block":1,"Trial":73,"Valence":"Win","Action":"No-Go","Robot":2,"trial_type":"pit-trial","trial_index":85,"time_elapsed":340618,"internal_node_id":"0.0-85.0"},{"Rune":"05","Correct":32,"Choice":32,"RT":757.7200000014273,"Accuracy":1,"Sham":1,"Outcome":"-10","Keys":[2257.949999999255],"TotalKeys":1,"Block":1,"Trial":74,"Valence":"Lose","Action":"Go","Robot":3,"trial_type":"pit-trial","trial_index":86,"time_elapsed":343880,"internal_node_id":"0.0-86.0"},{"Rune":"04","Correct":32,"Choice":32,"RT":447.9299999984214,"Accuracy":1,"Sham":0,"Outcome":"+10","Keys":[1948.0650000005262],"TotalKeys":1,"Block":1,"Trial":75,"Valence":"Win","Action":"Go","Robot":1,"trial_type":"pit-trial","trial_index":87,"time_elapsed":346832,"internal_node_id":"0.0-87.0"},{"Rune":"03","Correct":-1,"Choice":-1,"RT":-1,"Accuracy":1,"Sham":0,"Outcome":"+0","Keys":[],"TotalKeys":0,"Block":1,"Trial":76,"Valence":"Lose","Action":"No-Go","Robot":4,"trial_type":"pit-trial","trial_index":88,"time_elapsed":350838,"internal_node_id":"0.0-88.0"},{"Rune":"06","Correct":-1,"Choice":-1,"RT":-1,"Accuracy":1,"Sham":1,"Outcome":"+0","Keys":[],"TotalKeys":0,"Block":1,"Trial":77,"Valence":"Win","Action":"No-Go","Robot":2,"trial_type":"pit-trial","trial_index":89,"time_elapsed":354845,"internal_node_id":"0.0-89.0"},{"Rune":"04","Correct":32,"Choice":32,"RT":345.00499999924796,"Accuracy":1,"Sham":0,"Outcome":"+10","Keys":[1846.5500000020256],"TotalKeys":1,"Block":1,"Trial":78,"Valence":"Win","Action":"Go","Robot":1,"trial_type":"pit-trial","trial_index":90,"time_elapsed":357697,"internal_node_id":"0.0-90.0"},{"Rune":"03","Correct":-1,"Choice":-1,"RT":-1,"Accuracy":1,"Sham":0,"Outcome":"+0","Keys":[],"TotalKeys":0,"Block":1,"Trial":79,"Valence":"Lose","Action":"No-Go","Robot":4,"trial_type":"pit-trial","trial_index":91,"time_elapsed":361701,"internal_node_id":"0.0-91.0"},{"Rune":"05","Correct":32,"Choice":32,"RT":457.54500000108965,"Accuracy":1,"Sham":0,"Outcome":"+0","Keys":[1958.454999999958],"TotalKeys":1,"Block":1,"Trial":80,"Valence":"Lose","Action":"Go","Robot":3,"trial_type":"pit-trial","trial_index":92,"time_elapsed":364664,"internal_node_id":"0.0-92.0"},{"value":false,"trial_type":"call-function","trial_index":93,"time_elapsed":364668,"internal_node_id":"0.0-93.0"},{"RT":20206.054999998712,"trial_type":"pit-pause","trial_index":94,"time_elapsed":386336,"internal_node_id":"0.0-94.0"},{"Rune":"04","Correct":32,"Choice":32,"RT":556.9300000024377,"Accuracy":1,"Sham":0,"Outcome":"+10","Keys":[2058.404999999737],"TotalKeys":1,"Block":2,"Trial":81,"Valence":"Win","Action":"Go","Robot":1,"trial_type":"pit-trial","trial_index":95,"time_elapsed":389400,"internal_node_id":"0.0-95.0"},{"Rune":"06","Correct":-1,"Choice":-1,"RT":-1,"Accuracy":1,"Sham":0,"Outcome":"+10","Keys":[],"TotalKeys":0,"Block":2,"Trial":82,"Valence":"Win","Action":"No-Go","Robot":2,"trial_type":"pit-trial","trial_index":96,"time_elapsed":393406,"internal_node_id":"0.0-96.0"},{"Rune":"03","Correct":-1,"Choice":-1,"RT":-1,"Accuracy":1,"Sham":0,"Outcome":"+0","Keys":[],"TotalKeys":0,"Block":2,"Trial":83,"Valence":"Lose","Action":"No-Go","Robot":4,"trial_type":"pit-trial","trial_index":97,"time_elapsed":397411,"internal_node_id":"0.0-97.0"},{"Rune":"05","Correct":32,"Choice":32,"RT":556.0050000022165,"Accuracy":1,"Sham":0,"Outcome":"+0","Keys":[2056.609999999637],"TotalKeys":1,"Block":2,"Trial":84,"Valence":"Lose","Action":"Go","Robot":3,"trial_type":"pit-trial","trial_index":98,"time_elapsed":400472,"internal_node_id":"0.0-98.0"},{"Rune":"04","Correct":32,"Choice":32,"RT":255.2350000005099,"Accuracy":1,"Sham":0,"Outcome":"+10","Keys":[1755.8649999991758],"TotalKeys":1,"Block":2,"Trial":85,"Valence":"Win","Action":"Go","Robot":1,"trial_type":"pit-trial","trial_index":99,"time_elapsed":403232,"internal_node_id":"0.0-99.0"},{"Rune":"06","Correct":-1,"Choice":-1,"RT":-1,"Accuracy":1,"Sham":0,"Outcome":"+10","Keys":[],"TotalKeys":0,"Block":2,"Trial":86,"Valence":"Win","Action":"No-Go","Robot":2,"trial_type":"pit-trial","trial_index":100,"time_elapsed":407238,"internal_node_id":"0.0-100.0"},{"Rune":"05","Correct":32,"Choice":32,"RT":474.06499999848893,"Accuracy":1,"Sham":0,"Outcome":"+0","Keys":[1974.1549999998533],"TotalKeys":1,"Block":2,"Trial":87,"Valence":"Lose","Action":"Go","Robot":3,"trial_type":"pit-trial","trial_index":101,"time_elapsed":410216,"internal_node_id":"0.0-101.0"},{"Rune":"03","Correct":-1,"Choice":-1,"RT":-1,"Accuracy":1,"Sham":0,"Outcome":"+0","Keys":[],"TotalKeys":0,"Block":2,"Trial":88,"Valence":"Lose","Action":"No-Go","Robot":4,"trial_type":"pit-trial","trial_index":102,"time_elapsed":414223,"internal_node_id":"0.0-102.0"},{"Rune":"05","Correct":32,"Choice":32,"RT":672.6850000013364,"Accuracy":1,"Sham":1,"Outcome":"-10","Keys":[2173.155000000377],"TotalKeys":1,"Block":2,"Trial":89,"Valence":"Lose","Action":"Go","Robot":3,"trial_type":"pit-trial","trial_index":103,"time_elapsed":417400,"internal_node_id":"0.0-103.0"},{"Rune":"04","Correct":32,"Choice":32,"RT":512.2399999999907,"Accuracy":1,"Sham":1,"Outcome":"+0","Keys":[2012.5299999999697],"TotalKeys":1,"Block":2,"Trial":90,"Valence":"Win","Action":"Go","Robot":1,"trial_type":"pit-trial","trial_index":104,"time_elapsed":420416,"internal_node_id":"0.0-104.0"},{"Rune":"06","Correct":-1,"Choice":-1,"RT":-1,"Accuracy":1,"Sham":0,"Outcome":"+10","Keys":[],"TotalKeys":0,"Block":2,"Trial":91,"Valence":"Win","Action":"No-Go","Robot":2,"trial_type":"pit-trial","trial_index":105,"time_elapsed":424420,"internal_node_id":"0.0-105.0"},{"Rune":"03","Correct":-1,"Choice":-1,"RT":-1,"Accuracy":1,"Sham":0,"Outcome":"+0","Keys":[],"TotalKeys":0,"Block":2,"Trial":92,"Valence":"Lose","Action":"No-Go","Robot":4,"trial_type":"pit-trial","trial_index":106,"time_elapsed":428426,"internal_node_id":"0.0-106.0"},{"Rune":"03","Correct":-1,"Choice":-1,"RT":-1,"Accuracy":1,"Sham":0,"Outcome":"+0","Keys":[],"TotalKeys":0,"Block":2,"Trial":93,"Valence":"Lose","Action":"No-Go","Robot":4,"trial_type":"pit-trial","trial_index":107,"time_elapsed":432430,"internal_node_id":"0.0-107.0"},{"Rune":"04","Correct":32,"Choice":32,"RT":432.5849999986822,"Accuracy":1,"Sham":0,"Outcome":"+10","Keys":[1933.4899999994668],"TotalKeys":1,"Block":2,"Trial":94,"Valence":"Win","Action":"Go","Robot":1,"trial_type":"pit-trial","trial_index":108,"time_elapsed":435368,"internal_node_id":"0.0-108.0"},{"Rune":"05","Correct":32,"Choice":32,"RT":447.94499999983236,"Accuracy":1,"Sham":0,"Outcome":"+0","Keys":[1948.209999998624],"TotalKeys":1,"Block":2,"Trial":95,"Valence":"Lose","Action":"Go","Robot":3,"trial_type":"pit-trial","trial_index":109,"time_elapsed":438321,"internal_node_id":"0.0-109.0"},{"Rune":"06","Correct":-1,"Choice":-1,"RT":-1,"Accuracy":1,"Sham":1,"Outcome":"+0","Keys":[],"TotalKeys":0,"Block":2,"Trial":96,"Valence":"Win","Action":"No-Go","Robot":2,"trial_type":"pit-trial","trial_index":110,"time_elapsed":442327,"internal_node_id":"0.0-110.0"},{"Rune":"03","Correct":-1,"Choice":-1,"RT":-1,"Accuracy":1,"Sham":1,"Outcome":"-10","Keys":[],"TotalKeys":0,"Block":2,"Trial":97,"Valence":"Lose","Action":"No-Go","Robot":4,"trial_type":"pit-trial","trial_index":111,"time_elapsed":446336,"internal_node_id":"0.0-111.0"},{"Rune":"04","Correct":32,"Choice":32,"RT":783.9350000031409,"Accuracy":1,"Sham":0,"Outcome":"+10","Keys":[2284.2650000021094],"TotalKeys":1,"Block":2,"Trial":98,"Valence":"Win","Action":"Go","Robot":1,"trial_type":"pit-trial","trial_index":112,"time_elapsed":449624,"internal_node_id":"0.0-112.0"},{"Rune":"05","Correct":32,"Choice":32,"RT":774.199999999837,"Accuracy":1,"Sham":0,"Outcome":"+0","Keys":[2275.934999997844],"TotalKeys":1,"Block":2,"Trial":99,"Valence":"Lose","Action":"Go","Robot":3,"trial_type":"pit-trial","trial_index":113,"time_elapsed":452905,"internal_node_id":"0.0-113.0"},{"Rune":"06","Correct":-1,"Choice":-1,"RT":-1,"Accuracy":1,"Sham":0,"Outcome":"+10","Keys":[],"TotalKeys":0,"Block":2,"Trial":100,"Valence":"Win","Action":"No-Go","Robot":2,"trial_type":"pit-trial","trial_index":114,"time_elapsed":456910,"internal_node_id":"0.0-114.0"},{"Rune":"03","Correct":-1,"Choice":-1,"RT":-1,"Accuracy":1,"Sham":0,"Outcome":"+0","Keys":[],"TotalKeys":0,"Block":2,"Trial":101,"Valence":"Lose","Action":"No-Go","Robot":4,"trial_type":"pit-trial","trial_index":115,"time_elapsed":460916,"internal_node_id":"0.0-115.0"},{"Rune":"05","Correct":32,"Choice":32,"RT":419.9049999988056,"Accuracy":1,"Sham":0,"Outcome":"+0","Keys":[1920.3150000030873],"TotalKeys":1,"Block":2,"Trial":102,"Valence":"Lose","Action":"Go","Robot":3,"trial_type":"pit-trial","trial_index":116,"time_elapsed":463840,"internal_node_id":"0.0-116.0"},{"Rune":"04","Correct":32,"Choice":32,"RT":487.1950000015786,"Accuracy":1,"Sham":1,"Outcome":"+0","Keys":[1987.9150000015507],"TotalKeys":1,"Block":2,"Trial":103,"Valence":"Win","Action":"Go","Robot":1,"trial_type":"pit-trial","trial_index":117,"time_elapsed":466832,"internal_node_id":"0.0-117.0"},{"Rune":"06","Correct":-1,"Choice":-1,"RT":-1,"Accuracy":1,"Sham":1,"Outcome":"+0","Keys":[],"TotalKeys":0,"Block":2,"Trial":104,"Valence":"Win","Action":"No-Go","Robot":2,"trial_type":"pit-trial","trial_index":118,"time_elapsed":470837,"internal_node_id":"0.0-118.0"},{"Rune":"05","Correct":32,"Choice":32,"RT":690.7150000006077,"Accuracy":1,"Sham":0,"Outcome":"+0","Keys":[2191.240000000107],"TotalKeys":1,"Block":2,"Trial":105,"Valence":"Lose","Action":"Go","Robot":3,"trial_type":"pit-trial","trial_index":119,"time_elapsed":474033,"internal_node_id":"0.0-119.0"},{"Rune":"04","Correct":32,"Choice":32,"RT":374.244999999064,"Accuracy":1,"Sham":0,"Outcome":"+10","Keys":[1874.9749999988126],"TotalKeys":1,"Block":2,"Trial":106,"Valence":"Win","Action":"Go","Robot":1,"trial_type":"pit-trial","trial_index":120,"time_elapsed":476912,"internal_node_id":"0.0-120.0"},{"Rune":"06","Correct":-1,"Choice":-1,"RT":-1,"Accuracy":1,"Sham":0,"Outcome":"+10","Keys":[],"TotalKeys":0,"Block":2,"Trial":107,"Valence":"Win","Action":"No-Go","Robot":2,"trial_type":"pit-trial","trial_index":121,"time_elapsed":480917,"internal_node_id":"0.0-121.0"},{"Rune":"03","Correct":-1,"Choice":-1,"RT":-1,"Accuracy":1,"Sham":0,"Outcome":"+0","Keys":[],"TotalKeys":0,"Block":2,"Trial":108,"Valence":"Lose","Action":"No-Go","Robot":4,"trial_type":"pit-trial","trial_index":122,"time_elapsed":484922,"internal_node_id":"0.0-122.0"},{"Rune":"06","Correct":-1,"Choice":-1,"RT":-1,"Accuracy":1,"Sham":0,"Outcome":"+10","Keys":[],"TotalKeys":0,"Block":2,"Trial":109,"Valence":"Win","Action":"No-Go","Robot":2,"trial_type":"pit-trial","trial_index":123,"time_elapsed":488927,"internal_node_id":"0.0-123.0"},{"Rune":"03","Correct":-1,"Choice":-1,"RT":-1,"Accuracy":1,"Sham":0,"Outcome":"+0","Keys":[],"TotalKeys":0,"Block":2,"Trial":110,"Valence":"Lose","Action":"No-Go","Robot":4,"trial_type":"pit-trial","trial_index":124,"time_elapsed":492933,"internal_node_id":"0.0-124.0"},{"Rune":"04","Correct":32,"Choice":32,"RT":370.5550000013318,"Accuracy":1,"Sham":0,"Outcome":"+10","Keys":[1870.9349999990081],"TotalKeys":1,"Block":2,"Trial":111,"Valence":"Win","Action":"Go","Robot":1,"trial_type":"pit-trial","trial_index":125,"time_elapsed":495808,"internal_node_id":"0.0-125.0"},{"Rune":"05","Correct":32,"Choice":32,"RT":382.15499999932945,"Accuracy":1,"Sham":0,"Outcome":"+0","Keys":[1883.6599999995087],"TotalKeys":1,"Block":2,"Trial":112,"Valence":"Lose","Action":"Go","Robot":3,"trial_type":"pit-trial","trial_index":126,"time_elapsed":498696,"internal_node_id":"0.0-126.0"},{"Rune":"06","Correct":-1,"Choice":-1,"RT":-1,"Accuracy":1,"Sham":0,"Outcome":"+10","Keys":[],"TotalKeys":0,"Block":2,"Trial":113,"Valence":"Win","Action":"No-Go","Robot":2,"trial_type":"pit-trial","trial_index":127,"time_elapsed":502701,"internal_node_id":"0.0-127.0"},{"Rune":"03","Correct":-1,"Choice":-1,"RT":-1,"Accuracy":1,"Sham":0,"Outcome":"+0","Keys":[],"TotalKeys":0,"Block":2,"Trial":114,"Valence":"Lose","Action":"No-Go","Robot":4,"trial_type":"pit-trial","trial_index":128,"time_elapsed":506707,"internal_node_id":"0.0-128.0"},{"Rune":"05","Correct":32,"Choice":32,"RT":388.9500000005355,"Accuracy":1,"Sham":1,"Outcome":"-10","Keys":[1889.0150000006543],"TotalKeys":1,"Block":2,"Trial":115,"Valence":"Lose","Action":"Go","Robot":3,"trial_type":"pit-trial","trial_index":129,"time_elapsed":509601,"internal_node_id":"0.0-129.0"},{"Rune":"04","Correct":32,"Choice":32,"RT":670.9349999983096,"Accuracy":1,"Sham":0,"Outcome":"+10","Keys":[2171.4199999987613],"TotalKeys":1,"Block":2,"Trial":116,"Valence":"Win","Action":"Go","Robot":1,"trial_type":"pit-trial","trial_index":130,"time_elapsed":512777,"internal_node_id":"0.0-130.0"},{"Rune":"03","Correct":-1,"Choice":-1,"RT":-1,"Accuracy":1,"Sham":1,"Outcome":"-10","Keys":[],"TotalKeys":0,"Block":2,"Trial":117,"Valence":"Lose","Action":"No-Go","Robot":4,"trial_type":"pit-trial","trial_index":131,"time_elapsed":516782,"internal_node_id":"0.0-131.0"},{"Rune":"05","Correct":32,"Choice":32,"RT":400.1600000010221,"Accuracy":1,"Sham":0,"Outcome":"+0","Keys":[1902.0000000018626],"TotalKeys":1,"Block":2,"Trial":118,"Valence":"Lose","Action":"Go","Robot":3,"trial_type":"pit-trial","trial_index":132,"time_elapsed":519689,"internal_node_id":"0.0-132.0"},{"Rune":"06","Correct":-1,"Choice":-1,"RT":-1,"Accuracy":1,"Sham":0,"Outcome":"+10","Keys":[],"TotalKeys":0,"Block":2,"Trial":119,"Valence":"Win","Action":"No-Go","Robot":2,"trial_type":"pit-trial","trial_index":133,"time_elapsed":523694,"internal_node_id":"0.0-133.0"},{"Rune":"04","Correct":32,"Choice":32,"RT":368.78000000072643,"Accuracy":1,"Sham":0,"Outcome":"+10","Keys":[1869.409999999334],"TotalKeys":1,"Block":2,"Trial":120,"Valence":"Win","Action":"Go","Robot":1,"trial_type":"pit-trial","trial_index":134,"time_elapsed":526568,"internal_node_id":"0.0-134.0"},{"Rune":"06","Correct":-1,"Choice":-1,"RT":-1,"Accuracy":1,"Sham":0,"Outcome":"+10","Keys":[],"TotalKeys":0,"Block":2,"Trial":121,"Valence":"Win","Action":"No-Go","Robot":2,"trial_type":"pit-trial","trial_index":135,"time_elapsed":530573,"internal_node_id":"0.0-135.0"},{"Rune":"03","Correct":-1,"Choice":-1,"RT":-1,"Accuracy":1,"Sham":0,"Outcome":"+0","Keys":[],"TotalKeys":0,"Block":2,"Trial":122,"Valence":"Lose","Action":"No-Go","Robot":4,"trial_type":"pit-trial","trial_index":136,"time_elapsed":534578,"internal_node_id":"0.0-136.0"},{"Rune":"05","Correct":32,"Choice":32,"RT":341.6799999977229,"Accuracy":1,"Sham":0,"Outcome":"+0","Keys":[1842.2050000008894],"TotalKeys":1,"Block":2,"Trial":123,"Valence":"Lose","Action":"Go","Robot":3,"trial_type":"pit-trial","trial_index":137,"time_elapsed":537425,"internal_node_id":"0.0-137.0"},{"Rune":"04","Correct":32,"Choice":32,"RT":751.0550000006333,"Accuracy":1,"Sham":1,"Outcome":"+0","Keys":[2251.29999999993],"TotalKeys":1,"Block":2,"Trial":124,"Valence":"Win","Action":"Go","Robot":1,"trial_type":"pit-trial","trial_index":138,"time_elapsed":540680,"internal_node_id":"0.0-138.0"},{"Rune":"05","Correct":32,"Choice":32,"RT":421.51000000024214,"Accuracy":1,"Sham":1,"Outcome":"-10","Keys":[1923.5399999998044],"TotalKeys":1,"Block":2,"Trial":125,"Valence":"Lose","Action":"Go","Robot":3,"trial_type":"pit-trial","trial_index":139,"time_elapsed":543608,"internal_node_id":"0.0-139.0"},{"Rune":"03","Correct":-1,"Choice":-1,"RT":-1,"Accuracy":1,"Sham":0,"Outcome":"+0","Keys":[],"TotalKeys":0,"Block":2,"Trial":126,"Valence":"Lose","Action":"No-Go","Robot":4,"trial_type":"pit-trial","trial_index":140,"time_elapsed":547614,"internal_node_id":"0.0-140.0"},{"Rune":"06","Correct":-1,"Choice":-1,"RT":-1,"Accuracy":1,"Sham":0,"Outcome":"+10","Keys":[],"TotalKeys":0,"Block":2,"Trial":127,"Valence":"Win","Action":"No-Go","Robot":2,"trial_type":"pit-trial","trial_index":141,"time_elapsed":551619,"internal_node_id":"0.0-141.0"},{"Rune":"04","Correct":32,"Choice":32,"RT":965.2300000016112,"Accuracy":1,"Sham":0,"Outcome":"+10","Keys":[2465.3499999985797],"TotalKeys":1,"Block":2,"Trial":128,"Valence":"Win","Action":"Go","Robot":1,"trial_type":"pit-trial","trial_index":142,"time_elapsed":555089,"internal_node_id":"0.0-142.0"},{"Rune":"03","Correct":-1,"Choice":-1,"RT":-1,"Accuracy":1,"Sham":0,"Outcome":"+0","Keys":[],"TotalKeys":0,"Block":2,"Trial":129,"Valence":"Lose","Action":"No-Go","Robot":4,"trial_type":"pit-trial","trial_index":143,"time_elapsed":559093,"internal_node_id":"0.0-143.0"},{"Rune":"04","Correct":32,"Choice":32,"RT":346.44500000285916,"Accuracy":1,"Sham":0,"Outcome":"+10","Keys":[1846.5899999974063],"TotalKeys":1,"Block":2,"Trial":130,"Valence":"Win","Action":"Go","Robot":1,"trial_type":"pit-trial","trial_index":144,"time_elapsed":561945,"internal_node_id":"0.0-144.0"},{"Rune":"05","Correct":32,"Choice":32,"RT":526.0099999977974,"Accuracy":1,"Sham":0,"Outcome":"+0","Keys":[2027.4500000013504],"TotalKeys":1,"Block":2,"Trial":131,"Valence":"Lose","Action":"Go","Robot":3,"trial_type":"pit-trial","trial_index":145,"time_elapsed":564976,"internal_node_id":"0.0-145.0"},{"Rune":"06","Correct":-1,"Choice":-1,"RT":-1,"Accuracy":1,"Sham":0,"Outcome":"+10","Keys":[],"TotalKeys":0,"Block":2,"Trial":132,"Valence":"Win","Action":"No-Go","Robot":2,"trial_type":"pit-trial","trial_index":146,"time_elapsed":568981,"internal_node_id":"0.0-146.0"},{"Rune":"03","Correct":-1,"Choice":-1,"RT":-1,"Accuracy":1,"Sham":0,"Outcome":"+0","Keys":[],"TotalKeys":0,"Block":2,"Trial":133,"Valence":"Lose","Action":"No-Go","Robot":4,"trial_type":"pit-trial","trial_index":147,"time_elapsed":572986,"internal_node_id":"0.0-147.0"},{"Rune":"04","Correct":32,"Choice":32,"RT":405.55999999912456,"Accuracy":1,"Sham":0,"Outcome":"+10","Keys":[1906.1000000000931],"TotalKeys":1,"Block":2,"Trial":134,"Valence":"Win","Action":"Go","Robot":1,"trial_type":"pit-trial","trial_index":148,"time_elapsed":575896,"internal_node_id":"0.0-148.0"},{"Rune":"05","Correct":32,"Choice":32,"RT":655.7749999993248,"Accuracy":1,"Sham":0,"Outcome":"+0","Keys":[2156.034999999916],"TotalKeys":1,"Block":2,"Trial":135,"Valence":"Lose","Action":"Go","Robot":3,"trial_type":"pit-trial","trial_index":149,"time_elapsed":579056,"internal_node_id":"0.0-149.0"},{"Rune":"06","Correct":-1,"Choice":-1,"RT":-1,"Accuracy":1,"Sham":0,"Outcome":"+10","Keys":[],"TotalKeys":0,"Block":2,"Trial":136,"Valence":"Win","Action":"No-Go","Robot":2,"trial_type":"pit-trial","trial_index":150,"time_elapsed":583063,"internal_node_id":"0.0-150.0"},{"Rune":"03","Correct":-1,"Choice":-1,"RT":-1,"Accuracy":1,"Sham":1,"Outcome":"-10","Keys":[],"TotalKeys":0,"Block":2,"Trial":137,"Valence":"Lose","Action":"No-Go","Robot":4,"trial_type":"pit-trial","trial_index":151,"time_elapsed":587071,"internal_node_id":"0.0-151.0"},{"Rune":"04","Correct":32,"Choice":32,"RT":351.81500000180677,"Accuracy":1,"Sham":0,"Outcome":"+10","Keys":[1853.1050000019604],"TotalKeys":1,"Block":2,"Trial":138,"Valence":"Win","Action":"Go","Robot":1,"trial_type":"pit-trial","trial_index":152,"time_elapsed":589928,"internal_node_id":"0.0-152.0"},{"Rune":"05","Correct":32,"Choice":32,"RT":303.4800000023097,"Accuracy":1,"Sham":0,"Outcome":"+0","Keys":[1803.9349999999395],"TotalKeys":1,"Block":2,"Trial":139,"Valence":"Lose","Action":"Go","Robot":3,"trial_type":"pit-trial","trial_index":153,"time_elapsed":592736,"internal_node_id":"0.0-153.0"},{"Rune":"06","Correct":-1,"Choice":-1,"RT":-1,"Accuracy":1,"Sham":1,"Outcome":"+0","Keys":[],"TotalKeys":0,"Block":2,"Trial":140,"Valence":"Win","Action":"No-Go","Robot":2,"trial_type":"pit-trial","trial_index":154,"time_elapsed":596741,"internal_node_id":"0.0-154.0"},{"Rune":"06","Correct":-1,"Choice":-1,"RT":-1,"Accuracy":1,"Sham":1,"Outcome":"+0","Keys":[],"TotalKeys":0,"Block":2,"Trial":141,"Valence":"Win","Action":"No-Go","Robot":2,"trial_type":"pit-trial","trial_index":155,"time_elapsed":600747,"internal_node_id":"0.0-155.0"},{"Rune":"05","Correct":32,"Choice":32,"RT":356.54000000061933,"Accuracy":1,"Sham":0,"Outcome":"+0","Keys":[1857.1950000005309],"TotalKeys":1,"Block":2,"Trial":142,"Valence":"Lose","Action":"Go","Robot":3,"trial_type":"pit-trial","trial_index":156,"time_elapsed":603608,"internal_node_id":"0.0-156.0"},{"Rune":"04","Correct":32,"Choice":32,"RT":319.70000000006985,"Accuracy":1,"Sham":0,"Outcome":"+10","Keys":[1819.9050000003772],"TotalKeys":1,"Block":2,"Trial":143,"Valence":"Win","Action":"Go","Robot":1,"trial_type":"pit-trial","trial_index":157,"time_elapsed":606432,"internal_node_id":"0.0-157.0"},{"Rune":"03","Correct":-1,"Choice":-1,"RT":-1,"Accuracy":1,"Sham":0,"Outcome":"+0","Keys":[],"TotalKeys":0,"Block":2,"Trial":144,"Valence":"Lose","Action":"No-Go","Robot":4,"trial_type":"pit-trial","trial_index":158,"time_elapsed":610437,"internal_node_id":"0.0-158.0"},{"Rune":"03","Correct":-1,"Choice":-1,"RT":-1,"Accuracy":1,"Sham":0,"Outcome":"+0","Keys":[],"TotalKeys":0,"Block":2,"Trial":145,"Valence":"Lose","Action":"No-Go","Robot":4,"trial_type":"pit-trial","trial_index":159,"time_elapsed":614442,"internal_node_id":"0.0-159.0"},{"Rune":"04","Correct":32,"Choice":32,"RT":453.89000000059605,"Accuracy":1,"Sham":0,"Outcome":"+10","Keys":[1954.574999999837],"TotalKeys":1,"Block":2,"Trial":146,"Valence":"Win","Action":"Go","Robot":1,"trial_type":"pit-trial","trial_index":160,"time_elapsed":617402,"internal_node_id":"0.0-160.0"},{"Rune":"05","Correct":32,"Choice":32,"RT":494.2350000018487,"Accuracy":1,"Sham":0,"Outcome":"+0","Keys":[1994.3200000015786],"TotalKeys":1,"Block":2,"Trial":147,"Valence":"Lose","Action":"Go","Robot":3,"trial_type":"pit-trial","trial_index":161,"time_elapsed":620400,"internal_node_id":"0.0-161.0"},{"Rune":"06","Correct":-1,"Choice":-1,"RT":-1,"Accuracy":1,"Sham":0,"Outcome":"+10","Keys":[],"TotalKeys":0,"Block":2,"Trial":148,"Valence":"Win","Action":"No-Go","Robot":2,"trial_type":"pit-trial","trial_index":162,"time_elapsed":624406,"internal_node_id":"0.0-162.0"},{"Rune":"06","Correct":-1,"Choice":-1,"RT":-1,"Accuracy":1,"Sham":0,"Outcome":"+10","Keys":[],"TotalKeys":0,"Block":2,"Trial":149,"Valence":"Win","Action":"No-Go","Robot":2,"trial_type":"pit-trial","trial_index":163,"time_elapsed":628411,"internal_node_id":"0.0-163.0"},{"Rune":"03","Correct":-1,"Choice":-1,"RT":-1,"Accuracy":1,"Sham":0,"Outcome":"+0","Keys":[],"TotalKeys":0,"Block":2,"Trial":150,"Valence":"Lose","Action":"No-Go","Robot":4,"trial_type":"pit-trial","trial_index":164,"time_elapsed":632417,"internal_node_id":"0.0-164.0"},{"Rune":"05","Correct":32,"Choice":32,"RT":398.7650000017602,"Accuracy":1,"Sham":0,"Outcome":"+0","Keys":[1898.9699999983422],"TotalKeys":1,"Block":2,"Trial":151,"Valence":"Lose","Action":"Go","Robot":3,"trial_type":"pit-trial","trial_index":165,"time_elapsed":635320,"internal_node_id":"0.0-165.0"},{"Rune":"04","Correct":32,"Choice":32,"RT":495.39499999803957,"Accuracy":1,"Sham":0,"Outcome":"+10","Keys":[1996.044999999809],"TotalKeys":1,"Block":2,"Trial":152,"Valence":"Win","Action":"Go","Robot":1,"trial_type":"pit-trial","trial_index":166,"time_elapsed":638320,"internal_node_id":"0.0-166.0"},{"Rune":"04","Correct":32,"Choice":32,"RT":461.99500000150874,"Accuracy":1,"Sham":0,"Outcome":"+10","Keys":[1962.8950000006007],"TotalKeys":1,"Block":2,"Trial":153,"Valence":"Win","Action":"Go","Robot":1,"trial_type":"pit-trial","trial_index":167,"time_elapsed":641289,"internal_node_id":"0.0-167.0"},{"Rune":"03","Correct":-1,"Choice":-1,"RT":-1,"Accuracy":1,"Sham":0,"Outcome":"+0","Keys":[],"TotalKeys":0,"Block":2,"Trial":154,"Valence":"Lose","Action":"No-Go","Robot":4,"trial_type":"pit-trial","trial_index":168,"time_elapsed":645296,"internal_node_id":"0.0-168.0"},{"Rune":"05","Correct":32,"Choice":32,"RT":528.07499999844,"Accuracy":1,"Sham":0,"Outcome":"+0","Keys":[2028.3550000023097],"TotalKeys":1,"Block":2,"Trial":155,"Valence":"Lose","Action":"Go","Robot":3,"trial_type":"pit-trial","trial_index":169,"time_elapsed":648329,"internal_node_id":"0.0-169.0"},{"Rune":"06","Correct":-1,"Choice":-1,"RT":-1,"Accuracy":1,"Sham":0,"Outcome":"+10","Keys":[],"TotalKeys":0,"Block":2,"Trial":156,"Valence":"Win","Action":"No-Go","Robot":2,"trial_type":"pit-trial","trial_index":170,"time_elapsed":652336,"internal_node_id":"0.0-170.0"},{"Rune":"05","Correct":32,"Choice":32,"RT":415.8099999985425,"Accuracy":1,"Sham":1,"Outcome":"-10","Keys":[1915.9399999990128],"TotalKeys":1,"Block":2,"Trial":157,"Valence":"Lose","Action":"Go","Robot":3,"trial_type":"pit-trial","trial_index":171,"time_elapsed":655256,"internal_node_id":"0.0-171.0"},{"Rune":"03","Correct":-1,"Choice":-1,"RT":-1,"Accuracy":1,"Sham":1,"Outcome":"-10","Keys":[],"TotalKeys":0,"Block":2,"Trial":158,"Valence":"Lose","Action":"No-Go","Robot":4,"trial_type":"pit-trial","trial_index":172,"time_elapsed":659261,"internal_node_id":"0.0-172.0"},{"Rune":"06","Correct":-1,"Choice":-1,"RT":-1,"Accuracy":1,"Sham":0,"Outcome":"+10","Keys":[],"TotalKeys":0,"Block":2,"Trial":159,"Valence":"Win","Action":"No-Go","Robot":2,"trial_type":"pit-trial","trial_index":173,"time_elapsed":663266,"internal_node_id":"0.0-173.0"},{"Rune":"04","Correct":32,"Choice":32,"RT":380.56499999947846,"Accuracy":1,"Sham":1,"Outcome":"+0","Keys":[1882.084999997518],"TotalKeys":1,"Block":2,"Trial":160,"Valence":"Win","Action":"Go","Robot":1,"trial_type":"pit-trial","trial_index":174,"time_elapsed":666153,"internal_node_id":"0.0-174.0"},{"rt":19347.37000000314,"demographics":{"age":"29","gender-categorical":"Male","ethnicity":"Not Hispanic or Latino","race":"White","english":"Yes","fluency":"Very well"},"trial_type":"survey-demo","trial_index":175,"time_elapsed":685505,"internal_node_id":"0.0-175.0"},{"rt":29643.59500000137,"debriefgraphics":{"difficulty":"5","fun":"2","clarity":"5","strategy":"No i just recognized which were the most likely correct and incorrect symbols","feedback":"No"},"trial_type":"survey-debrief","trial_index":176,"time_elapsed":715153,"internal_node_id":"0.0-176.0","interactions":"[{\"event\":\"blur\",\"trial\":94,\"time\":377664},{\"event\":\"focus\",\"trial\":94,\"time\":384867}]"}]