[{"view_history":"[{\"page_index\":0,\"viewing_time\":21635.4050000009},{\"page_index\":1,\"viewing_time\":3515.6500000011874},{\"page_index\":2,\"viewing_time\":5381.26000000193},{\"page_index\":3,\"viewing_time\":7080.8149999938905},{\"page_index\":4,\"viewing_time\":5422.955000001821}]","rt":43038.12499999913,"trial_type":"pit-instructions","trial_index":0,"time_elapsed":43043,"internal_node_id":"0.0-0.0"},{"Correct":32,"Choice":32,"RT":49.910000001545995,"Accuracy":1,"Sham":0,"Outcome":1,"trial_type":"pit-trial","trial_index":1,"time_elapsed":45605,"internal_node_id":"0.0-1.0"},{"Correct":32,"Choice":32,"RT":480.7500000024447,"Accuracy":1,"Sham":0,"Outcome":1,"trial_type":"pit-trial","trial_index":2,"time_elapsed":48599,"internal_node_id":"0.0-2.0"},{"Correct":32,"Choice":32,"RT":81.51999999972759,"Accuracy":1,"Sham":0,"Outcome":1,"trial_type":"pit-trial","trial_index":3,"time_elapsed":51191,"internal_node_id":"0.0-3.0"},{"Correct":32,"Choice":32,"RT":346.2599999984377,"Accuracy":1,"Sham":0,"Outcome":1,"trial_type":"pit-trial","trial_index":4,"time_elapsed":54044,"internal_node_id":"0.0-4.0"},{"view_history":"[{\"page_index\":0,\"viewing_time\":4985.430000000633}]","rt":4986.355000000913,"trial_type":"pit-instructions","trial_index":5,"time_elapsed":59033,"internal_node_id":"0.0-5.0"},{"Correct":-1,"Choice":-1,"RT":-1,"Accuracy":1,"Sham":0,"Outcome":1,"trial_type":"pit-trial","trial_index":6,"time_elapsed":63051,"internal_node_id":"0.0-6.0"},{"Correct":-1,"Choice":-1,"RT":-1,"Accuracy":1,"Sham":0,"Outcome":1,"trial_type":"pit-trial","trial_index":7,"time_elapsed":67061,"internal_node_id":"0.0-7.0"},{"Correct":-1,"Choice":32,"RT":73.96499999595108,"Accuracy":0,"Sham":0,"Outcome":0,"trial_type":"pit-trial","trial_index":8,"time_elapsed":69647,"internal_node_id":"0.0-8.0"},{"Correct":-1,"Choice":-1,"RT":-1,"Accuracy":1,"Sham":0,"Outcome":1,"trial_type":"pit-trial","trial_index":9,"time_elapsed":73661,"internal_node_id":"0.0-9.0"},{"view_history":"[{\"page_index\":0,\"viewing_time\":3400.825000004261},{\"page_index\":1,\"viewing_time\":6128.544999999576},{\"page_index\":2,\"viewing_time\":2034.574999997858},{\"page_index\":3,\"viewing_time\":6080.565000003844},{\"page_index\":4,\"viewing_time\":3431.284999998752},{\"page_index\":5,\"viewing_time\":5875.1849999971455},{\"page_index\":6,\"viewing_time\":3650.2200000031735},{\"page_index\":7,\"viewing_time\":2500.9050000007846}]","rt":33103.02500000398,"trial_type":"pit-instructions","trial_index":10,"time_elapsed":106769,"internal_node_id":"0.0-10.0"},{"rt":26413.06999999506,"responses":"{\"no-press\":\"Do nothing\",\"probability\":\"0\",\"bonus\":\"True\"}","errors":1,"trial_type":"pit-comprehension","trial_index":11,"time_elapsed":133201,"internal_node_id":"0.0-11.0"},{"view_history":"[{\"page_index\":0,\"viewing_time\":4555.144999998447}]","rt":4556.584999998449,"trial_type":"pit-instructions","trial_index":12,"time_elapsed":137767,"internal_node_id":"0.0-12.0"},{"Correct":-1,"Choice":32,"RT":529.7449999998207,"Accuracy":0,"Sham":0,"Outcome":0,"Block":1,"Trial":1,"Valence":"Win","Action":"No-Go","trial_type":"pit-trial","trial_index":13,"time_elapsed":140806,"internal_node_id":"0.0-13.0"},{"Correct":32,"Choice":32,"RT":524.7650000019348,"Accuracy":1,"Sham":0,"Outcome":0,"Block":1,"Trial":2,"Valence":"Lose","Action":"Go","trial_type":"pit-trial","trial_index":14,"time_elapsed":143840,"internal_node_id":"0.0-14.0"},{"Correct":-1,"Choice":32,"RT":560.2650000000722,"Accuracy":0,"Sham":0,"Outcome":-1,"Block":1,"Trial":3,"Valence":"Lose","Action":"No-Go","trial_type":"pit-trial","trial_index":15,"time_elapsed":146909,"internal_node_id":"0.0-15.0"},{"Correct":32,"Choice":32,"RT":611.4900000029593,"Accuracy":1,"Sham":0,"Outcome":1,"Block":1,"Trial":4,"Valence":"Win","Action":"Go","trial_type":"pit-trial","trial_index":16,"time_elapsed":150028,"internal_node_id":"0.0-16.0"},{"Correct":32,"Choice":32,"RT":411.5299999975832,"Accuracy":1,"Sham":1,"Outcome":-1,"Block":1,"Trial":5,"Valence":"Lose","Action":"Go","trial_type":"pit-trial","trial_index":17,"time_elapsed":152947,"internal_node_id":"0.0-17.0"},{"Correct":-1,"Choice":32,"RT":586.0650000031455,"Accuracy":0,"Sham":0,"Outcome":-1,"Block":1,"Trial":6,"Valence":"Lose","Action":"No-Go","trial_type":"pit-trial","trial_index":18,"time_elapsed":156038,"internal_node_id":"0.0-18.0"},{"Correct":32,"Choice":32,"RT":439.77499999891734,"Accuracy":1,"Sham":0,"Outcome":1,"Block":1,"Trial":7,"Valence":"Win","Action":"Go","trial_type":"pit-trial","trial_index":19,"time_elapsed":158985,"internal_node_id":"0.0-19.0"},{"Correct":-1,"Choice":32,"RT":557.7200000043376,"Accuracy":0,"Sham":0,"Outcome":0,"Block":1,"Trial":8,"Valence":"Win","Action":"No-Go","trial_type":"pit-trial","trial_index":20,"time_elapsed":162048,"internal_node_id":"0.0-20.0"},{"Correct":32,"Choice":32,"RT":464.6450000000186,"Accuracy":1,"Sham":0,"Outcome":1,"Block":1,"Trial":9,"Valence":"Win","Action":"Go","trial_type":"pit-trial","trial_index":21,"time_elapsed":165020,"internal_node_id":"0.0-21.0"},{"Correct":32,"Choice":-1,"RT":-1,"Accuracy":0,"Sham":0,"Outcome":-1,"Block":1,"Trial":10,"Valence":"Lose","Action":"Go","trial_type":"pit-trial","trial_index":22,"time_elapsed":169030,"internal_node_id":"0.0-22.0"},{"Correct":-1,"Choice":32,"RT":707.670000003418,"Accuracy":0,"Sham":0,"Outcome":0,"Block":1,"Trial":11,"Valence":"Win","Action":"No-Go","trial_type":"pit-trial","trial_index":23,"time_elapsed":172249,"internal_node_id":"0.0-23.0"},{"Correct":-1,"Choice":32,"RT":675.5450000055134,"Accuracy":0,"Sham":0,"Outcome":-1,"Block":1,"Trial":12,"Valence":"Lose","Action":"No-Go","trial_type":"pit-trial","trial_index":24,"time_elapsed":175433,"internal_node_id":"0.0-24.0"},{"Correct":32,"Choice":32,"RT":470.30500000255415,"Accuracy":1,"Sham":0,"Outcome":1,"Block":1,"Trial":13,"Valence":"Win","Action":"Go","trial_type":"pit-trial","trial_index":25,"time_elapsed":178411,"internal_node_id":"0.0-25.0"},{"Correct":-1,"Choice":-1,"RT":-1,"Accuracy":1,"Sham":0,"Outcome":1,"Block":1,"Trial":14,"Valence":"Win","Action":"No-Go","trial_type":"pit-trial","trial_index":26,"time_elapsed":182417,"internal_node_id":"0.0-26.0"},{"Correct":32,"Choice":-1,"RT":-1,"Accuracy":0,"Sham":0,"Outcome":-1,"Block":1,"Trial":15,"Valence":"Lose","Action":"Go","trial_type":"pit-trial","trial_index":27,"time_elapsed":186424,"internal_node_id":"0.0-27.0"},{"Correct":-1,"Choice":-1,"RT":-1,"Accuracy":1,"Sham":1,"Outcome":-1,"Block":1,"Trial":16,"Valence":"Lose","Action":"No-Go","trial_type":"pit-trial","trial_index":28,"time_elapsed":190430,"internal_node_id":"0.0-28.0"},{"Correct":32,"Choice":32,"RT":368.2150000022375,"Accuracy":1,"Sham":1,"Outcome":0,"Block":1,"Trial":17,"Valence":"Win","Action":"Go","trial_type":"pit-trial","trial_index":29,"time_elapsed":193308,"internal_node_id":"0.0-29.0"},{"Correct":32,"Choice":-1,"RT":-1,"Accuracy":0,"Sham":0,"Outcome":-1,"Block":1,"Trial":18,"Valence":"Lose","Action":"Go","trial_type":"pit-trial","trial_index":30,"time_elapsed":197314,"internal_node_id":"0.0-30.0"},{"Correct":-1,"Choice":-1,"RT":-1,"Accuracy":1,"Sham":1,"Outcome":0,"Block":1,"Trial":19,"Valence":"Win","Action":"No-Go","trial_type":"pit-trial","trial_index":31,"time_elapsed":201322,"internal_node_id":"0.0-31.0"},{"Correct":-1,"Choice":-1,"RT":-1,"Accuracy":1,"Sham":0,"Outcome":0,"Block":1,"Trial":20,"Valence":"Lose","Action":"No-Go","trial_type":"pit-trial","trial_index":32,"time_elapsed":205331,"internal_node_id":"0.0-32.0"},{"Correct":-1,"Choice":-1,"RT":-1,"Accuracy":1,"Sham":0,"Outcome":0,"Block":1,"Trial":21,"Valence":"Lose","Action":"No-Go","trial_type":"pit-trial","trial_index":33,"time_elapsed":209340,"internal_node_id":"0.0-33.0"},{"Correct":-1,"Choice":-1,"RT":-1,"Accuracy":1,"Sham":0,"Outcome":1,"Block":1,"Trial":22,"Valence":"Win","Action":"No-Go","trial_type":"pit-trial","trial_index":34,"time_elapsed":213347,"internal_node_id":"0.0-34.0"},{"Correct":32,"Choice":32,"RT":424.31500000384403,"Accuracy":1,"Sham":0,"Outcome":1,"Block":1,"Trial":23,"Valence":"Win","Action":"Go","trial_type":"pit-trial","trial_index":35,"time_elapsed":216279,"internal_node_id":"0.0-35.0"},{"Correct":32,"Choice":-1,"RT":-1,"Accuracy":0,"Sham":0,"Outcome":-1,"Block":1,"Trial":24,"Valence":"Lose","Action":"Go","trial_type":"pit-trial","trial_index":36,"time_elapsed":220287,"internal_node_id":"0.0-36.0"},{"Correct":-1,"Choice":-1,"RT":-1,"Accuracy":1,"Sham":0,"Outcome":0,"Block":1,"Trial":25,"Valence":"Lose","Action":"No-Go","trial_type":"pit-trial","trial_index":37,"time_elapsed":224294,"internal_node_id":"0.0-37.0"},{"Correct":32,"Choice":32,"RT":487.1650000059162,"Accuracy":1,"Sham":0,"Outcome":1,"Block":1,"Trial":26,"Valence":"Win","Action":"Go","trial_type":"pit-trial","trial_index":38,"time_elapsed":227294,"internal_node_id":"0.0-38.0"},{"Correct":32,"Choice":-1,"RT":-1,"Accuracy":0,"Sham":0,"Outcome":-1,"Block":1,"Trial":27,"Valence":"Lose","Action":"Go","trial_type":"pit-trial","trial_index":39,"time_elapsed":231302,"internal_node_id":"0.0-39.0"},{"Correct":-1,"Choice":-1,"RT":-1,"Accuracy":1,"Sham":0,"Outcome":1,"Block":1,"Trial":28,"Valence":"Win","Action":"No-Go","trial_type":"pit-trial","trial_index":40,"time_elapsed":235308,"internal_node_id":"0.0-40.0"},{"Correct":32,"Choice":-1,"RT":-1,"Accuracy":0,"Sham":0,"Outcome":-1,"Block":1,"Trial":29,"Valence":"Lose","Action":"Go","trial_type":"pit-trial","trial_index":41,"time_elapsed":239319,"internal_node_id":"0.0-41.0"},{"Correct":-1,"Choice":-1,"RT":-1,"Accuracy":1,"Sham":1,"Outcome":0,"Block":1,"Trial":30,"Valence":"Win","Action":"No-Go","trial_type":"pit-trial","trial_index":42,"time_elapsed":243333,"internal_node_id":"0.0-42.0"},{"Correct":32,"Choice":32,"RT":572.6150000045891,"Accuracy":1,"Sham":1,"Outcome":0,"Block":1,"Trial":31,"Valence":"Win","Action":"Go","trial_type":"pit-trial","trial_index":43,"time_elapsed":246423,"internal_node_id":"0.0-43.0"},{"Correct":-1,"Choice":-1,"RT":-1,"Accuracy":1,"Sham":0,"Outcome":0,"Block":1,"Trial":32,"Valence":"Lose","Action":"No-Go","trial_type":"pit-trial","trial_index":44,"time_elapsed":250433,"internal_node_id":"0.0-44.0"},{"Correct":-1,"Choice":-1,"RT":-1,"Accuracy":1,"Sham":0,"Outcome":0,"Block":1,"Trial":33,"Valence":"Lose","Action":"No-Go","trial_type":"pit-trial","trial_index":45,"time_elapsed":254443,"internal_node_id":"0.0-45.0"},{"Correct":-1,"Choice":-1,"RT":-1,"Accuracy":1,"Sham":0,"Outcome":1,"Block":1,"Trial":34,"Valence":"Win","Action":"No-Go","trial_type":"pit-trial","trial_index":46,"time_elapsed":258457,"internal_node_id":"0.0-46.0"},{"Correct":32,"Choice":32,"RT":671.8499999988126,"Accuracy":1,"Sham":0,"Outcome":1,"Block":1,"Trial":35,"Valence":"Win","Action":"Go","trial_type":"pit-trial","trial_index":47,"time_elapsed":261637,"internal_node_id":"0.0-47.0"},{"Correct":32,"Choice":-1,"RT":-1,"Accuracy":0,"Sham":1,"Outcome":0,"Block":1,"Trial":36,"Valence":"Lose","Action":"Go","trial_type":"pit-trial","trial_index":48,"time_elapsed":265647,"internal_node_id":"0.0-48.0"},{"Correct":-1,"Choice":-1,"RT":-1,"Accuracy":1,"Sham":1,"Outcome":-1,"Block":1,"Trial":37,"Valence":"Lose","Action":"No-Go","trial_type":"pit-trial","trial_index":49,"time_elapsed":269657,"internal_node_id":"0.0-49.0"},{"Correct":32,"Choice":-1,"RT":-1,"Accuracy":0,"Sham":0,"Outcome":-1,"Block":1,"Trial":38,"Valence":"Lose","Action":"Go","trial_type":"pit-trial","trial_index":50,"time_elapsed":273669,"internal_node_id":"0.0-50.0"},{"Correct":32,"Choice":32,"RT":390.8999999985099,"Accuracy":1,"Sham":0,"Outcome":1,"Block":1,"Trial":39,"Valence":"Win","Action":"Go","trial_type":"pit-trial","trial_index":51,"time_elapsed":276570,"internal_node_id":"0.0-51.0"},{"Correct":-1,"Choice":-1,"RT":-1,"Accuracy":1,"Sham":0,"Outcome":1,"Block":1,"Trial":40,"Valence":"Win","Action":"No-Go","trial_type":"pit-trial","trial_index":52,"time_elapsed":280578,"internal_node_id":"0.0-52.0"},{"Correct":32,"Choice":-1,"RT":-1,"Accuracy":0,"Sham":1,"Outcome":0,"Block":1,"Trial":41,"Valence":"Lose","Action":"Go","trial_type":"pit-trial","trial_index":53,"time_elapsed":284597,"internal_node_id":"0.0-53.0"},{"Correct":-1,"Choice":32,"RT":873.0900000009569,"Accuracy":0,"Sham":0,"Outcome":0,"Block":1,"Trial":42,"Valence":"Win","Action":"No-Go","trial_type":"pit-trial","trial_index":54,"time_elapsed":287979,"internal_node_id":"0.0-54.0"},{"Correct":-1,"Choice":-1,"RT":-1,"Accuracy":1,"Sham":0,"Outcome":0,"Block":1,"Trial":43,"Valence":"Lose","Action":"No-Go","trial_type":"pit-trial","trial_index":55,"time_elapsed":291990,"internal_node_id":"0.0-55.0"},{"Correct":32,"Choice":32,"RT":424.26500000146916,"Accuracy":1,"Sham":0,"Outcome":1,"Block":1,"Trial":44,"Valence":"Win","Action":"Go","trial_type":"pit-trial","trial_index":56,"time_elapsed":294922,"internal_node_id":"0.0-56.0"},{"Correct":-1,"Choice":-1,"RT":-1,"Accuracy":1,"Sham":0,"Outcome":0,"Block":1,"Trial":45,"Valence":"Lose","Action":"No-Go","trial_type":"pit-trial","trial_index":57,"time_elapsed":298930,"internal_node_id":"0.0-57.0"},{"Correct":-1,"Choice":32,"RT":525.2699999982724,"Accuracy":0,"Sham":1,"Outcome":1,"Block":1,"Trial":46,"Valence":"Win","Action":"No-Go","trial_type":"pit-trial","trial_index":58,"time_elapsed":301963,"internal_node_id":"0.0-58.0"},{"Correct":32,"Choice":-1,"RT":-1,"Accuracy":0,"Sham":0,"Outcome":-1,"Block":1,"Trial":47,"Valence":"Lose","Action":"Go","trial_type":"pit-trial","trial_index":59,"time_elapsed":305971,"internal_node_id":"0.0-59.0"},{"Correct":32,"Choice":32,"RT":416.3449999978184,"Accuracy":1,"Sham":0,"Outcome":1,"Block":1,"Trial":48,"Valence":"Win","Action":"Go","trial_type":"pit-trial","trial_index":60,"time_elapsed":308894,"internal_node_id":"0.0-60.0"},{"Correct":-1,"Choice":-1,"RT":-1,"Accuracy":1,"Sham":0,"Outcome":0,"Block":1,"Trial":49,"Valence":"Lose","Action":"No-Go","trial_type":"pit-trial","trial_index":61,"time_elapsed":312905,"internal_node_id":"0.0-61.0"},{"Correct":32,"Choice":32,"RT":365.7649999950081,"Accuracy":1,"Sham":0,"Outcome":1,"Block":1,"Trial":50,"Valence":"Win","Action":"Go","trial_type":"pit-trial","trial_index":62,"time_elapsed":315779,"internal_node_id":"0.0-62.0"},{"Correct":-1,"Choice":32,"RT":615.4900000037742,"Accuracy":0,"Sham":0,"Outcome":0,"Block":1,"Trial":51,"Valence":"Win","Action":"No-Go","trial_type":"pit-trial","trial_index":63,"time_elapsed":318902,"internal_node_id":"0.0-63.0"},{"Correct":32,"Choice":-1,"RT":-1,"Accuracy":0,"Sham":0,"Outcome":-1,"Block":1,"Trial":52,"Valence":"Lose","Action":"Go","trial_type":"pit-trial","trial_index":64,"time_elapsed":322911,"internal_node_id":"0.0-64.0"},{"Correct":-1,"Choice":32,"RT":1301.6999999963446,"Accuracy":0,"Sham":0,"Outcome":0,"Block":1,"Trial":53,"Valence":"Win","Action":"No-Go","trial_type":"pit-trial","trial_index":65,"time_elapsed":326721,"internal_node_id":"0.0-65.0"},{"Correct":32,"Choice":-1,"RT":-1,"Accuracy":0,"Sham":0,"Outcome":-1,"Block":1,"Trial":54,"Valence":"Lose","Action":"Go","trial_type":"pit-trial","trial_index":66,"time_elapsed":330730,"internal_node_id":"0.0-66.0"},{"Correct":-1,"Choice":-1,"RT":-1,"Accuracy":1,"Sham":0,"Outcome":0,"Block":1,"Trial":55,"Valence":"Lose","Action":"No-Go","trial_type":"pit-trial","trial_index":67,"time_elapsed":334747,"internal_node_id":"0.0-67.0"},{"Correct":32,"Choice":32,"RT":436.24499999714317,"Accuracy":1,"Sham":0,"Outcome":1,"Block":1,"Trial":56,"Valence":"Win","Action":"Go","trial_type":"pit-trial","trial_index":68,"time_elapsed":337699,"internal_node_id":"0.0-68.0"},{"Correct":32,"Choice":32,"RT":426.2949999974808,"Accuracy":1,"Sham":1,"Outcome":0,"Block":1,"Trial":57,"Valence":"Win","Action":"Go","trial_type":"pit-trial","trial_index":69,"time_elapsed":340639,"internal_node_id":"0.0-69.0"},{"Correct":32,"Choice":-1,"RT":-1,"Accuracy":0,"Sham":0,"Outcome":-1,"Block":1,"Trial":58,"Valence":"Lose","Action":"Go","trial_type":"pit-trial","trial_index":70,"time_elapsed":344649,"internal_node_id":"0.0-70.0"},{"Correct":-1,"Choice":-1,"RT":-1,"Accuracy":1,"Sham":1,"Outcome":-1,"Block":1,"Trial":59,"Valence":"Lose","Action":"No-Go","trial_type":"pit-trial","trial_index":71,"time_elapsed":348659,"internal_node_id":"0.0-71.0"},{"Correct":-1,"Choice":-1,"RT":-1,"Accuracy":1,"Sham":0,"Outcome":1,"Block":1,"Trial":60,"Valence":"Win","Action":"No-Go","trial_type":"pit-trial","trial_index":72,"time_elapsed":352669,"internal_node_id":"0.0-72.0"},{"Correct":-1,"Choice":32,"RT":747.1499999955995,"Accuracy":0,"Sham":0,"Outcome":0,"Block":1,"Trial":61,"Valence":"Win","Action":"No-Go","trial_type":"pit-trial","trial_index":73,"time_elapsed":355924,"internal_node_id":"0.0-73.0"},{"Correct":32,"Choice":-1,"RT":-1,"Accuracy":0,"Sham":0,"Outcome":-1,"Block":1,"Trial":62,"Valence":"Lose","Action":"Go","trial_type":"pit-trial","trial_index":74,"time_elapsed":359933,"internal_node_id":"0.0-74.0"},{"Correct":-1,"Choice":-1,"RT":-1,"Accuracy":1,"Sham":0,"Outcome":0,"Block":1,"Trial":63,"Valence":"Lose","Action":"No-Go","trial_type":"pit-trial","trial_index":75,"time_elapsed":363942,"internal_node_id":"0.0-75.0"},{"Correct":32,"Choice":32,"RT":405.3600000042934,"Accuracy":1,"Sham":0,"Outcome":1,"Block":1,"Trial":64,"Valence":"Win","Action":"Go","trial_type":"pit-trial","trial_index":76,"time_elapsed":366856,"internal_node_id":"0.0-76.0"},{"Correct":-1,"Choice":-1,"RT":-1,"Accuracy":1,"Sham":0,"Outcome":1,"Block":1,"Trial":65,"Valence":"Win","Action":"No-Go","trial_type":"pit-trial","trial_index":77,"time_elapsed":370863,"internal_node_id":"0.0-77.0"},{"Correct":-1,"Choice":-1,"RT":-1,"Accuracy":1,"Sham":0,"Outcome":0,"Block":1,"Trial":66,"Valence":"Lose","Action":"No-Go","trial_type":"pit-trial","trial_index":78,"time_elapsed":374868,"internal_node_id":"0.0-78.0"},{"Correct":32,"Choice":32,"RT":242.45000000519212,"Accuracy":1,"Sham":1,"Outcome":0,"Block":1,"Trial":67,"Valence":"Win","Action":"Go","trial_type":"pit-trial","trial_index":79,"time_elapsed":377623,"internal_node_id":"0.0-79.0"},{"Correct":32,"Choice":-1,"RT":-1,"Accuracy":0,"Sham":0,"Outcome":-1,"Block":1,"Trial":68,"Valence":"Lose","Action":"Go","trial_type":"pit-trial","trial_index":80,"time_elapsed":381633,"internal_node_id":"0.0-80.0"},{"Correct":-1,"Choice":-1,"RT":-1,"Accuracy":1,"Sham":1,"Outcome":-1,"Block":1,"Trial":69,"Valence":"Lose","Action":"No-Go","trial_type":"pit-trial","trial_index":81,"time_elapsed":385644,"internal_node_id":"0.0-81.0"},{"Correct":32,"Choice":32,"RT":645.9250000043539,"Accuracy":1,"Sham":0,"Outcome":0,"Block":1,"Trial":70,"Valence":"Lose","Action":"Go","trial_type":"pit-trial","trial_index":82,"time_elapsed":388800,"internal_node_id":"0.0-82.0"},{"Correct":32,"Choice":32,"RT":382.4049999966519,"Accuracy":1,"Sham":0,"Outcome":1,"Block":1,"Trial":71,"Valence":"Win","Action":"Go","trial_type":"pit-trial","trial_index":83,"time_elapsed":391695,"internal_node_id":"0.0-83.0"},{"Correct":-1,"Choice":32,"RT":891.6150000004563,"Accuracy":0,"Sham":0,"Outcome":0,"Block":1,"Trial":72,"Valence":"Win","Action":"No-Go","trial_type":"pit-trial","trial_index":84,"time_elapsed":395098,"internal_node_id":"0.0-84.0"},{"Correct":-1,"Choice":-1,"RT":-1,"Accuracy":1,"Sham":0,"Outcome":1,"Block":1,"Trial":73,"Valence":"Win","Action":"No-Go","trial_type":"pit-trial","trial_index":85,"time_elapsed":399105,"internal_node_id":"0.0-85.0"},{"Correct":32,"Choice":-1,"RT":-1,"Accuracy":0,"Sham":1,"Outcome":0,"Block":1,"Trial":74,"Valence":"Lose","Action":"Go","trial_type":"pit-trial","trial_index":86,"time_elapsed":403113,"internal_node_id":"0.0-86.0"},{"Correct":32,"Choice":32,"RT":677.9499999975087,"Accuracy":1,"Sham":0,"Outcome":1,"Block":1,"Trial":75,"Valence":"Win","Action":"Go","trial_type":"pit-trial","trial_index":87,"time_elapsed":406297,"internal_node_id":"0.0-87.0"},{"Correct":-1,"Choice":32,"RT":703.2299999991665,"Accuracy":0,"Sham":0,"Outcome":-1,"Block":1,"Trial":76,"Valence":"Lose","Action":"No-Go","trial_type":"pit-trial","trial_index":88,"time_elapsed":409507,"internal_node_id":"0.0-88.0"},{"Correct":-1,"Choice":-1,"RT":-1,"Accuracy":1,"Sham":1,"Outcome":0,"Block":1,"Trial":77,"Valence":"Win","Action":"No-Go","trial_type":"pit-trial","trial_index":89,"time_elapsed":413516,"internal_node_id":"0.0-89.0"},{"Correct":32,"Choice":32,"RT":613.5050000011688,"Accuracy":1,"Sham":0,"Outcome":1,"Block":1,"Trial":78,"Valence":"Win","Action":"Go","trial_type":"pit-trial","trial_index":90,"time_elapsed":416640,"internal_node_id":"0.0-90.0"},{"Correct":-1,"Choice":-1,"RT":-1,"Accuracy":1,"Sham":0,"Outcome":0,"Block":1,"Trial":79,"Valence":"Lose","Action":"No-Go","trial_type":"pit-trial","trial_index":91,"time_elapsed":420652,"internal_node_id":"0.0-91.0"},{"Correct":32,"Choice":-1,"RT":-1,"Accuracy":0,"Sham":0,"Outcome":-1,"Block":1,"Trial":80,"Valence":"Lose","Action":"Go","trial_type":"pit-trial","trial_index":92,"time_elapsed":424661,"internal_node_id":"0.0-92.0"},{"value":false,"trial_type":"call-function","trial_index":93,"time_elapsed":424666,"internal_node_id":"0.0-93.0"},{"RT":18046.34999999689,"trial_type":"pit-pause","trial_index":94,"time_elapsed":445709,"internal_node_id":"0.0-94.0"},{"Correct":32,"Choice":32,"RT":236.47999999957392,"Accuracy":1,"Sham":0,"Outcome":1,"Block":2,"Trial":81,"Valence":"Win","Action":"Go","trial_type":"pit-trial","trial_index":95,"time_elapsed":448454,"internal_node_id":"0.0-95.0"},{"Correct":-1,"Choice":32,"RT":583.0050000004121,"Accuracy":0,"Sham":0,"Outcome":0,"Block":2,"Trial":82,"Valence":"Win","Action":"No-Go","trial_type":"pit-trial","trial_index":96,"time_elapsed":451546,"internal_node_id":"0.0-96.0"},{"Correct":-1,"Choice":32,"RT":643.660000001546,"Accuracy":0,"Sham":0,"Outcome":-1,"Block":2,"Trial":83,"Valence":"Lose","Action":"No-Go","trial_type":"pit-trial","trial_index":97,"time_elapsed":454697,"internal_node_id":"0.0-97.0"},{"Correct":32,"Choice":32,"RT":600.28500000044,"Accuracy":1,"Sham":0,"Outcome":0,"Block":2,"Trial":84,"Valence":"Lose","Action":"Go","trial_type":"pit-trial","trial_index":98,"time_elapsed":457804,"internal_node_id":"0.0-98.0"},{"Correct":32,"Choice":32,"RT":632.0249999989755,"Accuracy":1,"Sham":0,"Outcome":1,"Block":2,"Trial":85,"Valence":"Win","Action":"Go","trial_type":"pit-trial","trial_index":99,"time_elapsed":460947,"internal_node_id":"0.0-99.0"},{"Correct":-1,"Choice":-1,"RT":-1,"Accuracy":1,"Sham":0,"Outcome":1,"Block":2,"Trial":86,"Valence":"Win","Action":"No-Go","trial_type":"pit-trial","trial_index":100,"time_elapsed":464960,"internal_node_id":"0.0-100.0"},{"Correct":32,"Choice":-1,"RT":-1,"Accuracy":0,"Sham":0,"Outcome":-1,"Block":2,"Trial":87,"Valence":"Lose","Action":"Go","trial_type":"pit-trial","trial_index":101,"time_elapsed":468971,"internal_node_id":"0.0-101.0"},{"Correct":-1,"Choice":32,"RT":814.7650000028079,"Accuracy":0,"Sham":0,"Outcome":-1,"Block":2,"Trial":88,"Valence":"Lose","Action":"No-Go","trial_type":"pit-trial","trial_index":102,"time_elapsed":472295,"internal_node_id":"0.0-102.0"},{"Correct":32,"Choice":-1,"RT":-1,"Accuracy":0,"Sham":1,"Outcome":0,"Block":2,"Trial":89,"Valence":"Lose","Action":"Go","trial_type":"pit-trial","trial_index":103,"time_elapsed":476302,"internal_node_id":"0.0-103.0"},{"Correct":32,"Choice":32,"RT":567.9999999993015,"Accuracy":1,"Sham":1,"Outcome":0,"Block":2,"Trial":90,"Valence":"Win","Action":"Go","trial_type":"pit-trial","trial_index":104,"time_elapsed":479377,"internal_node_id":"0.0-104.0"},{"Correct":-1,"Choice":-1,"RT":-1,"Accuracy":1,"Sham":0,"Outcome":1,"Block":2,"Trial":91,"Valence":"Win","Action":"No-Go","trial_type":"pit-trial","trial_index":105,"time_elapsed":483385,"internal_node_id":"0.0-105.0"},{"Correct":-1,"Choice":32,"RT":761.4749999993364,"Accuracy":0,"Sham":0,"Outcome":-1,"Block":2,"Trial":92,"Valence":"Lose","Action":"No-Go","trial_type":"pit-trial","trial_index":106,"time_elapsed":486656,"internal_node_id":"0.0-106.0"},{"Correct":-1,"Choice":-1,"RT":-1,"Accuracy":1,"Sham":0,"Outcome":0,"Block":2,"Trial":93,"Valence":"Lose","Action":"No-Go","trial_type":"pit-trial","trial_index":107,"time_elapsed":490665,"internal_node_id":"0.0-107.0"},{"Correct":32,"Choice":32,"RT":508.30000000132713,"Accuracy":1,"Sham":0,"Outcome":1,"Block":2,"Trial":94,"Valence":"Win","Action":"Go","trial_type":"pit-trial","trial_index":108,"time_elapsed":493684,"internal_node_id":"0.0-108.0"},{"Correct":32,"Choice":-1,"RT":-1,"Accuracy":0,"Sham":0,"Outcome":-1,"Block":2,"Trial":95,"Valence":"Lose","Action":"Go","trial_type":"pit-trial","trial_index":109,"time_elapsed":497696,"internal_node_id":"0.0-109.0"},{"Correct":-1,"Choice":-1,"RT":-1,"Accuracy":1,"Sham":1,"Outcome":0,"Block":2,"Trial":96,"Valence":"Win","Action":"No-Go","trial_type":"pit-trial","trial_index":110,"time_elapsed":501709,"internal_node_id":"0.0-110.0"},{"Correct":-1,"Choice":-1,"RT":-1,"Accuracy":1,"Sham":1,"Outcome":-1,"Block":2,"Trial":97,"Valence":"Lose","Action":"No-Go","trial_type":"pit-trial","trial_index":111,"time_elapsed":505730,"internal_node_id":"0.0-111.0"},{"Correct":32,"Choice":32,"RT":407.7800000013667,"Accuracy":1,"Sham":0,"Outcome":1,"Block":2,"Trial":98,"Valence":"Win","Action":"Go","trial_type":"pit-trial","trial_index":112,"time_elapsed":508657,"internal_node_id":"0.0-112.0"},{"Correct":32,"Choice":-1,"RT":-1,"Accuracy":0,"Sham":0,"Outcome":-1,"Block":2,"Trial":99,"Valence":"Lose","Action":"Go","trial_type":"pit-trial","trial_index":113,"time_elapsed":512669,"internal_node_id":"0.0-113.0"},{"Correct":-1,"Choice":-1,"RT":-1,"Accuracy":1,"Sham":0,"Outcome":1,"Block":2,"Trial":100,"Valence":"Win","Action":"No-Go","trial_type":"pit-trial","trial_index":114,"time_elapsed":516678,"internal_node_id":"0.0-114.0"},{"Correct":-1,"Choice":32,"RT":1077.530000002298,"Accuracy":0,"Sham":0,"Outcome":-1,"Block":2,"Trial":101,"Valence":"Lose","Action":"No-Go","trial_type":"pit-trial","trial_index":115,"time_elapsed":520263,"internal_node_id":"0.0-115.0"},{"Correct":32,"Choice":-1,"RT":-1,"Accuracy":0,"Sham":0,"Outcome":-1,"Block":2,"Trial":102,"Valence":"Lose","Action":"Go","trial_type":"pit-trial","trial_index":116,"time_elapsed":524273,"internal_node_id":"0.0-116.0"},{"Correct":32,"Choice":32,"RT":493.21999999671243,"Accuracy":1,"Sham":1,"Outcome":0,"Block":2,"Trial":103,"Valence":"Win","Action":"Go","trial_type":"pit-trial","trial_index":117,"time_elapsed":527277,"internal_node_id":"0.0-117.0"},{"Correct":-1,"Choice":32,"RT":361.52500000037253,"Accuracy":0,"Sham":1,"Outcome":1,"Block":2,"Trial":104,"Valence":"Win","Action":"No-Go","trial_type":"pit-trial","trial_index":118,"time_elapsed":530146,"internal_node_id":"0.0-118.0"},{"Correct":32,"Choice":-1,"RT":-1,"Accuracy":0,"Sham":0,"Outcome":-1,"Block":2,"Trial":105,"Valence":"Lose","Action":"Go","trial_type":"pit-trial","trial_index":119,"time_elapsed":534154,"internal_node_id":"0.0-119.0"},{"Correct":32,"Choice":32,"RT":277.9750000045169,"Accuracy":1,"Sham":0,"Outcome":1,"Block":2,"Trial":106,"Valence":"Win","Action":"Go","trial_type":"pit-trial","trial_index":120,"time_elapsed":536939,"internal_node_id":"0.0-120.0"},{"Correct":-1,"Choice":32,"RT":609.8750000019791,"Accuracy":0,"Sham":0,"Outcome":0,"Block":2,"Trial":107,"Valence":"Win","Action":"No-Go","trial_type":"pit-trial","trial_index":121,"time_elapsed":540056,"internal_node_id":"0.0-121.0"},{"Correct":-1,"Choice":-1,"RT":-1,"Accuracy":1,"Sham":0,"Outcome":0,"Block":2,"Trial":108,"Valence":"Lose","Action":"No-Go","trial_type":"pit-trial","trial_index":122,"time_elapsed":544063,"internal_node_id":"0.0-122.0"},{"Correct":-1,"Choice":32,"RT":385.2149999947287,"Accuracy":0,"Sham":0,"Outcome":0,"Block":2,"Trial":109,"Valence":"Win","Action":"No-Go","trial_type":"pit-trial","trial_index":123,"time_elapsed":546956,"internal_node_id":"0.0-123.0"},{"Correct":-1,"Choice":-1,"RT":-1,"Accuracy":1,"Sham":0,"Outcome":0,"Block":2,"Trial":110,"Valence":"Lose","Action":"No-Go","trial_type":"pit-trial","trial_index":124,"time_elapsed":550966,"internal_node_id":"0.0-124.0"},{"Correct":32,"Choice":32,"RT":430.2850000022445,"Accuracy":1,"Sham":0,"Outcome":1,"Block":2,"Trial":111,"Valence":"Win","Action":"Go","trial_type":"pit-trial","trial_index":125,"time_elapsed":553909,"internal_node_id":"0.0-125.0"},{"Correct":32,"Choice":-1,"RT":-1,"Accuracy":0,"Sham":0,"Outcome":-1,"Block":2,"Trial":112,"Valence":"Lose","Action":"Go","trial_type":"pit-trial","trial_index":126,"time_elapsed":557916,"internal_node_id":"0.0-126.0"},{"Correct":-1,"Choice":-1,"RT":-1,"Accuracy":1,"Sham":0,"Outcome":1,"Block":2,"Trial":113,"Valence":"Win","Action":"No-Go","trial_type":"pit-trial","trial_index":127,"time_elapsed":561922,"internal_node_id":"0.0-127.0"},{"Correct":-1,"Choice":-1,"RT":-1,"Accuracy":1,"Sham":0,"Outcome":0,"Block":2,"Trial":114,"Valence":"Lose","Action":"No-Go","trial_type":"pit-trial","trial_index":128,"time_elapsed":565930,"internal_node_id":"0.0-128.0"},{"Correct":32,"Choice":32,"RT":484.0150000018766,"Accuracy":1,"Sham":1,"Outcome":-1,"Block":2,"Trial":115,"Valence":"Lose","Action":"Go","trial_type":"pit-trial","trial_index":129,"time_elapsed":568923,"internal_node_id":"0.0-129.0"},{"Correct":32,"Choice":32,"RT":452.8349999963539,"Accuracy":1,"Sham":0,"Outcome":1,"Block":2,"Trial":116,"Valence":"Win","Action":"Go","trial_type":"pit-trial","trial_index":130,"time_elapsed":571884,"internal_node_id":"0.0-130.0"},{"Correct":-1,"Choice":-1,"RT":-1,"Accuracy":1,"Sham":1,"Outcome":-1,"Block":2,"Trial":117,"Valence":"Lose","Action":"No-Go","trial_type":"pit-trial","trial_index":131,"time_elapsed":575892,"internal_node_id":"0.0-131.0"},{"Correct":32,"Choice":32,"RT":901.5500000022585,"Accuracy":1,"Sham":0,"Outcome":0,"Block":2,"Trial":118,"Valence":"Lose","Action":"Go","trial_type":"pit-trial","trial_index":132,"time_elapsed":579303,"internal_node_id":"0.0-132.0"},{"Correct":-1,"Choice":32,"RT":468.9250000009779,"Accuracy":0,"Sham":0,"Outcome":0,"Block":2,"Trial":119,"Valence":"Win","Action":"No-Go","trial_type":"pit-trial","trial_index":133,"time_elapsed":582283,"internal_node_id":"0.0-133.0"},{"Correct":32,"Choice":32,"RT":423.52499999839347,"Accuracy":1,"Sham":0,"Outcome":1,"Block":2,"Trial":120,"Valence":"Win","Action":"Go","trial_type":"pit-trial","trial_index":134,"time_elapsed":585220,"internal_node_id":"0.0-134.0"},{"Correct":-1,"Choice":32,"RT":512.7199999988079,"Accuracy":0,"Sham":0,"Outcome":0,"Block":2,"Trial":121,"Valence":"Win","Action":"No-Go","trial_type":"pit-trial","trial_index":135,"time_elapsed":588244,"internal_node_id":"0.0-135.0"},{"Correct":-1,"Choice":-1,"RT":-1,"Accuracy":1,"Sham":0,"Outcome":0,"Block":2,"Trial":122,"Valence":"Lose","Action":"No-Go","trial_type":"pit-trial","trial_index":136,"time_elapsed":592252,"internal_node_id":"0.0-136.0"},{"Correct":32,"Choice":-1,"RT":-1,"Accuracy":0,"Sham":0,"Outcome":-1,"Block":2,"Trial":123,"Valence":"Lose","Action":"Go","trial_type":"pit-trial","trial_index":137,"time_elapsed":596261,"internal_node_id":"0.0-137.0"},{"Correct":32,"Choice":32,"RT":500.9200000058627,"Accuracy":1,"Sham":1,"Outcome":0,"Block":2,"Trial":124,"Valence":"Win","Action":"Go","trial_type":"pit-trial","trial_index":138,"time_elapsed":599270,"internal_node_id":"0.0-138.0"},{"Correct":32,"Choice":-1,"RT":-1,"Accuracy":0,"Sham":1,"Outcome":0,"Block":2,"Trial":125,"Valence":"Lose","Action":"Go","trial_type":"pit-trial","trial_index":139,"time_elapsed":603280,"internal_node_id":"0.0-139.0"},{"Correct":-1,"Choice":-1,"RT":-1,"Accuracy":1,"Sham":0,"Outcome":0,"Block":2,"Trial":126,"Valence":"Lose","Action":"No-Go","trial_type":"pit-trial","trial_index":140,"time_elapsed":607294,"internal_node_id":"0.0-140.0"},{"Correct":-1,"Choice":32,"RT":407.7800000014249,"Accuracy":0,"Sham":0,"Outcome":0,"Block":2,"Trial":127,"Valence":"Win","Action":"No-Go","trial_type":"pit-trial","trial_index":141,"time_elapsed":610210,"internal_node_id":"0.0-141.0"},{"Correct":32,"Choice":32,"RT":368.3600000004517,"Accuracy":1,"Sham":0,"Outcome":1,"Block":2,"Trial":128,"Valence":"Win","Action":"Go","trial_type":"pit-trial","trial_index":142,"time_elapsed":613086,"internal_node_id":"0.0-142.0"},{"Correct":-1,"Choice":-1,"RT":-1,"Accuracy":1,"Sham":0,"Outcome":0,"Block":2,"Trial":129,"Valence":"Lose","Action":"No-Go","trial_type":"pit-trial","trial_index":143,"time_elapsed":617093,"internal_node_id":"0.0-143.0"},{"Correct":32,"Choice":32,"RT":327.9700000057928,"Accuracy":1,"Sham":0,"Outcome":1,"Block":2,"Trial":130,"Valence":"Win","Action":"Go","trial_type":"pit-trial","trial_index":144,"time_elapsed":619928,"internal_node_id":"0.0-144.0"},{"Correct":32,"Choice":-1,"RT":-1,"Accuracy":0,"Sham":0,"Outcome":-1,"Block":2,"Trial":131,"Valence":"Lose","Action":"Go","trial_type":"pit-trial","trial_index":145,"time_elapsed":623936,"internal_node_id":"0.0-145.0"},{"Correct":-1,"Choice":32,"RT":484.1149999992922,"Accuracy":0,"Sham":0,"Outcome":0,"Block":2,"Trial":132,"Valence":"Win","Action":"No-Go","trial_type":"pit-trial","trial_index":146,"time_elapsed":626933,"internal_node_id":"0.0-146.0"},{"Correct":-1,"Choice":-1,"RT":-1,"Accuracy":1,"Sham":0,"Outcome":0,"Block":2,"Trial":133,"Valence":"Lose","Action":"No-Go","trial_type":"pit-trial","trial_index":147,"time_elapsed":630943,"internal_node_id":"0.0-147.0"},{"Correct":32,"Choice":32,"RT":360.90499999409076,"Accuracy":1,"Sham":0,"Outcome":1,"Block":2,"Trial":134,"Valence":"Win","Action":"Go","trial_type":"pit-trial","trial_index":148,"time_elapsed":633812,"internal_node_id":"0.0-148.0"},{"Correct":32,"Choice":-1,"RT":-1,"Accuracy":0,"Sham":0,"Outcome":-1,"Block":2,"Trial":135,"Valence":"Lose","Action":"Go","trial_type":"pit-trial","trial_index":149,"time_elapsed":637835,"internal_node_id":"0.0-149.0"},{"Correct":-1,"Choice":32,"RT":312.8450000004377,"Accuracy":0,"Sham":0,"Outcome":0,"Block":2,"Trial":136,"Valence":"Win","Action":"No-Go","trial_type":"pit-trial","trial_index":150,"time_elapsed":640656,"internal_node_id":"0.0-150.0"},{"Correct":-1,"Choice":-1,"RT":-1,"Accuracy":1,"Sham":1,"Outcome":-1,"Block":2,"Trial":137,"Valence":"Lose","Action":"No-Go","trial_type":"pit-trial","trial_index":151,"time_elapsed":644665,"internal_node_id":"0.0-151.0"},{"Correct":32,"Choice":32,"RT":541.479999999865,"Accuracy":1,"Sham":0,"Outcome":1,"Block":2,"Trial":138,"Valence":"Win","Action":"Go","trial_type":"pit-trial","trial_index":152,"time_elapsed":647718,"internal_node_id":"0.0-152.0"},{"Correct":32,"Choice":32,"RT":658.5350000023609,"Accuracy":1,"Sham":0,"Outcome":0,"Block":2,"Trial":139,"Valence":"Lose","Action":"Go","trial_type":"pit-trial","trial_index":153,"time_elapsed":650884,"internal_node_id":"0.0-153.0"},{"Correct":-1,"Choice":32,"RT":671.2249999982305,"Accuracy":0,"Sham":1,"Outcome":1,"Block":2,"Trial":140,"Valence":"Win","Action":"No-Go","trial_type":"pit-trial","trial_index":154,"time_elapsed":654063,"internal_node_id":"0.0-154.0"},{"Correct":-1,"Choice":32,"RT":629.2099999991478,"Accuracy":0,"Sham":1,"Outcome":1,"Block":2,"Trial":141,"Valence":"Win","Action":"No-Go","trial_type":"pit-trial","trial_index":155,"time_elapsed":657202,"internal_node_id":"0.0-155.0"},{"Correct":32,"Choice":32,"RT":663.1550000021234,"Accuracy":1,"Sham":0,"Outcome":0,"Block":2,"Trial":142,"Valence":"Lose","Action":"Go","trial_type":"pit-trial","trial_index":156,"time_elapsed":660376,"internal_node_id":"0.0-156.0"},{"Correct":32,"Choice":32,"RT":501.03999999561347,"Accuracy":1,"Sham":0,"Outcome":1,"Block":2,"Trial":143,"Valence":"Win","Action":"Go","trial_type":"pit-trial","trial_index":157,"time_elapsed":663384,"internal_node_id":"0.0-157.0"},{"Correct":-1,"Choice":-1,"RT":-1,"Accuracy":1,"Sham":0,"Outcome":0,"Block":2,"Trial":144,"Valence":"Lose","Action":"No-Go","trial_type":"pit-trial","trial_index":158,"time_elapsed":667392,"internal_node_id":"0.0-158.0"},{"Correct":-1,"Choice":32,"RT":891.925000003539,"Accuracy":0,"Sham":0,"Outcome":-1,"Block":2,"Trial":145,"Valence":"Lose","Action":"No-Go","trial_type":"pit-trial","trial_index":159,"time_elapsed":670791,"internal_node_id":"0.0-159.0"},{"Correct":32,"Choice":32,"RT":398.07000000285916,"Accuracy":1,"Sham":0,"Outcome":1,"Block":2,"Trial":146,"Valence":"Win","Action":"Go","trial_type":"pit-trial","trial_index":160,"time_elapsed":673698,"internal_node_id":"0.0-160.0"},{"Correct":32,"Choice":-1,"RT":-1,"Accuracy":0,"Sham":0,"Outcome":-1,"Block":2,"Trial":147,"Valence":"Lose","Action":"Go","trial_type":"pit-trial","trial_index":161,"time_elapsed":677707,"internal_node_id":"0.0-161.0"},{"Correct":-1,"Choice":32,"RT":407.5550000052899,"Accuracy":0,"Sham":0,"Outcome":0,"Block":2,"Trial":148,"Valence":"Win","Action":"No-Go","trial_type":"pit-trial","trial_index":162,"time_elapsed":680626,"internal_node_id":"0.0-162.0"},{"Correct":-1,"Choice":32,"RT":409.48999999824446,"Accuracy":0,"Sham":0,"Outcome":0,"Block":2,"Trial":149,"Valence":"Win","Action":"No-Go","trial_type":"pit-trial","trial_index":163,"time_elapsed":683548,"internal_node_id":"0.0-163.0"},{"Correct":-1,"Choice":32,"RT":834.6999999994878,"Accuracy":0,"Sham":0,"Outcome":-1,"Block":2,"Trial":150,"Valence":"Lose","Action":"No-Go","trial_type":"pit-trial","trial_index":164,"time_elapsed":686892,"internal_node_id":"0.0-164.0"},{"Correct":32,"Choice":-1,"RT":-1,"Accuracy":0,"Sham":0,"Outcome":-1,"Block":2,"Trial":151,"Valence":"Lose","Action":"Go","trial_type":"pit-trial","trial_index":165,"time_elapsed":690900,"internal_node_id":"0.0-165.0"},{"Correct":32,"Choice":32,"RT":336.42999999574386,"Accuracy":1,"Sham":0,"Outcome":1,"Block":2,"Trial":152,"Valence":"Win","Action":"Go","trial_type":"pit-trial","trial_index":166,"time_elapsed":693748,"internal_node_id":"0.0-166.0"},{"Correct":32,"Choice":32,"RT":324.5699999970384,"Accuracy":1,"Sham":0,"Outcome":1,"Block":2,"Trial":153,"Valence":"Win","Action":"Go","trial_type":"pit-trial","trial_index":167,"time_elapsed":696586,"internal_node_id":"0.0-167.0"},{"Correct":-1,"Choice":-1,"RT":-1,"Accuracy":1,"Sham":0,"Outcome":0,"Block":2,"Trial":154,"Valence":"Lose","Action":"No-Go","trial_type":"pit-trial","trial_index":168,"time_elapsed":700595,"internal_node_id":"0.0-168.0"},{"Correct":32,"Choice":32,"RT":357.6699999975972,"Accuracy":1,"Sham":0,"Outcome":0,"Block":2,"Trial":155,"Valence":"Lose","Action":"Go","trial_type":"pit-trial","trial_index":169,"time_elapsed":703468,"internal_node_id":"0.0-169.0"},{"Correct":-1,"Choice":32,"RT":383.0549999985378,"Accuracy":0,"Sham":0,"Outcome":0,"Block":2,"Trial":156,"Valence":"Win","Action":"No-Go","trial_type":"pit-trial","trial_index":170,"time_elapsed":706362,"internal_node_id":"0.0-170.0"},{"Correct":32,"Choice":32,"RT":726.5049999987241,"Accuracy":1,"Sham":1,"Outcome":-1,"Block":2,"Trial":157,"Valence":"Lose","Action":"Go","trial_type":"pit-trial","trial_index":171,"time_elapsed":709602,"internal_node_id":"0.0-171.0"},{"Correct":-1,"Choice":-1,"RT":-1,"Accuracy":1,"Sham":1,"Outcome":-1,"Block":2,"Trial":158,"Valence":"Lose","Action":"No-Go","trial_type":"pit-trial","trial_index":172,"time_elapsed":713610,"internal_node_id":"0.0-172.0"},{"Correct":-1,"Choice":32,"RT":288.67000000178814,"Accuracy":0,"Sham":0,"Outcome":0,"Block":2,"Trial":159,"Valence":"Win","Action":"No-Go","trial_type":"pit-trial","trial_index":173,"time_elapsed":716406,"internal_node_id":"0.0-173.0"},{"Correct":32,"Choice":32,"RT":448.66999999806285,"Accuracy":1,"Sham":1,"Outcome":0,"Block":2,"Trial":160,"Valence":"Win","Action":"Go","trial_type":"pit-trial","trial_index":174,"time_elapsed":719362,"internal_node_id":"0.0-174.0"},{"rt":13115.904999998747,"demographics":{"age":"35","gender-categorical":"Male","ethnicity":"Not Hispanic or Latino","race":"White","english":"Yes","fluency":"Very well"},"trial_type":"survey-demo","trial_index":175,"time_elapsed":732488,"internal_node_id":"0.0-175.0"},{"rt":25565.39999999944,"debriefgraphics":{"difficulty":"3","fun":"4","clarity":"5","strategy":"nope, I just tried to put stories the symbols","feedback":""},"trial_type":"survey-debrief","trial_index":176,"time_elapsed":758061,"internal_node_id":"0.0-176.0","interactions":"[{\"event\":\"focus\",\"trial\":0,\"time\":18758},{\"event\":\"blur\",\"trial\":11,\"time\":118740},{\"event\":\"focus\",\"trial\":11,\"time\":121208},{\"event\":\"blur\",\"trial\":94,\"time\":429047},{\"event\":\"focus\",\"trial\":94,\"time\":442419}]"}]