[{"view_history":"[{\"page_index\":0,\"viewing_time\":4007.1749999997337},{\"page_index\":1,\"viewing_time\":36932.94499999956},{\"page_index\":2,\"viewing_time\":6140.575000000354},{\"page_index\":3,\"viewing_time\":7044.560000000274},{\"page_index\":4,\"viewing_time\":11968.785000000025}]","rt":66095.83500000008,"trial_type":"pit-instructions","trial_index":0,"time_elapsed":66099,"internal_node_id":"0.0-0.0"},{"Valence":"Practice","Color":"#fffff080","Rune":"01","Correct":32,"Choice":32,"RT":995.2349999994185,"Accuracy":1,"Sham":0,"Outcome":"+10","Keys":[2495.9900000003545],"TotalKeys":1,"trial_type":"pit-trial","trial_index":1,"time_elapsed":69604,"internal_node_id":"0.0-1.0"},{"Valence":"Practice","Color":"#fffff080","Rune":"01","Correct":32,"Choice":32,"RT":631.2550000002375,"Accuracy":1,"Sham":0,"Outcome":"+10","Keys":[2131.4849999998696],"TotalKeys":1,"trial_type":"pit-trial","trial_index":2,"time_elapsed":72740,"internal_node_id":"0.0-2.0"},{"Valence":"Practice","Color":"#fffff080","Rune":"01","Correct":32,"Choice":32,"RT":773.750000000291,"Accuracy":1,"Sham":0,"Outcome":"+10","Keys":[2273.8799999997427],"TotalKeys":1,"trial_type":"pit-trial","trial_index":3,"time_elapsed":76024,"internal_node_id":"0.0-3.0"},{"Valence":"Practice","Color":"#fffff080","Rune":"01","Correct":32,"Choice":32,"RT":618.6100000004371,"Accuracy":1,"Sham":0,"Outcome":"+10","Keys":[2119.3400000001857],"TotalKeys":1,"trial_type":"pit-trial","trial_index":4,"time_elapsed":79155,"internal_node_id":"0.0-4.0"},{"view_history":"[{\"page_index\":0,\"viewing_time\":5088.889999999999}]","rt":5089.544999999824,"trial_type":"pit-instructions","trial_index":5,"time_elapsed":84246,"internal_node_id":"0.0-5.0"},{"Valence":"Practice","Color":"#fffff080","Rune":"02","Correct":-1,"Choice":32,"RT":288.62500000013097,"Accuracy":0,"Sham":0,"Outcome":"+0","Keys":[1788.8950000006007],"TotalKeys":1,"trial_type":"pit-trial","trial_index":6,"time_elapsed":87043,"internal_node_id":"0.0-6.0"},{"Valence":"Practice","Color":"#fffff080","Rune":"02","Correct":-1,"Choice":-1,"RT":-1,"Accuracy":1,"Sham":0,"Outcome":"+10","Keys":[],"TotalKeys":0,"trial_type":"pit-trial","trial_index":7,"time_elapsed":91053,"internal_node_id":"0.0-7.0"},{"Valence":"Practice","Color":"#fffff080","Rune":"02","Correct":-1,"Choice":32,"RT":647.8549999992538,"Accuracy":0,"Sham":0,"Outcome":"+0","Keys":[2150.3099999999977],"TotalKeys":1,"trial_type":"pit-trial","trial_index":8,"time_elapsed":94211,"internal_node_id":"0.0-8.0"},{"Valence":"Practice","Color":"#fffff080","Rune":"02","Correct":-1,"Choice":-1,"RT":-1,"Accuracy":1,"Sham":0,"Outcome":"+10","Keys":[],"TotalKeys":0,"trial_type":"pit-trial","trial_index":9,"time_elapsed":98219,"internal_node_id":"0.0-9.0"},{"view_history":"[{\"page_index\":0,\"viewing_time\":1570678.685},{\"page_index\":1,\"viewing_time\":6895.814999999711},{\"page_index\":2,\"viewing_time\":6582.479999999981},{\"page_index\":3,\"viewing_time\":4218.935000000056},{\"page_index\":4,\"viewing_time\":4277.114999999758},{\"page_index\":5,\"viewing_time\":11214.135000000242},{\"page_index\":6,\"viewing_time\":756.0050000001211},{\"page_index\":7,\"viewing_time\":686.5849999994971}]","rt":1605310.3949999996,"trial_type":"pit-instructions","trial_index":10,"time_elapsed":1703535,"internal_node_id":"0.0-10.0"},{"rt":27247.914999999804,"responses":"{\"no-press\":\"Do nothing\",\"context-win\":\"+10\",\"context-lose\":\"-1\",\"feedback\":\"True\"}","errors":1,"trial_type":"pit-comprehension","trial_index":11,"time_elapsed":1730789,"internal_node_id":"0.0-11.0"},{"view_history":"[{\"page_index\":0,\"viewing_time\":49662.59999999963}]","rt":49663.78999999957,"trial_type":"pit-instructions","trial_index":12,"time_elapsed":1780457,"internal_node_id":"0.0-12.0"},{"Valence":"Win","Color":"#3366ff99","Rune":"05","Correct":-1,"Choice":32,"RT":757.6099999996368,"Accuracy":0,"Sham":0,"Outcome":"+1","Keys":[2258.284999999916],"TotalKeys":1,"Block":1,"Trial":1,"Action":"No-Go","Robot":2,"trial_type":"pit-trial","trial_index":13,"time_elapsed":1783721,"internal_node_id":"0.0-13.0"},{"Valence":"Lose","Color":"#ffcc3399","Rune":"03","Correct":32,"Choice":32,"RT":607.4750000007916,"Accuracy":1,"Sham":0,"Outcome":"-1","Keys":[2108.2800000004936],"TotalKeys":1,"Block":1,"Trial":2,"Action":"Go","Robot":3,"trial_type":"pit-trial","trial_index":14,"time_elapsed":1786837,"internal_node_id":"0.0-14.0"},{"Valence":"Lose","Color":"#ffcc3399","Rune":"06","Correct":-1,"Choice":32,"RT":364.15500000026077,"Accuracy":0,"Sham":0,"Outcome":"-10","Keys":[1864.960000000894],"TotalKeys":1,"Block":1,"Trial":3,"Action":"No-Go","Robot":4,"trial_type":"pit-trial","trial_index":15,"time_elapsed":1789709,"internal_node_id":"0.0-15.0"},{"Valence":"Win","Color":"#3366ff99","Rune":"04","Correct":32,"Choice":32,"RT":419.3949999997858,"Accuracy":1,"Sham":0,"Outcome":"+10","Keys":[1920.505000000121],"TotalKeys":1,"Block":1,"Trial":4,"Action":"Go","Robot":1,"trial_type":"pit-trial","trial_index":16,"time_elapsed":1792637,"internal_node_id":"0.0-16.0"},{"Valence":"Lose","Color":"#ffcc3399","Rune":"03","Correct":32,"Choice":32,"RT":834.4099999994505,"Accuracy":1,"Sham":1,"Outcome":"-10","Keys":[2334.8299999998417],"TotalKeys":1,"Block":1,"Trial":5,"Action":"Go","Robot":3,"trial_type":"pit-trial","trial_index":17,"time_elapsed":1795977,"internal_node_id":"0.0-17.0"},{"Valence":"Lose","Color":"#ffcc3399","Rune":"06","Correct":-1,"Choice":-1,"RT":-1,"Accuracy":1,"Sham":0,"Outcome":"-1","Keys":[3971.410000000149],"TotalKeys":1,"Block":1,"Trial":6,"Action":"No-Go","Robot":4,"trial_type":"pit-trial","trial_index":18,"time_elapsed":1799985,"internal_node_id":"0.0-18.0"},{"Valence":"Win","Color":"#3366ff99","Rune":"04","Correct":32,"Choice":32,"RT":536.7600000000093,"Accuracy":1,"Sham":0,"Outcome":"+10","Keys":[2037.690000000177],"TotalKeys":1,"Block":1,"Trial":7,"Action":"Go","Robot":1,"trial_type":"pit-trial","trial_index":19,"time_elapsed":1803030,"internal_node_id":"0.0-19.0"},{"Valence":"Win","Color":"#3366ff99","Rune":"05","Correct":-1,"Choice":32,"RT":452.4599999994971,"Accuracy":0,"Sham":0,"Outcome":"+1","Keys":[1953.8200000007637],"TotalKeys":1,"Block":1,"Trial":8,"Action":"No-Go","Robot":2,"trial_type":"pit-trial","trial_index":20,"time_elapsed":1805991,"internal_node_id":"0.0-20.0"},{"Valence":"Win","Color":"#3366ff99","Rune":"04","Correct":32,"Choice":32,"RT":543.7699999993201,"Accuracy":1,"Sham":0,"Outcome":"+10","Keys":[2044.2450000001118],"TotalKeys":1,"Block":1,"Trial":9,"Action":"Go","Robot":1,"trial_type":"pit-trial","trial_index":21,"time_elapsed":1809043,"internal_node_id":"0.0-21.0"},{"Valence":"Lose","Color":"#ffcc3399","Rune":"03","Correct":32,"Choice":-1,"RT":-1,"Accuracy":0,"Sham":0,"Outcome":"-10","Keys":[],"TotalKeys":0,"Block":1,"Trial":10,"Action":"Go","Robot":3,"trial_type":"pit-trial","trial_index":22,"time_elapsed":1813052,"internal_node_id":"0.0-22.0"},{"Valence":"Win","Color":"#3366ff99","Rune":"05","Correct":-1,"Choice":32,"RT":587.0049999994226,"Accuracy":0,"Sham":0,"Outcome":"+1","Keys":[2087.4799999999814],"TotalKeys":1,"Block":1,"Trial":11,"Action":"No-Go","Robot":2,"trial_type":"pit-trial","trial_index":23,"time_elapsed":1816147,"internal_node_id":"0.0-23.0"},{"Valence":"Lose","Color":"#ffcc3399","Rune":"06","Correct":-1,"Choice":32,"RT":1289.5500000002794,"Accuracy":0,"Sham":0,"Outcome":"-10","Keys":[2791.3349999999627],"TotalKeys":1,"Block":1,"Trial":12,"Action":"No-Go","Robot":4,"trial_type":"pit-trial","trial_index":24,"time_elapsed":1819945,"internal_node_id":"0.0-24.0"},{"Valence":"Win","Color":"#3366ff99","Rune":"04","Correct":32,"Choice":32,"RT":558.4550000005402,"Accuracy":1,"Sham":0,"Outcome":"+10","Keys":[2058.6949999998324],"TotalKeys":1,"Block":1,"Trial":13,"Action":"Go","Robot":1,"trial_type":"pit-trial","trial_index":25,"time_elapsed":1823011,"internal_node_id":"0.0-25.0"},{"Valence":"Win","Color":"#3366ff99","Rune":"05","Correct":-1,"Choice":32,"RT":628.0099999995437,"Accuracy":0,"Sham":0,"Outcome":"+1","Keys":[2130.234999999637],"TotalKeys":1,"Block":1,"Trial":14,"Action":"No-Go","Robot":2,"trial_type":"pit-trial","trial_index":26,"time_elapsed":1826151,"internal_node_id":"0.0-26.0"},{"Valence":"Lose","Color":"#ffcc3399","Rune":"03","Correct":32,"Choice":32,"RT":503.1300000001211,"Accuracy":1,"Sham":0,"Outcome":"-1","Keys":[2005.905000000028],"TotalKeys":1,"Block":1,"Trial":15,"Action":"Go","Robot":3,"trial_type":"pit-trial","trial_index":27,"time_elapsed":1829164,"internal_node_id":"0.0-27.0"},{"Valence":"Lose","Color":"#ffcc3399","Rune":"06","Correct":-1,"Choice":32,"RT":1074.9550000000745,"Accuracy":0,"Sham":1,"Outcome":"-1","Keys":[2576.7150000003166],"TotalKeys":1,"Block":1,"Trial":16,"Action":"No-Go","Robot":4,"trial_type":"pit-trial","trial_index":28,"time_elapsed":1832748,"internal_node_id":"0.0-28.0"},{"Valence":"Win","Color":"#3366ff99","Rune":"04","Correct":32,"Choice":32,"RT":575.4699999997392,"Accuracy":1,"Sham":1,"Outcome":"1","Keys":[2077.725000000093,2803.114999999758],"TotalKeys":2,"Block":1,"Trial":17,"Action":"Go","Robot":1,"trial_type":"pit-trial","trial_index":29,"time_elapsed":1835832,"internal_node_id":"0.0-29.0"},{"Valence":"Lose","Color":"#ffcc3399","Rune":"03","Correct":32,"Choice":-1,"RT":-1,"Accuracy":0,"Sham":0,"Outcome":"-10","Keys":[],"TotalKeys":0,"Block":1,"Trial":18,"Action":"Go","Robot":3,"trial_type":"pit-trial","trial_index":30,"time_elapsed":1839840,"internal_node_id":"0.0-30.0"},{"Valence":"Win","Color":"#3366ff99","Rune":"05","Correct":-1,"Choice":32,"RT":391.94500000053085,"Accuracy":0,"Sham":1,"Outcome":"+10","Keys":[1893.700000000652],"TotalKeys":1,"Block":1,"Trial":19,"Action":"No-Go","Robot":2,"trial_type":"pit-trial","trial_index":31,"time_elapsed":1842741,"internal_node_id":"0.0-31.0"},{"Valence":"Lose","Color":"#ffcc3399","Rune":"06","Correct":-1,"Choice":32,"RT":798.2350000003353,"Accuracy":0,"Sham":0,"Outcome":"-10","Keys":[2299.2649999996647],"TotalKeys":1,"Block":1,"Trial":20,"Action":"No-Go","Robot":4,"trial_type":"pit-trial","trial_index":32,"time_elapsed":1846049,"internal_node_id":"0.0-32.0"},{"Valence":"Lose","Color":"#ffcc3399","Rune":"06","Correct":-1,"Choice":32,"RT":1238.9549999998417,"Accuracy":0,"Sham":0,"Outcome":"-10","Keys":[2740.595000000205],"TotalKeys":1,"Block":1,"Trial":21,"Action":"No-Go","Robot":4,"trial_type":"pit-trial","trial_index":33,"time_elapsed":1849797,"internal_node_id":"0.0-33.0"},{"Valence":"Win","Color":"#3366ff99","Rune":"05","Correct":-1,"Choice":32,"RT":643.4950000001118,"Accuracy":0,"Sham":0,"Outcome":"+1","Keys":[2143.905000000028],"TotalKeys":1,"Block":1,"Trial":22,"Action":"No-Go","Robot":2,"trial_type":"pit-trial","trial_index":34,"time_elapsed":1852950,"internal_node_id":"0.0-34.0"},{"Valence":"Win","Color":"#3366ff99","Rune":"04","Correct":32,"Choice":32,"RT":1392.9250000002794,"Accuracy":1,"Sham":0,"Outcome":"+10","Keys":[2894.840000000084],"TotalKeys":1,"Block":1,"Trial":23,"Action":"Go","Robot":1,"trial_type":"pit-trial","trial_index":35,"time_elapsed":1856854,"internal_node_id":"0.0-35.0"},{"Valence":"Lose","Color":"#ffcc3399","Rune":"03","Correct":32,"Choice":32,"RT":1273.08499999973,"Accuracy":1,"Sham":0,"Outcome":"-1","Keys":[2776.030000000028],"TotalKeys":1,"Block":1,"Trial":24,"Action":"Go","Robot":3,"trial_type":"pit-trial","trial_index":36,"time_elapsed":1860638,"internal_node_id":"0.0-36.0"},{"Valence":"Lose","Color":"#ffcc3399","Rune":"06","Correct":-1,"Choice":-1,"RT":-1,"Accuracy":1,"Sham":0,"Outcome":"-1","Keys":[],"TotalKeys":0,"Block":1,"Trial":25,"Action":"No-Go","Robot":4,"trial_type":"pit-trial","trial_index":37,"time_elapsed":1864645,"internal_node_id":"0.0-37.0"},{"Valence":"Win","Color":"#3366ff99","Rune":"04","Correct":32,"Choice":32,"RT":293.160000000149,"Accuracy":1,"Sham":0,"Outcome":"+10","Keys":[1067.4650000000838,1794.5049999998882],"TotalKeys":2,"Block":1,"Trial":26,"Action":"Go","Robot":1,"trial_type":"pit-trial","trial_index":38,"time_elapsed":1867448,"internal_node_id":"0.0-38.0"},{"Valence":"Lose","Color":"#ffcc3399","Rune":"03","Correct":32,"Choice":32,"RT":626.9199999996927,"Accuracy":1,"Sham":0,"Outcome":"-1","Keys":[2127.6049999995157],"TotalKeys":1,"Block":1,"Trial":27,"Action":"Go","Robot":3,"trial_type":"pit-trial","trial_index":39,"time_elapsed":1870583,"internal_node_id":"0.0-39.0"},{"Valence":"Win","Color":"#3366ff99","Rune":"05","Correct":-1,"Choice":32,"RT":434.839999999851,"Accuracy":0,"Sham":0,"Outcome":"+1","Keys":[1935.0200000007171],"TotalKeys":1,"Block":1,"Trial":28,"Action":"No-Go","Robot":2,"trial_type":"pit-trial","trial_index":40,"time_elapsed":1873526,"internal_node_id":"0.0-40.0"},{"Valence":"Lose","Color":"#ffcc3399","Rune":"03","Correct":32,"Choice":32,"RT":356.7250000005588,"Accuracy":1,"Sham":0,"Outcome":"-1","Keys":[1857.3950000000186],"TotalKeys":1,"Block":1,"Trial":29,"Action":"Go","Robot":3,"trial_type":"pit-trial","trial_index":41,"time_elapsed":1876390,"internal_node_id":"0.0-41.0"},{"Valence":"Win","Color":"#3366ff99","Rune":"05","Correct":-1,"Choice":32,"RT":552.2199999997392,"Accuracy":0,"Sham":1,"Outcome":"+10","Keys":[1413.2300000002142,2053.1999999994878],"TotalKeys":2,"Block":1,"Trial":30,"Action":"No-Go","Robot":2,"trial_type":"pit-trial","trial_index":42,"time_elapsed":1879451,"internal_node_id":"0.0-42.0"},{"Valence":"Win","Color":"#3366ff99","Rune":"04","Correct":32,"Choice":32,"RT":1364.640000000596,"Accuracy":1,"Sham":1,"Outcome":"1","Keys":[1310.3499999998603,2865.3249999999534],"TotalKeys":2,"Block":1,"Trial":31,"Action":"Go","Robot":1,"trial_type":"pit-trial","trial_index":43,"time_elapsed":1883323,"internal_node_id":"0.0-43.0"},{"Valence":"Lose","Color":"#ffcc3399","Rune":"06","Correct":-1,"Choice":32,"RT":707.2749999999069,"Accuracy":0,"Sham":0,"Outcome":"-10","Keys":[2207.7650000001304],"TotalKeys":1,"Block":1,"Trial":32,"Action":"No-Go","Robot":4,"trial_type":"pit-trial","trial_index":44,"time_elapsed":1886538,"internal_node_id":"0.0-44.0"},{"Valence":"Lose","Color":"#ffcc3399","Rune":"06","Correct":-1,"Choice":-1,"RT":-1,"Accuracy":1,"Sham":0,"Outcome":"-1","Keys":[3363.990000000689],"TotalKeys":1,"Block":1,"Trial":33,"Action":"No-Go","Robot":4,"trial_type":"pit-trial","trial_index":45,"time_elapsed":1890546,"internal_node_id":"0.0-45.0"},{"Valence":"Win","Color":"#3366ff99","Rune":"05","Correct":-1,"Choice":32,"RT":412.8150000006426,"Accuracy":0,"Sham":0,"Outcome":"+1","Keys":[1230.744999999879,1913.3750000002328],"TotalKeys":2,"Block":1,"Trial":34,"Action":"No-Go","Robot":2,"trial_type":"pit-trial","trial_index":46,"time_elapsed":1893467,"internal_node_id":"0.0-46.0"},{"Valence":"Win","Color":"#3366ff99","Rune":"04","Correct":32,"Choice":32,"RT":477.5799999998417,"Accuracy":1,"Sham":0,"Outcome":"+10","Keys":[1979.5949999997392],"TotalKeys":1,"Block":1,"Trial":35,"Action":"Go","Robot":1,"trial_type":"pit-trial","trial_index":47,"time_elapsed":1896454,"internal_node_id":"0.0-47.0"},{"Valence":"Lose","Color":"#ffcc3399","Rune":"03","Correct":32,"Choice":32,"RT":109.30999999982305,"Accuracy":1,"Sham":1,"Outcome":"-10","Keys":[1610.20999999973],"TotalKeys":1,"Block":1,"Trial":36,"Action":"Go","Robot":3,"trial_type":"pit-trial","trial_index":48,"time_elapsed":1899073,"internal_node_id":"0.0-48.0"},{"Valence":"Lose","Color":"#ffcc3399","Rune":"06","Correct":-1,"Choice":-1,"RT":-1,"Accuracy":1,"Sham":1,"Outcome":"-10","Keys":[3847.850000000093],"TotalKeys":1,"Block":1,"Trial":37,"Action":"No-Go","Robot":4,"trial_type":"pit-trial","trial_index":49,"time_elapsed":1903080,"internal_node_id":"0.0-49.0"},{"Valence":"Lose","Color":"#ffcc3399","Rune":"03","Correct":32,"Choice":32,"RT":693.894999999553,"Accuracy":1,"Sham":0,"Outcome":"-1","Keys":[2195.725000000559],"TotalKeys":1,"Block":1,"Trial":38,"Action":"Go","Robot":3,"trial_type":"pit-trial","trial_index":50,"time_elapsed":1906280,"internal_node_id":"0.0-50.0"},{"Valence":"Win","Color":"#3366ff99","Rune":"04","Correct":32,"Choice":32,"RT":992.6550000000279,"Accuracy":1,"Sham":0,"Outcome":"+10","Keys":[2494.0049999996554],"TotalKeys":1,"Block":1,"Trial":39,"Action":"Go","Robot":1,"trial_type":"pit-trial","trial_index":51,"time_elapsed":1909780,"internal_node_id":"0.0-51.0"},{"Valence":"Win","Color":"#3366ff99","Rune":"05","Correct":-1,"Choice":-1,"RT":-1,"Accuracy":1,"Sham":0,"Outcome":"+10","Keys":[],"TotalKeys":0,"Block":1,"Trial":40,"Action":"No-Go","Robot":2,"trial_type":"pit-trial","trial_index":52,"time_elapsed":1913788,"internal_node_id":"0.0-52.0"},{"Valence":"Lose","Color":"#ffcc3399","Rune":"03","Correct":32,"Choice":32,"RT":665.804999999702,"Accuracy":1,"Sham":1,"Outcome":"-10","Keys":[50.12499999976717,1489.7149999996182,2168.4150000000373],"TotalKeys":3,"Block":1,"Trial":41,"Action":"Go","Robot":3,"trial_type":"pit-trial","trial_index":53,"time_elapsed":1916963,"internal_node_id":"0.0-53.0"},{"Valence":"Win","Color":"#3366ff99","Rune":"05","Correct":-1,"Choice":32,"RT":921.9750000000931,"Accuracy":0,"Sham":0,"Outcome":"+1","Keys":[2423.0150000001304],"TotalKeys":1,"Block":1,"Trial":42,"Action":"No-Go","Robot":2,"trial_type":"pit-trial","trial_index":54,"time_elapsed":1920395,"internal_node_id":"0.0-54.0"},{"Valence":"Lose","Color":"#ffcc3399","Rune":"06","Correct":-1,"Choice":32,"RT":1159.0500000000466,"Accuracy":0,"Sham":0,"Outcome":"-10","Keys":[2659.279999999795],"TotalKeys":1,"Block":1,"Trial":43,"Action":"No-Go","Robot":4,"trial_type":"pit-trial","trial_index":55,"time_elapsed":1924061,"internal_node_id":"0.0-55.0"},{"Valence":"Win","Color":"#3366ff99","Rune":"04","Correct":32,"Choice":-1,"RT":-1,"Accuracy":0,"Sham":0,"Outcome":"+1","Keys":[3882.6200000003446],"TotalKeys":1,"Block":1,"Trial":44,"Action":"Go","Robot":1,"trial_type":"pit-trial","trial_index":56,"time_elapsed":1928070,"internal_node_id":"0.0-56.0"},{"Valence":"Lose","Color":"#ffcc3399","Rune":"06","Correct":-1,"Choice":32,"RT":518.9300000001676,"Accuracy":0,"Sham":0,"Outcome":"-10","Keys":[1086.5450000001583,2019.8000000000466],"TotalKeys":2,"Block":1,"Trial":45,"Action":"No-Go","Robot":4,"trial_type":"pit-trial","trial_index":57,"time_elapsed":1931098,"internal_node_id":"0.0-57.0"},{"Valence":"Win","Color":"#3366ff99","Rune":"05","Correct":-1,"Choice":32,"RT":568.7699999997858,"Accuracy":0,"Sham":1,"Outcome":"+10","Keys":[2068.989999999758],"TotalKeys":1,"Block":1,"Trial":46,"Action":"No-Go","Robot":2,"trial_type":"pit-trial","trial_index":58,"time_elapsed":1934176,"internal_node_id":"0.0-58.0"},{"Valence":"Lose","Color":"#ffcc3399","Rune":"03","Correct":32,"Choice":32,"RT":639.6649999995716,"Accuracy":1,"Sham":0,"Outcome":"-1","Keys":[2140.95999999973],"TotalKeys":1,"Block":1,"Trial":47,"Action":"Go","Robot":3,"trial_type":"pit-trial","trial_index":59,"time_elapsed":1937324,"internal_node_id":"0.0-59.0"},{"Valence":"Win","Color":"#3366ff99","Rune":"04","Correct":32,"Choice":32,"RT":474.1750000002794,"Accuracy":1,"Sham":0,"Outcome":"+10","Keys":[1974.79000000027],"TotalKeys":1,"Block":1,"Trial":48,"Action":"Go","Robot":1,"trial_type":"pit-trial","trial_index":60,"time_elapsed":1940306,"internal_node_id":"0.0-60.0"},{"Valence":"Lose","Color":"#ffcc3399","Rune":"06","Correct":-1,"Choice":32,"RT":731.5299999990966,"Accuracy":0,"Sham":0,"Outcome":"-10","Keys":[2231.9050000004936],"TotalKeys":1,"Block":1,"Trial":49,"Action":"No-Go","Robot":4,"trial_type":"pit-trial","trial_index":61,"time_elapsed":1943545,"internal_node_id":"0.0-61.0"},{"Valence":"Win","Color":"#3366ff99","Rune":"04","Correct":32,"Choice":32,"RT":305.40500000002794,"Accuracy":1,"Sham":0,"Outcome":"+10","Keys":[1806.4000000003725],"TotalKeys":1,"Block":1,"Trial":50,"Action":"Go","Robot":1,"trial_type":"pit-trial","trial_index":62,"time_elapsed":1946359,"internal_node_id":"0.0-62.0"},{"Valence":"Win","Color":"#3366ff99","Rune":"05","Correct":-1,"Choice":32,"RT":859.2700000000186,"Accuracy":0,"Sham":0,"Outcome":"+1","Keys":[2359.739999999758],"TotalKeys":1,"Block":1,"Trial":51,"Action":"No-Go","Robot":2,"trial_type":"pit-trial","trial_index":63,"time_elapsed":1949726,"internal_node_id":"0.0-63.0"},{"Valence":"Lose","Color":"#ffcc3399","Rune":"03","Correct":32,"Choice":32,"RT":574.5000000004657,"Accuracy":1,"Sham":0,"Outcome":"-1","Keys":[1295.2299999997485,2076.100000000326],"TotalKeys":2,"Block":1,"Trial":52,"Action":"Go","Robot":3,"trial_type":"pit-trial","trial_index":64,"time_elapsed":1952809,"internal_node_id":"0.0-64.0"},{"Valence":"Win","Color":"#3366ff99","Rune":"05","Correct":-1,"Choice":32,"RT":568.0649999994785,"Accuracy":0,"Sham":0,"Outcome":"+1","Keys":[2068.4149999998044],"TotalKeys":1,"Block":1,"Trial":53,"Action":"No-Go","Robot":2,"trial_type":"pit-trial","trial_index":65,"time_elapsed":1955885,"internal_node_id":"0.0-65.0"},{"Valence":"Lose","Color":"#ffcc3399","Rune":"03","Correct":32,"Choice":32,"RT":727.1149999997579,"Accuracy":1,"Sham":0,"Outcome":"-1","Keys":[2227.369999999646],"TotalKeys":1,"Block":1,"Trial":54,"Action":"Go","Robot":3,"trial_type":"pit-trial","trial_index":66,"time_elapsed":1959120,"internal_node_id":"0.0-66.0"},{"Valence":"Lose","Color":"#ffcc3399","Rune":"06","Correct":-1,"Choice":32,"RT":642.6249999995343,"Accuracy":0,"Sham":0,"Outcome":"-10","Keys":[2143.2249999998603],"TotalKeys":1,"Block":1,"Trial":55,"Action":"No-Go","Robot":4,"trial_type":"pit-trial","trial_index":67,"time_elapsed":1962272,"internal_node_id":"0.0-67.0"},{"Valence":"Win","Color":"#3366ff99","Rune":"04","Correct":32,"Choice":32,"RT":662.0199999997858,"Accuracy":1,"Sham":0,"Outcome":"+10","Keys":[2162.890000000363],"TotalKeys":1,"Block":1,"Trial":56,"Action":"Go","Robot":1,"trial_type":"pit-trial","trial_index":68,"time_elapsed":1965441,"internal_node_id":"0.0-68.0"},{"Valence":"Win","Color":"#3366ff99","Rune":"04","Correct":32,"Choice":32,"RT":469.8900000001304,"Accuracy":1,"Sham":1,"Outcome":"1","Keys":[1971.355000000447],"TotalKeys":1,"Block":1,"Trial":57,"Action":"Go","Robot":1,"trial_type":"pit-trial","trial_index":69,"time_elapsed":1968422,"internal_node_id":"0.0-69.0"},{"Valence":"Lose","Color":"#ffcc3399","Rune":"03","Correct":32,"Choice":32,"RT":544.4850000003353,"Accuracy":1,"Sham":0,"Outcome":"-1","Keys":[2046.0500000000466],"TotalKeys":1,"Block":1,"Trial":58,"Action":"Go","Robot":3,"trial_type":"pit-trial","trial_index":70,"time_elapsed":1971476,"internal_node_id":"0.0-70.0"},{"Valence":"Lose","Color":"#ffcc3399","Rune":"06","Correct":-1,"Choice":32,"RT":524.589999999851,"Accuracy":0,"Sham":1,"Outcome":"-1","Keys":[2025.1350000000093],"TotalKeys":1,"Block":1,"Trial":59,"Action":"No-Go","Robot":4,"trial_type":"pit-trial","trial_index":71,"time_elapsed":1974509,"internal_node_id":"0.0-71.0"},{"Valence":"Win","Color":"#3366ff99","Rune":"05","Correct":-1,"Choice":32,"RT":794.0850000004284,"Accuracy":0,"Sham":0,"Outcome":"+1","Keys":[2295.5300000002608],"TotalKeys":1,"Block":1,"Trial":60,"Action":"No-Go","Robot":2,"trial_type":"pit-trial","trial_index":72,"time_elapsed":1977811,"internal_node_id":"0.0-72.0"},{"Valence":"Win","Color":"#3366ff99","Rune":"05","Correct":-1,"Choice":32,"RT":412.4799999999814,"Accuracy":0,"Sham":0,"Outcome":"+1","Keys":[1912.9899999999907],"TotalKeys":1,"Block":1,"Trial":61,"Action":"No-Go","Robot":2,"trial_type":"pit-trial","trial_index":73,"time_elapsed":1980730,"internal_node_id":"0.0-73.0"},{"Valence":"Lose","Color":"#ffcc3399","Rune":"03","Correct":32,"Choice":32,"RT":707.0599999995902,"Accuracy":1,"Sham":0,"Outcome":"-1","Keys":[2207.9999999995343],"TotalKeys":1,"Block":1,"Trial":62,"Action":"Go","Robot":3,"trial_type":"pit-trial","trial_index":74,"time_elapsed":1983945,"internal_node_id":"0.0-74.0"},{"Valence":"Lose","Color":"#ffcc3399","Rune":"06","Correct":-1,"Choice":-1,"RT":-1,"Accuracy":1,"Sham":0,"Outcome":"-1","Keys":[3935.7899999993388],"TotalKeys":1,"Block":1,"Trial":63,"Action":"No-Go","Robot":4,"trial_type":"pit-trial","trial_index":75,"time_elapsed":1987953,"internal_node_id":"0.0-75.0"},{"Valence":"Win","Color":"#3366ff99","Rune":"04","Correct":32,"Choice":32,"RT":620.3750000002328,"Accuracy":1,"Sham":0,"Outcome":"+10","Keys":[1249.084999999497,2121.8649999999907],"TotalKeys":2,"Block":1,"Trial":64,"Action":"Go","Robot":1,"trial_type":"pit-trial","trial_index":76,"time_elapsed":1991082,"internal_node_id":"0.0-76.0"},{"Valence":"Win","Color":"#3366ff99","Rune":"05","Correct":-1,"Choice":32,"RT":55.59499999997206,"Accuracy":0,"Sham":0,"Outcome":"+1","Keys":[1555.7600000002421,2291.825000000419],"TotalKeys":2,"Block":1,"Trial":65,"Action":"No-Go","Robot":2,"trial_type":"pit-trial","trial_index":77,"time_elapsed":1993647,"internal_node_id":"0.0-77.0"},{"Valence":"Lose","Color":"#ffcc3399","Rune":"06","Correct":-1,"Choice":32,"RT":514.4250000002794,"Accuracy":0,"Sham":0,"Outcome":"-10","Keys":[2015.3900000003632],"TotalKeys":1,"Block":1,"Trial":66,"Action":"No-Go","Robot":4,"trial_type":"pit-trial","trial_index":78,"time_elapsed":1996671,"internal_node_id":"0.0-78.0"},{"Valence":"Win","Color":"#3366ff99","Rune":"04","Correct":32,"Choice":32,"RT":890.9249999998137,"Accuracy":1,"Sham":1,"Outcome":"1","Keys":[2391.475000000326],"TotalKeys":1,"Block":1,"Trial":67,"Action":"Go","Robot":1,"trial_type":"pit-trial","trial_index":79,"time_elapsed":2000070,"internal_node_id":"0.0-79.0"},{"Valence":"Lose","Color":"#ffcc3399","Rune":"03","Correct":32,"Choice":32,"RT":556.4449999993667,"Accuracy":1,"Sham":0,"Outcome":"-1","Keys":[2057.575000000652],"TotalKeys":1,"Block":1,"Trial":68,"Action":"Go","Robot":3,"trial_type":"pit-trial","trial_index":80,"time_elapsed":2003135,"internal_node_id":"0.0-80.0"},{"Valence":"Lose","Color":"#ffcc3399","Rune":"06","Correct":-1,"Choice":-1,"RT":-1,"Accuracy":1,"Sham":1,"Outcome":"-10","Keys":[3097.41500000027],"TotalKeys":1,"Block":1,"Trial":69,"Action":"No-Go","Robot":4,"trial_type":"pit-trial","trial_index":81,"time_elapsed":2007143,"internal_node_id":"0.0-81.0"},{"Valence":"Lose","Color":"#ffcc3399","Rune":"03","Correct":32,"Choice":32,"RT":392.53000000026077,"Accuracy":1,"Sham":0,"Outcome":"-1","Keys":[1893.33499999973],"TotalKeys":1,"Block":1,"Trial":70,"Action":"Go","Robot":3,"trial_type":"pit-trial","trial_index":82,"time_elapsed":2010044,"internal_node_id":"0.0-82.0"},{"Valence":"Win","Color":"#3366ff99","Rune":"04","Correct":32,"Choice":32,"RT":332.1399999996647,"Accuracy":1,"Sham":0,"Outcome":"+10","Keys":[770.5650000006426,1832.7650000001304],"TotalKeys":2,"Block":1,"Trial":71,"Action":"Go","Robot":1,"trial_type":"pit-trial","trial_index":83,"time_elapsed":2012883,"internal_node_id":"0.0-83.0"},{"Valence":"Win","Color":"#3366ff99","Rune":"05","Correct":-1,"Choice":32,"RT":475.9799999992829,"Accuracy":0,"Sham":0,"Outcome":"+1","Keys":[1246.554999999702,1976.144999999553],"TotalKeys":2,"Block":1,"Trial":72,"Action":"No-Go","Robot":2,"trial_type":"pit-trial","trial_index":84,"time_elapsed":2015867,"internal_node_id":"0.0-84.0"},{"Valence":"Win","Color":"#3366ff99","Rune":"05","Correct":-1,"Choice":32,"RT":963.1849999995902,"Accuracy":0,"Sham":0,"Outcome":"+1","Keys":[2463.4799999995157],"TotalKeys":1,"Block":1,"Trial":73,"Action":"No-Go","Robot":2,"trial_type":"pit-trial","trial_index":85,"time_elapsed":2019337,"internal_node_id":"0.0-85.0"},{"Valence":"Lose","Color":"#ffcc3399","Rune":"03","Correct":32,"Choice":32,"RT":280.3350000004284,"Accuracy":1,"Sham":1,"Outcome":"-10","Keys":[1780.4000000006054],"TotalKeys":1,"Block":1,"Trial":74,"Action":"Go","Robot":3,"trial_type":"pit-trial","trial_index":86,"time_elapsed":2022126,"internal_node_id":"0.0-86.0"},{"Valence":"Win","Color":"#3366ff99","Rune":"04","Correct":32,"Choice":32,"RT":553.484999999404,"Accuracy":1,"Sham":0,"Outcome":"+10","Keys":[2054.2849999994505],"TotalKeys":1,"Block":1,"Trial":75,"Action":"Go","Robot":1,"trial_type":"pit-trial","trial_index":87,"time_elapsed":2025188,"internal_node_id":"0.0-87.0"},{"Valence":"Lose","Color":"#ffcc3399","Rune":"06","Correct":-1,"Choice":32,"RT":375.39999999990687,"Accuracy":0,"Sham":0,"Outcome":"-10","Keys":[404.8549999999814,1281.2949999999255,1876.7700000000186],"TotalKeys":3,"Block":1,"Trial":76,"Action":"No-Go","Robot":4,"trial_type":"pit-trial","trial_index":88,"time_elapsed":2028073,"internal_node_id":"0.0-88.0"},{"Valence":"Win","Color":"#3366ff99","Rune":"05","Correct":-1,"Choice":32,"RT":646.5800000005402,"Accuracy":0,"Sham":1,"Outcome":"+10","Keys":[1466.024999999674,2147.2299999995157],"TotalKeys":2,"Block":1,"Trial":77,"Action":"No-Go","Robot":2,"trial_type":"pit-trial","trial_index":89,"time_elapsed":2031228,"internal_node_id":"0.0-89.0"},{"Valence":"Win","Color":"#3366ff99","Rune":"04","Correct":32,"Choice":32,"RT":540.2100000001956,"Accuracy":1,"Sham":0,"Outcome":"+10","Keys":[191.5700000000652,2040.4849999996368],"TotalKeys":2,"Block":1,"Trial":78,"Action":"Go","Robot":1,"trial_type":"pit-trial","trial_index":90,"time_elapsed":2034276,"internal_node_id":"0.0-90.0"},{"Valence":"Lose","Color":"#ffcc3399","Rune":"06","Correct":-1,"Choice":32,"RT":1085.969999999972,"Accuracy":0,"Sham":0,"Outcome":"-10","Keys":[2586.589999999851],"TotalKeys":1,"Block":1,"Trial":79,"Action":"No-Go","Robot":4,"trial_type":"pit-trial","trial_index":91,"time_elapsed":2037870,"internal_node_id":"0.0-91.0"},{"Valence":"Lose","Color":"#ffcc3399","Rune":"03","Correct":32,"Choice":-1,"RT":-1,"Accuracy":0,"Sham":0,"Outcome":"-10","Keys":[],"TotalKeys":0,"Block":1,"Trial":80,"Action":"Go","Robot":3,"trial_type":"pit-trial","trial_index":92,"time_elapsed":2041877,"internal_node_id":"0.0-92.0"},{"value":false,"trial_type":"call-function","trial_index":93,"time_elapsed":2041881,"internal_node_id":"0.0-93.0"},{"RT":31264.244999999413,"trial_type":"pit-pause","trial_index":94,"time_elapsed":2075269,"internal_node_id":"0.0-94.0"},{"Valence":"Win","Color":"#3366ff99","Rune":"04","Correct":32,"Choice":32,"RT":551.9599999997299,"Accuracy":1,"Sham":0,"Outcome":"+10","Keys":[2052.18499999959],"TotalKeys":1,"Block":2,"Trial":81,"Action":"Go","Robot":1,"trial_type":"pit-trial","trial_index":95,"time_elapsed":2078327,"internal_node_id":"0.0-95.0"},{"Valence":"Win","Color":"#3366ff99","Rune":"05","Correct":-1,"Choice":32,"RT":266.93500000075437,"Accuracy":0,"Sham":0,"Outcome":"+1","Keys":[1768.535000000149],"TotalKeys":1,"Block":2,"Trial":82,"Action":"No-Go","Robot":2,"trial_type":"pit-trial","trial_index":96,"time_elapsed":2081101,"internal_node_id":"0.0-96.0"},{"Valence":"Lose","Color":"#ffcc3399","Rune":"06","Correct":-1,"Choice":32,"RT":630.5000000002328,"Accuracy":0,"Sham":0,"Outcome":"-10","Keys":[377.7799999997951,2131.744999999646],"TotalKeys":2,"Block":2,"Trial":83,"Action":"No-Go","Robot":4,"trial_type":"pit-trial","trial_index":97,"time_elapsed":2084240,"internal_node_id":"0.0-97.0"},{"Valence":"Lose","Color":"#ffcc3399","Rune":"03","Correct":32,"Choice":32,"RT":503.18999999947846,"Accuracy":1,"Sham":0,"Outcome":"-1","Keys":[2003.880000000121],"TotalKeys":1,"Block":2,"Trial":84,"Action":"Go","Robot":3,"trial_type":"pit-trial","trial_index":98,"time_elapsed":2087251,"internal_node_id":"0.0-98.0"},{"Valence":"Win","Color":"#3366ff99","Rune":"04","Correct":32,"Choice":32,"RT":405.5350000006147,"Accuracy":1,"Sham":0,"Outcome":"+10","Keys":[1905.7599999995437],"TotalKeys":1,"Block":2,"Trial":85,"Action":"Go","Robot":1,"trial_type":"pit-trial","trial_index":99,"time_elapsed":2090164,"internal_node_id":"0.0-99.0"},{"Valence":"Win","Color":"#3366ff99","Rune":"05","Correct":-1,"Choice":32,"RT":569.940000000177,"Accuracy":0,"Sham":0,"Outcome":"+1","Keys":[2070.4350000005215],"TotalKeys":1,"Block":2,"Trial":86,"Action":"No-Go","Robot":2,"trial_type":"pit-trial","trial_index":100,"time_elapsed":2093242,"internal_node_id":"0.0-100.0"},{"Valence":"Lose","Color":"#ffcc3399","Rune":"03","Correct":32,"Choice":32,"RT":614.964999999851,"Accuracy":1,"Sham":0,"Outcome":"-1","Keys":[2116.689999999944],"TotalKeys":1,"Block":2,"Trial":87,"Action":"Go","Robot":3,"trial_type":"pit-trial","trial_index":101,"time_elapsed":2096365,"internal_node_id":"0.0-101.0"},{"Valence":"Lose","Color":"#ffcc3399","Rune":"06","Correct":-1,"Choice":32,"RT":1001.5949999997392,"Accuracy":0,"Sham":0,"Outcome":"-10","Keys":[2503.334999999497],"TotalKeys":1,"Block":2,"Trial":88,"Action":"No-Go","Robot":4,"trial_type":"pit-trial","trial_index":102,"time_elapsed":2099875,"internal_node_id":"0.0-102.0"},{"Valence":"Lose","Color":"#ffcc3399","Rune":"03","Correct":32,"Choice":32,"RT":716.2700000000186,"Accuracy":1,"Sham":1,"Outcome":"-10","Keys":[2216.404999999795],"TotalKeys":1,"Block":2,"Trial":89,"Action":"Go","Robot":3,"trial_type":"pit-trial","trial_index":103,"time_elapsed":2103100,"internal_node_id":"0.0-103.0"},{"Valence":"Win","Color":"#3366ff99","Rune":"04","Correct":32,"Choice":32,"RT":456.8599999998696,"Accuracy":1,"Sham":1,"Outcome":"1","Keys":[1957.4449999998324],"TotalKeys":1,"Block":2,"Trial":90,"Action":"Go","Robot":1,"trial_type":"pit-trial","trial_index":104,"time_elapsed":2106063,"internal_node_id":"0.0-104.0"},{"Valence":"Win","Color":"#3366ff99","Rune":"05","Correct":-1,"Choice":32,"RT":601.3649999997579,"Accuracy":0,"Sham":0,"Outcome":"+1","Keys":[2102.2000000001863],"TotalKeys":1,"Block":2,"Trial":91,"Action":"No-Go","Robot":2,"trial_type":"pit-trial","trial_index":105,"time_elapsed":2109173,"internal_node_id":"0.0-105.0"},{"Valence":"Lose","Color":"#ffcc3399","Rune":"06","Correct":-1,"Choice":32,"RT":1063.1949999993667,"Accuracy":0,"Sham":0,"Outcome":"-10","Keys":[2564.475000000093],"TotalKeys":1,"Block":2,"Trial":92,"Action":"No-Go","Robot":4,"trial_type":"pit-trial","trial_index":106,"time_elapsed":2112747,"internal_node_id":"0.0-106.0"},{"Valence":"Lose","Color":"#ffcc3399","Rune":"06","Correct":-1,"Choice":32,"RT":554.535000000149,"Accuracy":0,"Sham":0,"Outcome":"-10","Keys":[2054.920000000391],"TotalKeys":1,"Block":2,"Trial":93,"Action":"No-Go","Robot":4,"trial_type":"pit-trial","trial_index":107,"time_elapsed":2115810,"internal_node_id":"0.0-107.0"},{"Valence":"Win","Color":"#3366ff99","Rune":"04","Correct":32,"Choice":32,"RT":426.8250000006519,"Accuracy":1,"Sham":0,"Outcome":"+10","Keys":[1927.8999999999069],"TotalKeys":1,"Block":2,"Trial":94,"Action":"Go","Robot":1,"trial_type":"pit-trial","trial_index":108,"time_elapsed":2118745,"internal_node_id":"0.0-108.0"},{"Valence":"Lose","Color":"#ffcc3399","Rune":"03","Correct":32,"Choice":32,"RT":490.3250000006519,"Accuracy":1,"Sham":0,"Outcome":"-1","Keys":[1990.8199999998324],"TotalKeys":1,"Block":2,"Trial":95,"Action":"Go","Robot":3,"trial_type":"pit-trial","trial_index":109,"time_elapsed":2121742,"internal_node_id":"0.0-109.0"},{"Valence":"Win","Color":"#3366ff99","Rune":"05","Correct":-1,"Choice":32,"RT":515.589999999851,"Accuracy":0,"Sham":1,"Outcome":"+10","Keys":[2016.595000000205],"TotalKeys":1,"Block":2,"Trial":96,"Action":"No-Go","Robot":2,"trial_type":"pit-trial","trial_index":110,"time_elapsed":2124767,"internal_node_id":"0.0-110.0"},{"Valence":"Lose","Color":"#ffcc3399","Rune":"06","Correct":-1,"Choice":32,"RT":755.6400000001304,"Accuracy":0,"Sham":1,"Outcome":"-1","Keys":[2256.704999999609],"TotalKeys":1,"Block":2,"Trial":97,"Action":"No-Go","Robot":4,"trial_type":"pit-trial","trial_index":111,"time_elapsed":2128031,"internal_node_id":"0.0-111.0"},{"Valence":"Win","Color":"#3366ff99","Rune":"04","Correct":32,"Choice":32,"RT":627.339999999851,"Accuracy":1,"Sham":0,"Outcome":"+10","Keys":[2128.149999999441],"TotalKeys":1,"Block":2,"Trial":98,"Action":"Go","Robot":1,"trial_type":"pit-trial","trial_index":112,"time_elapsed":2131166,"internal_node_id":"0.0-112.0"},{"Valence":"Lose","Color":"#ffcc3399","Rune":"03","Correct":32,"Choice":32,"RT":813.339999999851,"Accuracy":1,"Sham":0,"Outcome":"-1","Keys":[2314.795000000391],"TotalKeys":1,"Block":2,"Trial":99,"Action":"Go","Robot":3,"trial_type":"pit-trial","trial_index":113,"time_elapsed":2134488,"internal_node_id":"0.0-113.0"},{"Valence":"Win","Color":"#3366ff99","Rune":"05","Correct":-1,"Choice":32,"RT":1231.5599999991246,"Accuracy":0,"Sham":0,"Outcome":"+1","Keys":[2731.7100000004284],"TotalKeys":1,"Block":2,"Trial":100,"Action":"No-Go","Robot":2,"trial_type":"pit-trial","trial_index":114,"time_elapsed":2138227,"internal_node_id":"0.0-114.0"},{"Valence":"Lose","Color":"#ffcc3399","Rune":"06","Correct":-1,"Choice":32,"RT":928.2949999999255,"Accuracy":0,"Sham":0,"Outcome":"-10","Keys":[2430.1399999996647],"TotalKeys":1,"Block":2,"Trial":101,"Action":"No-Go","Robot":4,"trial_type":"pit-trial","trial_index":115,"time_elapsed":2141674,"internal_node_id":"0.0-115.0"},{"Valence":"Lose","Color":"#ffcc3399","Rune":"03","Correct":32,"Choice":-1,"RT":-1,"Accuracy":0,"Sham":0,"Outcome":"-10","Keys":[],"TotalKeys":0,"Block":2,"Trial":102,"Action":"Go","Robot":3,"trial_type":"pit-trial","trial_index":116,"time_elapsed":2145682,"internal_node_id":"0.0-116.0"},{"Valence":"Win","Color":"#3366ff99","Rune":"04","Correct":32,"Choice":32,"RT":1202.720000000205,"Accuracy":1,"Sham":1,"Outcome":"1","Keys":[2703.5150000001304],"TotalKeys":1,"Block":2,"Trial":103,"Action":"Go","Robot":1,"trial_type":"pit-trial","trial_index":117,"time_elapsed":2149393,"internal_node_id":"0.0-117.0"},{"Valence":"Win","Color":"#3366ff99","Rune":"05","Correct":-1,"Choice":32,"RT":559.8249999992549,"Accuracy":0,"Sham":1,"Outcome":"+10","Keys":[573.1699999994598,1448.2049999996088,2060.4149999995716],"TotalKeys":3,"Block":2,"Trial":104,"Action":"No-Go","Robot":2,"trial_type":"pit-trial","trial_index":118,"time_elapsed":2152461,"internal_node_id":"0.0-118.0"},{"Valence":"Lose","Color":"#ffcc3399","Rune":"03","Correct":32,"Choice":32,"RT":903.3449999997392,"Accuracy":1,"Sham":0,"Outcome":"-1","Keys":[2403.9049999993294],"TotalKeys":1,"Block":2,"Trial":105,"Action":"Go","Robot":3,"trial_type":"pit-trial","trial_index":119,"time_elapsed":2155872,"internal_node_id":"0.0-119.0"},{"Valence":"Win","Color":"#3366ff99","Rune":"04","Correct":32,"Choice":32,"RT":585.7400000006892,"Accuracy":1,"Sham":0,"Outcome":"+10","Keys":[2086.804999999702],"TotalKeys":1,"Block":2,"Trial":106,"Action":"Go","Robot":1,"trial_type":"pit-trial","trial_index":120,"time_elapsed":2158966,"internal_node_id":"0.0-120.0"},{"Valence":"Win","Color":"#3366ff99","Rune":"05","Correct":-1,"Choice":32,"RT":818.2949999999255,"Accuracy":0,"Sham":0,"Outcome":"+1","Keys":[2318.989999999758,3010.185000000056],"TotalKeys":2,"Block":2,"Trial":107,"Action":"No-Go","Robot":2,"trial_type":"pit-trial","trial_index":121,"time_elapsed":2162292,"internal_node_id":"0.0-121.0"},{"Valence":"Lose","Color":"#ffcc3399","Rune":"06","Correct":-1,"Choice":-1,"RT":-1,"Accuracy":1,"Sham":0,"Outcome":"-1","Keys":[658.2500000004657,1434.2650000001304],"TotalKeys":2,"Block":2,"Trial":108,"Action":"No-Go","Robot":4,"trial_type":"pit-trial","trial_index":122,"time_elapsed":2166301,"internal_node_id":"0.0-122.0"},{"Valence":"Win","Color":"#3366ff99","Rune":"05","Correct":-1,"Choice":32,"RT":592.7800000002608,"Accuracy":0,"Sham":0,"Outcome":"+1","Keys":[2094.2450000001118],"TotalKeys":1,"Block":2,"Trial":109,"Action":"No-Go","Robot":2,"trial_type":"pit-trial","trial_index":123,"time_elapsed":2169403,"internal_node_id":"0.0-123.0"},{"Valence":"Lose","Color":"#ffcc3399","Rune":"06","Correct":-1,"Choice":-1,"RT":-1,"Accuracy":1,"Sham":0,"Outcome":"-1","Keys":[217.47999999998137],"TotalKeys":1,"Block":2,"Trial":110,"Action":"No-Go","Robot":4,"trial_type":"pit-trial","trial_index":124,"time_elapsed":2173410,"internal_node_id":"0.0-124.0"},{"Valence":"Win","Color":"#3366ff99","Rune":"04","Correct":32,"Choice":32,"RT":297.73000000044703,"Accuracy":1,"Sham":0,"Outcome":"+10","Keys":[1799.1699999999255],"TotalKeys":1,"Block":2,"Trial":111,"Action":"Go","Robot":1,"trial_type":"pit-trial","trial_index":125,"time_elapsed":2176214,"internal_node_id":"0.0-125.0"},{"Valence":"Lose","Color":"#ffcc3399","Rune":"03","Correct":32,"Choice":32,"RT":515.9950000005774,"Accuracy":1,"Sham":0,"Outcome":"-1","Keys":[2016.6000000000931],"TotalKeys":1,"Block":2,"Trial":112,"Action":"Go","Robot":3,"trial_type":"pit-trial","trial_index":126,"time_elapsed":2179237,"internal_node_id":"0.0-126.0"},{"Valence":"Win","Color":"#3366ff99","Rune":"05","Correct":-1,"Choice":32,"RT":425.0449999999255,"Accuracy":0,"Sham":0,"Outcome":"+1","Keys":[1925.605000000447],"TotalKeys":1,"Block":2,"Trial":113,"Action":"No-Go","Robot":2,"trial_type":"pit-trial","trial_index":127,"time_elapsed":2182169,"internal_node_id":"0.0-127.0"},{"Valence":"Lose","Color":"#ffcc3399","Rune":"06","Correct":-1,"Choice":32,"RT":158.98999999975786,"Accuracy":0,"Sham":0,"Outcome":"-10","Keys":[201.7749999994412,1660.9699999997392],"TotalKeys":2,"Block":2,"Trial":114,"Action":"No-Go","Robot":4,"trial_type":"pit-trial","trial_index":128,"time_elapsed":2184833,"internal_node_id":"0.0-128.0"},{"Valence":"Lose","Color":"#ffcc3399","Rune":"03","Correct":32,"Choice":32,"RT":504.464999999851,"Accuracy":1,"Sham":1,"Outcome":"-10","Keys":[2005.3100000005215],"TotalKeys":1,"Block":2,"Trial":115,"Action":"Go","Robot":3,"trial_type":"pit-trial","trial_index":129,"time_elapsed":2187845,"internal_node_id":"0.0-129.0"},{"Valence":"Win","Color":"#3366ff99","Rune":"04","Correct":32,"Choice":32,"RT":496.68000000016764,"Accuracy":1,"Sham":0,"Outcome":"+10","Keys":[1999.325000000652],"TotalKeys":1,"Block":2,"Trial":116,"Action":"Go","Robot":1,"trial_type":"pit-trial","trial_index":130,"time_elapsed":2190849,"internal_node_id":"0.0-130.0"},{"Valence":"Lose","Color":"#ffcc3399","Rune":"06","Correct":-1,"Choice":-1,"RT":-1,"Accuracy":1,"Sham":1,"Outcome":"-10","Keys":[],"TotalKeys":0,"Block":2,"Trial":117,"Action":"No-Go","Robot":4,"trial_type":"pit-trial","trial_index":131,"time_elapsed":2194858,"internal_node_id":"0.0-131.0"},{"Valence":"Lose","Color":"#ffcc3399","Rune":"03","Correct":32,"Choice":32,"RT":582.9050000002608,"Accuracy":1,"Sham":0,"Outcome":"-1","Keys":[2083.1150000002235,2902.25],"TotalKeys":2,"Block":2,"Trial":118,"Action":"Go","Robot":3,"trial_type":"pit-trial","trial_index":132,"time_elapsed":2197948,"internal_node_id":"0.0-132.0"},{"Valence":"Win","Color":"#3366ff99","Rune":"05","Correct":-1,"Choice":32,"RT":557.7400000002235,"Accuracy":0,"Sham":0,"Outcome":"+1","Keys":[2058.7849999992177],"TotalKeys":1,"Block":2,"Trial":119,"Action":"No-Go","Robot":2,"trial_type":"pit-trial","trial_index":133,"time_elapsed":2201014,"internal_node_id":"0.0-133.0"},{"Valence":"Win","Color":"#3366ff99","Rune":"04","Correct":32,"Choice":32,"RT":441.60000000009313,"Accuracy":1,"Sham":0,"Outcome":"+10","Keys":[1941.9950000001118],"TotalKeys":1,"Block":2,"Trial":120,"Action":"Go","Robot":1,"trial_type":"pit-trial","trial_index":134,"time_elapsed":2203962,"internal_node_id":"0.0-134.0"},{"Valence":"Win","Color":"#3366ff99","Rune":"05","Correct":-1,"Choice":32,"RT":380.84499999973923,"Accuracy":0,"Sham":0,"Outcome":"+1","Keys":[1881.1800000006333],"TotalKeys":1,"Block":2,"Trial":121,"Action":"No-Go","Robot":2,"trial_type":"pit-trial","trial_index":135,"time_elapsed":2206850,"internal_node_id":"0.0-135.0"},{"Valence":"Lose","Color":"#ffcc3399","Rune":"06","Correct":-1,"Choice":32,"RT":560.0649999999441,"Accuracy":0,"Sham":0,"Outcome":"-10","Keys":[2060.410000000149],"TotalKeys":1,"Block":2,"Trial":122,"Action":"No-Go","Robot":4,"trial_type":"pit-trial","trial_index":136,"time_elapsed":2209918,"internal_node_id":"0.0-136.0"},{"Valence":"Lose","Color":"#ffcc3399","Rune":"03","Correct":32,"Choice":32,"RT":407.16500000003725,"Accuracy":1,"Sham":0,"Outcome":"-1","Keys":[1907.4449999998324],"TotalKeys":1,"Block":2,"Trial":123,"Action":"Go","Robot":3,"trial_type":"pit-trial","trial_index":137,"time_elapsed":2212832,"internal_node_id":"0.0-137.0"},{"Valence":"Win","Color":"#3366ff99","Rune":"04","Correct":32,"Choice":32,"RT":346.6900000004098,"Accuracy":1,"Sham":1,"Outcome":"1","Keys":[1846.9449999993667],"TotalKeys":1,"Block":2,"Trial":124,"Action":"Go","Robot":1,"trial_type":"pit-trial","trial_index":138,"time_elapsed":2215686,"internal_node_id":"0.0-138.0"},{"Valence":"Lose","Color":"#ffcc3399","Rune":"03","Correct":32,"Choice":32,"RT":653.1199999996461,"Accuracy":1,"Sham":1,"Outcome":"-10","Keys":[2153.5200000000186],"TotalKeys":1,"Block":2,"Trial":125,"Action":"Go","Robot":3,"trial_type":"pit-trial","trial_index":139,"time_elapsed":2218847,"internal_node_id":"0.0-139.0"},{"Valence":"Lose","Color":"#ffcc3399","Rune":"06","Correct":-1,"Choice":-1,"RT":-1,"Accuracy":1,"Sham":0,"Outcome":"-1","Keys":[1167.4750000000931],"TotalKeys":1,"Block":2,"Trial":126,"Action":"No-Go","Robot":4,"trial_type":"pit-trial","trial_index":140,"time_elapsed":2222855,"internal_node_id":"0.0-140.0"},{"Valence":"Win","Color":"#3366ff99","Rune":"05","Correct":-1,"Choice":32,"RT":158.4500000011176,"Accuracy":0,"Sham":0,"Outcome":"+1","Keys":[1107.3649999997579,1658.6799999992363],"TotalKeys":2,"Block":2,"Trial":127,"Action":"No-Go","Robot":2,"trial_type":"pit-trial","trial_index":141,"time_elapsed":2225522,"internal_node_id":"0.0-141.0"},{"Valence":"Win","Color":"#3366ff99","Rune":"04","Correct":32,"Choice":32,"RT":118.2550000003539,"Accuracy":1,"Sham":0,"Outcome":"+10","Keys":[970.2949999999255,1620.3050000001676,2302.0700000007637],"TotalKeys":3,"Block":2,"Trial":128,"Action":"Go","Robot":1,"trial_type":"pit-trial","trial_index":142,"time_elapsed":2228149,"internal_node_id":"0.0-142.0"},{"Valence":"Lose","Color":"#ffcc3399","Rune":"06","Correct":-1,"Choice":-1,"RT":-1,"Accuracy":1,"Sham":0,"Outcome":"-1","Keys":[435.58000000054017,1368.7350000003353],"TotalKeys":2,"Block":2,"Trial":129,"Action":"No-Go","Robot":4,"trial_type":"pit-trial","trial_index":143,"time_elapsed":2232158,"internal_node_id":"0.0-143.0"},{"Valence":"Win","Color":"#3366ff99","Rune":"04","Correct":32,"Choice":32,"RT":397.570000000298,"Accuracy":1,"Sham":0,"Outcome":"+10","Keys":[1897.584999999497],"TotalKeys":1,"Block":2,"Trial":130,"Action":"Go","Robot":1,"trial_type":"pit-trial","trial_index":144,"time_elapsed":2235063,"internal_node_id":"0.0-144.0"},{"Valence":"Lose","Color":"#ffcc3399","Rune":"03","Correct":32,"Choice":32,"RT":1066.3050000001676,"Accuracy":1,"Sham":0,"Outcome":"-1","Keys":[2567.839999999851],"TotalKeys":1,"Block":2,"Trial":131,"Action":"Go","Robot":3,"trial_type":"pit-trial","trial_index":145,"time_elapsed":2238638,"internal_node_id":"0.0-145.0"},{"Valence":"Win","Color":"#3366ff99","Rune":"05","Correct":-1,"Choice":-1,"RT":-1,"Accuracy":1,"Sham":0,"Outcome":"+10","Keys":[3802.7599999997765],"TotalKeys":1,"Block":2,"Trial":132,"Action":"No-Go","Robot":2,"trial_type":"pit-trial","trial_index":146,"time_elapsed":2242644,"internal_node_id":"0.0-146.0"},{"Valence":"Lose","Color":"#ffcc3399","Rune":"06","Correct":-1,"Choice":-1,"RT":-1,"Accuracy":1,"Sham":0,"Outcome":"-1","Keys":[],"TotalKeys":0,"Block":2,"Trial":133,"Action":"No-Go","Robot":4,"trial_type":"pit-trial","trial_index":147,"time_elapsed":2246655,"internal_node_id":"0.0-147.0"},{"Valence":"Win","Color":"#3366ff99","Rune":"04","Correct":32,"Choice":32,"RT":438.8099999995902,"Accuracy":1,"Sham":0,"Outcome":"+10","Keys":[1939.2050000005402],"TotalKeys":1,"Block":2,"Trial":134,"Action":"Go","Robot":1,"trial_type":"pit-trial","trial_index":148,"time_elapsed":2249601,"internal_node_id":"0.0-148.0"},{"Valence":"Lose","Color":"#ffcc3399","Rune":"03","Correct":32,"Choice":32,"RT":823.7399999997579,"Accuracy":1,"Sham":0,"Outcome":"-1","Keys":[2324.205000001006],"TotalKeys":1,"Block":2,"Trial":135,"Action":"Go","Robot":3,"trial_type":"pit-trial","trial_index":149,"time_elapsed":2252933,"internal_node_id":"0.0-149.0"},{"Valence":"Win","Color":"#3366ff99","Rune":"05","Correct":-1,"Choice":32,"RT":460.10000000009313,"Accuracy":0,"Sham":0,"Outcome":"+1","Keys":[1961.390000000596],"TotalKeys":1,"Block":2,"Trial":136,"Action":"No-Go","Robot":2,"trial_type":"pit-trial","trial_index":150,"time_elapsed":2255903,"internal_node_id":"0.0-150.0"},{"Valence":"Lose","Color":"#ffcc3399","Rune":"06","Correct":-1,"Choice":-1,"RT":-1,"Accuracy":1,"Sham":1,"Outcome":"-10","Keys":[],"TotalKeys":0,"Block":2,"Trial":137,"Action":"No-Go","Robot":4,"trial_type":"pit-trial","trial_index":151,"time_elapsed":2259911,"internal_node_id":"0.0-151.0"},{"Valence":"Win","Color":"#3366ff99","Rune":"04","Correct":32,"Choice":32,"RT":659.9200000003912,"Accuracy":1,"Sham":0,"Outcome":"+10","Keys":[2160.464999999851],"TotalKeys":1,"Block":2,"Trial":138,"Action":"Go","Robot":1,"trial_type":"pit-trial","trial_index":152,"time_elapsed":2263080,"internal_node_id":"0.0-152.0"},{"Valence":"Lose","Color":"#ffcc3399","Rune":"03","Correct":32,"Choice":-1,"RT":-1,"Accuracy":0,"Sham":0,"Outcome":"-10","Keys":[3129.885000000242],"TotalKeys":1,"Block":2,"Trial":139,"Action":"Go","Robot":3,"trial_type":"pit-trial","trial_index":153,"time_elapsed":2267090,"internal_node_id":"0.0-153.0"},{"Valence":"Win","Color":"#3366ff99","Rune":"05","Correct":-1,"Choice":32,"RT":728.9150000005029,"Accuracy":0,"Sham":1,"Outcome":"+10","Keys":[2229.1800000001676],"TotalKeys":1,"Block":2,"Trial":140,"Action":"No-Go","Robot":2,"trial_type":"pit-trial","trial_index":154,"time_elapsed":2270328,"internal_node_id":"0.0-154.0"},{"Valence":"Win","Color":"#3366ff99","Rune":"05","Correct":-1,"Choice":32,"RT":721.5100000002421,"Accuracy":0,"Sham":1,"Outcome":"+10","Keys":[2222.3200000007637],"TotalKeys":1,"Block":2,"Trial":141,"Action":"No-Go","Robot":2,"trial_type":"pit-trial","trial_index":155,"time_elapsed":2273557,"internal_node_id":"0.0-155.0"},{"Valence":"Lose","Color":"#ffcc3399","Rune":"03","Correct":32,"Choice":-1,"RT":-1,"Accuracy":0,"Sham":0,"Outcome":"-10","Keys":[],"TotalKeys":0,"Block":2,"Trial":142,"Action":"Go","Robot":3,"trial_type":"pit-trial","trial_index":156,"time_elapsed":2277564,"internal_node_id":"0.0-156.0"},{"Valence":"Win","Color":"#3366ff99","Rune":"04","Correct":32,"Choice":32,"RT":507.4949999996461,"Accuracy":1,"Sham":0,"Outcome":"+10","Keys":[2008.230000000447],"TotalKeys":1,"Block":2,"Trial":143,"Action":"Go","Robot":1,"trial_type":"pit-trial","trial_index":157,"time_elapsed":2280580,"internal_node_id":"0.0-157.0"},{"Valence":"Lose","Color":"#ffcc3399","Rune":"06","Correct":-1,"Choice":-1,"RT":-1,"Accuracy":1,"Sham":0,"Outcome":"-1","Keys":[],"TotalKeys":0,"Block":2,"Trial":144,"Action":"No-Go","Robot":4,"trial_type":"pit-trial","trial_index":158,"time_elapsed":2284589,"internal_node_id":"0.0-158.0"},{"Valence":"Lose","Color":"#ffcc3399","Rune":"06","Correct":-1,"Choice":-1,"RT":-1,"Accuracy":1,"Sham":0,"Outcome":"-1","Keys":[],"TotalKeys":0,"Block":2,"Trial":145,"Action":"No-Go","Robot":4,"trial_type":"pit-trial","trial_index":159,"time_elapsed":2288598,"internal_node_id":"0.0-159.0"},{"Valence":"Win","Color":"#3366ff99","Rune":"04","Correct":32,"Choice":32,"RT":546.4949999991804,"Accuracy":1,"Sham":0,"Outcome":"+10","Keys":[12.625000000465661,2048.8599999998696],"TotalKeys":2,"Block":2,"Trial":146,"Action":"Go","Robot":1,"trial_type":"pit-trial","trial_index":160,"time_elapsed":2291654,"internal_node_id":"0.0-160.0"},{"Valence":"Lose","Color":"#ffcc3399","Rune":"03","Correct":32,"Choice":-1,"RT":-1,"Accuracy":0,"Sham":0,"Outcome":"-10","Keys":[],"TotalKeys":0,"Block":2,"Trial":147,"Action":"Go","Robot":3,"trial_type":"pit-trial","trial_index":161,"time_elapsed":2295662,"internal_node_id":"0.0-161.0"},{"Valence":"Win","Color":"#3366ff99","Rune":"05","Correct":-1,"Choice":32,"RT":711.7149999993853,"Accuracy":0,"Sham":0,"Outcome":"+1","Keys":[2211.964999999851],"TotalKeys":1,"Block":2,"Trial":148,"Action":"No-Go","Robot":2,"trial_type":"pit-trial","trial_index":162,"time_elapsed":2298882,"internal_node_id":"0.0-162.0"},{"Valence":"Win","Color":"#3366ff99","Rune":"05","Correct":-1,"Choice":32,"RT":705.2400000002235,"Accuracy":0,"Sham":0,"Outcome":"+1","Keys":[2205.6599999992177],"TotalKeys":1,"Block":2,"Trial":149,"Action":"No-Go","Robot":2,"trial_type":"pit-trial","trial_index":163,"time_elapsed":2302096,"internal_node_id":"0.0-163.0"},{"Valence":"Lose","Color":"#ffcc3399","Rune":"06","Correct":-1,"Choice":-1,"RT":-1,"Accuracy":1,"Sham":0,"Outcome":"-1","Keys":[],"TotalKeys":0,"Block":2,"Trial":150,"Action":"No-Go","Robot":4,"trial_type":"pit-trial","trial_index":164,"time_elapsed":2306104,"internal_node_id":"0.0-164.0"},{"Valence":"Lose","Color":"#ffcc3399","Rune":"03","Correct":32,"Choice":32,"RT":584.804999999702,"Accuracy":1,"Sham":0,"Outcome":"-1","Keys":[2085.75],"TotalKeys":1,"Block":2,"Trial":151,"Action":"Go","Robot":3,"trial_type":"pit-trial","trial_index":165,"time_elapsed":2309197,"internal_node_id":"0.0-165.0"},{"Valence":"Win","Color":"#3366ff99","Rune":"04","Correct":32,"Choice":32,"RT":546.3650000002235,"Accuracy":1,"Sham":0,"Outcome":"+10","Keys":[2046.7750000003725],"TotalKeys":1,"Block":2,"Trial":152,"Action":"Go","Robot":1,"trial_type":"pit-trial","trial_index":166,"time_elapsed":2312252,"internal_node_id":"0.0-166.0"},{"Valence":"Win","Color":"#3366ff99","Rune":"04","Correct":32,"Choice":-1,"RT":-1,"Accuracy":0,"Sham":0,"Outcome":"+1","Keys":[],"TotalKeys":0,"Block":2,"Trial":153,"Action":"Go","Robot":1,"trial_type":"pit-trial","trial_index":167,"time_elapsed":2316261,"internal_node_id":"0.0-167.0"},{"Valence":"Lose","Color":"#ffcc3399","Rune":"06","Correct":-1,"Choice":-1,"RT":-1,"Accuracy":1,"Sham":0,"Outcome":"-1","Keys":[515.4899999997579],"TotalKeys":1,"Block":2,"Trial":154,"Action":"No-Go","Robot":4,"trial_type":"pit-trial","trial_index":168,"time_elapsed":2320269,"internal_node_id":"0.0-168.0"},{"Valence":"Lose","Color":"#ffcc3399","Rune":"03","Correct":32,"Choice":32,"RT":950.1150000002235,"Accuracy":1,"Sham":0,"Outcome":"-1","Keys":[2450.8250000001863],"TotalKeys":1,"Block":2,"Trial":155,"Action":"Go","Robot":3,"trial_type":"pit-trial","trial_index":169,"time_elapsed":2323727,"internal_node_id":"0.0-169.0"},{"Valence":"Win","Color":"#3366ff99","Rune":"05","Correct":-1,"Choice":32,"RT":500.94000000087544,"Accuracy":0,"Sham":0,"Outcome":"+1","Keys":[2001.9300000001676],"TotalKeys":1,"Block":2,"Trial":156,"Action":"No-Go","Robot":2,"trial_type":"pit-trial","trial_index":170,"time_elapsed":2326736,"internal_node_id":"0.0-170.0"},{"Valence":"Lose","Color":"#ffcc3399","Rune":"03","Correct":32,"Choice":32,"RT":1016.6550000002608,"Accuracy":1,"Sham":1,"Outcome":"-10","Keys":[549.9700000002049,2517.6599999996834],"TotalKeys":2,"Block":2,"Trial":157,"Action":"Go","Robot":3,"trial_type":"pit-trial","trial_index":171,"time_elapsed":2330259,"internal_node_id":"0.0-171.0"},{"Valence":"Lose","Color":"#ffcc3399","Rune":"06","Correct":-1,"Choice":-1,"RT":-1,"Accuracy":1,"Sham":1,"Outcome":"-10","Keys":[],"TotalKeys":0,"Block":2,"Trial":158,"Action":"No-Go","Robot":4,"trial_type":"pit-trial","trial_index":172,"time_elapsed":2334266,"internal_node_id":"0.0-172.0"},{"Valence":"Win","Color":"#3366ff99","Rune":"05","Correct":-1,"Choice":32,"RT":422.50500000081956,"Accuracy":0,"Sham":0,"Outcome":"+1","Keys":[1923.0500000002794],"TotalKeys":1,"Block":2,"Trial":159,"Action":"No-Go","Robot":2,"trial_type":"pit-trial","trial_index":173,"time_elapsed":2337198,"internal_node_id":"0.0-173.0"},{"Valence":"Win","Color":"#3366ff99","Rune":"04","Correct":32,"Choice":32,"RT":538.4750000000931,"Accuracy":1,"Sham":1,"Outcome":"1","Keys":[2038.7249999991618,2610.514999999199],"TotalKeys":2,"Block":2,"Trial":160,"Action":"Go","Robot":1,"trial_type":"pit-trial","trial_index":174,"time_elapsed":2340245,"internal_node_id":"0.0-174.0"},{"rt":48305.97499999963,"demographics":{"age":"39","gender-categorical":"Female","ethnicity":"Not Hispanic or Latino","race":"White","english":"Yes","fluency":"Very well"},"trial_type":"survey-demo","trial_index":175,"time_elapsed":2388561,"internal_node_id":"0.0-175.0"},{"rt":60413.11500000022,"debriefgraphics":{"difficulty":"4","fun":"3","clarity":"5","strategy":"tried to pay attention","feedback":""},"trial_type":"survey-debrief","trial_index":176,"time_elapsed":2448979,"internal_node_id":"0.0-176.0","interactions":"[{\"event\":\"blur\",\"trial\":0,\"time\":60841},{\"event\":\"focus\",\"trial\":0,\"time\":62365},{\"event\":\"blur\",\"trial\":10,\"time\":1694432},{\"event\":\"focus\",\"trial\":10,\"time\":1695996},{\"event\":\"blur\",\"trial\":10,\"time\":1697669},{\"event\":\"focus\",\"trial\":10,\"time\":1699486}]"}]