[{"view_history":"[{\"page_index\":0,\"viewing_time\":5070.704999990994},{\"page_index\":1,\"viewing_time\":20899.395000000368},{\"page_index\":2,\"viewing_time\":9873.18999999843},{\"page_index\":3,\"viewing_time\":6024.715000006836},{\"page_index\":4,\"viewing_time\":4838.7950000033015}]","rt":46708.539999992354,"trial_type":"pit-instructions","trial_index":0,"time_elapsed":46711,"internal_node_id":"0.0-0.0"},{"Valence":"Practice","Color":"#fffff080","Rune":"01","Correct":32,"Choice":-1,"RT":-1,"Accuracy":0,"Sham":0,"Outcome":"+0","Keys":[3692.6950000051875],"TotalKeys":1,"trial_type":"pit-trial","trial_index":1,"time_elapsed":50723,"internal_node_id":"0.0-1.0"},{"Valence":"Practice","Color":"#fffff080","Rune":"01","Correct":32,"Choice":32,"RT":492.54500000097323,"Accuracy":1,"Sham":0,"Outcome":"+10","Keys":[1993.4749999956694],"TotalKeys":1,"trial_type":"pit-trial","trial_index":2,"time_elapsed":53725,"internal_node_id":"0.0-2.0"},{"Valence":"Practice","Color":"#fffff080","Rune":"01","Correct":32,"Choice":32,"RT":391.7150000052061,"Accuracy":1,"Sham":0,"Outcome":"+10","Keys":[1892.9249999928288],"TotalKeys":1,"trial_type":"pit-trial","trial_index":3,"time_elapsed":56623,"internal_node_id":"0.0-3.0"},{"Valence":"Practice","Color":"#fffff080","Rune":"01","Correct":32,"Choice":32,"RT":563.094999990426,"Accuracy":1,"Sham":0,"Outcome":"+10","Keys":[2063.1649999995716],"TotalKeys":1,"trial_type":"pit-trial","trial_index":4,"time_elapsed":59693,"internal_node_id":"0.0-4.0"},{"view_history":"[{\"page_index\":0,\"viewing_time\":17717.250000001513}]","rt":17718.29499999876,"trial_type":"pit-instructions","trial_index":5,"time_elapsed":77413,"internal_node_id":"0.0-5.0"},{"Valence":"Practice","Color":"#fffff080","Rune":"02","Correct":-1,"Choice":-1,"RT":-1,"Accuracy":1,"Sham":0,"Outcome":"+10","Keys":[],"TotalKeys":0,"trial_type":"pit-trial","trial_index":6,"time_elapsed":81419,"internal_node_id":"0.0-6.0"},{"Valence":"Practice","Color":"#fffff080","Rune":"02","Correct":-1,"Choice":-1,"RT":-1,"Accuracy":1,"Sham":0,"Outcome":"+10","Keys":[],"TotalKeys":0,"trial_type":"pit-trial","trial_index":7,"time_elapsed":85426,"internal_node_id":"0.0-7.0"},{"Valence":"Practice","Color":"#fffff080","Rune":"02","Correct":-1,"Choice":-1,"RT":-1,"Accuracy":1,"Sham":0,"Outcome":"+10","Keys":[],"TotalKeys":0,"trial_type":"pit-trial","trial_index":8,"time_elapsed":89438,"internal_node_id":"0.0-8.0"},{"Valence":"Practice","Color":"#fffff080","Rune":"02","Correct":-1,"Choice":-1,"RT":-1,"Accuracy":1,"Sham":0,"Outcome":"+10","Keys":[],"TotalKeys":0,"trial_type":"pit-trial","trial_index":9,"time_elapsed":93446,"internal_node_id":"0.0-9.0"},{"view_history":"[{\"page_index\":0,\"viewing_time\":5220.920000007027},{\"page_index\":1,\"viewing_time\":10322.38499999221},{\"page_index\":2,\"viewing_time\":7891.895000007935},{\"page_index\":3,\"viewing_time\":334.37499999126885},{\"page_index\":4,\"viewing_time\":8719.020000004093},{\"page_index\":5,\"viewing_time\":6645.029999999679},{\"page_index\":6,\"viewing_time\":4368.8099999999395},{\"page_index\":7,\"viewing_time\":3574.1549999947893}]","rt":47077.720000001136,"trial_type":"pit-instructions","trial_index":10,"time_elapsed":140526,"internal_node_id":"0.0-10.0"},{"rt":46826.89000001119,"responses":"{\"no-press\":\"Do nothing\",\"context-win\":\"+10\",\"context-lose\":\"-1\",\"feedback\":\"True\"}","errors":3,"trial_type":"pit-comprehension","trial_index":11,"time_elapsed":187360,"internal_node_id":"0.0-11.0"},{"view_history":"[{\"page_index\":0,\"viewing_time\":4394.610000003013}]","rt":4395.45999999973,"trial_type":"pit-instructions","trial_index":12,"time_elapsed":191762,"internal_node_id":"0.0-12.0"},{"Valence":"Win","Color":"#ffcc3399","Rune":"03","Correct":-1,"Choice":-1,"RT":-1,"Accuracy":1,"Sham":0,"Outcome":"+10","Keys":[3668.6899999913294],"TotalKeys":1,"Block":1,"Trial":1,"Action":"No-Go","Robot":2,"trial_type":"pit-trial","trial_index":13,"time_elapsed":195770,"internal_node_id":"0.0-13.0"},{"Valence":"Lose","Color":"#3366ff99","Rune":"04","Correct":32,"Choice":32,"RT":1190.9750000049826,"Accuracy":1,"Sham":0,"Outcome":"-1","Keys":[2691.944999998668],"TotalKeys":1,"Block":1,"Trial":2,"Action":"Go","Robot":3,"trial_type":"pit-trial","trial_index":14,"time_elapsed":199468,"internal_node_id":"0.0-14.0"},{"Valence":"Lose","Color":"#3366ff99","Rune":"06","Correct":-1,"Choice":-1,"RT":-1,"Accuracy":1,"Sham":0,"Outcome":"-1","Keys":[3168.440000008559],"TotalKeys":1,"Block":1,"Trial":3,"Action":"No-Go","Robot":4,"trial_type":"pit-trial","trial_index":15,"time_elapsed":203472,"internal_node_id":"0.0-15.0"},{"Valence":"Win","Color":"#ffcc3399","Rune":"05","Correct":32,"Choice":32,"RT":961.6950000054203,"Accuracy":1,"Sham":0,"Outcome":"+10","Keys":[2462.6049999933457],"TotalKeys":1,"Block":1,"Trial":4,"Action":"Go","Robot":1,"trial_type":"pit-trial","trial_index":16,"time_elapsed":206942,"internal_node_id":"0.0-16.0"},{"Valence":"Lose","Color":"#3366ff99","Rune":"04","Correct":32,"Choice":32,"RT":726.4800000120886,"Accuracy":1,"Sham":1,"Outcome":"-10","Keys":[2226.940000007744],"TotalKeys":1,"Block":1,"Trial":5,"Action":"Go","Robot":3,"trial_type":"pit-trial","trial_index":17,"time_elapsed":210174,"internal_node_id":"0.0-17.0"},{"Valence":"Lose","Color":"#3366ff99","Rune":"06","Correct":-1,"Choice":32,"RT":884.6599999960745,"Accuracy":0,"Sham":0,"Outcome":"-10","Keys":[2386.6549999947893],"TotalKeys":1,"Block":1,"Trial":6,"Action":"No-Go","Robot":4,"trial_type":"pit-trial","trial_index":18,"time_elapsed":213569,"internal_node_id":"0.0-18.0"},{"Valence":"Win","Color":"#ffcc3399","Rune":"05","Correct":32,"Choice":-1,"RT":-1,"Accuracy":0,"Sham":0,"Outcome":"+1","Keys":[3068.780000001425],"TotalKeys":1,"Block":1,"Trial":7,"Action":"Go","Robot":1,"trial_type":"pit-trial","trial_index":19,"time_elapsed":217575,"internal_node_id":"0.0-19.0"},{"Valence":"Win","Color":"#ffcc3399","Rune":"03","Correct":-1,"Choice":32,"RT":1097.5900000048568,"Accuracy":0,"Sham":0,"Outcome":"+1","Keys":[2598.265000007814],"TotalKeys":1,"Block":1,"Trial":8,"Action":"No-Go","Robot":2,"trial_type":"pit-trial","trial_index":20,"time_elapsed":221180,"internal_node_id":"0.0-20.0"},{"Valence":"Win","Color":"#ffcc3399","Rune":"05","Correct":32,"Choice":32,"RT":1073.8550000096438,"Accuracy":1,"Sham":0,"Outcome":"+10","Keys":[2574.354999989737],"TotalKeys":1,"Block":1,"Trial":9,"Action":"Go","Robot":1,"trial_type":"pit-trial","trial_index":21,"time_elapsed":224759,"internal_node_id":"0.0-21.0"},{"Valence":"Lose","Color":"#3366ff99","Rune":"04","Correct":32,"Choice":32,"RT":1459.9750000052154,"Accuracy":1,"Sham":0,"Outcome":"-1","Keys":[2960.690000007162],"TotalKeys":1,"Block":1,"Trial":10,"Action":"Go","Robot":3,"trial_type":"pit-trial","trial_index":22,"time_elapsed":228728,"internal_node_id":"0.0-22.0"},{"Valence":"Win","Color":"#ffcc3399","Rune":"03","Correct":-1,"Choice":-1,"RT":-1,"Accuracy":1,"Sham":0,"Outcome":"+10","Keys":[],"TotalKeys":0,"Block":1,"Trial":11,"Action":"No-Go","Robot":2,"trial_type":"pit-trial","trial_index":23,"time_elapsed":232733,"internal_node_id":"0.0-23.0"},{"Valence":"Lose","Color":"#3366ff99","Rune":"06","Correct":-1,"Choice":-1,"RT":-1,"Accuracy":1,"Sham":0,"Outcome":"-1","Keys":[],"TotalKeys":0,"Block":1,"Trial":12,"Action":"No-Go","Robot":4,"trial_type":"pit-trial","trial_index":24,"time_elapsed":236740,"internal_node_id":"0.0-24.0"},{"Valence":"Win","Color":"#ffcc3399","Rune":"05","Correct":32,"Choice":32,"RT":612.9599999985658,"Accuracy":1,"Sham":0,"Outcome":"+10","Keys":[2113.8599999976577],"TotalKeys":1,"Block":1,"Trial":13,"Action":"Go","Robot":1,"trial_type":"pit-trial","trial_index":25,"time_elapsed":239861,"internal_node_id":"0.0-25.0"},{"Valence":"Win","Color":"#ffcc3399","Rune":"03","Correct":-1,"Choice":32,"RT":479.38999999314547,"Accuracy":0,"Sham":0,"Outcome":"+1","Keys":[1979.799999986426],"TotalKeys":1,"Block":1,"Trial":14,"Action":"No-Go","Robot":2,"trial_type":"pit-trial","trial_index":26,"time_elapsed":242846,"internal_node_id":"0.0-26.0"},{"Valence":"Lose","Color":"#3366ff99","Rune":"04","Correct":32,"Choice":-1,"RT":-1,"Accuracy":0,"Sham":0,"Outcome":"-10","Keys":[],"TotalKeys":0,"Block":1,"Trial":15,"Action":"Go","Robot":3,"trial_type":"pit-trial","trial_index":27,"time_elapsed":246853,"internal_node_id":"0.0-27.0"},{"Valence":"Lose","Color":"#3366ff99","Rune":"06","Correct":-1,"Choice":-1,"RT":-1,"Accuracy":1,"Sham":1,"Outcome":"-10","Keys":[],"TotalKeys":0,"Block":1,"Trial":16,"Action":"No-Go","Robot":4,"trial_type":"pit-trial","trial_index":28,"time_elapsed":250858,"internal_node_id":"0.0-28.0"},{"Valence":"Win","Color":"#ffcc3399","Rune":"05","Correct":32,"Choice":32,"RT":1089.5049999962794,"Accuracy":1,"Sham":1,"Outcome":"1","Keys":[2589.764999996987],"TotalKeys":1,"Block":1,"Trial":17,"Action":"Go","Robot":1,"trial_type":"pit-trial","trial_index":29,"time_elapsed":254452,"internal_node_id":"0.0-29.0"},{"Valence":"Lose","Color":"#3366ff99","Rune":"04","Correct":32,"Choice":-1,"RT":-1,"Accuracy":0,"Sham":0,"Outcome":"-10","Keys":[],"TotalKeys":0,"Block":1,"Trial":18,"Action":"Go","Robot":3,"trial_type":"pit-trial","trial_index":30,"time_elapsed":258458,"internal_node_id":"0.0-30.0"},{"Valence":"Win","Color":"#ffcc3399","Rune":"03","Correct":-1,"Choice":32,"RT":730.0350000004983,"Accuracy":0,"Sham":1,"Outcome":"+10","Keys":[2230.3550000069663],"TotalKeys":1,"Block":1,"Trial":19,"Action":"No-Go","Robot":2,"trial_type":"pit-trial","trial_index":31,"time_elapsed":261694,"internal_node_id":"0.0-31.0"},{"Valence":"Lose","Color":"#3366ff99","Rune":"06","Correct":-1,"Choice":-1,"RT":-1,"Accuracy":1,"Sham":0,"Outcome":"-1","Keys":[],"TotalKeys":0,"Block":1,"Trial":20,"Action":"No-Go","Robot":4,"trial_type":"pit-trial","trial_index":32,"time_elapsed":265704,"internal_node_id":"0.0-32.0"},{"Valence":"Lose","Color":"#3366ff99","Rune":"06","Correct":-1,"Choice":-1,"RT":-1,"Accuracy":1,"Sham":0,"Outcome":"-1","Keys":[],"TotalKeys":0,"Block":1,"Trial":21,"Action":"No-Go","Robot":4,"trial_type":"pit-trial","trial_index":33,"time_elapsed":269710,"internal_node_id":"0.0-33.0"},{"Valence":"Win","Color":"#ffcc3399","Rune":"03","Correct":-1,"Choice":-1,"RT":-1,"Accuracy":1,"Sham":0,"Outcome":"+10","Keys":[],"TotalKeys":0,"Block":1,"Trial":22,"Action":"No-Go","Robot":2,"trial_type":"pit-trial","trial_index":34,"time_elapsed":273714,"internal_node_id":"0.0-34.0"},{"Valence":"Win","Color":"#ffcc3399","Rune":"05","Correct":32,"Choice":32,"RT":535.505000007106,"Accuracy":1,"Sham":0,"Outcome":"+10","Keys":[2036.9899999932386],"TotalKeys":1,"Block":1,"Trial":23,"Action":"Go","Robot":1,"trial_type":"pit-trial","trial_index":35,"time_elapsed":276756,"internal_node_id":"0.0-35.0"},{"Valence":"Lose","Color":"#3366ff99","Rune":"04","Correct":32,"Choice":32,"RT":466.90500000840984,"Accuracy":1,"Sham":0,"Outcome":"-1","Keys":[1967.6999999937834],"TotalKeys":1,"Block":1,"Trial":24,"Action":"Go","Robot":3,"trial_type":"pit-trial","trial_index":36,"time_elapsed":279731,"internal_node_id":"0.0-36.0"},{"Valence":"Lose","Color":"#3366ff99","Rune":"06","Correct":-1,"Choice":32,"RT":556.864999991376,"Accuracy":0,"Sham":0,"Outcome":"-10","Keys":[2057.1150000032503],"TotalKeys":1,"Block":1,"Trial":25,"Action":"No-Go","Robot":4,"trial_type":"pit-trial","trial_index":37,"time_elapsed":282796,"internal_node_id":"0.0-37.0"},{"Valence":"Win","Color":"#ffcc3399","Rune":"05","Correct":32,"Choice":32,"RT":247.84000001091044,"Accuracy":1,"Sham":0,"Outcome":"+10","Keys":[1748.9599999971688],"TotalKeys":1,"Block":1,"Trial":26,"Action":"Go","Robot":1,"trial_type":"pit-trial","trial_index":38,"time_elapsed":285552,"internal_node_id":"0.0-38.0"},{"Valence":"Lose","Color":"#3366ff99","Rune":"04","Correct":32,"Choice":32,"RT":526.6300000075717,"Accuracy":1,"Sham":0,"Outcome":"-1","Keys":[2028.5449999937555],"TotalKeys":1,"Block":1,"Trial":27,"Action":"Go","Robot":3,"trial_type":"pit-trial","trial_index":39,"time_elapsed":288585,"internal_node_id":"0.0-39.0"},{"Valence":"Win","Color":"#ffcc3399","Rune":"03","Correct":-1,"Choice":-1,"RT":-1,"Accuracy":1,"Sham":0,"Outcome":"+10","Keys":[3685.075000001234],"TotalKeys":1,"Block":1,"Trial":28,"Action":"No-Go","Robot":2,"trial_type":"pit-trial","trial_index":40,"time_elapsed":292592,"internal_node_id":"0.0-40.0"},{"Valence":"Lose","Color":"#3366ff99","Rune":"04","Correct":32,"Choice":32,"RT":1015.2900000102818,"Accuracy":1,"Sham":0,"Outcome":"-1","Keys":[2516.059999994468],"TotalKeys":1,"Block":1,"Trial":29,"Action":"Go","Robot":3,"trial_type":"pit-trial","trial_index":41,"time_elapsed":296118,"internal_node_id":"0.0-41.0"},{"Valence":"Win","Color":"#ffcc3399","Rune":"03","Correct":-1,"Choice":32,"RT":671.3250000029802,"Accuracy":0,"Sham":1,"Outcome":"+10","Keys":[2172.230000011041],"TotalKeys":1,"Block":1,"Trial":30,"Action":"No-Go","Robot":2,"trial_type":"pit-trial","trial_index":42,"time_elapsed":299298,"internal_node_id":"0.0-42.0"},{"Valence":"Win","Color":"#ffcc3399","Rune":"05","Correct":32,"Choice":32,"RT":1075.1099999906728,"Accuracy":1,"Sham":1,"Outcome":"1","Keys":[2575.970000005327],"TotalKeys":1,"Block":1,"Trial":31,"Action":"Go","Robot":1,"trial_type":"pit-trial","trial_index":43,"time_elapsed":302878,"internal_node_id":"0.0-43.0"},{"Valence":"Lose","Color":"#3366ff99","Rune":"06","Correct":-1,"Choice":32,"RT":262.98500000848435,"Accuracy":0,"Sham":0,"Outcome":"-10","Keys":[1763.8549999974202],"TotalKeys":1,"Block":1,"Trial":32,"Action":"No-Go","Robot":4,"trial_type":"pit-trial","trial_index":44,"time_elapsed":305647,"internal_node_id":"0.0-44.0"},{"Valence":"Lose","Color":"#3366ff99","Rune":"06","Correct":-1,"Choice":32,"RT":319.44999999541324,"Accuracy":0,"Sham":0,"Outcome":"-10","Keys":[1819.9650000024121],"TotalKeys":1,"Block":1,"Trial":33,"Action":"No-Go","Robot":4,"trial_type":"pit-trial","trial_index":45,"time_elapsed":308472,"internal_node_id":"0.0-45.0"},{"Valence":"Win","Color":"#ffcc3399","Rune":"03","Correct":-1,"Choice":32,"RT":351.2250000057975,"Accuracy":0,"Sham":0,"Outcome":"+1","Keys":[1851.4849999919534],"TotalKeys":1,"Block":1,"Trial":34,"Action":"No-Go","Robot":2,"trial_type":"pit-trial","trial_index":46,"time_elapsed":311327,"internal_node_id":"0.0-46.0"},{"Valence":"Win","Color":"#ffcc3399","Rune":"05","Correct":32,"Choice":32,"RT":367.2200000000885,"Accuracy":1,"Sham":0,"Outcome":"+10","Keys":[1868.5499999992317],"TotalKeys":1,"Block":1,"Trial":35,"Action":"Go","Robot":1,"trial_type":"pit-trial","trial_index":47,"time_elapsed":314201,"internal_node_id":"0.0-47.0"},{"Valence":"Lose","Color":"#3366ff99","Rune":"04","Correct":32,"Choice":32,"RT":378.50999999500345,"Accuracy":1,"Sham":1,"Outcome":"-10","Keys":[1881.8750000064028],"TotalKeys":1,"Block":1,"Trial":36,"Action":"Go","Robot":3,"trial_type":"pit-trial","trial_index":48,"time_elapsed":317091,"internal_node_id":"0.0-48.0"},{"Valence":"Lose","Color":"#3366ff99","Rune":"06","Correct":-1,"Choice":32,"RT":754.094999996596,"Accuracy":0,"Sham":1,"Outcome":"-1","Keys":[2255.0999999948544],"TotalKeys":1,"Block":1,"Trial":37,"Action":"No-Go","Robot":4,"trial_type":"pit-trial","trial_index":49,"time_elapsed":320353,"internal_node_id":"0.0-49.0"},{"Valence":"Lose","Color":"#3366ff99","Rune":"04","Correct":32,"Choice":32,"RT":264.7699999943143,"Accuracy":1,"Sham":0,"Outcome":"-1","Keys":[1766.6150000004563],"TotalKeys":1,"Block":1,"Trial":38,"Action":"Go","Robot":3,"trial_type":"pit-trial","trial_index":50,"time_elapsed":323126,"internal_node_id":"0.0-50.0"},{"Valence":"Win","Color":"#ffcc3399","Rune":"05","Correct":32,"Choice":32,"RT":426.03499999677297,"Accuracy":1,"Sham":0,"Outcome":"+10","Keys":[1927.0050000050105],"TotalKeys":1,"Block":1,"Trial":39,"Action":"Go","Robot":1,"trial_type":"pit-trial","trial_index":51,"time_elapsed":326056,"internal_node_id":"0.0-51.0"},{"Valence":"Win","Color":"#ffcc3399","Rune":"03","Correct":-1,"Choice":32,"RT":483.6349999968661,"Accuracy":0,"Sham":0,"Outcome":"+1","Keys":[1983.8000000017928],"TotalKeys":1,"Block":1,"Trial":40,"Action":"No-Go","Robot":2,"trial_type":"pit-trial","trial_index":52,"time_elapsed":329044,"internal_node_id":"0.0-52.0"},{"Valence":"Lose","Color":"#3366ff99","Rune":"04","Correct":32,"Choice":32,"RT":389.19000000169035,"Accuracy":1,"Sham":1,"Outcome":"-10","Keys":[1891.025000004447],"TotalKeys":1,"Block":1,"Trial":41,"Action":"Go","Robot":3,"trial_type":"pit-trial","trial_index":53,"time_elapsed":331940,"internal_node_id":"0.0-53.0"},{"Valence":"Win","Color":"#ffcc3399","Rune":"03","Correct":-1,"Choice":32,"RT":401.0850000049686,"Accuracy":0,"Sham":0,"Outcome":"+1","Keys":[1901.1650000029476],"TotalKeys":1,"Block":1,"Trial":42,"Action":"No-Go","Robot":2,"trial_type":"pit-trial","trial_index":54,"time_elapsed":334847,"internal_node_id":"0.0-54.0"},{"Valence":"Lose","Color":"#3366ff99","Rune":"06","Correct":-1,"Choice":32,"RT":453.1299999944167,"Accuracy":0,"Sham":0,"Outcome":"-10","Keys":[1954.8700000013923],"TotalKeys":1,"Block":1,"Trial":43,"Action":"No-Go","Robot":4,"trial_type":"pit-trial","trial_index":55,"time_elapsed":337815,"internal_node_id":"0.0-55.0"},{"Valence":"Win","Color":"#ffcc3399","Rune":"05","Correct":32,"Choice":32,"RT":121.94000001181848,"Accuracy":1,"Sham":0,"Outcome":"+10","Keys":[1622.654999999213],"TotalKeys":1,"Block":1,"Trial":44,"Action":"Go","Robot":1,"trial_type":"pit-trial","trial_index":56,"time_elapsed":340444,"internal_node_id":"0.0-56.0"},{"Valence":"Lose","Color":"#3366ff99","Rune":"06","Correct":-1,"Choice":32,"RT":67.2950000007404,"Accuracy":0,"Sham":0,"Outcome":"-10","Keys":[1567.4750000034692],"TotalKeys":1,"Block":1,"Trial":45,"Action":"No-Go","Robot":4,"trial_type":"pit-trial","trial_index":57,"time_elapsed":343016,"internal_node_id":"0.0-57.0"},{"Valence":"Win","Color":"#ffcc3399","Rune":"03","Correct":-1,"Choice":32,"RT":628.6799999943469,"Accuracy":0,"Sham":1,"Outcome":"+10","Keys":[2130.34499999776],"TotalKeys":1,"Block":1,"Trial":46,"Action":"No-Go","Robot":2,"trial_type":"pit-trial","trial_index":58,"time_elapsed":346151,"internal_node_id":"0.0-58.0"},{"Valence":"Lose","Color":"#3366ff99","Rune":"04","Correct":32,"Choice":-1,"RT":-1,"Accuracy":0,"Sham":0,"Outcome":"-10","Keys":[1488.1900000036694],"TotalKeys":1,"Block":1,"Trial":47,"Action":"Go","Robot":3,"trial_type":"pit-trial","trial_index":59,"time_elapsed":350162,"internal_node_id":"0.0-59.0"},{"Valence":"Win","Color":"#ffcc3399","Rune":"05","Correct":32,"Choice":32,"RT":445.15499999397434,"Accuracy":1,"Sham":0,"Outcome":"+10","Keys":[1945.8299999969313],"TotalKeys":1,"Block":1,"Trial":48,"Action":"Go","Robot":1,"trial_type":"pit-trial","trial_index":60,"time_elapsed":353115,"internal_node_id":"0.0-60.0"},{"Valence":"Lose","Color":"#3366ff99","Rune":"06","Correct":-1,"Choice":32,"RT":870.3250000107801,"Accuracy":0,"Sham":0,"Outcome":"-10","Keys":[1340.4650000011316,2371.5050000027986],"TotalKeys":2,"Block":1,"Trial":49,"Action":"No-Go","Robot":4,"trial_type":"pit-trial","trial_index":61,"time_elapsed":356492,"internal_node_id":"0.0-61.0"},{"Valence":"Win","Color":"#ffcc3399","Rune":"05","Correct":32,"Choice":32,"RT":508.4550000028685,"Accuracy":1,"Sham":0,"Outcome":"+10","Keys":[2009.5750000036787],"TotalKeys":1,"Block":1,"Trial":50,"Action":"Go","Robot":1,"trial_type":"pit-trial","trial_index":62,"time_elapsed":359508,"internal_node_id":"0.0-62.0"},{"Valence":"Win","Color":"#ffcc3399","Rune":"03","Correct":-1,"Choice":32,"RT":482.4699999880977,"Accuracy":0,"Sham":0,"Outcome":"+1","Keys":[1983.0199999996694],"TotalKeys":1,"Block":1,"Trial":51,"Action":"No-Go","Robot":2,"trial_type":"pit-trial","trial_index":63,"time_elapsed":362496,"internal_node_id":"0.0-63.0"},{"Valence":"Lose","Color":"#3366ff99","Rune":"04","Correct":32,"Choice":32,"RT":176.00999999558553,"Accuracy":1,"Sham":0,"Outcome":"-1","Keys":[1677.2950000013225],"TotalKeys":1,"Block":1,"Trial":52,"Action":"Go","Robot":3,"trial_type":"pit-trial","trial_index":64,"time_elapsed":365177,"internal_node_id":"0.0-64.0"},{"Valence":"Win","Color":"#ffcc3399","Rune":"03","Correct":-1,"Choice":32,"RT":611.720000000787,"Accuracy":0,"Sham":0,"Outcome":"+1","Keys":[2111.8399999977555],"TotalKeys":1,"Block":1,"Trial":53,"Action":"No-Go","Robot":2,"trial_type":"pit-trial","trial_index":65,"time_elapsed":368294,"internal_node_id":"0.0-65.0"},{"Valence":"Lose","Color":"#3366ff99","Rune":"04","Correct":32,"Choice":32,"RT":691.5450000087731,"Accuracy":1,"Sham":0,"Outcome":"-1","Keys":[2191.9250000064494],"TotalKeys":1,"Block":1,"Trial":54,"Action":"Go","Robot":3,"trial_type":"pit-trial","trial_index":66,"time_elapsed":371492,"internal_node_id":"0.0-66.0"},{"Valence":"Lose","Color":"#3366ff99","Rune":"06","Correct":-1,"Choice":32,"RT":321.2050000001909,"Accuracy":0,"Sham":0,"Outcome":"-10","Keys":[1821.4949999965029],"TotalKeys":1,"Block":1,"Trial":55,"Action":"No-Go","Robot":4,"trial_type":"pit-trial","trial_index":67,"time_elapsed":374320,"internal_node_id":"0.0-67.0"},{"Valence":"Win","Color":"#ffcc3399","Rune":"05","Correct":32,"Choice":32,"RT":896.0099999967497,"Accuracy":1,"Sham":0,"Outcome":"+10","Keys":[1476.6099999978906,2396.280000000843],"TotalKeys":2,"Block":1,"Trial":56,"Action":"Go","Robot":1,"trial_type":"pit-trial","trial_index":68,"time_elapsed":377722,"internal_node_id":"0.0-68.0"},{"Valence":"Win","Color":"#ffcc3399","Rune":"05","Correct":32,"Choice":32,"RT":483.2300000125542,"Accuracy":1,"Sham":1,"Outcome":"1","Keys":[1984.9799999938114],"TotalKeys":1,"Block":1,"Trial":57,"Action":"Go","Robot":1,"trial_type":"pit-trial","trial_index":69,"time_elapsed":380715,"internal_node_id":"0.0-69.0"},{"Valence":"Lose","Color":"#3366ff99","Rune":"04","Correct":32,"Choice":32,"RT":662.834999995539,"Accuracy":1,"Sham":0,"Outcome":"-1","Keys":[2164.7399999928894],"TotalKeys":1,"Block":1,"Trial":58,"Action":"Go","Robot":3,"trial_type":"pit-trial","trial_index":70,"time_elapsed":383887,"internal_node_id":"0.0-70.0"},{"Valence":"Lose","Color":"#3366ff99","Rune":"06","Correct":-1,"Choice":32,"RT":863.5800000047311,"Accuracy":0,"Sham":1,"Outcome":"-1","Keys":[1425.1599999988684,2364.5249999972293],"TotalKeys":2,"Block":1,"Trial":59,"Action":"No-Go","Robot":4,"trial_type":"pit-trial","trial_index":71,"time_elapsed":387256,"internal_node_id":"0.0-71.0"},{"Valence":"Win","Color":"#ffcc3399","Rune":"03","Correct":-1,"Choice":32,"RT":288.8200000015786,"Accuracy":0,"Sham":0,"Outcome":"+1","Keys":[1788.9650000142865],"TotalKeys":1,"Block":1,"Trial":60,"Action":"No-Go","Robot":2,"trial_type":"pit-trial","trial_index":72,"time_elapsed":390049,"internal_node_id":"0.0-72.0"},{"Valence":"Win","Color":"#ffcc3399","Rune":"03","Correct":-1,"Choice":32,"RT":318.91499999619555,"Accuracy":0,"Sham":0,"Outcome":"+1","Keys":[1820.0900000083493],"TotalKeys":1,"Block":1,"Trial":61,"Action":"No-Go","Robot":2,"trial_type":"pit-trial","trial_index":73,"time_elapsed":392874,"internal_node_id":"0.0-73.0"},{"Valence":"Lose","Color":"#3366ff99","Rune":"04","Correct":32,"Choice":32,"RT":313.5049999982584,"Accuracy":1,"Sham":0,"Outcome":"-1","Keys":[1813.6300000041956],"TotalKeys":1,"Block":1,"Trial":62,"Action":"Go","Robot":3,"trial_type":"pit-trial","trial_index":74,"time_elapsed":395696,"internal_node_id":"0.0-74.0"},{"Valence":"Lose","Color":"#3366ff99","Rune":"06","Correct":-1,"Choice":32,"RT":345.04000000015367,"Accuracy":0,"Sham":0,"Outcome":"-10","Keys":[1846.239999998943],"TotalKeys":1,"Block":1,"Trial":63,"Action":"No-Go","Robot":4,"trial_type":"pit-trial","trial_index":75,"time_elapsed":398551,"internal_node_id":"0.0-75.0"},{"Valence":"Win","Color":"#ffcc3399","Rune":"05","Correct":32,"Choice":32,"RT":331.0849999979837,"Accuracy":1,"Sham":0,"Outcome":"+10","Keys":[1832.829999999376],"TotalKeys":1,"Block":1,"Trial":64,"Action":"Go","Robot":1,"trial_type":"pit-trial","trial_index":76,"time_elapsed":401388,"internal_node_id":"0.0-76.0"},{"Valence":"Win","Color":"#ffcc3399","Rune":"03","Correct":-1,"Choice":32,"RT":344.9850000033621,"Accuracy":0,"Sham":0,"Outcome":"+1","Keys":[1845.5899999971734],"TotalKeys":1,"Block":1,"Trial":65,"Action":"No-Go","Robot":2,"trial_type":"pit-trial","trial_index":77,"time_elapsed":404237,"internal_node_id":"0.0-77.0"},{"Valence":"Lose","Color":"#3366ff99","Rune":"06","Correct":-1,"Choice":32,"RT":154.1399999987334,"Accuracy":0,"Sham":0,"Outcome":"-10","Keys":[1654.3499999970663],"TotalKeys":1,"Block":1,"Trial":66,"Action":"No-Go","Robot":4,"trial_type":"pit-trial","trial_index":78,"time_elapsed":406897,"internal_node_id":"0.0-78.0"},{"Valence":"Win","Color":"#ffcc3399","Rune":"05","Correct":32,"Choice":32,"RT":269.9549999961164,"Accuracy":1,"Sham":1,"Outcome":"1","Keys":[1770.7550000050105],"TotalKeys":1,"Block":1,"Trial":67,"Action":"Go","Robot":1,"trial_type":"pit-trial","trial_index":79,"time_elapsed":409675,"internal_node_id":"0.0-79.0"},{"Valence":"Lose","Color":"#3366ff99","Rune":"04","Correct":32,"Choice":32,"RT":340.29999999620486,"Accuracy":1,"Sham":0,"Outcome":"-1","Keys":[1841.069999994943],"TotalKeys":1,"Block":1,"Trial":68,"Action":"Go","Robot":3,"trial_type":"pit-trial","trial_index":80,"time_elapsed":412522,"internal_node_id":"0.0-80.0"},{"Valence":"Lose","Color":"#3366ff99","Rune":"06","Correct":-1,"Choice":32,"RT":309.39999999827705,"Accuracy":0,"Sham":1,"Outcome":"-1","Keys":[1810.4699999967124],"TotalKeys":1,"Block":1,"Trial":69,"Action":"No-Go","Robot":4,"trial_type":"pit-trial","trial_index":81,"time_elapsed":415337,"internal_node_id":"0.0-81.0"},{"Valence":"Lose","Color":"#3366ff99","Rune":"04","Correct":32,"Choice":32,"RT":394.72500000556465,"Accuracy":1,"Sham":0,"Outcome":"-1","Keys":[1895.105000003241],"TotalKeys":1,"Block":1,"Trial":70,"Action":"Go","Robot":3,"trial_type":"pit-trial","trial_index":82,"time_elapsed":418236,"internal_node_id":"0.0-82.0"},{"Valence":"Win","Color":"#ffcc3399","Rune":"05","Correct":32,"Choice":32,"RT":352.9149999958463,"Accuracy":1,"Sham":0,"Outcome":"+10","Keys":[1854.6250000072177],"TotalKeys":1,"Block":1,"Trial":71,"Action":"Go","Robot":1,"trial_type":"pit-trial","trial_index":83,"time_elapsed":421094,"internal_node_id":"0.0-83.0"},{"Valence":"Win","Color":"#ffcc3399","Rune":"03","Correct":-1,"Choice":32,"RT":449.83500000671484,"Accuracy":0,"Sham":0,"Outcome":"+1","Keys":[1950.3050000057556],"TotalKeys":1,"Block":1,"Trial":72,"Action":"No-Go","Robot":2,"trial_type":"pit-trial","trial_index":84,"time_elapsed":424048,"internal_node_id":"0.0-84.0"},{"Valence":"Win","Color":"#ffcc3399","Rune":"03","Correct":-1,"Choice":32,"RT":778.6749999941094,"Accuracy":0,"Sham":0,"Outcome":"+1","Keys":[2279.8899999907007],"TotalKeys":1,"Block":1,"Trial":73,"Action":"No-Go","Robot":2,"trial_type":"pit-trial","trial_index":85,"time_elapsed":427331,"internal_node_id":"0.0-85.0"},{"Valence":"Lose","Color":"#3366ff99","Rune":"04","Correct":32,"Choice":32,"RT":283.25999999651685,"Accuracy":1,"Sham":1,"Outcome":"-10","Keys":[1784.5850000012433],"TotalKeys":1,"Block":1,"Trial":74,"Action":"Go","Robot":3,"trial_type":"pit-trial","trial_index":86,"time_elapsed":430120,"internal_node_id":"0.0-86.0"},{"Valence":"Win","Color":"#ffcc3399","Rune":"05","Correct":32,"Choice":32,"RT":398.0650000012247,"Accuracy":1,"Sham":0,"Outcome":"+10","Keys":[1899.0049999993062],"TotalKeys":1,"Block":1,"Trial":75,"Action":"Go","Robot":1,"trial_type":"pit-trial","trial_index":87,"time_elapsed":433025,"internal_node_id":"0.0-87.0"},{"Valence":"Lose","Color":"#3366ff99","Rune":"06","Correct":-1,"Choice":32,"RT":1090.6099999992875,"Accuracy":0,"Sham":0,"Outcome":"-10","Keys":[2591.29500000563],"TotalKeys":1,"Block":1,"Trial":76,"Action":"No-Go","Robot":4,"trial_type":"pit-trial","trial_index":88,"time_elapsed":436623,"internal_node_id":"0.0-88.0"},{"Valence":"Win","Color":"#ffcc3399","Rune":"03","Correct":-1,"Choice":32,"RT":314.02499999967404,"Accuracy":0,"Sham":1,"Outcome":"+10","Keys":[1814.1650000034133],"TotalKeys":1,"Block":1,"Trial":77,"Action":"No-Go","Robot":2,"trial_type":"pit-trial","trial_index":89,"time_elapsed":439444,"internal_node_id":"0.0-89.0"},{"Valence":"Win","Color":"#ffcc3399","Rune":"05","Correct":32,"Choice":32,"RT":265.5150000064168,"Accuracy":1,"Sham":0,"Outcome":"+10","Keys":[1766.025000004447],"TotalKeys":1,"Block":1,"Trial":78,"Action":"Go","Robot":1,"trial_type":"pit-trial","trial_index":90,"time_elapsed":442222,"internal_node_id":"0.0-90.0"},{"Valence":"Lose","Color":"#3366ff99","Rune":"06","Correct":-1,"Choice":32,"RT":486.04999999224674,"Accuracy":0,"Sham":0,"Outcome":"-10","Keys":[1986.20500000834],"TotalKeys":1,"Block":1,"Trial":79,"Action":"No-Go","Robot":4,"trial_type":"pit-trial","trial_index":91,"time_elapsed":445214,"internal_node_id":"0.0-91.0"},{"Valence":"Lose","Color":"#3366ff99","Rune":"04","Correct":32,"Choice":32,"RT":392.2699999966426,"Accuracy":1,"Sham":0,"Outcome":"-1","Keys":[1892.5900000031106],"TotalKeys":1,"Block":1,"Trial":80,"Action":"Go","Robot":3,"trial_type":"pit-trial","trial_index":92,"time_elapsed":448110,"internal_node_id":"0.0-92.0"},{"value":false,"trial_type":"call-function","trial_index":93,"time_elapsed":448113,"internal_node_id":"0.0-93.0"},{"RT":8901.98500000406,"trial_type":"pit-pause","trial_index":94,"time_elapsed":461323,"internal_node_id":"0.0-94.0"},{"Valence":"Win","Color":"#ffcc3399","Rune":"05","Correct":32,"Choice":32,"RT":418.18000000785105,"Accuracy":1,"Sham":0,"Outcome":"+10","Keys":[1919.4299999944633],"TotalKeys":1,"Block":2,"Trial":81,"Action":"Go","Robot":1,"trial_type":"pit-trial","trial_index":95,"time_elapsed":464246,"internal_node_id":"0.0-95.0"},{"Valence":"Win","Color":"#ffcc3399","Rune":"03","Correct":-1,"Choice":-1,"RT":-1,"Accuracy":1,"Sham":0,"Outcome":"+10","Keys":[3128.7849999935133],"TotalKeys":1,"Block":2,"Trial":82,"Action":"No-Go","Robot":2,"trial_type":"pit-trial","trial_index":96,"time_elapsed":468253,"internal_node_id":"0.0-96.0"},{"Valence":"Lose","Color":"#3366ff99","Rune":"06","Correct":-1,"Choice":32,"RT":978.1499999953667,"Accuracy":0,"Sham":0,"Outcome":"-10","Keys":[2478.5699999920325],"TotalKeys":1,"Block":2,"Trial":83,"Action":"No-Go","Robot":4,"trial_type":"pit-trial","trial_index":97,"time_elapsed":471736,"internal_node_id":"0.0-97.0"},{"Valence":"Lose","Color":"#3366ff99","Rune":"04","Correct":32,"Choice":32,"RT":320.6249999930151,"Accuracy":1,"Sham":0,"Outcome":"-1","Keys":[1821.6350000002421],"TotalKeys":1,"Block":2,"Trial":84,"Action":"Go","Robot":3,"trial_type":"pit-trial","trial_index":98,"time_elapsed":474563,"internal_node_id":"0.0-98.0"},{"Valence":"Win","Color":"#ffcc3399","Rune":"05","Correct":32,"Choice":32,"RT":300.905000010971,"Accuracy":1,"Sham":0,"Outcome":"+10","Keys":[1801.0749999957625],"TotalKeys":1,"Block":2,"Trial":85,"Action":"Go","Robot":1,"trial_type":"pit-trial","trial_index":99,"time_elapsed":477370,"internal_node_id":"0.0-99.0"},{"Valence":"Win","Color":"#ffcc3399","Rune":"03","Correct":-1,"Choice":-1,"RT":-1,"Accuracy":1,"Sham":0,"Outcome":"+10","Keys":[1356.499999994412],"TotalKeys":1,"Block":2,"Trial":86,"Action":"No-Go","Robot":2,"trial_type":"pit-trial","trial_index":100,"time_elapsed":481375,"internal_node_id":"0.0-100.0"},{"Valence":"Lose","Color":"#3366ff99","Rune":"04","Correct":32,"Choice":-1,"RT":-1,"Accuracy":0,"Sham":0,"Outcome":"-10","Keys":[],"TotalKeys":0,"Block":2,"Trial":87,"Action":"Go","Robot":3,"trial_type":"pit-trial","trial_index":101,"time_elapsed":485380,"internal_node_id":"0.0-101.0"},{"Valence":"Lose","Color":"#3366ff99","Rune":"06","Correct":-1,"Choice":-1,"RT":-1,"Accuracy":1,"Sham":0,"Outcome":"-1","Keys":[],"TotalKeys":0,"Block":2,"Trial":88,"Action":"No-Go","Robot":4,"trial_type":"pit-trial","trial_index":102,"time_elapsed":489386,"internal_node_id":"0.0-102.0"},{"Valence":"Lose","Color":"#3366ff99","Rune":"04","Correct":32,"Choice":32,"RT":599.6849999937695,"Accuracy":1,"Sham":1,"Outcome":"-10","Keys":[2100.539999999455],"TotalKeys":1,"Block":2,"Trial":89,"Action":"Go","Robot":3,"trial_type":"pit-trial","trial_index":103,"time_elapsed":492495,"internal_node_id":"0.0-103.0"},{"Valence":"Win","Color":"#ffcc3399","Rune":"05","Correct":32,"Choice":32,"RT":483.5449999955017,"Accuracy":1,"Sham":1,"Outcome":"1","Keys":[1984.5700000005309],"TotalKeys":1,"Block":2,"Trial":90,"Action":"Go","Robot":1,"trial_type":"pit-trial","trial_index":104,"time_elapsed":495493,"internal_node_id":"0.0-104.0"},{"Valence":"Win","Color":"#ffcc3399","Rune":"03","Correct":-1,"Choice":-1,"RT":-1,"Accuracy":1,"Sham":0,"Outcome":"+10","Keys":[],"TotalKeys":0,"Block":2,"Trial":91,"Action":"No-Go","Robot":2,"trial_type":"pit-trial","trial_index":105,"time_elapsed":499501,"internal_node_id":"0.0-105.0"},{"Valence":"Lose","Color":"#3366ff99","Rune":"06","Correct":-1,"Choice":-1,"RT":-1,"Accuracy":1,"Sham":0,"Outcome":"-1","Keys":[524.2100000032224,3972.4800000112737],"TotalKeys":2,"Block":2,"Trial":92,"Action":"No-Go","Robot":4,"trial_type":"pit-trial","trial_index":106,"time_elapsed":503508,"internal_node_id":"0.0-106.0"},{"Valence":"Lose","Color":"#3366ff99","Rune":"06","Correct":-1,"Choice":32,"RT":394.20999999856576,"Accuracy":0,"Sham":0,"Outcome":"-10","Keys":[1894.8299999901792],"TotalKeys":1,"Block":2,"Trial":93,"Action":"No-Go","Robot":4,"trial_type":"pit-trial","trial_index":107,"time_elapsed":506410,"internal_node_id":"0.0-107.0"},{"Valence":"Win","Color":"#ffcc3399","Rune":"05","Correct":32,"Choice":-1,"RT":-1,"Accuracy":0,"Sham":0,"Outcome":"+1","Keys":[1287.9350000002887],"TotalKeys":1,"Block":2,"Trial":94,"Action":"Go","Robot":1,"trial_type":"pit-trial","trial_index":108,"time_elapsed":510430,"internal_node_id":"0.0-108.0"},{"Valence":"Lose","Color":"#3366ff99","Rune":"04","Correct":32,"Choice":-1,"RT":-1,"Accuracy":0,"Sham":0,"Outcome":"-10","Keys":[781.6800000000512,3542.3749999899883],"TotalKeys":2,"Block":2,"Trial":95,"Action":"Go","Robot":3,"trial_type":"pit-trial","trial_index":109,"time_elapsed":514438,"internal_node_id":"0.0-109.0"},{"Valence":"Win","Color":"#ffcc3399","Rune":"03","Correct":-1,"Choice":-1,"RT":-1,"Accuracy":1,"Sham":1,"Outcome":"1","Keys":[1312.1350000001257],"TotalKeys":1,"Block":2,"Trial":96,"Action":"No-Go","Robot":2,"trial_type":"pit-trial","trial_index":110,"time_elapsed":518444,"internal_node_id":"0.0-110.0"},{"Valence":"Lose","Color":"#3366ff99","Rune":"06","Correct":-1,"Choice":32,"RT":1232.5350000028266,"Accuracy":0,"Sham":1,"Outcome":"-1","Keys":[1125.0600000057602,2732.98000000068],"TotalKeys":2,"Block":2,"Trial":97,"Action":"No-Go","Robot":4,"trial_type":"pit-trial","trial_index":111,"time_elapsed":522180,"internal_node_id":"0.0-111.0"},{"Valence":"Win","Color":"#ffcc3399","Rune":"05","Correct":32,"Choice":-1,"RT":-1,"Accuracy":0,"Sham":0,"Outcome":"+1","Keys":[3439.494999998715],"TotalKeys":1,"Block":2,"Trial":98,"Action":"Go","Robot":1,"trial_type":"pit-trial","trial_index":112,"time_elapsed":526187,"internal_node_id":"0.0-112.0"},{"Valence":"Lose","Color":"#3366ff99","Rune":"04","Correct":32,"Choice":32,"RT":496.62499999976717,"Accuracy":1,"Sham":0,"Outcome":"-1","Keys":[1997.10999999661],"TotalKeys":1,"Block":2,"Trial":99,"Action":"Go","Robot":3,"trial_type":"pit-trial","trial_index":113,"time_elapsed":529190,"internal_node_id":"0.0-113.0"},{"Valence":"Win","Color":"#ffcc3399","Rune":"03","Correct":-1,"Choice":-1,"RT":-1,"Accuracy":1,"Sham":0,"Outcome":"+10","Keys":[1299.7949999989942],"TotalKeys":1,"Block":2,"Trial":100,"Action":"No-Go","Robot":2,"trial_type":"pit-trial","trial_index":114,"time_elapsed":533199,"internal_node_id":"0.0-114.0"},{"Valence":"Lose","Color":"#3366ff99","Rune":"06","Correct":-1,"Choice":32,"RT":1251.66999999783,"Accuracy":0,"Sham":0,"Outcome":"-10","Keys":[1106.5550000057556,2753.2499999942956],"TotalKeys":2,"Block":2,"Trial":101,"Action":"No-Go","Robot":4,"trial_type":"pit-trial","trial_index":115,"time_elapsed":536969,"internal_node_id":"0.0-115.0"},{"Valence":"Lose","Color":"#3366ff99","Rune":"04","Correct":32,"Choice":32,"RT":109.134999991511,"Accuracy":1,"Sham":0,"Outcome":"-1","Keys":[1610.8299999905284],"TotalKeys":1,"Block":2,"Trial":102,"Action":"Go","Robot":3,"trial_type":"pit-trial","trial_index":116,"time_elapsed":539584,"internal_node_id":"0.0-116.0"},{"Valence":"Win","Color":"#ffcc3399","Rune":"05","Correct":32,"Choice":-1,"RT":-1,"Accuracy":0,"Sham":1,"Outcome":"+10","Keys":[1348.9649999974063],"TotalKeys":1,"Block":2,"Trial":103,"Action":"Go","Robot":1,"trial_type":"pit-trial","trial_index":117,"time_elapsed":543590,"internal_node_id":"0.0-117.0"},{"Valence":"Win","Color":"#ffcc3399","Rune":"03","Correct":-1,"Choice":32,"RT":139.47499998903368,"Accuracy":0,"Sham":1,"Outcome":"+10","Keys":[1639.56500000495],"TotalKeys":1,"Block":2,"Trial":104,"Action":"No-Go","Robot":2,"trial_type":"pit-trial","trial_index":118,"time_elapsed":546235,"internal_node_id":"0.0-118.0"},{"Valence":"Lose","Color":"#3366ff99","Rune":"04","Correct":32,"Choice":-1,"RT":-1,"Accuracy":0,"Sham":0,"Outcome":"-10","Keys":[3793.0599999963306],"TotalKeys":1,"Block":2,"Trial":105,"Action":"Go","Robot":3,"trial_type":"pit-trial","trial_index":119,"time_elapsed":550240,"internal_node_id":"0.0-119.0"},{"Valence":"Win","Color":"#ffcc3399","Rune":"05","Correct":32,"Choice":32,"RT":144.74499999778345,"Accuracy":1,"Sham":0,"Outcome":"+10","Keys":[1645.7700000028126],"TotalKeys":1,"Block":2,"Trial":106,"Action":"Go","Robot":1,"trial_type":"pit-trial","trial_index":120,"time_elapsed":552890,"internal_node_id":"0.0-120.0"},{"Valence":"Win","Color":"#ffcc3399","Rune":"03","Correct":-1,"Choice":32,"RT":1009.7499999974389,"Accuracy":0,"Sham":0,"Outcome":"+1","Keys":[2510.610000012093],"TotalKeys":1,"Block":2,"Trial":107,"Action":"No-Go","Robot":2,"trial_type":"pit-trial","trial_index":121,"time_elapsed":556404,"internal_node_id":"0.0-121.0"},{"Valence":"Lose","Color":"#3366ff99","Rune":"06","Correct":-1,"Choice":32,"RT":69.38499999523629,"Accuracy":0,"Sham":0,"Outcome":"-10","Keys":[1570.8050000102958],"TotalKeys":1,"Block":2,"Trial":108,"Action":"No-Go","Robot":4,"trial_type":"pit-trial","trial_index":122,"time_elapsed":558979,"internal_node_id":"0.0-122.0"},{"Valence":"Win","Color":"#ffcc3399","Rune":"03","Correct":-1,"Choice":-1,"RT":-1,"Accuracy":1,"Sham":0,"Outcome":"+10","Keys":[1042.1300000016345],"TotalKeys":1,"Block":2,"Trial":109,"Action":"No-Go","Robot":2,"trial_type":"pit-trial","trial_index":123,"time_elapsed":562986,"internal_node_id":"0.0-123.0"},{"Valence":"Lose","Color":"#3366ff99","Rune":"06","Correct":-1,"Choice":-1,"RT":-1,"Accuracy":1,"Sham":0,"Outcome":"-1","Keys":[],"TotalKeys":0,"Block":2,"Trial":110,"Action":"No-Go","Robot":4,"trial_type":"pit-trial","trial_index":124,"time_elapsed":566992,"internal_node_id":"0.0-124.0"},{"Valence":"Win","Color":"#ffcc3399","Rune":"05","Correct":32,"Choice":-1,"RT":-1,"Accuracy":0,"Sham":0,"Outcome":"+1","Keys":[1305.804999996326],"TotalKeys":1,"Block":2,"Trial":111,"Action":"Go","Robot":1,"trial_type":"pit-trial","trial_index":125,"time_elapsed":571000,"internal_node_id":"0.0-125.0"},{"Valence":"Lose","Color":"#3366ff99","Rune":"04","Correct":32,"Choice":32,"RT":51.2649999873247,"Accuracy":1,"Sham":0,"Outcome":"-1","Keys":[871.1199999961536,1551.3349999964703],"TotalKeys":2,"Block":2,"Trial":112,"Action":"Go","Robot":3,"trial_type":"pit-trial","trial_index":126,"time_elapsed":573559,"internal_node_id":"0.0-126.0"},{"Valence":"Win","Color":"#ffcc3399","Rune":"03","Correct":-1,"Choice":-1,"RT":-1,"Accuracy":1,"Sham":0,"Outcome":"+10","Keys":[],"TotalKeys":0,"Block":2,"Trial":113,"Action":"No-Go","Robot":2,"trial_type":"pit-trial","trial_index":127,"time_elapsed":577568,"internal_node_id":"0.0-127.0"},{"Valence":"Lose","Color":"#3366ff99","Rune":"06","Correct":-1,"Choice":32,"RT":107.48500000045169,"Accuracy":0,"Sham":0,"Outcome":"-10","Keys":[229.6899999928428,1607.54499999166],"TotalKeys":2,"Block":2,"Trial":114,"Action":"No-Go","Robot":4,"trial_type":"pit-trial","trial_index":128,"time_elapsed":580182,"internal_node_id":"0.0-128.0"},{"Valence":"Lose","Color":"#3366ff99","Rune":"04","Correct":32,"Choice":32,"RT":668.5250000009546,"Accuracy":1,"Sham":1,"Outcome":"-10","Keys":[2169.579999987036],"TotalKeys":1,"Block":2,"Trial":115,"Action":"Go","Robot":3,"trial_type":"pit-trial","trial_index":129,"time_elapsed":583357,"internal_node_id":"0.0-129.0"},{"Valence":"Win","Color":"#ffcc3399","Rune":"05","Correct":32,"Choice":-1,"RT":-1,"Accuracy":0,"Sham":0,"Outcome":"+1","Keys":[],"TotalKeys":0,"Block":2,"Trial":116,"Action":"Go","Robot":1,"trial_type":"pit-trial","trial_index":130,"time_elapsed":587363,"internal_node_id":"0.0-130.0"},{"Valence":"Lose","Color":"#3366ff99","Rune":"06","Correct":-1,"Choice":-1,"RT":-1,"Accuracy":1,"Sham":1,"Outcome":"-10","Keys":[],"TotalKeys":0,"Block":2,"Trial":117,"Action":"No-Go","Robot":4,"trial_type":"pit-trial","trial_index":131,"time_elapsed":591372,"internal_node_id":"0.0-131.0"},{"Valence":"Lose","Color":"#3366ff99","Rune":"04","Correct":32,"Choice":32,"RT":301.3599999976577,"Accuracy":1,"Sham":0,"Outcome":"-1","Keys":[1802.2099999943748],"TotalKeys":1,"Block":2,"Trial":118,"Action":"Go","Robot":3,"trial_type":"pit-trial","trial_index":132,"time_elapsed":594182,"internal_node_id":"0.0-132.0"},{"Valence":"Win","Color":"#ffcc3399","Rune":"03","Correct":-1,"Choice":32,"RT":489.3900000024587,"Accuracy":0,"Sham":0,"Outcome":"+1","Keys":[1989.965000000666],"TotalKeys":1,"Block":2,"Trial":119,"Action":"No-Go","Robot":2,"trial_type":"pit-trial","trial_index":133,"time_elapsed":597180,"internal_node_id":"0.0-133.0"},{"Valence":"Win","Color":"#ffcc3399","Rune":"05","Correct":32,"Choice":32,"RT":635.4749999882188,"Accuracy":1,"Sham":0,"Outcome":"+10","Keys":[2135.7799999968847],"TotalKeys":1,"Block":2,"Trial":120,"Action":"Go","Robot":1,"trial_type":"pit-trial","trial_index":134,"time_elapsed":600319,"internal_node_id":"0.0-134.0"},{"Valence":"Win","Color":"#ffcc3399","Rune":"03","Correct":-1,"Choice":32,"RT":598.534999997355,"Accuracy":0,"Sham":0,"Outcome":"+1","Keys":[1178.5950000048615,2100.380000003497],"TotalKeys":2,"Block":2,"Trial":121,"Action":"No-Go","Robot":2,"trial_type":"pit-trial","trial_index":135,"time_elapsed":603425,"internal_node_id":"0.0-135.0"},{"Valence":"Lose","Color":"#3366ff99","Rune":"06","Correct":-1,"Choice":32,"RT":311.0199999937322,"Accuracy":0,"Sham":0,"Outcome":"-10","Keys":[1811.295000006794],"TotalKeys":1,"Block":2,"Trial":122,"Action":"No-Go","Robot":4,"trial_type":"pit-trial","trial_index":136,"time_elapsed":606242,"internal_node_id":"0.0-136.0"},{"Valence":"Lose","Color":"#3366ff99","Rune":"04","Correct":32,"Choice":32,"RT":331.6999999951804,"Accuracy":1,"Sham":0,"Outcome":"-1","Keys":[1832.574999993085],"TotalKeys":1,"Block":2,"Trial":123,"Action":"Go","Robot":3,"trial_type":"pit-trial","trial_index":137,"time_elapsed":609079,"internal_node_id":"0.0-137.0"},{"Valence":"Win","Color":"#ffcc3399","Rune":"05","Correct":32,"Choice":32,"RT":1010.9950000041863,"Accuracy":1,"Sham":1,"Outcome":"1","Keys":[1369.9550000019372,2512.6000000018394],"TotalKeys":2,"Block":2,"Trial":124,"Action":"Go","Robot":1,"trial_type":"pit-trial","trial_index":138,"time_elapsed":612595,"internal_node_id":"0.0-138.0"},{"Valence":"Lose","Color":"#3366ff99","Rune":"04","Correct":32,"Choice":32,"RT":298.5049999988405,"Accuracy":1,"Sham":1,"Outcome":"-10","Keys":[1799.2950000043493],"TotalKeys":1,"Block":2,"Trial":125,"Action":"Go","Robot":3,"trial_type":"pit-trial","trial_index":139,"time_elapsed":615400,"internal_node_id":"0.0-139.0"},{"Valence":"Lose","Color":"#3366ff99","Rune":"06","Correct":-1,"Choice":32,"RT":247.2799999959534,"Accuracy":0,"Sham":0,"Outcome":"-10","Keys":[1747.5799999956507],"TotalKeys":1,"Block":2,"Trial":126,"Action":"No-Go","Robot":4,"trial_type":"pit-trial","trial_index":140,"time_elapsed":618151,"internal_node_id":"0.0-140.0"},{"Valence":"Win","Color":"#ffcc3399","Rune":"03","Correct":-1,"Choice":32,"RT":829.4049999967683,"Accuracy":0,"Sham":0,"Outcome":"+1","Keys":[1362.489999999525,2332.540000003064],"TotalKeys":2,"Block":2,"Trial":127,"Action":"No-Go","Robot":2,"trial_type":"pit-trial","trial_index":141,"time_elapsed":621487,"internal_node_id":"0.0-141.0"},{"Valence":"Win","Color":"#ffcc3399","Rune":"05","Correct":32,"Choice":32,"RT":406.2350000021979,"Accuracy":1,"Sham":0,"Outcome":"+10","Keys":[1906.9699999963632],"TotalKeys":1,"Block":2,"Trial":128,"Action":"Go","Robot":1,"trial_type":"pit-trial","trial_index":142,"time_elapsed":624399,"internal_node_id":"0.0-142.0"},{"Valence":"Lose","Color":"#3366ff99","Rune":"06","Correct":-1,"Choice":32,"RT":908.2149999885587,"Accuracy":0,"Sham":0,"Outcome":"-10","Keys":[2410.08500001044],"TotalKeys":1,"Block":2,"Trial":129,"Action":"No-Go","Robot":4,"trial_type":"pit-trial","trial_index":143,"time_elapsed":627814,"internal_node_id":"0.0-143.0"},{"Valence":"Win","Color":"#ffcc3399","Rune":"05","Correct":32,"Choice":32,"RT":422.6499999931548,"Accuracy":1,"Sham":0,"Outcome":"+10","Keys":[1922.7350000001024],"TotalKeys":1,"Block":2,"Trial":130,"Action":"Go","Robot":1,"trial_type":"pit-trial","trial_index":144,"time_elapsed":630742,"internal_node_id":"0.0-144.0"},{"Valence":"Lose","Color":"#3366ff99","Rune":"04","Correct":32,"Choice":-1,"RT":-1,"Accuracy":0,"Sham":0,"Outcome":"-10","Keys":[],"TotalKeys":0,"Block":2,"Trial":131,"Action":"Go","Robot":3,"trial_type":"pit-trial","trial_index":145,"time_elapsed":634751,"internal_node_id":"0.0-145.0"},{"Valence":"Win","Color":"#ffcc3399","Rune":"03","Correct":-1,"Choice":32,"RT":385.9250000095926,"Accuracy":0,"Sham":0,"Outcome":"+1","Keys":[1887.1500000095693],"TotalKeys":1,"Block":2,"Trial":132,"Action":"No-Go","Robot":2,"trial_type":"pit-trial","trial_index":146,"time_elapsed":637642,"internal_node_id":"0.0-146.0"},{"Valence":"Lose","Color":"#3366ff99","Rune":"06","Correct":-1,"Choice":32,"RT":670.1199999952223,"Accuracy":0,"Sham":0,"Outcome":"-10","Keys":[2171.5300000068964],"TotalKeys":1,"Block":2,"Trial":133,"Action":"No-Go","Robot":4,"trial_type":"pit-trial","trial_index":147,"time_elapsed":640821,"internal_node_id":"0.0-147.0"},{"Valence":"Win","Color":"#ffcc3399","Rune":"05","Correct":32,"Choice":-1,"RT":-1,"Accuracy":0,"Sham":0,"Outcome":"+1","Keys":[],"TotalKeys":0,"Block":2,"Trial":134,"Action":"Go","Robot":1,"trial_type":"pit-trial","trial_index":148,"time_elapsed":644829,"internal_node_id":"0.0-148.0"},{"Valence":"Lose","Color":"#3366ff99","Rune":"04","Correct":32,"Choice":32,"RT":470.2099999994971,"Accuracy":1,"Sham":0,"Outcome":"-1","Keys":[1971.5900000010151],"TotalKeys":1,"Block":2,"Trial":135,"Action":"Go","Robot":3,"trial_type":"pit-trial","trial_index":149,"time_elapsed":647806,"internal_node_id":"0.0-149.0"},{"Valence":"Win","Color":"#ffcc3399","Rune":"03","Correct":-1,"Choice":-1,"RT":-1,"Accuracy":1,"Sham":0,"Outcome":"+10","Keys":[3255.650000006426],"TotalKeys":1,"Block":2,"Trial":136,"Action":"No-Go","Robot":2,"trial_type":"pit-trial","trial_index":150,"time_elapsed":651819,"internal_node_id":"0.0-150.0"},{"Valence":"Lose","Color":"#3366ff99","Rune":"06","Correct":-1,"Choice":32,"RT":512.3749999911524,"Accuracy":0,"Sham":1,"Outcome":"-1","Keys":[2012.6750000054017],"TotalKeys":1,"Block":2,"Trial":137,"Action":"No-Go","Robot":4,"trial_type":"pit-trial","trial_index":151,"time_elapsed":654845,"internal_node_id":"0.0-151.0"},{"Valence":"Win","Color":"#ffcc3399","Rune":"05","Correct":32,"Choice":32,"RT":442.50499999907333,"Accuracy":1,"Sham":0,"Outcome":"+10","Keys":[1943.169999998645],"TotalKeys":1,"Block":2,"Trial":138,"Action":"Go","Robot":1,"trial_type":"pit-trial","trial_index":152,"time_elapsed":657794,"internal_node_id":"0.0-152.0"},{"Valence":"Lose","Color":"#3366ff99","Rune":"04","Correct":32,"Choice":-1,"RT":-1,"Accuracy":0,"Sham":0,"Outcome":"-10","Keys":[3105.0600000016857],"TotalKeys":1,"Block":2,"Trial":139,"Action":"Go","Robot":3,"trial_type":"pit-trial","trial_index":153,"time_elapsed":661802,"internal_node_id":"0.0-153.0"},{"Valence":"Win","Color":"#ffcc3399","Rune":"03","Correct":-1,"Choice":-1,"RT":-1,"Accuracy":1,"Sham":1,"Outcome":"1","Keys":[],"TotalKeys":0,"Block":2,"Trial":140,"Action":"No-Go","Robot":2,"trial_type":"pit-trial","trial_index":154,"time_elapsed":665809,"internal_node_id":"0.0-154.0"},{"Valence":"Win","Color":"#ffcc3399","Rune":"03","Correct":-1,"Choice":32,"RT":1438.320000001113,"Accuracy":0,"Sham":1,"Outcome":"+10","Keys":[2939.120000010007],"TotalKeys":1,"Block":2,"Trial":141,"Action":"No-Go","Robot":2,"trial_type":"pit-trial","trial_index":155,"time_elapsed":669753,"internal_node_id":"0.0-155.0"},{"Valence":"Lose","Color":"#3366ff99","Rune":"04","Correct":32,"Choice":-1,"RT":-1,"Accuracy":0,"Sham":0,"Outcome":"-10","Keys":[3583.585000000312],"TotalKeys":1,"Block":2,"Trial":142,"Action":"Go","Robot":3,"trial_type":"pit-trial","trial_index":156,"time_elapsed":673760,"internal_node_id":"0.0-156.0"},{"Valence":"Win","Color":"#ffcc3399","Rune":"05","Correct":32,"Choice":32,"RT":349.48000000440516,"Accuracy":1,"Sham":0,"Outcome":"+10","Keys":[1849.6199999935925],"TotalKeys":1,"Block":2,"Trial":143,"Action":"Go","Robot":1,"trial_type":"pit-trial","trial_index":157,"time_elapsed":676616,"internal_node_id":"0.0-157.0"},{"Valence":"Lose","Color":"#3366ff99","Rune":"06","Correct":-1,"Choice":-1,"RT":-1,"Accuracy":1,"Sham":0,"Outcome":"-1","Keys":[3458.0600000044797],"TotalKeys":1,"Block":2,"Trial":144,"Action":"No-Go","Robot":4,"trial_type":"pit-trial","trial_index":158,"time_elapsed":680621,"internal_node_id":"0.0-158.0"},{"Valence":"Lose","Color":"#3366ff99","Rune":"06","Correct":-1,"Choice":32,"RT":1359.8000000056345,"Accuracy":0,"Sham":0,"Outcome":"-10","Keys":[2861.635000008391],"TotalKeys":1,"Block":2,"Trial":145,"Action":"No-Go","Robot":4,"trial_type":"pit-trial","trial_index":159,"time_elapsed":684486,"internal_node_id":"0.0-159.0"},{"Valence":"Win","Color":"#ffcc3399","Rune":"05","Correct":32,"Choice":-1,"RT":-1,"Accuracy":0,"Sham":0,"Outcome":"+1","Keys":[],"TotalKeys":0,"Block":2,"Trial":146,"Action":"Go","Robot":1,"trial_type":"pit-trial","trial_index":160,"time_elapsed":688492,"internal_node_id":"0.0-160.0"},{"Valence":"Lose","Color":"#3366ff99","Rune":"04","Correct":32,"Choice":32,"RT":360.8600000006845,"Accuracy":1,"Sham":0,"Outcome":"-1","Keys":[36.980000004405156,1113.2400000060443,1862.4300000083167],"TotalKeys":3,"Block":2,"Trial":147,"Action":"Go","Robot":3,"trial_type":"pit-trial","trial_index":161,"time_elapsed":691359,"internal_node_id":"0.0-161.0"},{"Valence":"Win","Color":"#ffcc3399","Rune":"03","Correct":-1,"Choice":32,"RT":1394.655000010971,"Accuracy":0,"Sham":0,"Outcome":"+1","Keys":[2896.0950000036974],"TotalKeys":1,"Block":2,"Trial":148,"Action":"No-Go","Robot":2,"trial_type":"pit-trial","trial_index":162,"time_elapsed":695258,"internal_node_id":"0.0-162.0"},{"Valence":"Win","Color":"#ffcc3399","Rune":"03","Correct":-1,"Choice":32,"RT":852.6049999927636,"Accuracy":0,"Sham":0,"Outcome":"+1","Keys":[2352.729999998701],"TotalKeys":1,"Block":2,"Trial":149,"Action":"No-Go","Robot":2,"trial_type":"pit-trial","trial_index":163,"time_elapsed":698615,"internal_node_id":"0.0-163.0"},{"Valence":"Lose","Color":"#3366ff99","Rune":"06","Correct":-1,"Choice":-1,"RT":-1,"Accuracy":1,"Sham":0,"Outcome":"-1","Keys":[],"TotalKeys":0,"Block":2,"Trial":150,"Action":"No-Go","Robot":4,"trial_type":"pit-trial","trial_index":164,"time_elapsed":702619,"internal_node_id":"0.0-164.0"},{"Valence":"Lose","Color":"#3366ff99","Rune":"04","Correct":32,"Choice":-1,"RT":-1,"Accuracy":0,"Sham":0,"Outcome":"-10","Keys":[1498.1299999926705],"TotalKeys":1,"Block":2,"Trial":151,"Action":"Go","Robot":3,"trial_type":"pit-trial","trial_index":165,"time_elapsed":706626,"internal_node_id":"0.0-165.0"},{"Valence":"Win","Color":"#ffcc3399","Rune":"05","Correct":32,"Choice":32,"RT":798.6199999868404,"Accuracy":1,"Sham":0,"Outcome":"+10","Keys":[1247.0849999954225,2300.105000002077],"TotalKeys":2,"Block":2,"Trial":152,"Action":"Go","Robot":1,"trial_type":"pit-trial","trial_index":166,"time_elapsed":709934,"internal_node_id":"0.0-166.0"},{"Valence":"Win","Color":"#ffcc3399","Rune":"05","Correct":32,"Choice":32,"RT":1381.824999989476,"Accuracy":1,"Sham":0,"Outcome":"+10","Keys":[2882.6499999995576],"TotalKeys":1,"Block":2,"Trial":153,"Action":"Go","Robot":1,"trial_type":"pit-trial","trial_index":167,"time_elapsed":713824,"internal_node_id":"0.0-167.0"},{"Valence":"Lose","Color":"#3366ff99","Rune":"06","Correct":-1,"Choice":32,"RT":631.0999999986961,"Accuracy":0,"Sham":0,"Outcome":"-10","Keys":[1488.1549999990966,2131.984999999986],"TotalKeys":2,"Block":2,"Trial":154,"Action":"No-Go","Robot":4,"trial_type":"pit-trial","trial_index":168,"time_elapsed":716960,"internal_node_id":"0.0-168.0"},{"Valence":"Lose","Color":"#3366ff99","Rune":"04","Correct":32,"Choice":-1,"RT":-1,"Accuracy":0,"Sham":0,"Outcome":"-10","Keys":[3195.915000003879],"TotalKeys":1,"Block":2,"Trial":155,"Action":"Go","Robot":3,"trial_type":"pit-trial","trial_index":169,"time_elapsed":720966,"internal_node_id":"0.0-169.0"},{"Valence":"Win","Color":"#ffcc3399","Rune":"03","Correct":-1,"Choice":32,"RT":991.2500000064028,"Accuracy":0,"Sham":0,"Outcome":"+1","Keys":[2493.1349999969825],"TotalKeys":1,"Block":2,"Trial":156,"Action":"No-Go","Robot":2,"trial_type":"pit-trial","trial_index":170,"time_elapsed":724464,"internal_node_id":"0.0-170.0"},{"Valence":"Lose","Color":"#3366ff99","Rune":"04","Correct":32,"Choice":32,"RT":1380.5699999938952,"Accuracy":1,"Sham":1,"Outcome":"-10","Keys":[2881.2999999936437],"TotalKeys":1,"Block":2,"Trial":157,"Action":"Go","Robot":3,"trial_type":"pit-trial","trial_index":171,"time_elapsed":728349,"internal_node_id":"0.0-171.0"},{"Valence":"Lose","Color":"#3366ff99","Rune":"06","Correct":-1,"Choice":32,"RT":892.6749999955064,"Accuracy":0,"Sham":1,"Outcome":"-1","Keys":[1198.420000000624,2393.129999996745],"TotalKeys":2,"Block":2,"Trial":158,"Action":"No-Go","Robot":4,"trial_type":"pit-trial","trial_index":172,"time_elapsed":731747,"internal_node_id":"0.0-172.0"},{"Valence":"Win","Color":"#ffcc3399","Rune":"03","Correct":-1,"Choice":32,"RT":568.5950000042794,"Accuracy":0,"Sham":0,"Outcome":"+1","Keys":[2070.1399999961723],"TotalKeys":1,"Block":2,"Trial":159,"Action":"No-Go","Robot":2,"trial_type":"pit-trial","trial_index":173,"time_elapsed":734822,"internal_node_id":"0.0-173.0"},{"Valence":"Win","Color":"#ffcc3399","Rune":"05","Correct":32,"Choice":32,"RT":464.1150000097696,"Accuracy":1,"Sham":1,"Outcome":"1","Keys":[1965.009999999893],"TotalKeys":1,"Block":2,"Trial":160,"Action":"Go","Robot":1,"trial_type":"pit-trial","trial_index":174,"time_elapsed":737793,"internal_node_id":"0.0-174.0"},{"rt":27957.325000010314,"demographics":{"age":"30","gender-categorical":"Male","ethnicity":"Not Hispanic or Latino","race":"Black or African American","english":"Yes","fluency":"Very well"},"trial_type":"survey-demo","trial_index":175,"time_elapsed":765763,"internal_node_id":"0.0-175.0"},{"rt":32427.71000000357,"debriefgraphics":{"difficulty":"4","fun":"4","clarity":"5","strategy":"no","feedback":"great"},"trial_type":"survey-debrief","trial_index":176,"time_elapsed":798195,"internal_node_id":"0.0-176.0","interactions":"[]"}]