[{"view_history":"[{\"page_index\":0,\"viewing_time\":3633.5750000434928},{\"page_index\":1,\"viewing_time\":8946.064999967348},{\"page_index\":2,\"viewing_time\":20527.814999979455},{\"page_index\":3,\"viewing_time\":11883.055000042077},{\"page_index\":4,\"viewing_time\":7817.8149999585}]","rt":52809.21999999555,"trial_type":"pit-instructions","trial_index":0,"time_elapsed":52809,"internal_node_id":"0.0-0.0"},{"Correct":32,"Choice":-1,"RT":-1,"Accuracy":0,"Sham":0,"Outcome":0,"trial_type":"pit-trial","trial_index":1,"time_elapsed":56816,"internal_node_id":"0.0-1.0"},{"Correct":32,"Choice":32,"RT":629.3050000094809,"Accuracy":1,"Sham":0,"Outcome":1,"trial_type":"pit-trial","trial_index":2,"time_elapsed":59957,"internal_node_id":"0.0-2.0"},{"Correct":32,"Choice":32,"RT":609.1400000150315,"Accuracy":1,"Sham":0,"Outcome":1,"trial_type":"pit-trial","trial_index":3,"time_elapsed":63074,"internal_node_id":"0.0-3.0"},{"Correct":32,"Choice":32,"RT":372.2399999969639,"Accuracy":1,"Sham":0,"Outcome":1,"trial_type":"pit-trial","trial_index":4,"time_elapsed":65957,"internal_node_id":"0.0-4.0"},{"view_history":"[{\"page_index\":0,\"viewing_time\":5661.529999983031}]","rt":5661.824999959208,"trial_type":"pit-instructions","trial_index":5,"time_elapsed":71623,"internal_node_id":"0.0-5.0"},{"Correct":-1,"Choice":-1,"RT":-1,"Accuracy":1,"Sham":0,"Outcome":1,"trial_type":"pit-trial","trial_index":6,"time_elapsed":75629,"internal_node_id":"0.0-6.0"},{"Correct":-1,"Choice":-1,"RT":-1,"Accuracy":1,"Sham":0,"Outcome":1,"trial_type":"pit-trial","trial_index":7,"time_elapsed":79637,"internal_node_id":"0.0-7.0"},{"Correct":-1,"Choice":-1,"RT":-1,"Accuracy":1,"Sham":0,"Outcome":1,"trial_type":"pit-trial","trial_index":8,"time_elapsed":83648,"internal_node_id":"0.0-8.0"},{"Correct":-1,"Choice":-1,"RT":-1,"Accuracy":1,"Sham":0,"Outcome":1,"trial_type":"pit-trial","trial_index":9,"time_elapsed":87660,"internal_node_id":"0.0-9.0"},{"view_history":"[{\"page_index\":0,\"viewing_time\":4306.430000055116},{\"page_index\":1,\"viewing_time\":9583.469999954104},{\"page_index\":2,\"viewing_time\":10566.745000018273},{\"page_index\":3,\"viewing_time\":7189.880000019912},{\"page_index\":4,\"viewing_time\":13933.239999983925},{\"page_index\":5,\"viewing_time\":8076.264999981504},{\"page_index\":6,\"viewing_time\":3492.015000025276},{\"page_index\":7,\"viewing_time\":2823.5250000143424}]","rt":59971.83000005316,"trial_type":"pit-instructions","trial_index":10,"time_elapsed":147635,"internal_node_id":"0.0-10.0"},{"rt":28851.780000026338,"responses":"{\"no-press\":\"Do nothing\",\"probability\":\"0\",\"bonus\":\"True\"}","errors":0,"trial_type":"pit-comprehension","trial_index":11,"time_elapsed":176491,"internal_node_id":"0.0-11.0"},{"view_history":"[{\"page_index\":0,\"viewing_time\":3937.735000043176}]","rt":3938.0050000036135,"trial_type":"pit-instructions","trial_index":12,"time_elapsed":180434,"internal_node_id":"0.0-12.0"},{"Correct":-1,"Choice":32,"RT":737.5300000421703,"Accuracy":0,"Sham":0,"Outcome":0,"Block":1,"Trial":1,"Valence":"Win","Action":"No-Go","trial_type":"pit-trial","trial_index":13,"time_elapsed":183679,"internal_node_id":"0.0-13.0"},{"Correct":32,"Choice":-1,"RT":-1,"Accuracy":0,"Sham":0,"Outcome":-1,"Block":1,"Trial":2,"Valence":"Lose","Action":"Go","trial_type":"pit-trial","trial_index":14,"time_elapsed":187687,"internal_node_id":"0.0-14.0"},{"Correct":-1,"Choice":-1,"RT":-1,"Accuracy":1,"Sham":0,"Outcome":0,"Block":1,"Trial":3,"Valence":"Lose","Action":"No-Go","trial_type":"pit-trial","trial_index":15,"time_elapsed":191696,"internal_node_id":"0.0-15.0"},{"Correct":32,"Choice":32,"RT":683.870000008028,"Accuracy":1,"Sham":0,"Outcome":1,"Block":1,"Trial":4,"Valence":"Win","Action":"Go","trial_type":"pit-trial","trial_index":16,"time_elapsed":194888,"internal_node_id":"0.0-16.0"},{"Correct":32,"Choice":32,"RT":663.4300000150688,"Accuracy":1,"Sham":1,"Outcome":-1,"Block":1,"Trial":5,"Valence":"Lose","Action":"Go","trial_type":"pit-trial","trial_index":17,"time_elapsed":198061,"internal_node_id":"0.0-17.0"},{"Correct":-1,"Choice":32,"RT":958.1699999980628,"Accuracy":0,"Sham":0,"Outcome":-1,"Block":1,"Trial":6,"Valence":"Lose","Action":"No-Go","trial_type":"pit-trial","trial_index":18,"time_elapsed":201528,"internal_node_id":"0.0-18.0"},{"Correct":32,"Choice":32,"RT":599.9350000056438,"Accuracy":1,"Sham":0,"Outcome":1,"Block":1,"Trial":7,"Valence":"Win","Action":"Go","trial_type":"pit-trial","trial_index":19,"time_elapsed":204638,"internal_node_id":"0.0-19.0"},{"Correct":-1,"Choice":32,"RT":542.1849999693222,"Accuracy":0,"Sham":0,"Outcome":0,"Block":1,"Trial":8,"Valence":"Win","Action":"No-Go","trial_type":"pit-trial","trial_index":20,"time_elapsed":207688,"internal_node_id":"0.0-20.0"},{"Correct":32,"Choice":32,"RT":553.0450000078417,"Accuracy":1,"Sham":0,"Outcome":1,"Block":1,"Trial":9,"Valence":"Win","Action":"Go","trial_type":"pit-trial","trial_index":21,"time_elapsed":210748,"internal_node_id":"0.0-21.0"},{"Correct":32,"Choice":-1,"RT":-1,"Accuracy":0,"Sham":0,"Outcome":-1,"Block":1,"Trial":10,"Valence":"Lose","Action":"Go","trial_type":"pit-trial","trial_index":22,"time_elapsed":214755,"internal_node_id":"0.0-22.0"},{"Correct":-1,"Choice":32,"RT":864.4549999735318,"Accuracy":0,"Sham":0,"Outcome":0,"Block":1,"Trial":11,"Valence":"Win","Action":"No-Go","trial_type":"pit-trial","trial_index":23,"time_elapsed":218129,"internal_node_id":"0.0-23.0"},{"Correct":-1,"Choice":32,"RT":695.5099999904633,"Accuracy":0,"Sham":0,"Outcome":-1,"Block":1,"Trial":12,"Valence":"Lose","Action":"No-Go","trial_type":"pit-trial","trial_index":24,"time_elapsed":221332,"internal_node_id":"0.0-24.0"},{"Correct":32,"Choice":32,"RT":518.7349999905564,"Accuracy":1,"Sham":0,"Outcome":1,"Block":1,"Trial":13,"Valence":"Win","Action":"Go","trial_type":"pit-trial","trial_index":25,"time_elapsed":224359,"internal_node_id":"0.0-25.0"},{"Correct":-1,"Choice":32,"RT":910.5449999915436,"Accuracy":0,"Sham":0,"Outcome":0,"Block":1,"Trial":14,"Valence":"Win","Action":"No-Go","trial_type":"pit-trial","trial_index":26,"time_elapsed":227782,"internal_node_id":"0.0-26.0"},{"Correct":32,"Choice":-1,"RT":-1,"Accuracy":0,"Sham":0,"Outcome":-1,"Block":1,"Trial":15,"Valence":"Lose","Action":"Go","trial_type":"pit-trial","trial_index":27,"time_elapsed":231788,"internal_node_id":"0.0-27.0"},{"Correct":-1,"Choice":-1,"RT":-1,"Accuracy":1,"Sham":1,"Outcome":-1,"Block":1,"Trial":16,"Valence":"Lose","Action":"No-Go","trial_type":"pit-trial","trial_index":28,"time_elapsed":235800,"internal_node_id":"0.0-28.0"},{"Correct":32,"Choice":32,"RT":568.8799999770708,"Accuracy":1,"Sham":1,"Outcome":0,"Block":1,"Trial":17,"Valence":"Win","Action":"Go","trial_type":"pit-trial","trial_index":29,"time_elapsed":238878,"internal_node_id":"0.0-29.0"},{"Correct":32,"Choice":32,"RT":657.7599999727681,"Accuracy":1,"Sham":0,"Outcome":0,"Block":1,"Trial":18,"Valence":"Lose","Action":"Go","trial_type":"pit-trial","trial_index":30,"time_elapsed":242045,"internal_node_id":"0.0-30.0"},{"Correct":-1,"Choice":32,"RT":562.8750000032596,"Accuracy":0,"Sham":1,"Outcome":1,"Block":1,"Trial":19,"Valence":"Win","Action":"No-Go","trial_type":"pit-trial","trial_index":31,"time_elapsed":245118,"internal_node_id":"0.0-31.0"},{"Correct":-1,"Choice":32,"RT":769.2399999941699,"Accuracy":0,"Sham":0,"Outcome":-1,"Block":1,"Trial":20,"Valence":"Lose","Action":"No-Go","trial_type":"pit-trial","trial_index":32,"time_elapsed":248397,"internal_node_id":"0.0-32.0"},{"Correct":-1,"Choice":-1,"RT":-1,"Accuracy":1,"Sham":0,"Outcome":0,"Block":1,"Trial":21,"Valence":"Lose","Action":"No-Go","trial_type":"pit-trial","trial_index":33,"time_elapsed":252403,"internal_node_id":"0.0-33.0"},{"Correct":-1,"Choice":32,"RT":791.4549999986775,"Accuracy":0,"Sham":0,"Outcome":0,"Block":1,"Trial":22,"Valence":"Win","Action":"No-Go","trial_type":"pit-trial","trial_index":34,"time_elapsed":255703,"internal_node_id":"0.0-34.0"},{"Correct":32,"Choice":32,"RT":519.2249999963678,"Accuracy":1,"Sham":0,"Outcome":1,"Block":1,"Trial":23,"Valence":"Win","Action":"Go","trial_type":"pit-trial","trial_index":35,"time_elapsed":258728,"internal_node_id":"0.0-35.0"},{"Correct":32,"Choice":32,"RT":936.7450000136159,"Accuracy":1,"Sham":0,"Outcome":0,"Block":1,"Trial":24,"Valence":"Lose","Action":"Go","trial_type":"pit-trial","trial_index":36,"time_elapsed":262171,"internal_node_id":"0.0-36.0"},{"Correct":-1,"Choice":-1,"RT":-1,"Accuracy":1,"Sham":0,"Outcome":0,"Block":1,"Trial":25,"Valence":"Lose","Action":"No-Go","trial_type":"pit-trial","trial_index":37,"time_elapsed":266183,"internal_node_id":"0.0-37.0"},{"Correct":32,"Choice":32,"RT":504.04999998863786,"Accuracy":1,"Sham":0,"Outcome":1,"Block":1,"Trial":26,"Valence":"Win","Action":"Go","trial_type":"pit-trial","trial_index":38,"time_elapsed":269194,"internal_node_id":"0.0-38.0"},{"Correct":32,"Choice":32,"RT":663.8449999736622,"Accuracy":1,"Sham":0,"Outcome":0,"Block":1,"Trial":27,"Valence":"Lose","Action":"Go","trial_type":"pit-trial","trial_index":39,"time_elapsed":272365,"internal_node_id":"0.0-39.0"},{"Correct":-1,"Choice":32,"RT":724.7750000096858,"Accuracy":0,"Sham":0,"Outcome":0,"Block":1,"Trial":28,"Valence":"Win","Action":"No-Go","trial_type":"pit-trial","trial_index":40,"time_elapsed":275596,"internal_node_id":"0.0-40.0"},{"Correct":32,"Choice":32,"RT":645.6949999555945,"Accuracy":1,"Sham":0,"Outcome":0,"Block":1,"Trial":29,"Valence":"Lose","Action":"Go","trial_type":"pit-trial","trial_index":41,"time_elapsed":278748,"internal_node_id":"0.0-41.0"},{"Correct":-1,"Choice":32,"RT":818.7749999924563,"Accuracy":0,"Sham":1,"Outcome":1,"Block":1,"Trial":30,"Valence":"Win","Action":"No-Go","trial_type":"pit-trial","trial_index":42,"time_elapsed":282074,"internal_node_id":"0.0-42.0"},{"Correct":32,"Choice":32,"RT":440.09500002721325,"Accuracy":1,"Sham":1,"Outcome":0,"Block":1,"Trial":31,"Valence":"Win","Action":"Go","trial_type":"pit-trial","trial_index":43,"time_elapsed":285024,"internal_node_id":"0.0-43.0"},{"Correct":-1,"Choice":32,"RT":662.0199999888428,"Accuracy":0,"Sham":0,"Outcome":-1,"Block":1,"Trial":32,"Valence":"Lose","Action":"No-Go","trial_type":"pit-trial","trial_index":44,"time_elapsed":288194,"internal_node_id":"0.0-44.0"},{"Correct":-1,"Choice":-1,"RT":-1,"Accuracy":1,"Sham":0,"Outcome":0,"Block":1,"Trial":33,"Valence":"Lose","Action":"No-Go","trial_type":"pit-trial","trial_index":45,"time_elapsed":292205,"internal_node_id":"0.0-45.0"},{"Correct":-1,"Choice":32,"RT":539.9500000057742,"Accuracy":0,"Sham":0,"Outcome":0,"Block":1,"Trial":34,"Valence":"Win","Action":"No-Go","trial_type":"pit-trial","trial_index":46,"time_elapsed":295251,"internal_node_id":"0.0-46.0"},{"Correct":32,"Choice":32,"RT":442.99000001046807,"Accuracy":1,"Sham":0,"Outcome":1,"Block":1,"Trial":35,"Valence":"Win","Action":"Go","trial_type":"pit-trial","trial_index":47,"time_elapsed":298202,"internal_node_id":"0.0-47.0"},{"Correct":32,"Choice":32,"RT":739.7149999742396,"Accuracy":1,"Sham":1,"Outcome":-1,"Block":1,"Trial":36,"Valence":"Lose","Action":"Go","trial_type":"pit-trial","trial_index":48,"time_elapsed":301452,"internal_node_id":"0.0-48.0"},{"Correct":-1,"Choice":-1,"RT":-1,"Accuracy":1,"Sham":1,"Outcome":-1,"Block":1,"Trial":37,"Valence":"Lose","Action":"No-Go","trial_type":"pit-trial","trial_index":49,"time_elapsed":305461,"internal_node_id":"0.0-49.0"},{"Correct":32,"Choice":32,"RT":1064.7100000060163,"Accuracy":1,"Sham":0,"Outcome":0,"Block":1,"Trial":38,"Valence":"Lose","Action":"Go","trial_type":"pit-trial","trial_index":50,"time_elapsed":309034,"internal_node_id":"0.0-50.0"},{"Correct":32,"Choice":32,"RT":491.52999999932945,"Accuracy":1,"Sham":0,"Outcome":1,"Block":1,"Trial":39,"Valence":"Win","Action":"Go","trial_type":"pit-trial","trial_index":51,"time_elapsed":312034,"internal_node_id":"0.0-51.0"},{"Correct":-1,"Choice":32,"RT":710.4749999707565,"Accuracy":0,"Sham":0,"Outcome":0,"Block":1,"Trial":40,"Valence":"Win","Action":"No-Go","trial_type":"pit-trial","trial_index":52,"time_elapsed":315250,"internal_node_id":"0.0-52.0"},{"Correct":32,"Choice":32,"RT":573.0249999905936,"Accuracy":1,"Sham":1,"Outcome":-1,"Block":1,"Trial":41,"Valence":"Lose","Action":"Go","trial_type":"pit-trial","trial_index":53,"time_elapsed":318329,"internal_node_id":"0.0-53.0"},{"Correct":-1,"Choice":32,"RT":715.8449999988079,"Accuracy":0,"Sham":0,"Outcome":0,"Block":1,"Trial":42,"Valence":"Win","Action":"No-Go","trial_type":"pit-trial","trial_index":54,"time_elapsed":321555,"internal_node_id":"0.0-54.0"},{"Correct":-1,"Choice":-1,"RT":-1,"Accuracy":1,"Sham":0,"Outcome":0,"Block":1,"Trial":43,"Valence":"Lose","Action":"No-Go","trial_type":"pit-trial","trial_index":55,"time_elapsed":325566,"internal_node_id":"0.0-55.0"},{"Correct":32,"Choice":32,"RT":403.0100000090897,"Accuracy":1,"Sham":0,"Outcome":1,"Block":1,"Trial":44,"Valence":"Win","Action":"Go","trial_type":"pit-trial","trial_index":56,"time_elapsed":328479,"internal_node_id":"0.0-56.0"},{"Correct":-1,"Choice":-1,"RT":-1,"Accuracy":1,"Sham":0,"Outcome":0,"Block":1,"Trial":45,"Valence":"Lose","Action":"No-Go","trial_type":"pit-trial","trial_index":57,"time_elapsed":332489,"internal_node_id":"0.0-57.0"},{"Correct":-1,"Choice":32,"RT":732.6900000334717,"Accuracy":0,"Sham":1,"Outcome":1,"Block":1,"Trial":46,"Valence":"Win","Action":"No-Go","trial_type":"pit-trial","trial_index":58,"time_elapsed":335732,"internal_node_id":"0.0-58.0"},{"Correct":32,"Choice":-1,"RT":-1,"Accuracy":0,"Sham":0,"Outcome":-1,"Block":1,"Trial":47,"Valence":"Lose","Action":"Go","trial_type":"pit-trial","trial_index":59,"time_elapsed":339741,"internal_node_id":"0.0-59.0"},{"Correct":32,"Choice":32,"RT":448.21000000229105,"Accuracy":1,"Sham":0,"Outcome":1,"Block":1,"Trial":48,"Valence":"Win","Action":"Go","trial_type":"pit-trial","trial_index":60,"time_elapsed":342693,"internal_node_id":"0.0-60.0"},{"Correct":-1,"Choice":-1,"RT":-1,"Accuracy":1,"Sham":0,"Outcome":0,"Block":1,"Trial":49,"Valence":"Lose","Action":"No-Go","trial_type":"pit-trial","trial_index":61,"time_elapsed":346702,"internal_node_id":"0.0-61.0"},{"Correct":32,"Choice":32,"RT":560.9800000092946,"Accuracy":1,"Sham":0,"Outcome":1,"Block":1,"Trial":50,"Valence":"Win","Action":"Go","trial_type":"pit-trial","trial_index":62,"time_elapsed":349768,"internal_node_id":"0.0-62.0"},{"Correct":-1,"Choice":32,"RT":612.5800000154413,"Accuracy":0,"Sham":0,"Outcome":0,"Block":1,"Trial":51,"Valence":"Win","Action":"No-Go","trial_type":"pit-trial","trial_index":63,"time_elapsed":352891,"internal_node_id":"0.0-63.0"},{"Correct":32,"Choice":32,"RT":1028.5150000127032,"Accuracy":1,"Sham":0,"Outcome":0,"Block":1,"Trial":52,"Valence":"Lose","Action":"Go","trial_type":"pit-trial","trial_index":64,"time_elapsed":356430,"internal_node_id":"0.0-64.0"},{"Correct":-1,"Choice":-1,"RT":-1,"Accuracy":1,"Sham":0,"Outcome":1,"Block":1,"Trial":53,"Valence":"Win","Action":"No-Go","trial_type":"pit-trial","trial_index":65,"time_elapsed":360439,"internal_node_id":"0.0-65.0"},{"Correct":32,"Choice":32,"RT":866.2500000209548,"Accuracy":1,"Sham":0,"Outcome":0,"Block":1,"Trial":54,"Valence":"Lose","Action":"Go","trial_type":"pit-trial","trial_index":66,"time_elapsed":363814,"internal_node_id":"0.0-66.0"},{"Correct":-1,"Choice":-1,"RT":-1,"Accuracy":1,"Sham":0,"Outcome":0,"Block":1,"Trial":55,"Valence":"Lose","Action":"No-Go","trial_type":"pit-trial","trial_index":67,"time_elapsed":367823,"internal_node_id":"0.0-67.0"},{"Correct":32,"Choice":32,"RT":435.67999999504536,"Accuracy":1,"Sham":0,"Outcome":1,"Block":1,"Trial":56,"Valence":"Win","Action":"Go","trial_type":"pit-trial","trial_index":68,"time_elapsed":370765,"internal_node_id":"0.0-68.0"},{"Correct":32,"Choice":32,"RT":463.35000003455207,"Accuracy":1,"Sham":1,"Outcome":0,"Block":1,"Trial":57,"Valence":"Win","Action":"Go","trial_type":"pit-trial","trial_index":69,"time_elapsed":373739,"internal_node_id":"0.0-69.0"},{"Correct":32,"Choice":32,"RT":839.9150000186637,"Accuracy":1,"Sham":0,"Outcome":0,"Block":1,"Trial":58,"Valence":"Lose","Action":"Go","trial_type":"pit-trial","trial_index":70,"time_elapsed":377088,"internal_node_id":"0.0-70.0"},{"Correct":-1,"Choice":-1,"RT":-1,"Accuracy":1,"Sham":1,"Outcome":-1,"Block":1,"Trial":59,"Valence":"Lose","Action":"No-Go","trial_type":"pit-trial","trial_index":71,"time_elapsed":381100,"internal_node_id":"0.0-71.0"},{"Correct":-1,"Choice":32,"RT":739.6350000053644,"Accuracy":0,"Sham":0,"Outcome":0,"Block":1,"Trial":60,"Valence":"Win","Action":"No-Go","trial_type":"pit-trial","trial_index":72,"time_elapsed":384349,"internal_node_id":"0.0-72.0"},{"Correct":-1,"Choice":32,"RT":764.0450000180863,"Accuracy":0,"Sham":0,"Outcome":0,"Block":1,"Trial":61,"Valence":"Win","Action":"No-Go","trial_type":"pit-trial","trial_index":73,"time_elapsed":387623,"internal_node_id":"0.0-73.0"},{"Correct":32,"Choice":-1,"RT":-1,"Accuracy":0,"Sham":0,"Outcome":-1,"Block":1,"Trial":62,"Valence":"Lose","Action":"Go","trial_type":"pit-trial","trial_index":74,"time_elapsed":391633,"internal_node_id":"0.0-74.0"},{"Correct":-1,"Choice":-1,"RT":-1,"Accuracy":1,"Sham":0,"Outcome":0,"Block":1,"Trial":63,"Valence":"Lose","Action":"No-Go","trial_type":"pit-trial","trial_index":75,"time_elapsed":395645,"internal_node_id":"0.0-75.0"},{"Correct":32,"Choice":32,"RT":430.3150000050664,"Accuracy":1,"Sham":0,"Outcome":1,"Block":1,"Trial":64,"Valence":"Win","Action":"Go","trial_type":"pit-trial","trial_index":76,"time_elapsed":398584,"internal_node_id":"0.0-76.0"},{"Correct":-1,"Choice":32,"RT":596.2750000180677,"Accuracy":0,"Sham":0,"Outcome":0,"Block":1,"Trial":65,"Valence":"Win","Action":"No-Go","trial_type":"pit-trial","trial_index":77,"time_elapsed":401689,"internal_node_id":"0.0-77.0"},{"Correct":-1,"Choice":-1,"RT":-1,"Accuracy":1,"Sham":0,"Outcome":0,"Block":1,"Trial":66,"Valence":"Lose","Action":"No-Go","trial_type":"pit-trial","trial_index":78,"time_elapsed":405701,"internal_node_id":"0.0-78.0"},{"Correct":32,"Choice":32,"RT":574.7350000310689,"Accuracy":1,"Sham":1,"Outcome":0,"Block":1,"Trial":67,"Valence":"Win","Action":"Go","trial_type":"pit-trial","trial_index":79,"time_elapsed":408780,"internal_node_id":"0.0-79.0"},{"Correct":32,"Choice":32,"RT":640.0199999916367,"Accuracy":1,"Sham":0,"Outcome":0,"Block":1,"Trial":68,"Valence":"Lose","Action":"Go","trial_type":"pit-trial","trial_index":80,"time_elapsed":411927,"internal_node_id":"0.0-80.0"},{"Correct":-1,"Choice":-1,"RT":-1,"Accuracy":1,"Sham":1,"Outcome":-1,"Block":1,"Trial":69,"Valence":"Lose","Action":"No-Go","trial_type":"pit-trial","trial_index":81,"time_elapsed":415936,"internal_node_id":"0.0-81.0"},{"Correct":32,"Choice":32,"RT":522.3899999982677,"Accuracy":1,"Sham":0,"Outcome":0,"Block":1,"Trial":70,"Valence":"Lose","Action":"Go","trial_type":"pit-trial","trial_index":82,"time_elapsed":418969,"internal_node_id":"0.0-82.0"},{"Correct":32,"Choice":32,"RT":466.87000000383705,"Accuracy":1,"Sham":0,"Outcome":1,"Block":1,"Trial":71,"Valence":"Win","Action":"Go","trial_type":"pit-trial","trial_index":83,"time_elapsed":421945,"internal_node_id":"0.0-83.0"},{"Correct":-1,"Choice":-1,"RT":-1,"Accuracy":1,"Sham":0,"Outcome":1,"Block":1,"Trial":72,"Valence":"Win","Action":"No-Go","trial_type":"pit-trial","trial_index":84,"time_elapsed":425955,"internal_node_id":"0.0-84.0"},{"Correct":-1,"Choice":-1,"RT":-1,"Accuracy":1,"Sham":0,"Outcome":1,"Block":1,"Trial":73,"Valence":"Win","Action":"No-Go","trial_type":"pit-trial","trial_index":85,"time_elapsed":429965,"internal_node_id":"0.0-85.0"},{"Correct":32,"Choice":-1,"RT":-1,"Accuracy":0,"Sham":1,"Outcome":0,"Block":1,"Trial":74,"Valence":"Lose","Action":"Go","trial_type":"pit-trial","trial_index":86,"time_elapsed":433976,"internal_node_id":"0.0-86.0"},{"Correct":32,"Choice":32,"RT":554.8450000351295,"Accuracy":1,"Sham":0,"Outcome":1,"Block":1,"Trial":75,"Valence":"Win","Action":"Go","trial_type":"pit-trial","trial_index":87,"time_elapsed":437038,"internal_node_id":"0.0-87.0"},{"Correct":-1,"Choice":-1,"RT":-1,"Accuracy":1,"Sham":0,"Outcome":0,"Block":1,"Trial":76,"Valence":"Lose","Action":"No-Go","trial_type":"pit-trial","trial_index":88,"time_elapsed":441052,"internal_node_id":"0.0-88.0"},{"Correct":-1,"Choice":-1,"RT":-1,"Accuracy":1,"Sham":1,"Outcome":0,"Block":1,"Trial":77,"Valence":"Win","Action":"No-Go","trial_type":"pit-trial","trial_index":89,"time_elapsed":445064,"internal_node_id":"0.0-89.0"},{"Correct":32,"Choice":32,"RT":531.7399999476038,"Accuracy":1,"Sham":0,"Outcome":1,"Block":1,"Trial":78,"Valence":"Win","Action":"Go","trial_type":"pit-trial","trial_index":90,"time_elapsed":448105,"internal_node_id":"0.0-90.0"},{"Correct":-1,"Choice":-1,"RT":-1,"Accuracy":1,"Sham":0,"Outcome":0,"Block":1,"Trial":79,"Valence":"Lose","Action":"No-Go","trial_type":"pit-trial","trial_index":91,"time_elapsed":452113,"internal_node_id":"0.0-91.0"},{"Correct":32,"Choice":32,"RT":1256.0799999628216,"Accuracy":1,"Sham":0,"Outcome":0,"Block":1,"Trial":80,"Valence":"Lose","Action":"Go","trial_type":"pit-trial","trial_index":92,"time_elapsed":455878,"internal_node_id":"0.0-92.0"},{"value":false,"trial_type":"call-function","trial_index":93,"time_elapsed":455882,"internal_node_id":"0.0-93.0"},{"RT":32844.710000033956,"trial_type":"pit-pause","trial_index":94,"time_elapsed":491786,"internal_node_id":"0.0-94.0"},{"Correct":32,"Choice":32,"RT":816.1250000121072,"Accuracy":1,"Sham":0,"Outcome":1,"Block":2,"Trial":81,"Valence":"Win","Action":"Go","trial_type":"pit-trial","trial_index":95,"time_elapsed":495109,"internal_node_id":"0.0-95.0"},{"Correct":-1,"Choice":-1,"RT":-1,"Accuracy":1,"Sham":0,"Outcome":1,"Block":2,"Trial":82,"Valence":"Win","Action":"No-Go","trial_type":"pit-trial","trial_index":96,"time_elapsed":499119,"internal_node_id":"0.0-96.0"},{"Correct":-1,"Choice":32,"RT":696.2799999746494,"Accuracy":0,"Sham":0,"Outcome":-1,"Block":2,"Trial":83,"Valence":"Lose","Action":"No-Go","trial_type":"pit-trial","trial_index":97,"time_elapsed":502324,"internal_node_id":"0.0-97.0"},{"Correct":32,"Choice":-1,"RT":-1,"Accuracy":0,"Sham":0,"Outcome":-1,"Block":2,"Trial":84,"Valence":"Lose","Action":"Go","trial_type":"pit-trial","trial_index":98,"time_elapsed":506333,"internal_node_id":"0.0-98.0"},{"Correct":32,"Choice":32,"RT":595.160000026226,"Accuracy":1,"Sham":0,"Outcome":1,"Block":2,"Trial":85,"Valence":"Win","Action":"Go","trial_type":"pit-trial","trial_index":99,"time_elapsed":509436,"internal_node_id":"0.0-99.0"},{"Correct":-1,"Choice":-1,"RT":-1,"Accuracy":1,"Sham":0,"Outcome":1,"Block":2,"Trial":86,"Valence":"Win","Action":"No-Go","trial_type":"pit-trial","trial_index":100,"time_elapsed":513444,"internal_node_id":"0.0-100.0"},{"Correct":32,"Choice":32,"RT":756.6949999891222,"Accuracy":1,"Sham":0,"Outcome":0,"Block":2,"Trial":87,"Valence":"Lose","Action":"Go","trial_type":"pit-trial","trial_index":101,"time_elapsed":516709,"internal_node_id":"0.0-101.0"},{"Correct":-1,"Choice":-1,"RT":-1,"Accuracy":1,"Sham":0,"Outcome":0,"Block":2,"Trial":88,"Valence":"Lose","Action":"No-Go","trial_type":"pit-trial","trial_index":102,"time_elapsed":520715,"internal_node_id":"0.0-102.0"},{"Correct":32,"Choice":32,"RT":828.1899999710731,"Accuracy":1,"Sham":1,"Outcome":-1,"Block":2,"Trial":89,"Valence":"Lose","Action":"Go","trial_type":"pit-trial","trial_index":103,"time_elapsed":524050,"internal_node_id":"0.0-103.0"},{"Correct":32,"Choice":-1,"RT":-1,"Accuracy":0,"Sham":1,"Outcome":1,"Block":2,"Trial":90,"Valence":"Win","Action":"Go","trial_type":"pit-trial","trial_index":104,"time_elapsed":528061,"internal_node_id":"0.0-104.0"},{"Correct":-1,"Choice":32,"RT":427.5549999438226,"Accuracy":0,"Sham":0,"Outcome":0,"Block":2,"Trial":91,"Valence":"Win","Action":"No-Go","trial_type":"pit-trial","trial_index":105,"time_elapsed":530995,"internal_node_id":"0.0-105.0"},{"Correct":-1,"Choice":32,"RT":987.9249999648891,"Accuracy":0,"Sham":0,"Outcome":-1,"Block":2,"Trial":92,"Valence":"Lose","Action":"No-Go","trial_type":"pit-trial","trial_index":106,"time_elapsed":534491,"internal_node_id":"0.0-106.0"},{"Correct":-1,"Choice":-1,"RT":-1,"Accuracy":1,"Sham":0,"Outcome":0,"Block":2,"Trial":93,"Valence":"Lose","Action":"No-Go","trial_type":"pit-trial","trial_index":107,"time_elapsed":538498,"internal_node_id":"0.0-107.0"},{"Correct":32,"Choice":-1,"RT":-1,"Accuracy":0,"Sham":0,"Outcome":0,"Block":2,"Trial":94,"Valence":"Win","Action":"Go","trial_type":"pit-trial","trial_index":108,"time_elapsed":542508,"internal_node_id":"0.0-108.0"},{"Correct":32,"Choice":32,"RT":916.5950000169687,"Accuracy":1,"Sham":0,"Outcome":0,"Block":2,"Trial":95,"Valence":"Lose","Action":"Go","trial_type":"pit-trial","trial_index":109,"time_elapsed":545930,"internal_node_id":"0.0-109.0"},{"Correct":-1,"Choice":32,"RT":1429.2900000000373,"Accuracy":0,"Sham":1,"Outcome":1,"Block":2,"Trial":96,"Valence":"Win","Action":"No-Go","trial_type":"pit-trial","trial_index":110,"time_elapsed":549864,"internal_node_id":"0.0-110.0"},{"Correct":-1,"Choice":-1,"RT":-1,"Accuracy":1,"Sham":1,"Outcome":-1,"Block":2,"Trial":97,"Valence":"Lose","Action":"No-Go","trial_type":"pit-trial","trial_index":111,"time_elapsed":553871,"internal_node_id":"0.0-111.0"},{"Correct":32,"Choice":32,"RT":474.51999998884276,"Accuracy":1,"Sham":0,"Outcome":1,"Block":2,"Trial":98,"Valence":"Win","Action":"Go","trial_type":"pit-trial","trial_index":112,"time_elapsed":556855,"internal_node_id":"0.0-112.0"},{"Correct":32,"Choice":32,"RT":1039.9449999677017,"Accuracy":1,"Sham":0,"Outcome":0,"Block":2,"Trial":99,"Valence":"Lose","Action":"Go","trial_type":"pit-trial","trial_index":113,"time_elapsed":560400,"internal_node_id":"0.0-113.0"},{"Correct":-1,"Choice":32,"RT":543.0700000142679,"Accuracy":0,"Sham":0,"Outcome":0,"Block":2,"Trial":100,"Valence":"Win","Action":"No-Go","trial_type":"pit-trial","trial_index":114,"time_elapsed":563450,"internal_node_id":"0.0-114.0"},{"Correct":-1,"Choice":32,"RT":820.4099999857135,"Accuracy":0,"Sham":0,"Outcome":-1,"Block":2,"Trial":101,"Valence":"Lose","Action":"No-Go","trial_type":"pit-trial","trial_index":115,"time_elapsed":566780,"internal_node_id":"0.0-115.0"},{"Correct":32,"Choice":-1,"RT":-1,"Accuracy":0,"Sham":0,"Outcome":-1,"Block":2,"Trial":102,"Valence":"Lose","Action":"Go","trial_type":"pit-trial","trial_index":116,"time_elapsed":570793,"internal_node_id":"0.0-116.0"},{"Correct":32,"Choice":32,"RT":795.8400000352412,"Accuracy":1,"Sham":1,"Outcome":0,"Block":2,"Trial":103,"Valence":"Win","Action":"Go","trial_type":"pit-trial","trial_index":117,"time_elapsed":574100,"internal_node_id":"0.0-117.0"},{"Correct":-1,"Choice":32,"RT":587.3849999625236,"Accuracy":0,"Sham":1,"Outcome":1,"Block":2,"Trial":104,"Valence":"Win","Action":"No-Go","trial_type":"pit-trial","trial_index":118,"time_elapsed":577193,"internal_node_id":"0.0-118.0"},{"Correct":32,"Choice":32,"RT":934.16000000434,"Accuracy":1,"Sham":0,"Outcome":0,"Block":2,"Trial":105,"Valence":"Lose","Action":"Go","trial_type":"pit-trial","trial_index":119,"time_elapsed":580636,"internal_node_id":"0.0-119.0"},{"Correct":32,"Choice":32,"RT":1155.4100000066683,"Accuracy":1,"Sham":0,"Outcome":1,"Block":2,"Trial":106,"Valence":"Win","Action":"Go","trial_type":"pit-trial","trial_index":120,"time_elapsed":584298,"internal_node_id":"0.0-120.0"},{"Correct":-1,"Choice":32,"RT":890.9899999853224,"Accuracy":0,"Sham":0,"Outcome":0,"Block":2,"Trial":107,"Valence":"Win","Action":"No-Go","trial_type":"pit-trial","trial_index":121,"time_elapsed":587695,"internal_node_id":"0.0-121.0"},{"Correct":-1,"Choice":-1,"RT":-1,"Accuracy":1,"Sham":0,"Outcome":0,"Block":2,"Trial":108,"Valence":"Lose","Action":"No-Go","trial_type":"pit-trial","trial_index":122,"time_elapsed":591705,"internal_node_id":"0.0-122.0"},{"Correct":-1,"Choice":32,"RT":789.3899999908172,"Accuracy":0,"Sham":0,"Outcome":0,"Block":2,"Trial":109,"Valence":"Win","Action":"No-Go","trial_type":"pit-trial","trial_index":123,"time_elapsed":595004,"internal_node_id":"0.0-123.0"},{"Correct":-1,"Choice":-1,"RT":-1,"Accuracy":1,"Sham":0,"Outcome":0,"Block":2,"Trial":110,"Valence":"Lose","Action":"No-Go","trial_type":"pit-trial","trial_index":124,"time_elapsed":599017,"internal_node_id":"0.0-124.0"},{"Correct":32,"Choice":32,"RT":675.9150000289083,"Accuracy":1,"Sham":0,"Outcome":1,"Block":2,"Trial":111,"Valence":"Win","Action":"Go","trial_type":"pit-trial","trial_index":125,"time_elapsed":602200,"internal_node_id":"0.0-125.0"},{"Correct":32,"Choice":32,"RT":1213.9000000315718,"Accuracy":1,"Sham":0,"Outcome":0,"Block":2,"Trial":112,"Valence":"Lose","Action":"Go","trial_type":"pit-trial","trial_index":126,"time_elapsed":605923,"internal_node_id":"0.0-126.0"},{"Correct":-1,"Choice":32,"RT":776.7950000124983,"Accuracy":0,"Sham":0,"Outcome":0,"Block":2,"Trial":113,"Valence":"Win","Action":"No-Go","trial_type":"pit-trial","trial_index":127,"time_elapsed":609207,"internal_node_id":"0.0-127.0"},{"Correct":-1,"Choice":-1,"RT":-1,"Accuracy":1,"Sham":0,"Outcome":0,"Block":2,"Trial":114,"Valence":"Lose","Action":"No-Go","trial_type":"pit-trial","trial_index":128,"time_elapsed":613219,"internal_node_id":"0.0-128.0"},{"Correct":32,"Choice":32,"RT":642.4349999870174,"Accuracy":1,"Sham":1,"Outcome":-1,"Block":2,"Trial":115,"Valence":"Lose","Action":"Go","trial_type":"pit-trial","trial_index":129,"time_elapsed":616370,"internal_node_id":"0.0-129.0"},{"Correct":32,"Choice":32,"RT":506.54500001110137,"Accuracy":1,"Sham":0,"Outcome":1,"Block":2,"Trial":116,"Valence":"Win","Action":"Go","trial_type":"pit-trial","trial_index":130,"time_elapsed":619382,"internal_node_id":"0.0-130.0"},{"Correct":-1,"Choice":-1,"RT":-1,"Accuracy":1,"Sham":1,"Outcome":-1,"Block":2,"Trial":117,"Valence":"Lose","Action":"No-Go","trial_type":"pit-trial","trial_index":131,"time_elapsed":623392,"internal_node_id":"0.0-131.0"},{"Correct":32,"Choice":32,"RT":556.5049999859184,"Accuracy":1,"Sham":0,"Outcome":0,"Block":2,"Trial":118,"Valence":"Lose","Action":"Go","trial_type":"pit-trial","trial_index":132,"time_elapsed":626460,"internal_node_id":"0.0-132.0"},{"Correct":-1,"Choice":32,"RT":775.1699999789707,"Accuracy":0,"Sham":0,"Outcome":0,"Block":2,"Trial":119,"Valence":"Win","Action":"No-Go","trial_type":"pit-trial","trial_index":133,"time_elapsed":629743,"internal_node_id":"0.0-133.0"},{"Correct":32,"Choice":32,"RT":519.0200000070035,"Accuracy":1,"Sham":0,"Outcome":1,"Block":2,"Trial":120,"Valence":"Win","Action":"Go","trial_type":"pit-trial","trial_index":134,"time_elapsed":632770,"internal_node_id":"0.0-134.0"},{"Correct":-1,"Choice":-1,"RT":-1,"Accuracy":1,"Sham":0,"Outcome":1,"Block":2,"Trial":121,"Valence":"Win","Action":"No-Go","trial_type":"pit-trial","trial_index":135,"time_elapsed":636783,"internal_node_id":"0.0-135.0"},{"Correct":-1,"Choice":32,"RT":1005.5600000196137,"Accuracy":0,"Sham":0,"Outcome":-1,"Block":2,"Trial":122,"Valence":"Lose","Action":"No-Go","trial_type":"pit-trial","trial_index":136,"time_elapsed":640298,"internal_node_id":"0.0-136.0"},{"Correct":32,"Choice":32,"RT":599.2299999925308,"Accuracy":1,"Sham":0,"Outcome":0,"Block":2,"Trial":123,"Valence":"Lose","Action":"Go","trial_type":"pit-trial","trial_index":137,"time_elapsed":643402,"internal_node_id":"0.0-137.0"},{"Correct":32,"Choice":32,"RT":737.3350000125356,"Accuracy":1,"Sham":1,"Outcome":0,"Block":2,"Trial":124,"Valence":"Win","Action":"Go","trial_type":"pit-trial","trial_index":138,"time_elapsed":646646,"internal_node_id":"0.0-138.0"},{"Correct":32,"Choice":32,"RT":1152.349999989383,"Accuracy":1,"Sham":1,"Outcome":-1,"Block":2,"Trial":125,"Valence":"Lose","Action":"Go","trial_type":"pit-trial","trial_index":139,"time_elapsed":650304,"internal_node_id":"0.0-139.0"},{"Correct":-1,"Choice":32,"RT":957.8399999882095,"Accuracy":0,"Sham":0,"Outcome":-1,"Block":2,"Trial":126,"Valence":"Lose","Action":"No-Go","trial_type":"pit-trial","trial_index":140,"time_elapsed":653767,"internal_node_id":"0.0-140.0"},{"Correct":-1,"Choice":32,"RT":1007.9949999926612,"Accuracy":0,"Sham":0,"Outcome":0,"Block":2,"Trial":127,"Valence":"Win","Action":"No-Go","trial_type":"pit-trial","trial_index":141,"time_elapsed":657281,"internal_node_id":"0.0-141.0"},{"Correct":32,"Choice":32,"RT":617.8999999538064,"Accuracy":1,"Sham":0,"Outcome":1,"Block":2,"Trial":128,"Valence":"Win","Action":"Go","trial_type":"pit-trial","trial_index":142,"time_elapsed":660407,"internal_node_id":"0.0-142.0"},{"Correct":-1,"Choice":-1,"RT":-1,"Accuracy":1,"Sham":0,"Outcome":0,"Block":2,"Trial":129,"Valence":"Lose","Action":"No-Go","trial_type":"pit-trial","trial_index":143,"time_elapsed":664419,"internal_node_id":"0.0-143.0"},{"Correct":32,"Choice":32,"RT":858.7599999736995,"Accuracy":1,"Sham":0,"Outcome":1,"Block":2,"Trial":130,"Valence":"Win","Action":"Go","trial_type":"pit-trial","trial_index":144,"time_elapsed":667784,"internal_node_id":"0.0-144.0"},{"Correct":32,"Choice":32,"RT":1018.6249999678694,"Accuracy":1,"Sham":0,"Outcome":0,"Block":2,"Trial":131,"Valence":"Lose","Action":"Go","trial_type":"pit-trial","trial_index":145,"time_elapsed":671308,"internal_node_id":"0.0-145.0"},{"Correct":-1,"Choice":32,"RT":912.7500000176951,"Accuracy":0,"Sham":0,"Outcome":0,"Block":2,"Trial":132,"Valence":"Win","Action":"No-Go","trial_type":"pit-trial","trial_index":146,"time_elapsed":674731,"internal_node_id":"0.0-146.0"},{"Correct":-1,"Choice":-1,"RT":-1,"Accuracy":1,"Sham":0,"Outcome":0,"Block":2,"Trial":133,"Valence":"Lose","Action":"No-Go","trial_type":"pit-trial","trial_index":147,"time_elapsed":678743,"internal_node_id":"0.0-147.0"},{"Correct":32,"Choice":32,"RT":943.4699999983422,"Accuracy":1,"Sham":0,"Outcome":1,"Block":2,"Trial":134,"Valence":"Win","Action":"Go","trial_type":"pit-trial","trial_index":148,"time_elapsed":682194,"internal_node_id":"0.0-148.0"},{"Correct":32,"Choice":32,"RT":1339.23500002129,"Accuracy":1,"Sham":0,"Outcome":0,"Block":2,"Trial":135,"Valence":"Lose","Action":"Go","trial_type":"pit-trial","trial_index":149,"time_elapsed":686043,"internal_node_id":"0.0-149.0"},{"Correct":-1,"Choice":32,"RT":1118.0249999742955,"Accuracy":0,"Sham":0,"Outcome":0,"Block":2,"Trial":136,"Valence":"Win","Action":"No-Go","trial_type":"pit-trial","trial_index":150,"time_elapsed":689670,"internal_node_id":"0.0-150.0"},{"Correct":-1,"Choice":-1,"RT":-1,"Accuracy":1,"Sham":1,"Outcome":-1,"Block":2,"Trial":137,"Valence":"Lose","Action":"No-Go","trial_type":"pit-trial","trial_index":151,"time_elapsed":693684,"internal_node_id":"0.0-151.0"},{"Correct":32,"Choice":32,"RT":656.1299999593757,"Accuracy":1,"Sham":0,"Outcome":1,"Block":2,"Trial":138,"Valence":"Win","Action":"Go","trial_type":"pit-trial","trial_index":152,"time_elapsed":696847,"internal_node_id":"0.0-152.0"},{"Correct":32,"Choice":32,"RT":721.8449999927543,"Accuracy":1,"Sham":0,"Outcome":0,"Block":2,"Trial":139,"Valence":"Lose","Action":"Go","trial_type":"pit-trial","trial_index":153,"time_elapsed":700076,"internal_node_id":"0.0-153.0"},{"Correct":-1,"Choice":32,"RT":825.4750000196509,"Accuracy":0,"Sham":1,"Outcome":1,"Block":2,"Trial":140,"Valence":"Win","Action":"No-Go","trial_type":"pit-trial","trial_index":154,"time_elapsed":703407,"internal_node_id":"0.0-154.0"},{"Correct":-1,"Choice":32,"RT":522.6600000169128,"Accuracy":0,"Sham":1,"Outcome":1,"Block":2,"Trial":141,"Valence":"Win","Action":"No-Go","trial_type":"pit-trial","trial_index":155,"time_elapsed":706439,"internal_node_id":"0.0-155.0"},{"Correct":32,"Choice":32,"RT":724.5450000045821,"Accuracy":1,"Sham":0,"Outcome":0,"Block":2,"Trial":142,"Valence":"Lose","Action":"Go","trial_type":"pit-trial","trial_index":156,"time_elapsed":709672,"internal_node_id":"0.0-156.0"},{"Correct":32,"Choice":32,"RT":800.6699999677949,"Accuracy":1,"Sham":0,"Outcome":1,"Block":2,"Trial":143,"Valence":"Win","Action":"Go","trial_type":"pit-trial","trial_index":157,"time_elapsed":712979,"internal_node_id":"0.0-157.0"},{"Correct":-1,"Choice":-1,"RT":-1,"Accuracy":1,"Sham":0,"Outcome":0,"Block":2,"Trial":144,"Valence":"Lose","Action":"No-Go","trial_type":"pit-trial","trial_index":158,"time_elapsed":716991,"internal_node_id":"0.0-158.0"},{"Correct":-1,"Choice":32,"RT":1109.0499999700114,"Accuracy":0,"Sham":0,"Outcome":-1,"Block":2,"Trial":145,"Valence":"Lose","Action":"No-Go","trial_type":"pit-trial","trial_index":159,"time_elapsed":720607,"internal_node_id":"0.0-159.0"},{"Correct":32,"Choice":32,"RT":705.7550000026822,"Accuracy":1,"Sham":0,"Outcome":1,"Block":2,"Trial":146,"Valence":"Win","Action":"Go","trial_type":"pit-trial","trial_index":160,"time_elapsed":723822,"internal_node_id":"0.0-160.0"},{"Correct":32,"Choice":32,"RT":708.394999965094,"Accuracy":1,"Sham":0,"Outcome":0,"Block":2,"Trial":147,"Valence":"Lose","Action":"Go","trial_type":"pit-trial","trial_index":161,"time_elapsed":727041,"internal_node_id":"0.0-161.0"},{"Correct":-1,"Choice":32,"RT":665.5700000119396,"Accuracy":0,"Sham":0,"Outcome":0,"Block":2,"Trial":148,"Valence":"Win","Action":"No-Go","trial_type":"pit-trial","trial_index":162,"time_elapsed":730215,"internal_node_id":"0.0-162.0"},{"Correct":-1,"Choice":32,"RT":547.3499999498017,"Accuracy":0,"Sham":0,"Outcome":0,"Block":2,"Trial":149,"Valence":"Win","Action":"No-Go","trial_type":"pit-trial","trial_index":163,"time_elapsed":733274,"internal_node_id":"0.0-163.0"},{"Correct":-1,"Choice":-1,"RT":-1,"Accuracy":1,"Sham":0,"Outcome":0,"Block":2,"Trial":150,"Valence":"Lose","Action":"No-Go","trial_type":"pit-trial","trial_index":164,"time_elapsed":737284,"internal_node_id":"0.0-164.0"},{"Correct":32,"Choice":32,"RT":666.5849999990314,"Accuracy":1,"Sham":0,"Outcome":0,"Block":2,"Trial":151,"Valence":"Lose","Action":"Go","trial_type":"pit-trial","trial_index":165,"time_elapsed":740460,"internal_node_id":"0.0-165.0"},{"Correct":32,"Choice":32,"RT":383.79500003065914,"Accuracy":1,"Sham":0,"Outcome":1,"Block":2,"Trial":152,"Valence":"Win","Action":"Go","trial_type":"pit-trial","trial_index":166,"time_elapsed":743351,"internal_node_id":"0.0-166.0"},{"Correct":32,"Choice":32,"RT":506.9099999964237,"Accuracy":1,"Sham":0,"Outcome":1,"Block":2,"Trial":153,"Valence":"Win","Action":"Go","trial_type":"pit-trial","trial_index":167,"time_elapsed":746365,"internal_node_id":"0.0-167.0"},{"Correct":-1,"Choice":32,"RT":687.355000001844,"Accuracy":0,"Sham":0,"Outcome":-1,"Block":2,"Trial":154,"Valence":"Lose","Action":"No-Go","trial_type":"pit-trial","trial_index":168,"time_elapsed":749561,"internal_node_id":"0.0-168.0"},{"Correct":32,"Choice":32,"RT":623.5400000005029,"Accuracy":1,"Sham":0,"Outcome":0,"Block":2,"Trial":155,"Valence":"Lose","Action":"Go","trial_type":"pit-trial","trial_index":169,"time_elapsed":752695,"internal_node_id":"0.0-169.0"},{"Correct":-1,"Choice":-1,"RT":-1,"Accuracy":1,"Sham":0,"Outcome":1,"Block":2,"Trial":156,"Valence":"Win","Action":"No-Go","trial_type":"pit-trial","trial_index":170,"time_elapsed":756707,"internal_node_id":"0.0-170.0"},{"Correct":32,"Choice":32,"RT":599.53000000678,"Accuracy":1,"Sham":1,"Outcome":-1,"Block":2,"Trial":157,"Valence":"Lose","Action":"Go","trial_type":"pit-trial","trial_index":171,"time_elapsed":759813,"internal_node_id":"0.0-171.0"},{"Correct":-1,"Choice":-1,"RT":-1,"Accuracy":1,"Sham":1,"Outcome":-1,"Block":2,"Trial":158,"Valence":"Lose","Action":"No-Go","trial_type":"pit-trial","trial_index":172,"time_elapsed":763824,"internal_node_id":"0.0-172.0"},{"Correct":-1,"Choice":-1,"RT":-1,"Accuracy":1,"Sham":0,"Outcome":1,"Block":2,"Trial":159,"Valence":"Win","Action":"No-Go","trial_type":"pit-trial","trial_index":173,"time_elapsed":767834,"internal_node_id":"0.0-173.0"},{"Correct":32,"Choice":32,"RT":452.3150000022724,"Accuracy":1,"Sham":1,"Outcome":0,"Block":2,"Trial":160,"Valence":"Win","Action":"Go","trial_type":"pit-trial","trial_index":174,"time_elapsed":770798,"internal_node_id":"0.0-174.0"},{"rt":29165.60499998741,"demographics":{"age":"61","gender-categorical":"Female","ethnicity":"Not Hispanic or Latino","race":"White","english":"Yes","fluency":"Very well"},"trial_type":"survey-demo","trial_index":175,"time_elapsed":799969,"internal_node_id":"0.0-175.0"},{"rt":68078.32000002963,"debriefgraphics":{"difficulty":"2","fun":"4","clarity":"5","strategy":"I didn't write anything down and strategy was difficult since we regularly got incorrect feedback.","feedback":"Kinda fun, and a little frustrating. Thanks for the HIT."},"trial_type":"survey-debrief","trial_index":176,"time_elapsed":868050,"internal_node_id":"0.0-176.0","interactions":"[]"}]