[{"view_history":"[{\"page_index\":0,\"viewing_time\":4415.955000000395},{\"page_index\":1,\"viewing_time\":2607.8749999996944},{\"page_index\":2,\"viewing_time\":11904.054999999062},{\"page_index\":3,\"viewing_time\":4944.005000001198},{\"page_index\":4,\"viewing_time\":4727.60500000004}]","rt":28600.384999999733,"trial_type":"pit-instructions","trial_index":0,"time_elapsed":28601,"internal_node_id":"0.0-0.0"},{"Rune":"01","Correct":32,"Choice":32,"RT":693.4600000004139,"Accuracy":1,"Sham":0,"Outcome":"+10","Keys":[2193.7099999995553],"TotalKeys":1,"trial_type":"pit-trial","trial_index":1,"time_elapsed":31799,"internal_node_id":"0.0-1.0"},{"Rune":"01","Correct":32,"Choice":32,"RT":334.57499999894935,"Accuracy":1,"Sham":0,"Outcome":"+10","Keys":[1835.3600000009465],"TotalKeys":1,"trial_type":"pit-trial","trial_index":2,"time_elapsed":34637,"internal_node_id":"0.0-2.0"},{"Rune":"01","Correct":32,"Choice":32,"RT":24.664999999004067,"Accuracy":1,"Sham":0,"Outcome":"+10","Keys":[1524.8150000006717],"TotalKeys":1,"trial_type":"pit-trial","trial_index":3,"time_elapsed":37165,"internal_node_id":"0.0-3.0"},{"Rune":"01","Correct":32,"Choice":32,"RT":488.79999999917345,"Accuracy":1,"Sham":0,"Outcome":"+10","Keys":[1990.1700000009441],"TotalKeys":1,"trial_type":"pit-trial","trial_index":4,"time_elapsed":40158,"internal_node_id":"0.0-4.0"},{"view_history":"[{\"page_index\":0,\"viewing_time\":8521.445000000313}]","rt":8521.780000000945,"trial_type":"pit-instructions","trial_index":5,"time_elapsed":48681,"internal_node_id":"0.0-5.0"},{"Rune":"02","Correct":-1,"Choice":-1,"RT":-1,"Accuracy":1,"Sham":0,"Outcome":"+10","Keys":[],"TotalKeys":0,"trial_type":"pit-trial","trial_index":6,"time_elapsed":52686,"internal_node_id":"0.0-6.0"},{"Rune":"02","Correct":-1,"Choice":-1,"RT":-1,"Accuracy":1,"Sham":0,"Outcome":"+10","Keys":[],"TotalKeys":0,"trial_type":"pit-trial","trial_index":7,"time_elapsed":56690,"internal_node_id":"0.0-7.0"},{"Rune":"02","Correct":-1,"Choice":-1,"RT":-1,"Accuracy":1,"Sham":0,"Outcome":"+10","Keys":[],"TotalKeys":0,"trial_type":"pit-trial","trial_index":8,"time_elapsed":60693,"internal_node_id":"0.0-8.0"},{"Rune":"02","Correct":-1,"Choice":-1,"RT":-1,"Accuracy":1,"Sham":0,"Outcome":"+10","Keys":[],"TotalKeys":0,"trial_type":"pit-trial","trial_index":9,"time_elapsed":64697,"internal_node_id":"0.0-9.0"},{"view_history":"[{\"page_index\":0,\"viewing_time\":4799.269999999524},{\"page_index\":1,\"viewing_time\":10256.275000001551},{\"page_index\":2,\"viewing_time\":4543.939999999566},{\"page_index\":3,\"viewing_time\":6328.074999999444},{\"page_index\":4,\"viewing_time\":6039.600000000064},{\"page_index\":5,\"viewing_time\":4584.015000000363},{\"page_index\":6,\"viewing_time\":3672.1099999995204},{\"page_index\":7,\"viewing_time\":2079.680000000735}]","rt":42303.29999999958,"trial_type":"pit-instructions","trial_index":10,"time_elapsed":107002,"internal_node_id":"0.0-10.0"},{"rt":24509.584999999803,"responses":"{\"no-press\":\"Do nothing\",\"context-win\":\"+10\",\"context-lose\":\"+0\",\"feedback\":\"True\"}","errors":0,"trial_type":"pit-comprehension","trial_index":11,"time_elapsed":131515,"internal_node_id":"0.0-11.0"},{"view_history":"[{\"page_index\":0,\"viewing_time\":4875.534999999218}]","rt":4875.889999999345,"trial_type":"pit-instructions","trial_index":12,"time_elapsed":136393,"internal_node_id":"0.0-12.0"},{"Rune":"05","Correct":-1,"Choice":32,"RT":684.9449999990757,"Accuracy":0,"Sham":0,"Outcome":"+0","Keys":[2185.574999999517],"TotalKeys":1,"Block":1,"Trial":1,"Valence":"Win","Action":"No-Go","Robot":2,"trial_type":"pit-trial","trial_index":13,"time_elapsed":139582,"internal_node_id":"0.0-13.0"},{"Rune":"06","Correct":32,"Choice":-1,"RT":-1,"Accuracy":0,"Sham":0,"Outcome":"-10","Keys":[],"TotalKeys":0,"Block":1,"Trial":2,"Valence":"Lose","Action":"Go","Robot":3,"trial_type":"pit-trial","trial_index":14,"time_elapsed":143588,"internal_node_id":"0.0-14.0"},{"Rune":"03","Correct":-1,"Choice":-1,"RT":-1,"Accuracy":1,"Sham":0,"Outcome":"+0","Keys":[],"TotalKeys":0,"Block":1,"Trial":3,"Valence":"Lose","Action":"No-Go","Robot":4,"trial_type":"pit-trial","trial_index":15,"time_elapsed":147592,"internal_node_id":"0.0-15.0"},{"Rune":"04","Correct":32,"Choice":32,"RT":509.6499999999651,"Accuracy":1,"Sham":0,"Outcome":"+10","Keys":[2009.9000000009255],"TotalKeys":1,"Block":1,"Trial":4,"Valence":"Win","Action":"Go","Robot":1,"trial_type":"pit-trial","trial_index":16,"time_elapsed":150606,"internal_node_id":"0.0-16.0"},{"Rune":"06","Correct":32,"Choice":-1,"RT":-1,"Accuracy":0,"Sham":1,"Outcome":"+0","Keys":[],"TotalKeys":0,"Block":1,"Trial":5,"Valence":"Lose","Action":"Go","Robot":3,"trial_type":"pit-trial","trial_index":17,"time_elapsed":154610,"internal_node_id":"0.0-17.0"},{"Rune":"03","Correct":-1,"Choice":32,"RT":701.5549999996438,"Accuracy":0,"Sham":0,"Outcome":"-10","Keys":[2201.7400000004563],"TotalKeys":1,"Block":1,"Trial":6,"Valence":"Lose","Action":"No-Go","Robot":4,"trial_type":"pit-trial","trial_index":18,"time_elapsed":157815,"internal_node_id":"0.0-18.0"},{"Rune":"04","Correct":32,"Choice":32,"RT":408.10500000041793,"Accuracy":1,"Sham":0,"Outcome":"+10","Keys":[1908.9350000013073],"TotalKeys":1,"Block":1,"Trial":7,"Valence":"Win","Action":"Go","Robot":1,"trial_type":"pit-trial","trial_index":19,"time_elapsed":160726,"internal_node_id":"0.0-19.0"},{"Rune":"05","Correct":-1,"Choice":32,"RT":455.17499999914435,"Accuracy":0,"Sham":0,"Outcome":"+0","Keys":[1956.3099999995902],"TotalKeys":1,"Block":1,"Trial":8,"Valence":"Win","Action":"No-Go","Robot":2,"trial_type":"pit-trial","trial_index":20,"time_elapsed":163686,"internal_node_id":"0.0-20.0"},{"Rune":"04","Correct":32,"Choice":32,"RT":472.1200000003446,"Accuracy":1,"Sham":0,"Outcome":"+10","Keys":[1972.195000000298],"TotalKeys":1,"Block":1,"Trial":9,"Valence":"Win","Action":"Go","Robot":1,"trial_type":"pit-trial","trial_index":21,"time_elapsed":166661,"internal_node_id":"0.0-21.0"},{"Rune":"06","Correct":32,"Choice":-1,"RT":-1,"Accuracy":0,"Sham":0,"Outcome":"-10","Keys":[],"TotalKeys":0,"Block":1,"Trial":10,"Valence":"Lose","Action":"Go","Robot":3,"trial_type":"pit-trial","trial_index":22,"time_elapsed":170665,"internal_node_id":"0.0-22.0"},{"Rune":"05","Correct":-1,"Choice":32,"RT":419.8550000000978,"Accuracy":0,"Sham":0,"Outcome":"+0","Keys":[1921.0849999999627],"TotalKeys":1,"Block":1,"Trial":11,"Valence":"Win","Action":"No-Go","Robot":2,"trial_type":"pit-trial","trial_index":23,"time_elapsed":173589,"internal_node_id":"0.0-23.0"},{"Rune":"03","Correct":-1,"Choice":-1,"RT":-1,"Accuracy":1,"Sham":0,"Outcome":"+0","Keys":[],"TotalKeys":0,"Block":1,"Trial":12,"Valence":"Lose","Action":"No-Go","Robot":4,"trial_type":"pit-trial","trial_index":24,"time_elapsed":177594,"internal_node_id":"0.0-24.0"},{"Rune":"04","Correct":32,"Choice":32,"RT":420.48499999876367,"Accuracy":1,"Sham":0,"Outcome":"+10","Keys":[1920.8600000001898],"TotalKeys":1,"Block":1,"Trial":13,"Valence":"Win","Action":"Go","Robot":1,"trial_type":"pit-trial","trial_index":25,"time_elapsed":180517,"internal_node_id":"0.0-25.0"},{"Rune":"05","Correct":-1,"Choice":32,"RT":527.9499999996915,"Accuracy":0,"Sham":0,"Outcome":"+0","Keys":[2028.9799999991374],"TotalKeys":1,"Block":1,"Trial":14,"Valence":"Win","Action":"No-Go","Robot":2,"trial_type":"pit-trial","trial_index":26,"time_elapsed":183549,"internal_node_id":"0.0-26.0"},{"Rune":"06","Correct":32,"Choice":-1,"RT":-1,"Accuracy":0,"Sham":0,"Outcome":"-10","Keys":[],"TotalKeys":0,"Block":1,"Trial":15,"Valence":"Lose","Action":"Go","Robot":3,"trial_type":"pit-trial","trial_index":27,"time_elapsed":187553,"internal_node_id":"0.0-27.0"},{"Rune":"03","Correct":-1,"Choice":-1,"RT":-1,"Accuracy":1,"Sham":1,"Outcome":"-10","Keys":[],"TotalKeys":0,"Block":1,"Trial":16,"Valence":"Lose","Action":"No-Go","Robot":4,"trial_type":"pit-trial","trial_index":28,"time_elapsed":191558,"internal_node_id":"0.0-28.0"},{"Rune":"04","Correct":32,"Choice":32,"RT":279.02499999981956,"Accuracy":1,"Sham":1,"Outcome":"+0","Keys":[1780.1849999996193],"TotalKeys":1,"Block":1,"Trial":17,"Valence":"Win","Action":"Go","Robot":1,"trial_type":"pit-trial","trial_index":29,"time_elapsed":194341,"internal_node_id":"0.0-29.0"},{"Rune":"06","Correct":32,"Choice":32,"RT":487.01500000062515,"Accuracy":1,"Sham":0,"Outcome":"+0","Keys":[1988.9400000011083],"TotalKeys":1,"Block":1,"Trial":18,"Valence":"Lose","Action":"Go","Robot":3,"trial_type":"pit-trial","trial_index":30,"time_elapsed":197333,"internal_node_id":"0.0-30.0"},{"Rune":"05","Correct":-1,"Choice":32,"RT":440.72500000038417,"Accuracy":0,"Sham":1,"Outcome":"+10","Keys":[1941.1849999996484],"TotalKeys":1,"Block":1,"Trial":19,"Valence":"Win","Action":"No-Go","Robot":2,"trial_type":"pit-trial","trial_index":31,"time_elapsed":200277,"internal_node_id":"0.0-31.0"},{"Rune":"03","Correct":-1,"Choice":32,"RT":335.6149999999616,"Accuracy":0,"Sham":0,"Outcome":"-10","Keys":[1836.1900000000023],"TotalKeys":1,"Block":1,"Trial":20,"Valence":"Lose","Action":"No-Go","Robot":4,"trial_type":"pit-trial","trial_index":32,"time_elapsed":203117,"internal_node_id":"0.0-32.0"},{"Rune":"03","Correct":-1,"Choice":-1,"RT":-1,"Accuracy":1,"Sham":0,"Outcome":"+0","Keys":[],"TotalKeys":0,"Block":1,"Trial":21,"Valence":"Lose","Action":"No-Go","Robot":4,"trial_type":"pit-trial","trial_index":33,"time_elapsed":207121,"internal_node_id":"0.0-33.0"},{"Rune":"05","Correct":-1,"Choice":32,"RT":325.0850000003993,"Accuracy":0,"Sham":0,"Outcome":"+0","Keys":[1825.1300000010524],"TotalKeys":1,"Block":1,"Trial":22,"Valence":"Win","Action":"No-Go","Robot":2,"trial_type":"pit-trial","trial_index":34,"time_elapsed":209949,"internal_node_id":"0.0-34.0"},{"Rune":"04","Correct":32,"Choice":32,"RT":360.87500000029104,"Accuracy":1,"Sham":0,"Outcome":"+10","Keys":[1860.9450000003562],"TotalKeys":1,"Block":1,"Trial":23,"Valence":"Win","Action":"Go","Robot":1,"trial_type":"pit-trial","trial_index":35,"time_elapsed":212815,"internal_node_id":"0.0-35.0"},{"Rune":"06","Correct":32,"Choice":32,"RT":814.859999998589,"Accuracy":1,"Sham":0,"Outcome":"+0","Keys":[2315.2499999996508],"TotalKeys":1,"Block":1,"Trial":24,"Valence":"Lose","Action":"Go","Robot":3,"trial_type":"pit-trial","trial_index":36,"time_elapsed":216134,"internal_node_id":"0.0-36.0"},{"Rune":"03","Correct":-1,"Choice":-1,"RT":-1,"Accuracy":1,"Sham":0,"Outcome":"+0","Keys":[],"TotalKeys":0,"Block":1,"Trial":25,"Valence":"Lose","Action":"No-Go","Robot":4,"trial_type":"pit-trial","trial_index":37,"time_elapsed":220137,"internal_node_id":"0.0-37.0"},{"Rune":"04","Correct":32,"Choice":32,"RT":366.0450000006531,"Accuracy":1,"Sham":0,"Outcome":"+10","Keys":[1866.6599999996834],"TotalKeys":1,"Block":1,"Trial":26,"Valence":"Win","Action":"Go","Robot":1,"trial_type":"pit-trial","trial_index":38,"time_elapsed":223006,"internal_node_id":"0.0-38.0"},{"Rune":"06","Correct":32,"Choice":-1,"RT":-1,"Accuracy":0,"Sham":0,"Outcome":"-10","Keys":[],"TotalKeys":0,"Block":1,"Trial":27,"Valence":"Lose","Action":"Go","Robot":3,"trial_type":"pit-trial","trial_index":39,"time_elapsed":227011,"internal_node_id":"0.0-39.0"},{"Rune":"05","Correct":-1,"Choice":32,"RT":457.71000000060303,"Accuracy":0,"Sham":0,"Outcome":"+0","Keys":[1958.7549999996554],"TotalKeys":1,"Block":1,"Trial":28,"Valence":"Win","Action":"No-Go","Robot":2,"trial_type":"pit-trial","trial_index":40,"time_elapsed":229974,"internal_node_id":"0.0-40.0"},{"Rune":"06","Correct":32,"Choice":32,"RT":535.1100000007427,"Accuracy":1,"Sham":0,"Outcome":"+0","Keys":[2036.5050000000338],"TotalKeys":1,"Block":1,"Trial":29,"Valence":"Lose","Action":"Go","Robot":3,"trial_type":"pit-trial","trial_index":41,"time_elapsed":233013,"internal_node_id":"0.0-41.0"},{"Rune":"05","Correct":-1,"Choice":32,"RT":391.47500000035507,"Accuracy":0,"Sham":1,"Outcome":"+10","Keys":[1893.5400000009104],"TotalKeys":1,"Block":1,"Trial":30,"Valence":"Win","Action":"No-Go","Robot":2,"trial_type":"pit-trial","trial_index":42,"time_elapsed":235909,"internal_node_id":"0.0-42.0"},{"Rune":"04","Correct":32,"Choice":32,"RT":599.4200000004494,"Accuracy":1,"Sham":1,"Outcome":"+0","Keys":[2100.114999999292],"TotalKeys":1,"Block":1,"Trial":31,"Valence":"Win","Action":"Go","Robot":1,"trial_type":"pit-trial","trial_index":43,"time_elapsed":239013,"internal_node_id":"0.0-43.0"},{"Rune":"03","Correct":-1,"Choice":-1,"RT":-1,"Accuracy":1,"Sham":0,"Outcome":"+0","Keys":[],"TotalKeys":0,"Block":1,"Trial":32,"Valence":"Lose","Action":"No-Go","Robot":4,"trial_type":"pit-trial","trial_index":44,"time_elapsed":243017,"internal_node_id":"0.0-44.0"},{"Rune":"03","Correct":-1,"Choice":-1,"RT":-1,"Accuracy":1,"Sham":0,"Outcome":"+0","Keys":[],"TotalKeys":0,"Block":1,"Trial":33,"Valence":"Lose","Action":"No-Go","Robot":4,"trial_type":"pit-trial","trial_index":45,"time_elapsed":247021,"internal_node_id":"0.0-45.0"},{"Rune":"05","Correct":-1,"Choice":32,"RT":328.82000000061817,"Accuracy":0,"Sham":0,"Outcome":"+0","Keys":[1829.649999999674],"TotalKeys":1,"Block":1,"Trial":34,"Valence":"Win","Action":"No-Go","Robot":2,"trial_type":"pit-trial","trial_index":46,"time_elapsed":249854,"internal_node_id":"0.0-46.0"},{"Rune":"04","Correct":32,"Choice":32,"RT":462.149999999383,"Accuracy":1,"Sham":0,"Outcome":"+10","Keys":[1963.6399999999267],"TotalKeys":1,"Block":1,"Trial":35,"Valence":"Win","Action":"Go","Robot":1,"trial_type":"pit-trial","trial_index":47,"time_elapsed":252821,"internal_node_id":"0.0-47.0"},{"Rune":"06","Correct":32,"Choice":32,"RT":407.6299999996845,"Accuracy":1,"Sham":1,"Outcome":"-10","Keys":[1907.9550000005693],"TotalKeys":1,"Block":1,"Trial":36,"Valence":"Lose","Action":"Go","Robot":3,"trial_type":"pit-trial","trial_index":48,"time_elapsed":255733,"internal_node_id":"0.0-48.0"},{"Rune":"03","Correct":-1,"Choice":32,"RT":592.1149999994668,"Accuracy":0,"Sham":1,"Outcome":"+0","Keys":[2093.6949999995704],"TotalKeys":1,"Block":1,"Trial":37,"Valence":"Lose","Action":"No-Go","Robot":4,"trial_type":"pit-trial","trial_index":49,"time_elapsed":258829,"internal_node_id":"0.0-49.0"},{"Rune":"06","Correct":32,"Choice":32,"RT":1039.5749999988766,"Accuracy":1,"Sham":0,"Outcome":"+0","Keys":[2540.2350000003644],"TotalKeys":1,"Block":1,"Trial":38,"Valence":"Lose","Action":"Go","Robot":3,"trial_type":"pit-trial","trial_index":50,"time_elapsed":262373,"internal_node_id":"0.0-50.0"},{"Rune":"04","Correct":32,"Choice":32,"RT":407.8600000012084,"Accuracy":1,"Sham":0,"Outcome":"+10","Keys":[1909.2099999998463],"TotalKeys":1,"Block":1,"Trial":39,"Valence":"Win","Action":"Go","Robot":1,"trial_type":"pit-trial","trial_index":51,"time_elapsed":265286,"internal_node_id":"0.0-51.0"},{"Rune":"05","Correct":-1,"Choice":32,"RT":606.9150000003283,"Accuracy":0,"Sham":0,"Outcome":"+0","Keys":[2107.939999999886],"TotalKeys":1,"Block":1,"Trial":40,"Valence":"Win","Action":"No-Go","Robot":2,"trial_type":"pit-trial","trial_index":52,"time_elapsed":268398,"internal_node_id":"0.0-52.0"},{"Rune":"06","Correct":32,"Choice":-1,"RT":-1,"Accuracy":0,"Sham":1,"Outcome":"+0","Keys":[],"TotalKeys":0,"Block":1,"Trial":41,"Valence":"Lose","Action":"Go","Robot":3,"trial_type":"pit-trial","trial_index":53,"time_elapsed":272401,"internal_node_id":"0.0-53.0"},{"Rune":"05","Correct":-1,"Choice":32,"RT":292.43999999924563,"Accuracy":0,"Sham":0,"Outcome":"+0","Keys":[1793.4500000010012],"TotalKeys":1,"Block":1,"Trial":42,"Valence":"Win","Action":"No-Go","Robot":2,"trial_type":"pit-trial","trial_index":54,"time_elapsed":275198,"internal_node_id":"0.0-54.0"},{"Rune":"03","Correct":-1,"Choice":32,"RT":1144.2449999995297,"Accuracy":0,"Sham":0,"Outcome":"-10","Keys":[2645.039999999397],"TotalKeys":1,"Block":1,"Trial":43,"Valence":"Lose","Action":"No-Go","Robot":4,"trial_type":"pit-trial","trial_index":55,"time_elapsed":278845,"internal_node_id":"0.0-55.0"},{"Rune":"04","Correct":32,"Choice":32,"RT":415.5749999990803,"Accuracy":1,"Sham":0,"Outcome":"+10","Keys":[1917.4299999995274],"TotalKeys":1,"Block":1,"Trial":44,"Valence":"Win","Action":"Go","Robot":1,"trial_type":"pit-trial","trial_index":56,"time_elapsed":281766,"internal_node_id":"0.0-56.0"},{"Rune":"03","Correct":-1,"Choice":-1,"RT":-1,"Accuracy":1,"Sham":0,"Outcome":"+0","Keys":[],"TotalKeys":0,"Block":1,"Trial":45,"Valence":"Lose","Action":"No-Go","Robot":4,"trial_type":"pit-trial","trial_index":57,"time_elapsed":285770,"internal_node_id":"0.0-57.0"},{"Rune":"05","Correct":-1,"Choice":32,"RT":436.9999999998836,"Accuracy":0,"Sham":1,"Outcome":"+10","Keys":[1938.239999999525],"TotalKeys":1,"Block":1,"Trial":46,"Valence":"Win","Action":"No-Go","Robot":2,"trial_type":"pit-trial","trial_index":58,"time_elapsed":288711,"internal_node_id":"0.0-58.0"},{"Rune":"06","Correct":32,"Choice":-1,"RT":-1,"Accuracy":0,"Sham":0,"Outcome":"-10","Keys":[],"TotalKeys":0,"Block":1,"Trial":47,"Valence":"Lose","Action":"Go","Robot":3,"trial_type":"pit-trial","trial_index":59,"time_elapsed":292716,"internal_node_id":"0.0-59.0"},{"Rune":"04","Correct":32,"Choice":32,"RT":322.56499999854714,"Accuracy":1,"Sham":0,"Outcome":"+10","Keys":[1822.9400000000023],"TotalKeys":1,"Block":1,"Trial":48,"Valence":"Win","Action":"Go","Robot":1,"trial_type":"pit-trial","trial_index":60,"time_elapsed":295541,"internal_node_id":"0.0-60.0"},{"Rune":"03","Correct":-1,"Choice":-1,"RT":-1,"Accuracy":1,"Sham":0,"Outcome":"+0","Keys":[],"TotalKeys":0,"Block":1,"Trial":49,"Valence":"Lose","Action":"No-Go","Robot":4,"trial_type":"pit-trial","trial_index":61,"time_elapsed":299546,"internal_node_id":"0.0-61.0"},{"Rune":"04","Correct":32,"Choice":32,"RT":283.2150000013062,"Accuracy":1,"Sham":0,"Outcome":"+10","Keys":[1783.8649999994086],"TotalKeys":1,"Block":1,"Trial":50,"Valence":"Win","Action":"Go","Robot":1,"trial_type":"pit-trial","trial_index":62,"time_elapsed":302334,"internal_node_id":"0.0-62.0"},{"Rune":"05","Correct":-1,"Choice":32,"RT":519.1950000007637,"Accuracy":0,"Sham":0,"Outcome":"+0","Keys":[2020.0049999984913],"TotalKeys":1,"Block":1,"Trial":51,"Valence":"Win","Action":"No-Go","Robot":2,"trial_type":"pit-trial","trial_index":63,"time_elapsed":305357,"internal_node_id":"0.0-63.0"},{"Rune":"06","Correct":32,"Choice":-1,"RT":-1,"Accuracy":0,"Sham":0,"Outcome":"-10","Keys":[],"TotalKeys":0,"Block":1,"Trial":52,"Valence":"Lose","Action":"Go","Robot":3,"trial_type":"pit-trial","trial_index":64,"time_elapsed":309362,"internal_node_id":"0.0-64.0"},{"Rune":"05","Correct":-1,"Choice":32,"RT":395.1149999993504,"Accuracy":0,"Sham":0,"Outcome":"+0","Keys":[1896.4350000005797],"TotalKeys":1,"Block":1,"Trial":53,"Valence":"Win","Action":"No-Go","Robot":2,"trial_type":"pit-trial","trial_index":65,"time_elapsed":312261,"internal_node_id":"0.0-65.0"},{"Rune":"06","Correct":32,"Choice":32,"RT":367.45499999960884,"Accuracy":1,"Sham":0,"Outcome":"+0","Keys":[1868.1699999997509],"TotalKeys":1,"Block":1,"Trial":54,"Valence":"Lose","Action":"Go","Robot":3,"trial_type":"pit-trial","trial_index":66,"time_elapsed":315133,"internal_node_id":"0.0-66.0"},{"Rune":"03","Correct":-1,"Choice":-1,"RT":-1,"Accuracy":1,"Sham":0,"Outcome":"+0","Keys":[],"TotalKeys":0,"Block":1,"Trial":55,"Valence":"Lose","Action":"No-Go","Robot":4,"trial_type":"pit-trial","trial_index":67,"time_elapsed":319136,"internal_node_id":"0.0-67.0"},{"Rune":"04","Correct":32,"Choice":32,"RT":301.55999999988126,"Accuracy":1,"Sham":0,"Outcome":"+10","Keys":[1802.1700000008568],"TotalKeys":1,"Block":1,"Trial":56,"Valence":"Win","Action":"Go","Robot":1,"trial_type":"pit-trial","trial_index":68,"time_elapsed":321941,"internal_node_id":"0.0-68.0"},{"Rune":"04","Correct":32,"Choice":32,"RT":360.24999999970896,"Accuracy":1,"Sham":1,"Outcome":"+0","Keys":[1860.9849999993457],"TotalKeys":1,"Block":1,"Trial":57,"Valence":"Win","Action":"Go","Robot":1,"trial_type":"pit-trial","trial_index":69,"time_elapsed":324806,"internal_node_id":"0.0-69.0"},{"Rune":"06","Correct":32,"Choice":32,"RT":623.3400000000838,"Accuracy":1,"Sham":0,"Outcome":"+0","Keys":[2125.1049999991665],"TotalKeys":1,"Block":1,"Trial":58,"Valence":"Lose","Action":"Go","Robot":3,"trial_type":"pit-trial","trial_index":70,"time_elapsed":327934,"internal_node_id":"0.0-70.0"},{"Rune":"03","Correct":-1,"Choice":-1,"RT":-1,"Accuracy":1,"Sham":1,"Outcome":"-10","Keys":[],"TotalKeys":0,"Block":1,"Trial":59,"Valence":"Lose","Action":"No-Go","Robot":4,"trial_type":"pit-trial","trial_index":71,"time_elapsed":331940,"internal_node_id":"0.0-71.0"},{"Rune":"05","Correct":-1,"Choice":32,"RT":352.774999999383,"Accuracy":0,"Sham":0,"Outcome":"+0","Keys":[1853.3250000000698],"TotalKeys":1,"Block":1,"Trial":60,"Valence":"Win","Action":"No-Go","Robot":2,"trial_type":"pit-trial","trial_index":72,"time_elapsed":334797,"internal_node_id":"0.0-72.0"},{"Rune":"05","Correct":-1,"Choice":32,"RT":399.44499999907566,"Accuracy":0,"Sham":0,"Outcome":"+0","Keys":[1900.6499999995576],"TotalKeys":1,"Block":1,"Trial":61,"Valence":"Win","Action":"No-Go","Robot":2,"trial_type":"pit-trial","trial_index":73,"time_elapsed":337701,"internal_node_id":"0.0-73.0"},{"Rune":"06","Correct":32,"Choice":32,"RT":1351.3899999997811,"Accuracy":1,"Sham":0,"Outcome":"+0","Keys":[2852.4349999988917],"TotalKeys":1,"Block":1,"Trial":62,"Valence":"Lose","Action":"Go","Robot":3,"trial_type":"pit-trial","trial_index":74,"time_elapsed":341557,"internal_node_id":"0.0-74.0"},{"Rune":"03","Correct":-1,"Choice":-1,"RT":-1,"Accuracy":1,"Sham":0,"Outcome":"+0","Keys":[],"TotalKeys":0,"Block":1,"Trial":63,"Valence":"Lose","Action":"No-Go","Robot":4,"trial_type":"pit-trial","trial_index":75,"time_elapsed":345561,"internal_node_id":"0.0-75.0"},{"Rune":"04","Correct":32,"Choice":32,"RT":251.87000000005355,"Accuracy":1,"Sham":0,"Outcome":"+10","Keys":[1752.3300000011805],"TotalKeys":1,"Block":1,"Trial":64,"Valence":"Win","Action":"Go","Robot":1,"trial_type":"pit-trial","trial_index":76,"time_elapsed":348317,"internal_node_id":"0.0-76.0"},{"Rune":"05","Correct":-1,"Choice":32,"RT":871.7100000013015,"Accuracy":0,"Sham":0,"Outcome":"+0","Keys":[2372.4099999999744],"TotalKeys":1,"Block":1,"Trial":65,"Valence":"Win","Action":"No-Go","Robot":2,"trial_type":"pit-trial","trial_index":77,"time_elapsed":351693,"internal_node_id":"0.0-77.0"},{"Rune":"03","Correct":-1,"Choice":-1,"RT":-1,"Accuracy":1,"Sham":0,"Outcome":"+0","Keys":[],"TotalKeys":0,"Block":1,"Trial":66,"Valence":"Lose","Action":"No-Go","Robot":4,"trial_type":"pit-trial","trial_index":78,"time_elapsed":355698,"internal_node_id":"0.0-78.0"},{"Rune":"04","Correct":32,"Choice":32,"RT":362.6600000006729,"Accuracy":1,"Sham":1,"Outcome":"+0","Keys":[1863.2150000011898],"TotalKeys":1,"Block":1,"Trial":67,"Valence":"Win","Action":"Go","Robot":1,"trial_type":"pit-trial","trial_index":79,"time_elapsed":358565,"internal_node_id":"0.0-79.0"},{"Rune":"06","Correct":32,"Choice":32,"RT":1161.6500000000233,"Accuracy":1,"Sham":0,"Outcome":"+0","Keys":[2661.930000000226],"TotalKeys":1,"Block":1,"Trial":68,"Valence":"Lose","Action":"Go","Robot":3,"trial_type":"pit-trial","trial_index":80,"time_elapsed":362230,"internal_node_id":"0.0-80.0"},{"Rune":"03","Correct":-1,"Choice":-1,"RT":-1,"Accuracy":1,"Sham":1,"Outcome":"-10","Keys":[],"TotalKeys":0,"Block":1,"Trial":69,"Valence":"Lose","Action":"No-Go","Robot":4,"trial_type":"pit-trial","trial_index":81,"time_elapsed":366236,"internal_node_id":"0.0-81.0"},{"Rune":"06","Correct":32,"Choice":32,"RT":680.2850000003236,"Accuracy":1,"Sham":0,"Outcome":"+0","Keys":[2181.284999998752],"TotalKeys":1,"Block":1,"Trial":70,"Valence":"Lose","Action":"Go","Robot":3,"trial_type":"pit-trial","trial_index":82,"time_elapsed":369420,"internal_node_id":"0.0-82.0"},{"Rune":"04","Correct":32,"Choice":32,"RT":480.7899999996298,"Accuracy":1,"Sham":0,"Outcome":"+10","Keys":[1982.1400000000722],"TotalKeys":1,"Block":1,"Trial":71,"Valence":"Win","Action":"Go","Robot":1,"trial_type":"pit-trial","trial_index":83,"time_elapsed":372406,"internal_node_id":"0.0-83.0"},{"Rune":"05","Correct":-1,"Choice":-1,"RT":-1,"Accuracy":1,"Sham":0,"Outcome":"+10","Keys":[],"TotalKeys":0,"Block":1,"Trial":72,"Valence":"Win","Action":"No-Go","Robot":2,"trial_type":"pit-trial","trial_index":84,"time_elapsed":376410,"internal_node_id":"0.0-84.0"},{"Rune":"05","Correct":-1,"Choice":-1,"RT":-1,"Accuracy":1,"Sham":0,"Outcome":"+10","Keys":[],"TotalKeys":0,"Block":1,"Trial":73,"Valence":"Win","Action":"No-Go","Robot":2,"trial_type":"pit-trial","trial_index":85,"time_elapsed":380415,"internal_node_id":"0.0-85.0"},{"Rune":"06","Correct":32,"Choice":32,"RT":734.6749999996973,"Accuracy":1,"Sham":1,"Outcome":"-10","Keys":[2235.1749999998137],"TotalKeys":1,"Block":1,"Trial":74,"Valence":"Lose","Action":"Go","Robot":3,"trial_type":"pit-trial","trial_index":86,"time_elapsed":383653,"internal_node_id":"0.0-86.0"},{"Rune":"04","Correct":32,"Choice":32,"RT":519.8049999998766,"Accuracy":1,"Sham":0,"Outcome":"+10","Keys":[2020.1149999993504],"TotalKeys":1,"Block":1,"Trial":75,"Valence":"Win","Action":"Go","Robot":1,"trial_type":"pit-trial","trial_index":87,"time_elapsed":386678,"internal_node_id":"0.0-87.0"},{"Rune":"03","Correct":-1,"Choice":-1,"RT":-1,"Accuracy":1,"Sham":0,"Outcome":"+0","Keys":[],"TotalKeys":0,"Block":1,"Trial":76,"Valence":"Lose","Action":"No-Go","Robot":4,"trial_type":"pit-trial","trial_index":88,"time_elapsed":390682,"internal_node_id":"0.0-88.0"},{"Rune":"05","Correct":-1,"Choice":-1,"RT":-1,"Accuracy":1,"Sham":1,"Outcome":"+0","Keys":[],"TotalKeys":0,"Block":1,"Trial":77,"Valence":"Win","Action":"No-Go","Robot":2,"trial_type":"pit-trial","trial_index":89,"time_elapsed":394686,"internal_node_id":"0.0-89.0"},{"Rune":"04","Correct":32,"Choice":32,"RT":398.8099999987753,"Accuracy":1,"Sham":0,"Outcome":"+10","Keys":[1900.375000001106],"TotalKeys":1,"Block":1,"Trial":78,"Valence":"Win","Action":"Go","Robot":1,"trial_type":"pit-trial","trial_index":90,"time_elapsed":397590,"internal_node_id":"0.0-90.0"},{"Rune":"03","Correct":-1,"Choice":-1,"RT":-1,"Accuracy":1,"Sham":0,"Outcome":"+0","Keys":[],"TotalKeys":0,"Block":1,"Trial":79,"Valence":"Lose","Action":"No-Go","Robot":4,"trial_type":"pit-trial","trial_index":91,"time_elapsed":401594,"internal_node_id":"0.0-91.0"},{"Rune":"06","Correct":32,"Choice":-1,"RT":-1,"Accuracy":0,"Sham":0,"Outcome":"-10","Keys":[],"TotalKeys":0,"Block":1,"Trial":80,"Valence":"Lose","Action":"Go","Robot":3,"trial_type":"pit-trial","trial_index":92,"time_elapsed":405599,"internal_node_id":"0.0-92.0"},{"value":false,"trial_type":"call-function","trial_index":93,"time_elapsed":405602,"internal_node_id":"0.0-93.0"},{"RT":2732.6050000010873,"trial_type":"pit-pause","trial_index":94,"time_elapsed":411212,"internal_node_id":"0.0-94.0"},{"Rune":"04","Correct":32,"Choice":32,"RT":449.30999999993946,"Accuracy":1,"Sham":0,"Outcome":"+10","Keys":[1950.6799999999348],"TotalKeys":1,"Block":2,"Trial":81,"Valence":"Win","Action":"Go","Robot":1,"trial_type":"pit-trial","trial_index":95,"time_elapsed":414166,"internal_node_id":"0.0-95.0"},{"Rune":"05","Correct":-1,"Choice":-1,"RT":-1,"Accuracy":1,"Sham":0,"Outcome":"+10","Keys":[],"TotalKeys":0,"Block":2,"Trial":82,"Valence":"Win","Action":"No-Go","Robot":2,"trial_type":"pit-trial","trial_index":96,"time_elapsed":418170,"internal_node_id":"0.0-96.0"},{"Rune":"03","Correct":-1,"Choice":-1,"RT":-1,"Accuracy":1,"Sham":0,"Outcome":"+0","Keys":[],"TotalKeys":0,"Block":2,"Trial":83,"Valence":"Lose","Action":"No-Go","Robot":4,"trial_type":"pit-trial","trial_index":97,"time_elapsed":422174,"internal_node_id":"0.0-97.0"},{"Rune":"06","Correct":32,"Choice":32,"RT":518.715000000142,"Accuracy":1,"Sham":0,"Outcome":"+0","Keys":[2020.264999999199],"TotalKeys":1,"Block":2,"Trial":84,"Valence":"Lose","Action":"Go","Robot":3,"trial_type":"pit-trial","trial_index":98,"time_elapsed":425198,"internal_node_id":"0.0-98.0"},{"Rune":"04","Correct":32,"Choice":32,"RT":422.4300000005751,"Accuracy":1,"Sham":0,"Outcome":"+10","Keys":[1924.310000000347],"TotalKeys":1,"Block":2,"Trial":85,"Valence":"Win","Action":"Go","Robot":1,"trial_type":"pit-trial","trial_index":99,"time_elapsed":428126,"internal_node_id":"0.0-99.0"},{"Rune":"05","Correct":-1,"Choice":-1,"RT":-1,"Accuracy":1,"Sham":0,"Outcome":"+10","Keys":[],"TotalKeys":0,"Block":2,"Trial":86,"Valence":"Win","Action":"No-Go","Robot":2,"trial_type":"pit-trial","trial_index":100,"time_elapsed":432132,"internal_node_id":"0.0-100.0"},{"Rune":"06","Correct":32,"Choice":32,"RT":1305.0149999999558,"Accuracy":1,"Sham":0,"Outcome":"+0","Keys":[2806.45000000007],"TotalKeys":1,"Block":2,"Trial":87,"Valence":"Lose","Action":"Go","Robot":3,"trial_type":"pit-trial","trial_index":101,"time_elapsed":435942,"internal_node_id":"0.0-101.0"},{"Rune":"03","Correct":-1,"Choice":-1,"RT":-1,"Accuracy":1,"Sham":0,"Outcome":"+0","Keys":[],"TotalKeys":0,"Block":2,"Trial":88,"Valence":"Lose","Action":"No-Go","Robot":4,"trial_type":"pit-trial","trial_index":102,"time_elapsed":439947,"internal_node_id":"0.0-102.0"},{"Rune":"06","Correct":32,"Choice":-1,"RT":-1,"Accuracy":0,"Sham":1,"Outcome":"+0","Keys":[],"TotalKeys":0,"Block":2,"Trial":89,"Valence":"Lose","Action":"Go","Robot":3,"trial_type":"pit-trial","trial_index":103,"time_elapsed":443952,"internal_node_id":"0.0-103.0"},{"Rune":"04","Correct":32,"Choice":32,"RT":357.30500000139,"Accuracy":1,"Sham":1,"Outcome":"+0","Keys":[1857.625000000582],"TotalKeys":1,"Block":2,"Trial":90,"Valence":"Win","Action":"Go","Robot":1,"trial_type":"pit-trial","trial_index":104,"time_elapsed":446813,"internal_node_id":"0.0-104.0"},{"Rune":"05","Correct":-1,"Choice":-1,"RT":-1,"Accuracy":1,"Sham":0,"Outcome":"+10","Keys":[],"TotalKeys":0,"Block":2,"Trial":91,"Valence":"Win","Action":"No-Go","Robot":2,"trial_type":"pit-trial","trial_index":105,"time_elapsed":450817,"internal_node_id":"0.0-105.0"},{"Rune":"03","Correct":-1,"Choice":-1,"RT":-1,"Accuracy":1,"Sham":0,"Outcome":"+0","Keys":[],"TotalKeys":0,"Block":2,"Trial":92,"Valence":"Lose","Action":"No-Go","Robot":4,"trial_type":"pit-trial","trial_index":106,"time_elapsed":454821,"internal_node_id":"0.0-106.0"},{"Rune":"03","Correct":-1,"Choice":-1,"RT":-1,"Accuracy":1,"Sham":0,"Outcome":"+0","Keys":[],"TotalKeys":0,"Block":2,"Trial":93,"Valence":"Lose","Action":"No-Go","Robot":4,"trial_type":"pit-trial","trial_index":107,"time_elapsed":458825,"internal_node_id":"0.0-107.0"},{"Rune":"04","Correct":32,"Choice":32,"RT":500.070000000007,"Accuracy":1,"Sham":0,"Outcome":"+10","Keys":[2000.749999999185],"TotalKeys":1,"Block":2,"Trial":94,"Valence":"Win","Action":"Go","Robot":1,"trial_type":"pit-trial","trial_index":108,"time_elapsed":461830,"internal_node_id":"0.0-108.0"},{"Rune":"06","Correct":32,"Choice":-1,"RT":-1,"Accuracy":0,"Sham":0,"Outcome":"-10","Keys":[],"TotalKeys":0,"Block":2,"Trial":95,"Valence":"Lose","Action":"Go","Robot":3,"trial_type":"pit-trial","trial_index":109,"time_elapsed":465834,"internal_node_id":"0.0-109.0"},{"Rune":"05","Correct":-1,"Choice":-1,"RT":-1,"Accuracy":1,"Sham":1,"Outcome":"+0","Keys":[],"TotalKeys":0,"Block":2,"Trial":96,"Valence":"Win","Action":"No-Go","Robot":2,"trial_type":"pit-trial","trial_index":110,"time_elapsed":469837,"internal_node_id":"0.0-110.0"},{"Rune":"03","Correct":-1,"Choice":-1,"RT":-1,"Accuracy":1,"Sham":1,"Outcome":"-10","Keys":[],"TotalKeys":0,"Block":2,"Trial":97,"Valence":"Lose","Action":"No-Go","Robot":4,"trial_type":"pit-trial","trial_index":111,"time_elapsed":473845,"internal_node_id":"0.0-111.0"},{"Rune":"04","Correct":32,"Choice":32,"RT":463.9449999995413,"Accuracy":1,"Sham":0,"Outcome":"+10","Keys":[1965.125000000582],"TotalKeys":1,"Block":2,"Trial":98,"Valence":"Win","Action":"Go","Robot":1,"trial_type":"pit-trial","trial_index":112,"time_elapsed":476814,"internal_node_id":"0.0-112.0"},{"Rune":"06","Correct":32,"Choice":-1,"RT":-1,"Accuracy":0,"Sham":0,"Outcome":"-10","Keys":[],"TotalKeys":0,"Block":2,"Trial":99,"Valence":"Lose","Action":"Go","Robot":3,"trial_type":"pit-trial","trial_index":113,"time_elapsed":480818,"internal_node_id":"0.0-113.0"},{"Rune":"05","Correct":-1,"Choice":-1,"RT":-1,"Accuracy":1,"Sham":0,"Outcome":"+10","Keys":[],"TotalKeys":0,"Block":2,"Trial":100,"Valence":"Win","Action":"No-Go","Robot":2,"trial_type":"pit-trial","trial_index":114,"time_elapsed":484824,"internal_node_id":"0.0-114.0"},{"Rune":"03","Correct":-1,"Choice":-1,"RT":-1,"Accuracy":1,"Sham":0,"Outcome":"+0","Keys":[],"TotalKeys":0,"Block":2,"Trial":101,"Valence":"Lose","Action":"No-Go","Robot":4,"trial_type":"pit-trial","trial_index":115,"time_elapsed":488829,"internal_node_id":"0.0-115.0"},{"Rune":"06","Correct":32,"Choice":32,"RT":391.9200000000419,"Accuracy":1,"Sham":0,"Outcome":"+0","Keys":[1892.8500000001513],"TotalKeys":1,"Block":2,"Trial":102,"Valence":"Lose","Action":"Go","Robot":3,"trial_type":"pit-trial","trial_index":116,"time_elapsed":491725,"internal_node_id":"0.0-116.0"},{"Rune":"04","Correct":32,"Choice":32,"RT":519.6500000001979,"Accuracy":1,"Sham":1,"Outcome":"+0","Keys":[2020.8649999985937],"TotalKeys":1,"Block":2,"Trial":103,"Valence":"Win","Action":"Go","Robot":1,"trial_type":"pit-trial","trial_index":117,"time_elapsed":494749,"internal_node_id":"0.0-117.0"},{"Rune":"05","Correct":-1,"Choice":-1,"RT":-1,"Accuracy":1,"Sham":1,"Outcome":"+0","Keys":[],"TotalKeys":0,"Block":2,"Trial":104,"Valence":"Win","Action":"No-Go","Robot":2,"trial_type":"pit-trial","trial_index":118,"time_elapsed":498752,"internal_node_id":"0.0-118.0"},{"Rune":"06","Correct":32,"Choice":32,"RT":605.3649999994668,"Accuracy":1,"Sham":0,"Outcome":"+0","Keys":[2105.5400000004447],"TotalKeys":1,"Block":2,"Trial":105,"Valence":"Lose","Action":"Go","Robot":3,"trial_type":"pit-trial","trial_index":119,"time_elapsed":501862,"internal_node_id":"0.0-119.0"},{"Rune":"04","Correct":32,"Choice":32,"RT":486.4550000001909,"Accuracy":1,"Sham":0,"Outcome":"+10","Keys":[1987.6399999993737],"TotalKeys":1,"Block":2,"Trial":106,"Valence":"Win","Action":"Go","Robot":1,"trial_type":"pit-trial","trial_index":120,"time_elapsed":504853,"internal_node_id":"0.0-120.0"},{"Rune":"05","Correct":-1,"Choice":-1,"RT":-1,"Accuracy":1,"Sham":0,"Outcome":"+10","Keys":[],"TotalKeys":0,"Block":2,"Trial":107,"Valence":"Win","Action":"No-Go","Robot":2,"trial_type":"pit-trial","trial_index":121,"time_elapsed":508857,"internal_node_id":"0.0-121.0"},{"Rune":"03","Correct":-1,"Choice":-1,"RT":-1,"Accuracy":1,"Sham":0,"Outcome":"+0","Keys":[],"TotalKeys":0,"Block":2,"Trial":108,"Valence":"Lose","Action":"No-Go","Robot":4,"trial_type":"pit-trial","trial_index":122,"time_elapsed":512862,"internal_node_id":"0.0-122.0"},{"Rune":"05","Correct":-1,"Choice":-1,"RT":-1,"Accuracy":1,"Sham":0,"Outcome":"+10","Keys":[],"TotalKeys":0,"Block":2,"Trial":109,"Valence":"Win","Action":"No-Go","Robot":2,"trial_type":"pit-trial","trial_index":123,"time_elapsed":516866,"internal_node_id":"0.0-123.0"},{"Rune":"03","Correct":-1,"Choice":-1,"RT":-1,"Accuracy":1,"Sham":0,"Outcome":"+0","Keys":[],"TotalKeys":0,"Block":2,"Trial":110,"Valence":"Lose","Action":"No-Go","Robot":4,"trial_type":"pit-trial","trial_index":124,"time_elapsed":520870,"internal_node_id":"0.0-124.0"},{"Rune":"04","Correct":32,"Choice":32,"RT":528.0500000008615,"Accuracy":1,"Sham":0,"Outcome":"+10","Keys":[2028.1650000015507],"TotalKeys":1,"Block":2,"Trial":111,"Valence":"Win","Action":"Go","Robot":1,"trial_type":"pit-trial","trial_index":125,"time_elapsed":523901,"internal_node_id":"0.0-125.0"},{"Rune":"06","Correct":32,"Choice":32,"RT":688.2299999997485,"Accuracy":1,"Sham":0,"Outcome":"+0","Keys":[2188.660000001546],"TotalKeys":1,"Block":2,"Trial":112,"Valence":"Lose","Action":"Go","Robot":3,"trial_type":"pit-trial","trial_index":126,"time_elapsed":527094,"internal_node_id":"0.0-126.0"},{"Rune":"05","Correct":-1,"Choice":-1,"RT":-1,"Accuracy":1,"Sham":0,"Outcome":"+10","Keys":[],"TotalKeys":0,"Block":2,"Trial":113,"Valence":"Win","Action":"No-Go","Robot":2,"trial_type":"pit-trial","trial_index":127,"time_elapsed":531100,"internal_node_id":"0.0-127.0"},{"Rune":"03","Correct":-1,"Choice":-1,"RT":-1,"Accuracy":1,"Sham":0,"Outcome":"+0","Keys":[],"TotalKeys":0,"Block":2,"Trial":114,"Valence":"Lose","Action":"No-Go","Robot":4,"trial_type":"pit-trial","trial_index":128,"time_elapsed":535105,"internal_node_id":"0.0-128.0"},{"Rune":"06","Correct":32,"Choice":32,"RT":539.8849999983795,"Accuracy":1,"Sham":1,"Outcome":"-10","Keys":[2040.2899999989895],"TotalKeys":1,"Block":2,"Trial":115,"Valence":"Lose","Action":"Go","Robot":3,"trial_type":"pit-trial","trial_index":129,"time_elapsed":538148,"internal_node_id":"0.0-129.0"},{"Rune":"04","Correct":32,"Choice":32,"RT":417.10500000044703,"Accuracy":1,"Sham":0,"Outcome":"+10","Keys":[1918.2650000002468],"TotalKeys":1,"Block":2,"Trial":116,"Valence":"Win","Action":"Go","Robot":1,"trial_type":"pit-trial","trial_index":130,"time_elapsed":541070,"internal_node_id":"0.0-130.0"},{"Rune":"03","Correct":-1,"Choice":-1,"RT":-1,"Accuracy":1,"Sham":1,"Outcome":"-10","Keys":[],"TotalKeys":0,"Block":2,"Trial":117,"Valence":"Lose","Action":"No-Go","Robot":4,"trial_type":"pit-trial","trial_index":131,"time_elapsed":545075,"internal_node_id":"0.0-131.0"},{"Rune":"06","Correct":32,"Choice":32,"RT":569.265000000014,"Accuracy":1,"Sham":0,"Outcome":"+0","Keys":[2071.205000000191],"TotalKeys":1,"Block":2,"Trial":118,"Valence":"Lose","Action":"Go","Robot":3,"trial_type":"pit-trial","trial_index":132,"time_elapsed":548149,"internal_node_id":"0.0-132.0"},{"Rune":"05","Correct":-1,"Choice":-1,"RT":-1,"Accuracy":1,"Sham":0,"Outcome":"+10","Keys":[],"TotalKeys":0,"Block":2,"Trial":119,"Valence":"Win","Action":"No-Go","Robot":2,"trial_type":"pit-trial","trial_index":133,"time_elapsed":552152,"internal_node_id":"0.0-133.0"},{"Rune":"04","Correct":32,"Choice":32,"RT":502.2900000003865,"Accuracy":1,"Sham":0,"Outcome":"+10","Keys":[2002.8750000001164],"TotalKeys":1,"Block":2,"Trial":120,"Valence":"Win","Action":"Go","Robot":1,"trial_type":"pit-trial","trial_index":134,"time_elapsed":555158,"internal_node_id":"0.0-134.0"},{"Rune":"05","Correct":-1,"Choice":-1,"RT":-1,"Accuracy":1,"Sham":0,"Outcome":"+10","Keys":[],"TotalKeys":0,"Block":2,"Trial":121,"Valence":"Win","Action":"No-Go","Robot":2,"trial_type":"pit-trial","trial_index":135,"time_elapsed":559164,"internal_node_id":"0.0-135.0"},{"Rune":"03","Correct":-1,"Choice":-1,"RT":-1,"Accuracy":1,"Sham":0,"Outcome":"+0","Keys":[],"TotalKeys":0,"Block":2,"Trial":122,"Valence":"Lose","Action":"No-Go","Robot":4,"trial_type":"pit-trial","trial_index":136,"time_elapsed":563167,"internal_node_id":"0.0-136.0"},{"Rune":"06","Correct":32,"Choice":32,"RT":413.9200000008568,"Accuracy":1,"Sham":0,"Outcome":"+0","Keys":[1915.079999998794],"TotalKeys":1,"Block":2,"Trial":123,"Valence":"Lose","Action":"Go","Robot":3,"trial_type":"pit-trial","trial_index":137,"time_elapsed":566086,"internal_node_id":"0.0-137.0"},{"Rune":"04","Correct":32,"Choice":32,"RT":527.2400000012713,"Accuracy":1,"Sham":1,"Outcome":"+0","Keys":[2028.0300000013085],"TotalKeys":1,"Block":2,"Trial":124,"Valence":"Win","Action":"Go","Robot":1,"trial_type":"pit-trial","trial_index":138,"time_elapsed":569118,"internal_node_id":"0.0-138.0"},{"Rune":"06","Correct":32,"Choice":32,"RT":774.9699999985751,"Accuracy":1,"Sham":1,"Outcome":"-10","Keys":[2275.9150000001537],"TotalKeys":1,"Block":2,"Trial":125,"Valence":"Lose","Action":"Go","Robot":3,"trial_type":"pit-trial","trial_index":139,"time_elapsed":572397,"internal_node_id":"0.0-139.0"},{"Rune":"03","Correct":-1,"Choice":-1,"RT":-1,"Accuracy":1,"Sham":0,"Outcome":"+0","Keys":[],"TotalKeys":0,"Block":2,"Trial":126,"Valence":"Lose","Action":"No-Go","Robot":4,"trial_type":"pit-trial","trial_index":140,"time_elapsed":576401,"internal_node_id":"0.0-140.0"},{"Rune":"05","Correct":-1,"Choice":-1,"RT":-1,"Accuracy":1,"Sham":0,"Outcome":"+10","Keys":[],"TotalKeys":0,"Block":2,"Trial":127,"Valence":"Win","Action":"No-Go","Robot":2,"trial_type":"pit-trial","trial_index":141,"time_elapsed":580404,"internal_node_id":"0.0-141.0"},{"Rune":"04","Correct":32,"Choice":32,"RT":361.6349999991944,"Accuracy":1,"Sham":0,"Outcome":"+10","Keys":[1862.3399999997346],"TotalKeys":1,"Block":2,"Trial":128,"Valence":"Win","Action":"Go","Robot":1,"trial_type":"pit-trial","trial_index":142,"time_elapsed":583270,"internal_node_id":"0.0-142.0"},{"Rune":"03","Correct":-1,"Choice":-1,"RT":-1,"Accuracy":1,"Sham":0,"Outcome":"+0","Keys":[],"TotalKeys":0,"Block":2,"Trial":129,"Valence":"Lose","Action":"No-Go","Robot":4,"trial_type":"pit-trial","trial_index":143,"time_elapsed":587273,"internal_node_id":"0.0-143.0"},{"Rune":"04","Correct":32,"Choice":32,"RT":500.6650000013178,"Accuracy":1,"Sham":0,"Outcome":"+10","Keys":[2001.2399999996414],"TotalKeys":1,"Block":2,"Trial":130,"Valence":"Win","Action":"Go","Robot":1,"trial_type":"pit-trial","trial_index":144,"time_elapsed":590279,"internal_node_id":"0.0-144.0"},{"Rune":"06","Correct":32,"Choice":32,"RT":694.7899999994552,"Accuracy":1,"Sham":0,"Outcome":"+0","Keys":[2195.7249999996275],"TotalKeys":1,"Block":2,"Trial":131,"Valence":"Lose","Action":"Go","Robot":3,"trial_type":"pit-trial","trial_index":145,"time_elapsed":593478,"internal_node_id":"0.0-145.0"},{"Rune":"05","Correct":-1,"Choice":-1,"RT":-1,"Accuracy":1,"Sham":0,"Outcome":"+10","Keys":[],"TotalKeys":0,"Block":2,"Trial":132,"Valence":"Win","Action":"No-Go","Robot":2,"trial_type":"pit-trial","trial_index":146,"time_elapsed":597482,"internal_node_id":"0.0-146.0"},{"Rune":"03","Correct":-1,"Choice":-1,"RT":-1,"Accuracy":1,"Sham":0,"Outcome":"+0","Keys":[],"TotalKeys":0,"Block":2,"Trial":133,"Valence":"Lose","Action":"No-Go","Robot":4,"trial_type":"pit-trial","trial_index":147,"time_elapsed":601487,"internal_node_id":"0.0-147.0"},{"Rune":"04","Correct":32,"Choice":32,"RT":598.2700000004843,"Accuracy":1,"Sham":0,"Outcome":"+10","Keys":[2099.1199999989476],"TotalKeys":1,"Block":2,"Trial":134,"Valence":"Win","Action":"Go","Robot":1,"trial_type":"pit-trial","trial_index":148,"time_elapsed":604589,"internal_node_id":"0.0-148.0"},{"Rune":"06","Correct":32,"Choice":32,"RT":647.8499999993946,"Accuracy":1,"Sham":0,"Outcome":"+0","Keys":[2149.484999999986],"TotalKeys":1,"Block":2,"Trial":135,"Valence":"Lose","Action":"Go","Robot":3,"trial_type":"pit-trial","trial_index":149,"time_elapsed":607742,"internal_node_id":"0.0-149.0"},{"Rune":"05","Correct":-1,"Choice":-1,"RT":-1,"Accuracy":1,"Sham":0,"Outcome":"+10","Keys":[],"TotalKeys":0,"Block":2,"Trial":136,"Valence":"Win","Action":"No-Go","Robot":2,"trial_type":"pit-trial","trial_index":150,"time_elapsed":611746,"internal_node_id":"0.0-150.0"},{"Rune":"03","Correct":-1,"Choice":-1,"RT":-1,"Accuracy":1,"Sham":1,"Outcome":"-10","Keys":[],"TotalKeys":0,"Block":2,"Trial":137,"Valence":"Lose","Action":"No-Go","Robot":4,"trial_type":"pit-trial","trial_index":151,"time_elapsed":615751,"internal_node_id":"0.0-151.0"},{"Rune":"04","Correct":32,"Choice":32,"RT":502.73500000010245,"Accuracy":1,"Sham":0,"Outcome":"+10","Keys":[2004.0050000007031],"TotalKeys":1,"Block":2,"Trial":138,"Valence":"Win","Action":"Go","Robot":1,"trial_type":"pit-trial","trial_index":152,"time_elapsed":618758,"internal_node_id":"0.0-152.0"},{"Rune":"06","Correct":32,"Choice":32,"RT":590.0500000007451,"Accuracy":1,"Sham":0,"Outcome":"+0","Keys":[2091.5899999999674],"TotalKeys":1,"Block":2,"Trial":139,"Valence":"Lose","Action":"Go","Robot":3,"trial_type":"pit-trial","trial_index":153,"time_elapsed":621853,"internal_node_id":"0.0-153.0"},{"Rune":"05","Correct":-1,"Choice":-1,"RT":-1,"Accuracy":1,"Sham":1,"Outcome":"+0","Keys":[],"TotalKeys":0,"Block":2,"Trial":140,"Valence":"Win","Action":"No-Go","Robot":2,"trial_type":"pit-trial","trial_index":154,"time_elapsed":625857,"internal_node_id":"0.0-154.0"},{"Rune":"05","Correct":-1,"Choice":-1,"RT":-1,"Accuracy":1,"Sham":1,"Outcome":"+0","Keys":[],"TotalKeys":0,"Block":2,"Trial":141,"Valence":"Win","Action":"No-Go","Robot":2,"trial_type":"pit-trial","trial_index":155,"time_elapsed":629863,"internal_node_id":"0.0-155.0"},{"Rune":"06","Correct":32,"Choice":32,"RT":622.1600000007311,"Accuracy":1,"Sham":0,"Outcome":"+0","Keys":[2123.230000001029],"TotalKeys":1,"Block":2,"Trial":142,"Valence":"Lose","Action":"Go","Robot":3,"trial_type":"pit-trial","trial_index":156,"time_elapsed":632989,"internal_node_id":"0.0-156.0"},{"Rune":"04","Correct":32,"Choice":32,"RT":543.7149999997346,"Accuracy":1,"Sham":0,"Outcome":"+10","Keys":[2044.450000001234],"TotalKeys":1,"Block":2,"Trial":143,"Valence":"Win","Action":"Go","Robot":1,"trial_type":"pit-trial","trial_index":157,"time_elapsed":636037,"internal_node_id":"0.0-157.0"},{"Rune":"03","Correct":-1,"Choice":-1,"RT":-1,"Accuracy":1,"Sham":0,"Outcome":"+0","Keys":[],"TotalKeys":0,"Block":2,"Trial":144,"Valence":"Lose","Action":"No-Go","Robot":4,"trial_type":"pit-trial","trial_index":158,"time_elapsed":640039,"internal_node_id":"0.0-158.0"},{"Rune":"03","Correct":-1,"Choice":-1,"RT":-1,"Accuracy":1,"Sham":0,"Outcome":"+0","Keys":[],"TotalKeys":0,"Block":2,"Trial":145,"Valence":"Lose","Action":"No-Go","Robot":4,"trial_type":"pit-trial","trial_index":159,"time_elapsed":644043,"internal_node_id":"0.0-159.0"},{"Rune":"04","Correct":32,"Choice":32,"RT":618.7600000012899,"Accuracy":1,"Sham":0,"Outcome":"+10","Keys":[2119.4599999998463],"TotalKeys":1,"Block":2,"Trial":146,"Valence":"Win","Action":"Go","Robot":1,"trial_type":"pit-trial","trial_index":160,"time_elapsed":647166,"internal_node_id":"0.0-160.0"},{"Rune":"06","Correct":32,"Choice":32,"RT":583.8100000000559,"Accuracy":1,"Sham":0,"Outcome":"+0","Keys":[2084.1650000001537,2843.849999999278],"TotalKeys":2,"Block":2,"Trial":147,"Valence":"Lose","Action":"Go","Robot":3,"trial_type":"pit-trial","trial_index":161,"time_elapsed":650254,"internal_node_id":"0.0-161.0"},{"Rune":"05","Correct":-1,"Choice":-1,"RT":-1,"Accuracy":1,"Sham":0,"Outcome":"+10","Keys":[],"TotalKeys":0,"Block":2,"Trial":148,"Valence":"Win","Action":"No-Go","Robot":2,"trial_type":"pit-trial","trial_index":162,"time_elapsed":654258,"internal_node_id":"0.0-162.0"},{"Rune":"05","Correct":-1,"Choice":-1,"RT":-1,"Accuracy":1,"Sham":0,"Outcome":"+10","Keys":[],"TotalKeys":0,"Block":2,"Trial":149,"Valence":"Win","Action":"No-Go","Robot":2,"trial_type":"pit-trial","trial_index":163,"time_elapsed":658264,"internal_node_id":"0.0-163.0"},{"Rune":"03","Correct":-1,"Choice":-1,"RT":-1,"Accuracy":1,"Sham":0,"Outcome":"+0","Keys":[],"TotalKeys":0,"Block":2,"Trial":150,"Valence":"Lose","Action":"No-Go","Robot":4,"trial_type":"pit-trial","trial_index":164,"time_elapsed":662268,"internal_node_id":"0.0-164.0"},{"Rune":"06","Correct":32,"Choice":32,"RT":568.9600000005448,"Accuracy":1,"Sham":0,"Outcome":"+0","Keys":[2070.5099999995437],"TotalKeys":1,"Block":2,"Trial":151,"Valence":"Lose","Action":"Go","Robot":3,"trial_type":"pit-trial","trial_index":165,"time_elapsed":665342,"internal_node_id":"0.0-165.0"},{"Rune":"04","Correct":32,"Choice":32,"RT":614.3850000007078,"Accuracy":1,"Sham":0,"Outcome":"+10","Keys":[2116.2149999999674],"TotalKeys":1,"Block":2,"Trial":152,"Valence":"Win","Action":"Go","Robot":1,"trial_type":"pit-trial","trial_index":166,"time_elapsed":668462,"internal_node_id":"0.0-166.0"},{"Rune":"04","Correct":32,"Choice":32,"RT":511.01500000001397,"Accuracy":1,"Sham":0,"Outcome":"+10","Keys":[2012.0700000006473],"TotalKeys":1,"Block":2,"Trial":153,"Valence":"Win","Action":"Go","Robot":1,"trial_type":"pit-trial","trial_index":167,"time_elapsed":671477,"internal_node_id":"0.0-167.0"},{"Rune":"03","Correct":-1,"Choice":-1,"RT":-1,"Accuracy":1,"Sham":0,"Outcome":"+0","Keys":[],"TotalKeys":0,"Block":2,"Trial":154,"Valence":"Lose","Action":"No-Go","Robot":4,"trial_type":"pit-trial","trial_index":168,"time_elapsed":675481,"internal_node_id":"0.0-168.0"},{"Rune":"06","Correct":32,"Choice":32,"RT":612.6199999998789,"Accuracy":1,"Sham":0,"Outcome":"+0","Keys":[2113.0700000012293],"TotalKeys":1,"Block":2,"Trial":155,"Valence":"Lose","Action":"Go","Robot":3,"trial_type":"pit-trial","trial_index":169,"time_elapsed":678597,"internal_node_id":"0.0-169.0"},{"Rune":"05","Correct":-1,"Choice":-1,"RT":-1,"Accuracy":1,"Sham":0,"Outcome":"+10","Keys":[],"TotalKeys":0,"Block":2,"Trial":156,"Valence":"Win","Action":"No-Go","Robot":2,"trial_type":"pit-trial","trial_index":170,"time_elapsed":682603,"internal_node_id":"0.0-170.0"},{"Rune":"06","Correct":32,"Choice":32,"RT":609.8599999987055,"Accuracy":1,"Sham":1,"Outcome":"-10","Keys":[2110.7350000001024],"TotalKeys":1,"Block":2,"Trial":157,"Valence":"Lose","Action":"Go","Robot":3,"trial_type":"pit-trial","trial_index":171,"time_elapsed":685717,"internal_node_id":"0.0-171.0"},{"Rune":"03","Correct":-1,"Choice":-1,"RT":-1,"Accuracy":1,"Sham":1,"Outcome":"-10","Keys":[],"TotalKeys":0,"Block":2,"Trial":158,"Valence":"Lose","Action":"No-Go","Robot":4,"trial_type":"pit-trial","trial_index":172,"time_elapsed":689721,"internal_node_id":"0.0-172.0"},{"Rune":"05","Correct":-1,"Choice":-1,"RT":-1,"Accuracy":1,"Sham":0,"Outcome":"+10","Keys":[],"TotalKeys":0,"Block":2,"Trial":159,"Valence":"Win","Action":"No-Go","Robot":2,"trial_type":"pit-trial","trial_index":173,"time_elapsed":693725,"internal_node_id":"0.0-173.0"},{"Rune":"04","Correct":32,"Choice":32,"RT":576.2899999991059,"Accuracy":1,"Sham":1,"Outcome":"+0","Keys":[2078.325000000419],"TotalKeys":1,"Block":2,"Trial":160,"Valence":"Win","Action":"Go","Robot":1,"trial_type":"pit-trial","trial_index":174,"time_elapsed":696805,"internal_node_id":"0.0-174.0"},{"rt":13666.285000001197,"demographics":{"age":"51","gender-categorical":"Male","ethnicity":"Not Hispanic or Latino","race":"White","english":"Yes","fluency":"Very well"},"trial_type":"survey-demo","trial_index":175,"time_elapsed":710474,"internal_node_id":"0.0-175.0"},{"rt":18332.730000000098,"debriefgraphics":{"difficulty":"4","fun":"4","clarity":"5","strategy":"No","feedback":"No"},"trial_type":"survey-debrief","trial_index":176,"time_elapsed":728810,"internal_node_id":"0.0-176.0","interactions":"[]"}]