subID TrialNo Threat(1)/Safe(2) Fractal CodeOutcomeRightSide CodeOutcomeWrongSide CodeOutcomeNoPress ActualOutcome Circleside(1Left2Right) response Accuracy rt 
26 1 1 3 1 1 0 1 1 2 0 3.568817e-01 
26 2 1 1 0 1 1 0 1 1 1 5.988870e-01 
26 3 1 4 -1 -1 0 0 1 0 1 NaN 
26 4 1 4 -1 -1 0 -1 2 2 0 5.670780e-01 
26 5 1 3 0 0 1 0 1 1 0 6.005362e-01 
26 6 1 4 -1 -1 0 0 2 0 1 NaN 
26 7 1 3 0 0 1 0 1 1 0 5.362137e-01 
26 8 1 3 0 0 1 0 2 2 0 6.802086e-01 
26 9 1 1 1 0 0 0 2 0 0 NaN 
26 10 1 2 0 -1 -1 0 2 2 1 5.614082e-01 
26 11 1 4 0 0 -1 0 2 2 0 5.904512e-01 
26 12 1 3 0 0 1 0 2 2 0 6.535973e-01 
26 13 1 2 -1 0 0 0 2 0 0 NaN 
26 14 1 2 0 -1 -1 0 1 1 1 5.928473e-01 
26 15 1 1 1 0 0 1 2 2 1 5.825175e-01 
26 16 1 4 -1 -1 0 -1 1 1 0 6.317274e-01 
26 17 1 2 0 -1 -1 0 2 2 1 7.190223e-01 
26 18 1 1 1 0 0 0 1 0 0 NaN 
26 19 1 2 0 -1 -1 -1 1 0 0 NaN 
26 20 1 1 1 0 0 1 1 1 1 5.313177e-01 
26 1 2 1 1 0 0 1 1 1 1 5.827176e-01 
26 2 2 4 -1 -1 0 -1 2 2 0 7.117250e-01 
26 3 2 4 -1 -1 0 0 1 0 1 NaN 
26 4 2 2 0 -1 -1 0 2 2 1 5.622068e-01 
26 5 2 3 0 0 1 0 2 2 0 7.084868e-01 
26 6 2 1 1 0 0 1 1 1 1 6.931824e-01 
26 7 2 1 0 1 1 0 1 1 1 4.791622e-01 
26 8 2 1 1 0 0 1 2 2 1 5.525619e-01 
26 9 2 2 -1 0 0 -1 2 2 1 7.730924e-01 
26 10 2 2 0 -1 -1 -1 1 0 0 NaN 
26 11 2 4 -1 -1 0 -1 1 1 0 5.387090e-01 
26 12 2 3 0 0 1 1 1 0 1 NaN 
26 13 2 4 -1 -1 0 0 2 0 1 NaN 
26 14 2 3 1 1 0 1 1 1 0 6.117862e-01 
26 15 2 3 0 0 1 0 2 2 0 5.440298e-01 
26 16 2 3 0 0 1 0 1 1 0 4.873197e-01 
26 17 2 2 0 -1 -1 -1 2 0 0 NaN 
26 18 2 2 0 -1 -1 0 1 1 1 5.245193e-01 
26 19 2 1 1 0 0 1 2 2 1 4.454900e-01 
26 20 2 4 0 0 -1 -1 2 0 1 NaN 
26 1 1 3 0 0 1 0 1 1 0 5.090854e-01 
26 2 1 3 0 0 1 0 2 2 0 5.936040e-01 
26 3 1 4 0 0 -1 -1 2 0 1 NaN 
26 4 1 1 1 0 0 0 1 0 0 NaN 
26 5 1 4 -1 -1 0 -1 1 1 0 5.438498e-01 
26 6 1 3 1 1 0 1 1 1 0 6.747452e-01 
26 7 1 1 0 1 1 0 1 1 1 4.966875e-01 
26 8 1 3 0 0 1 0 1 1 0 3.189814e-01 
26 9 1 1 1 0 0 0 1 0 0 NaN 
26 10 1 4 -1 -1 0 0 1 0 1 NaN 
26 11 1 2 0 -1 -1 -1 2 0 0 NaN 
26 12 1 2 -1 0 0 -1 2 2 1 7.034080e-01 
26 13 1 1 1 0 0 0 2 0 0 NaN 
26 14 1 2 0 -1 -1 -1 1 0 0 NaN 
26 15 1 1 1 0 0 1 2 2 1 5.679141e-01 
26 16 1 4 -1 -1 0 -1 2 2 0 6.089172e-01 
26 17 1 3 0 0 1 0 2 2 0 5.029841e-01 
26 18 1 2 0 -1 -1 -1 2 0 0 NaN 
26 19 1 4 -1 -1 0 -1 2 2 0 4.113027e-01 
26 20 1 2 0 -1 -1 0 1 1 1 6.883542e-01 
26 1 2 3 1 1 0 0 1 0 1 NaN 
26 2 2 3 0 0 1 1 2 0 1 NaN 
26 3 2 4 -1 -1 0 -1 1 1 0 3.787718e-01 
26 4 2 1 1 0 0 1 1 1 1 3.140364e-01 
26 5 2 2 0 -1 -1 0 1 1 1 5.722339e-01 
26 6 2 1 1 0 0 1 2 2 1 6.812499e-01 
26 7 2 3 0 0 1 0 2 2 0 6.295803e-01 
26 8 2 1 1 0 0 1 1 1 1 4.968896e-01 
26 9 2 4 -1 -1 0 -1 2 2 0 6.498638e-01 
26 10 2 2 0 -1 -1 -1 1 0 0 NaN 
26 11 2 3 0 0 1 1 1 0 1 NaN 
26 12 2 4 0 0 -1 0 2 2 0 8.350092e-01 
26 13 2 2 0 -1 -1 -1 2 0 0 NaN 
26 14 2 1 1 0 0 1 2 2 1 5.152932e-01 
26 15 2 3 0 0 1 1 1 0 1 NaN 
26 16 2 2 -1 0 0 -1 2 2 1 4.734091e-01 
26 17 2 4 -1 -1 0 -1 1 1 0 7.503256e-01 
26 18 2 1 0 1 1 0 1 1 1 7.155754e-01 
26 19 2 2 0 -1 -1 0 2 2 1 6.716231e-01 
26 20 2 4 -1 -1 0 0 2 0 1 NaN 
26 1 1 1 1 0 0 1 2 2 1 2.784777e-01 
26 2 1 3 1 1 0 1 1 1 0 5.450502e-01 
26 3 1 4 -1 -1 0 0 2 0 1 NaN 
26 4 1 1 1 0 0 1 2 2 1 4.746040e-01 
26 5 1 2 0 -1 -1 -1 2 0 0 NaN 
26 6 1 4 -1 -1 0 -1 2 2 0 6.004056e-01 
26 7 1 2 -1 0 0 -1 2 2 1 4.241064e-01 
26 8 1 2 0 -1 -1 0 2 2 1 4.483831e-01 
26 9 1 1 1 0 0 1 1 1 1 5.043223e-01 
26 10 1 3 0 0 1 0 2 2 0 5.022712e-01 
26 11 1 1 1 0 0 1 1 1 1 5.515115e-01 
26 12 1 2 0 -1 -1 0 1 1 1 4.211671e-01 
26 13 1 4 0 0 -1 -1 2 0 1 NaN 
26 14 1 2 0 -1 -1 -1 1 0 0 NaN 
26 15 1 3 0 0 1 0 1 1 0 3.559991e-01 
26 16 1 3 0 0 1 0 2 2 0 5.388147e-01 
26 17 1 3 0 0 1 0 1 1 0 4.732216e-01 
26 18 1 1 0 1 1 0 1 1 1 3.041921e-01 
26 19 1 4 -1 -1 0 -1 1 1 0 2.925383e-01 
26 20 1 4 -1 -1 0 0 1 0 1 NaN 
26 1 2 2 0 -1 -1 0 2 2 1 5.473370e-01 
26 2 2 1 1 0 0 1 2 2 1 4.995723e-01 
26 3 2 2 -1 0 0 0 2 0 0 NaN 
26 4 2 1 1 0 0 1 2 2 1 3.857403e-01 
26 5 2 4 -1 -1 0 -1 1 1 0 4.261402e-01 
26 6 2 4 -1 -1 0 -1 2 2 0 3.360228e-01 
26 7 2 4 -1 -1 0 0 2 0 1 NaN 
26 8 2 3 0 0 1 0 2 2 0 5.802078e-01 
26 9 2 4 -1 -1 0 0 1 0 1 NaN 
26 10 2 3 0 0 1 0 1 1 0 3.784434e-01 
26 11 2 3 0 0 1 0 2 2 0 3.498129e-01 
26 12 2 1 1 0 0 1 1 1 1 3.065965e-01 
26 13 2 2 0 -1 -1 0 1 1 1 4.340363e-01 
26 14 2 3 0 0 1 0 1 1 0 3.883910e-01 
26 15 2 2 0 -1 -1 0 2 2 1 5.522512e-01 
26 16 2 2 0 -1 -1 0 1 1 1 3.992111e-01 
26 17 2 4 0 0 -1 0 2 2 0 4.774699e-01 
26 18 2 3 1 1 0 0 1 0 1 NaN 
26 19 2 1 0 1 1 0 1 1 1 2.952708e-01 
26 20 2 1 1 0 0 1 1 1 1 9.736434e-01 
26 1 1 3 1 1 0 1 1 1 0 2.880334e-01 
26 2 1 2 0 -1 -1 -1 1 0 0 NaN 
26 3 1 3 0 0 1 0 1 1 0 3.279308e-01 
26 4 1 1 1 0 0 1 1 1 1 2.872846e-01 
26 5 1 3 0 0 1 0 2 2 0 3.430292e-01 
26 6 1 2 -1 0 0 -1 2 2 1 5.340876e-01 
26 7 1 3 0 0 1 0 1 1 0 4.748696e-01 
26 8 1 4 0 0 -1 0 2 2 0 3.431318e-01 
26 9 1 2 0 -1 -1 -1 2 0 0 NaN 
26 10 1 2 0 -1 -1 -1 2 0 0 NaN 
26 11 1 3 0 0 1 0 2 2 0 6.177130e-01 
26 12 1 4 -1 -1 0 -1 1 1 0 3.695074e-01 
26 13 1 4 -1 -1 0 -1 2 2 0 6.575531e-01 
26 14 1 2 0 -1 -1 0 1 1 1 2.971644e-01 
26 15 1 1 1 0 0 1 2 2 1 3.125028e-01 
26 16 1 1 1 0 0 1 1 1 1 3.180510e-01 
26 17 1 1 0 1 1 0 1 1 1 3.120097e-01 
26 18 1 1 1 0 0 1 2 2 1 7.643289e-01 
26 19 1 4 -1 -1 0 0 2 0 1 NaN 
26 20 1 4 -1 -1 0 0 1 0 1 NaN 
26 1 2 4 -1 -1 0 -1 1 1 0 5.127719e-01 
26 2 2 4 -1 -1 0 -1 2 2 0 5.929653e-01 
26 3 2 3 0 0 1 0 1 1 0 3.379811e-01 
26 4 2 2 0 -1 -1 -1 2 0 0 NaN 
26 5 2 1 1 0 0 1 1 1 1 2.652098e-01 
26 6 2 2 0 -1 -1 0 1 1 1 2.531644e-01 
26 7 2 4 -1 -1 0 -1 1 1 0 3.531478e-01 
26 8 2 3 0 0 1 0 2 2 0 4.666960e-01 
26 9 2 2 0 -1 -1 -1 2 0 0 NaN 
26 10 2 3 1 1 0 1 1 1 0 4.936787e-01 
26 11 2 1 1 0 0 0 2 0 0 NaN 
26 12 2 1 0 1 1 0 1 1 1 2.458568e-01 
26 13 2 2 0 -1 -1 -1 1 0 0 NaN 
26 14 2 3 0 0 1 0 2 2 0 4.184690e-01 
26 15 2 4 0 0 -1 -1 2 0 1 NaN 
26 16 2 1 1 0 0 1 2 2 1 3.726867e-01 
26 17 2 4 -1 -1 0 0 2 0 1 NaN 
26 18 2 1 1 0 0 1 1 1 1 4.228594e-01 
26 19 2 2 -1 0 0 0 2 0 0 NaN 
26 20 2 3 0 0 1 1 1 0 1 NaN 
26 1 1 3 0 0 1 0 1 1 0 2.478306e-01 
26 2 1 2 0 -1 -1 -1 1 0 0 NaN 
26 3 1 2 0 -1 -1 0 1 1 1 4.151863e-01 
26 4 1 1 0 1 1 0 1 1 1 3.841305e-01 
26 5 1 4 -1 -1 0 0 1 0 1 NaN 
26 6 1 2 -1 0 0 0 2 0 0 NaN 
26 7 1 4 -1 -1 0 -1 1 1 0 2.923038e-01 
26 8 1 4 -1 -1 0 -1 2 1 0 4.653159e-01 
26 9 1 1 1 0 0 1 1 1 1 2.925817e-01 
26 10 1 4 -1 -1 0 -1 2 2 0 5.419479e-01 
26 11 1 4 0 0 -1 -1 2 0 1 NaN 
26 12 1 1 1 0 0 1 2 2 1 5.177722e-01 
26 13 1 3 0 0 1 1 1 0 1 NaN 
26 14 1 1 1 0 0 1 2 2 1 3.142859e-01 
26 15 1 2 0 -1 -1 -1 2 0 0 NaN 
26 16 1 1 1 0 0 1 1 1 1 2.728304e-01 
26 17 1 2 0 -1 -1 -1 2 0 0 NaN 
26 18 1 3 1 1 0 1 1 1 0 4.911057e-01 
26 19 1 3 0 0 1 0 2 2 0 6.629726e-01 
26 20 1 3 0 0 1 0 2 2 0 5.168880e-01 
26 1 2 4 -1 -1 0 0 1 0 1 NaN 
26 2 2 3 0 0 1 0 2 2 0 6.168745e-01 
26 3 2 4 0 0 -1 -1 2 0 1 NaN 
26 4 2 4 -1 -1 0 -1 1 1 0 8.527682e-01 
26 5 2 3 1 1 0 0 1 0 1 NaN 
26 6 2 2 0 -1 -1 0 2 2 1 2.879596e-01 
26 7 2 1 0 1 1 0 1 1 1 2.871820e-01 
26 8 2 4 -1 -1 0 0 2 0 1 NaN 
26 9 2 1 1 0 0 1 1 1 1 5.614240e-01 
26 10 2 2 0 -1 -1 0 1 1 1 3.242225e-01 
26 11 2 3 0 0 1 0 1 1 0 4.186916e-01 
26 12 2 3 0 0 1 1 1 0 1 NaN 
26 13 2 3 0 0 1 0 2 2 0 4.025701e-01 
26 14 2 1 1 0 0 1 2 2 1 3.178599e-01 
26 15 2 1 1 0 0 1 1 1 1 2.453760e-01 
26 16 2 2 0 -1 -1 0 2 2 1 3.929828e-01 
26 17 2 1 1 0 0 1 2 2 1 5.208753e-01 
26 18 2 4 -1 -1 0 -1 2 2 0 9.969561e-01 
26 19 2 2 -1 0 0 0 2 0 0 NaN 
26 20 2 2 0 -1 -1 0 1 1 1 2.634204e-01 
26 1 1 3 0 0 1 0 1 1 0 3.207633e-01 
26 2 1 4 -1 -1 0 -1 1 1 0 7.310957e-01 
26 3 1 1 1 0 0 1 1 1 1 3.529102e-01 
26 4 1 2 0 -1 -1 -1 1 0 0 NaN 
26 5 1 4 -1 -1 0 0 2 0 1 NaN 
26 6 1 1 1 0 0 1 2 2 1 3.860754e-01 
26 7 1 3 0 0 1 0 2 2 0 9.754328e-01 
26 8 1 3 1 1 0 1 1 1 0 2.526619e-01 
26 9 1 4 0 0 -1 -1 2 0 1 NaN 
26 10 1 1 1 0 0 1 2 2 1 3.805880e-01 
26 11 1 3 0 0 1 0 1 1 0 3.569066e-01 
26 12 1 2 0 -1 -1 0 2 2 1 4.761482e-01 
26 13 1 1 1 0 0 1 1 1 1 3.268468e-01 
26 14 1 2 -1 0 0 0 2 0 0 NaN 
26 15 1 3 0 0 1 0 2 2 0 9.524350e-01 
26 16 1 4 -1 -1 0 -1 2 2 0 9.579892e-01 
26 17 1 4 -1 -1 0 0 1 0 1 NaN 
26 18 1 2 0 -1 -1 0 2 2 1 3.842339e-01 
26 19 1 1 0 1 1 0 1 1 1 5.754783e-01 
26 20 1 2 0 -1 -1 0 1 1 1 4.643776e-01 
26 1 2 2 0 -1 -1 0 1 1 1 2.836999e-01 
26 2 2 1 1 0 0 1 2 2 1 3.509096e-01 
26 3 2 4 -1 -1 0 -1 1 1 0 7.271849e-01 
26 4 2 3 0 0 1 0 2 2 0 8.166593e-01 
26 5 2 1 0 1 1 0 1 1 1 3.414139e-01 
26 6 2 1 1 0 0 1 1 1 1 4.408335e-01 
26 7 2 1 1 0 0 0 2 0 0 NaN 
26 8 2 3 0 0 1 0 1 1 0 6.439247e-01 
26 9 2 2 -1 0 0 0 2 0 0 NaN 
26 10 2 4 -1 -1 0 -1 2 2 0 4.270086e-01 
26 11 2 1 1 0 0 1 1 1 1 4.731963e-01 
26 12 2 4 -1 -1 0 0 2 0 1 NaN 
26 13 2 3 1 1 0 1 1 1 0 3.103865e-01 
26 14 2 3 0 0 1 0 1 1 0 2.753924e-01 
26 15 2 4 -1 -1 0 0 1 0 1 NaN 
26 16 2 4 0 0 -1 0 2 2 0 8.951533e-01 
26 17 2 2 0 -1 -1 0 1 1 1 2.444507e-01 
26 18 2 2 0 -1 -1 0 2 2 1 2.543854e-01 
26 19 2 2 0 -1 -1 0 2 2 1 3.483046e-01 
26 20 2 3 0 0 1 0 2 2 0 3.733084e-01 
26 1 1 1 1 0 0 1 2 2 1 9.815885e-02 
26 2 1 2 0 -1 -1 -1 2 0 0 NaN 
26 3 1 3 0 0 1 0 2 2 0 3.720745e-01 
26 4 1 3 0 0 1 0 2 2 0 3.402107e-01 
26 5 1 2 0 -1 -1 0 1 1 1 3.606500e-01 
26 6 1 2 -1 0 0 -1 2 2 1 2.689169e-01 
26 7 1 1 1 0 0 1 2 2 1 3.748701e-01 
26 8 1 1 1 0 0 1 1 1 1 2.819030e-01 
26 9 1 4 -1 -1 0 -1 2 2 0 5.842343e-01 
26 10 1 3 1 1 0 1 1 1 0 4.113110e-01 
26 11 1 3 0 0 1 0 1 1 0 2.852907e-01 
26 12 1 4 -1 -1 0 0 2 0 1 NaN 
26 13 1 3 0 0 1 0 1 1 0 3.505436e-01 
26 14 1 4 -1 -1 0 -1 1 1 0 4.814928e-01 
26 15 1 2 0 -1 -1 0 1 1 1 5.441237e-01 
26 16 1 1 0 1 1 0 1 1 1 4.307331e-01 
26 17 1 4 0 0 -1 0 2 2 0 6.257055e-01 
26 18 1 4 -1 -1 0 0 1 0 1 NaN 
26 19 1 2 0 -1 -1 -1 2 0 0 NaN 
26 20 1 1 1 0 0 1 1 1 1 3.864911e-01 
26 1 2 4 -1 -1 0 -1 1 1 0 3.463668e-01 
26 2 2 1 1 0 0 1 2 2 1 9.236448e-01 
26 3 2 4 -1 -1 0 0 1 0 1 NaN 
26 4 2 3 0 0 1 0 2 2 0 7.402302e-01 
26 5 2 1 1 0 0 1 1 1 1 2.865247e-01 
26 6 2 3 1 1 0 1 1 1 0 3.914357e-01 
26 7 2 1 1 0 0 0 1 0 0 NaN 
26 8 2 2 0 -1 -1 0 1 1 1 4.007151e-01 
26 9 2 4 -1 -1 0 0 2 0 1 NaN 
26 10 2 2 0 -1 -1 -1 2 0 0 NaN 
26 11 2 3 0 0 1 0 1 1 0 5.656384e-01 
26 12 2 2 0 -1 -1 0 1 1 1 8.665679e-01 
26 13 2 2 -1 0 0 0 2 0 0 NaN 
26 14 2 1 1 0 0 1 2 2 1 4.067189e-01 
26 15 2 1 0 1 1 1 1 0 0 NaN 
26 16 2 3 0 0 1 0 2 2 0 3.828140e-01 
26 17 2 3 0 0 1 1 1 0 1 NaN 
26 18 2 4 -1 -1 0 -1 2 2 0 5.071025e-01 
26 19 2 2 0 -1 -1 0 2 2 1 9.644800e-01 
26 20 2 4 0 0 -1 -1 2 0 1 NaN 
26 1 1 2 0 -1 -1 0 2 2 1 2.452844e-01 
26 2 1 1 1 0 0 1 2 2 1 2.993446e-01 
26 3 1 2 0 -1 -1 0 1 1 1 9.998907e-01 
26 4 1 2 0 -1 -1 0 1 1 1 4.168513e-01 
26 5 1 3 0 0 1 1 1 0 1 NaN 
26 6 1 4 0 0 -1 -1 2 0 1 NaN 
26 7 1 4 -1 -1 0 -1 1 1 0 4.403105e-01 
26 8 1 1 1 0 0 1 1 1 1 3.202537e-01 
26 9 1 1 1 0 0 1 2 2 1 2.863554e-01 
26 10 1 3 1 1 0 1 1 1 0 4.514677e-01 
26 11 1 2 0 -1 -1 0 2 2 1 9.984490e-01 
26 12 1 4 -1 -1 0 -1 1 1 0 3.696499e-01 
26 13 1 3 0 0 1 1 2 0 1 NaN 
26 14 1 1 0 1 1 0 1 1 1 4.586300e-01 
26 15 1 1 1 0 0 0 1 0 0 NaN 
26 16 1 3 0 0 1 0 2 2 0 3.538761e-01 
26 17 1 4 -1 -1 0 -1 2 2 0 4.737592e-01 
26 18 1 3 0 0 1 0 1 1 0 7.007742e-01 
26 19 1 2 -1 0 0 0 2 0 0 NaN 
26 20 1 4 -1 -1 0 -1 2 2 0 5.239497e-01 
26 1 2 4 -1 -1 0 -1 2 2 0 5.341563e-01 
26 2 2 2 0 -1 -1 0 2 2 1 7.373837e-01 
26 3 2 1 1 0 0 1 2 2 1 3.267900e-01 
26 4 2 4 -1 -1 0 -1 1 1 0 6.236828e-01 
26 5 2 1 1 0 0 1 1 1 1 3.406267e-01 
26 6 2 4 -1 -1 0 -1 2 2 0 3.379515e-01 
26 7 2 1 1 0 0 1 2 2 1 5.061733e-01 
26 8 2 3 0 0 1 0 2 2 0 5.239674e-01 
26 9 2 4 0 0 -1 0 2 2 0 4.154871e-01 
26 10 2 1 0 1 1 0 1 1 1 7.154040e-01 
26 11 2 2 0 -1 -1 0 1 1 1 4.043109e-01 
26 12 2 3 0 0 1 0 1 1 0 7.136300e-01 
26 13 2 3 1 1 0 1 1 1 0 4.415899e-01 
26 14 2 2 -1 0 0 0 2 0 0 NaN 
26 15 2 3 0 0 1 1 1 0 1 NaN 
26 16 2 3 0 0 1 1 2 0 1 NaN 
26 17 2 2 0 -1 -1 0 1 1 1 6.349738e-01 
26 18 2 1 1 0 0 1 1 1 1 6.932862e-01 
26 19 2 2 0 -1 -1 0 2 2 1 3.183064e-01 
26 20 2 4 -1 -1 0 -1 1 1 0 2.415303e-01 
26 1 1 2 0 -1 -1 0 2 2 1 3.757539e-01 
26 2 1 4 0 0 -1 0 2 2 0 6.267058e-01 
26 3 1 1 1 0 0 1 1 1 1 3.669818e-01 
26 4 1 2 0 -1 -1 0 2 2 1 2.938540e-01 
26 5 1 3 0 0 1 0 2 2 0 3.288691e-01 
26 6 1 1 1 0 0 1 1 1 1 2.846177e-01 
26 7 1 3 0 0 1 0 2 2 0 4.060237e-01 
26 8 1 2 0 -1 -1 0 1 1 1 3.282837e-01 
26 9 1 1 1 0 0 1 2 2 1 3.473019e-01 
26 10 1 4 -1 -1 0 -1 1 1 0 3.892563e-01 
26 11 1 2 -1 0 0 -1 2 2 1 7.392505e-01 
26 12 1 4 -1 -1 0 0 2 0 1 NaN 
26 13 1 4 -1 -1 0 0 1 0 1 NaN 
26 14 1 4 -1 -1 0 0 2 0 1 NaN 
26 15 1 3 1 1 0 1 1 1 0 2.577080e-01 
26 16 1 2 0 -1 -1 -1 1 2 0 8.625770e-01 
26 17 1 1 0 1 1 0 1 1 1 5.185791e-01 
26 18 1 3 0 0 1 0 1 1 0 3.098469e-01 
26 19 1 1 1 0 0 1 2 2 1 2.187588e-01 
26 20 1 3 0 0 1 0 1 1 0 2.826834e-01 
26 1 2 1 1 0 0 1 2 2 1 3.543403e-01 
26 2 2 4 -1 -1 0 0 1 0 1 NaN 
26 3 2 1 1 0 0 1 1 1 1 2.873738e-01 
26 4 2 3 0 0 1 1 2 0 1 NaN 
26 5 2 1 1 0 0 1 1 1 1 2.545042e-01 
26 6 2 2 0 -1 -1 0 2 2 1 3.251766e-01 
26 7 2 4 -1 -1 0 0 2 0 1 NaN 
26 8 2 2 0 -1 -1 0 1 1 1 5.895946e-01 
26 9 2 3 1 1 0 0 1 0 1 NaN 
26 10 2 4 -1 -1 0 0 1 0 1 NaN 
26 11 2 2 -1 0 0 -1 2 2 1 4.750658e-01 
26 12 2 4 -1 -1 0 0 2 0 1 NaN 
26 13 2 1 0 1 1 0 1 1 1 3.423242e-01 
26 14 2 4 0 0 -1 -1 2 0 1 NaN 
26 15 2 3 0 0 1 0 2 2 0 8.052333e-01 
26 16 2 2 0 -1 -1 -1 1 2 0 3.835021e-01 
26 17 2 3 0 0 1 1 1 0 1 NaN 
26 18 2 2 0 -1 -1 -1 2 0 0 NaN 
26 19 2 3 0 0 1 1 1 0 1 NaN 
26 20 2 1 1 0 0 1 2 2 1 3.267205e-01 
26 1 1 4 -1 -1 0 0 1 0 1 NaN 
26 2 1 3 0 0 1 0 1 1 0 2.934514e-01 
26 3 1 1 1 0 0 1 1 1 1 3.574067e-01 
26 4 1 1 1 0 0 1 2 2 1 2.773491e-01 
26 5 1 4 -1 -1 0 0 1 0 1 NaN 
26 6 1 2 0 -1 -1 -1 1 0 0 NaN 
26 7 1 1 0 1 1 0 1 1 1 4.088561e-01 
26 8 1 3 0 0 1 0 1 1 0 3.211427e-01 
26 9 1 1 1 0 0 1 2 2 1 5.817493e-01 
26 10 1 4 0 0 -1 -1 2 0 1 NaN 
26 11 1 1 1 0 0 1 1 1 1 3.539523e-01 
26 12 1 3 0 0 1 0 2 2 0 4.919066e-01 
26 13 1 4 -1 -1 0 -1 2 2 0 4.929101e-01 
26 14 1 2 0 -1 -1 0 2 2 1 3.821512e-01 
26 15 1 2 -1 0 0 0 2 0 0 NaN 
26 16 1 4 -1 -1 0 0 2 0 1 NaN 
26 17 1 2 0 -1 -1 0 2 2 1 2.903933e-01 
26 18 1 3 1 1 0 1 1 1 0 4.376404e-01 
26 19 1 3 0 0 1 0 2 2 0 5.595356e-01 
26 20 1 2 0 -1 -1 0 1 1 1 3.058959e-01 
26 1 2 3 0 0 1 1 1 0 1 NaN 
26 2 2 3 0 0 1 1 2 0 1 NaN 
26 3 2 1 0 1 1 0 1 1 1 2.992862e-01 
26 4 2 1 1 0 0 1 2 2 1 3.401941e-01 
26 5 2 1 1 0 0 1 1 1 1 2.705346e-01 
26 6 2 1 1 0 0 1 1 1 1 3.718360e-01 
26 7 2 3 0 0 1 1 1 0 1 NaN 
26 8 2 4 -1 -1 0 -1 2 2 0 3.596995e-01 
26 9 2 1 1 0 0 1 2 2 1 3.849922e-01 
26 10 2 2 0 -1 -1 -1 1 0 0 NaN 
26 11 2 3 0 0 1 0 2 2 0 4.550962e-01 
26 12 2 4 0 0 -1 0 2 2 0 5.587066e-01 
26 13 2 2 0 -1 -1 0 2 2 1 3.323690e-01 
26 14 2 2 -1 0 0 0 2 0 0 NaN 
26 15 2 3 1 1 0 0 1 0 1 NaN 
26 16 2 2 0 -1 -1 -1 2 0 0 NaN 
26 17 2 2 0 -1 -1 0 1 1 1 4.118889e-01 
26 18 2 4 -1 -1 0 0 2 0 1 NaN 
26 19 2 4 -1 -1 0 0 1 0 1 NaN 
26 20 2 4 -1 -1 0 0 1 0 1 NaN 
26 1 1 2 0 -1 -1 -1 2 0 0 NaN 
26 2 1 1 1 0 0 1 2 2 1 2.805592e-01 
26 3 1 2 0 -1 -1 -1 2 0 0 NaN 
26 4 1 4 -1 -1 0 -1 2 2 0 5.833295e-01 
26 5 1 2 0 -1 -1 0 1 1 1 5.257880e-01 
26 6 1 2 0 -1 -1 -1 1 0 0 NaN 
26 7 1 4 0 0 -1 0 2 2 0 5.179617e-01 
26 8 1 1 1 0 0 1 1 1 1 4.369362e-01 
26 9 1 1 0 1 1 0 1 1 1 3.000425e-01 
26 10 1 2 -1 0 0 -1 2 2 1 4.291584e-01 
26 11 1 3 0 0 1 1 2 0 1 NaN 
26 12 1 3 0 0 1 0 2 2 0 2.527353e-01 
26 13 1 3 0 0 1 0 1 1 0 5.447684e-01 
26 14 1 1 1 0 0 1 1 1 1 3.645387e-01 
26 15 1 4 -1 -1 0 -1 2 2 0 3.228890e-01 
26 16 1 4 -1 -1 0 0 1 0 1 NaN 
26 17 1 1 1 0 0 1 2 2 1 2.981039e-01 
26 18 1 3 0 0 1 0 1 1 0 4.250803e-01 
26 19 1 3 1 1 0 1 1 1 0 2.969891e-01 
26 20 1 4 -1 -1 0 0 1 0 1 NaN 
26 1 2 3 1 1 0 0 1 0 1 NaN 
26 2 2 3 0 0 1 1 1 0 1 NaN 
26 3 2 1 1 0 0 1 1 1 1 4.527597e-01 
26 4 2 1 0 1 1 0 1 1 1 3.754962e-01 
26 5 2 1 1 0 0 1 2 2 1 2.832554e-01 
26 6 2 4 0 0 -1 -1 2 0 1 NaN 
26 7 2 2 0 -1 -1 0 2 2 1 5.527885e-01 
26 8 2 3 0 0 1 1 1 0 1 NaN 
26 9 2 4 -1 -1 0 0 1 0 1 NaN 
26 10 2 4 -1 -1 0 0 2 0 1 NaN 
26 11 2 4 -1 -1 0 0 2 0 1 NaN 
26 12 2 3 0 0 1 1 2 0 1 NaN 
26 13 2 2 0 -1 -1 0 2 2 1 3.786826e-01 
26 14 2 1 1 0 0 1 1 1 1 4.178516e-01 
26 15 2 2 -1 0 0 -1 2 2 1 4.978228e-01 
26 16 2 1 1 0 0 1 2 2 1 3.257332e-01 
26 17 2 4 -1 -1 0 0 1 0 1 NaN 
26 18 2 2 0 -1 -1 -1 1 0 0 NaN 
26 19 2 2 0 -1 -1 0 1 1 1 4.302179e-01 
26 20 2 3 0 0 1 1 2 0 1 NaN 
26 1 1 1 1 0 0 1 1 1 1 3.424074e-01 
26 2 1 4 -1 -1 0 -1 2 2 0 9.493643e-01 
26 3 1 2 0 -1 -1 -1 1 0 0 NaN 
26 4 1 1 1 0 0 1 2 2 1 2.918542e-01 
26 5 1 4 -1 -1 0 0 2 0 1 NaN 
26 6 1 2 -1 0 0 -1 2 2 1 3.348614e-01 
26 7 1 3 0 0 1 0 2 2 0 7.830637e-01 
26 8 1 3 0 0 1 0 2 2 0 4.709940e-01 
26 9 1 4 -1 -1 0 0 1 0 1 NaN 
26 10 1 2 0 -1 -1 -1 2 0 0 NaN 
26 11 1 1 1 0 0 1 2 2 1 2.951212e-01 
26 12 1 2 0 -1 -1 0 2 2 1 9.400612e-01 
26 13 1 4 -1 -1 0 0 1 0 1 NaN 
26 14 1 2 0 -1 -1 0 1 1 1 4.622369e-01 
26 15 1 4 0 0 -1 -1 2 0 1 NaN 
26 16 1 1 0 1 1 0 1 1 1 2.976038e-01 
26 17 1 3 0 0 1 0 1 1 0 2.856267e-01 
26 18 1 3 1 1 0 1 1 1 0 4.125245e-01 
26 19 1 1 1 0 0 1 1 1 1 3.761467e-01 
26 20 1 3 0 0 1 0 1 1 0 4.429391e-01 
26 1 2 3 0 0 1 1 1 0 1 NaN 
26 2 2 2 0 -1 -1 -1 2 0 0 NaN 
26 3 2 2 -1 0 0 0 2 0 0 NaN 
26 4 2 4 -1 -1 0 -1 1 1 0 5.421153e-01 
26 5 2 4 -1 -1 0 0 1 0 1 NaN 
26 6 2 1 1 0 0 1 2 2 1 3.340210e-01 
26 7 2 3 0 0 1 1 1 0 1 NaN 
26 8 2 3 0 0 1 1 2 0 1 NaN 
26 9 2 1 1 0 0 1 1 1 1 2.726836e-01 
26 10 2 3 0 0 1 1 2 0 1 NaN 
26 11 2 2 0 -1 -1 0 2 2 1 3.573752e-01 
26 12 2 1 1 0 0 1 1 1 1 9.287240e-01 
26 13 2 1 1 0 0 1 2 2 1 3.386380e-01 
26 14 2 3 1 1 0 0 1 0 1 NaN 
26 15 2 4 -1 -1 0 0 2 0 1 NaN 
26 16 2 1 0 1 1 0 1 1 1 5.251675e-01 
26 17 2 2 0 -1 -1 0 1 1 1 2.904181e-01 
26 18 2 4 -1 -1 0 0 2 0 1 NaN 
26 19 2 4 0 0 -1 0 2 2 0 4.056791e-01 
26 20 2 2 0 -1 -1 0 1 1 1 5.902104e-01 
