[{"view_history":"[{\"page_index\":0,\"viewing_time\":4955.224999925122}]","rt":4955.850000027567,"trial_type":"instructions","trial_index":0,"time_elapsed":5001,"internal_node_id":"0.0-0.0","task_version":"battery-v0.2-trt"},{"slider_type":"valence","raw_loc":648,"loc":0.796,"trial_type":"affective-slider","trial_index":1,"time_elapsed":13689,"internal_node_id":"0.0-1.0","task_version":"battery-v0.2-trt"},{"responses":{"Q06":"0","Q04":"1","Q05":"1","Q01":"1","Q03":"0","Q08":"3","Q02":"1","Q07":"0"},"rt":50270.65999992192,"item_order":[5,3,4,0,2,7,1,6],"radio_events":[4379.385000094771,5864.379999926314,9267.414999892935,11953.054999932647,19885.629999917,24080.60500002466,27817.77499988675,35380.36000006832],"key_events":[],"mouse_events":[4379.385000094771,5864.379999926314,9267.414999892935,11953.054999932647,17459.07000009902,19885.629999917,24080.60500002466,25689.68000006862,27817.77499988675,29093.36500009522,35380.36000006832,50269.46000009775],"straightlining":0.5,"zigzagging":0.5714285714285714,"survey":"dass_d","trial_type":"survey-template","trial_index":2,"time_elapsed":63963,"internal_node_id":"0.0-2.0","task_version":"battery-v0.2-trt","infrequency":0.5},{"responses":{"Q07":"0","Q02":"1","Q01":"1","Q08":"0","Q06":"0","Q05":"0","Q04":"1","Q03":"1"},"rt":26123.230000026524,"item_order":[6,1,0,7,5,4,3,2],"radio_events":[5304.92000002414,7705.740000121295,9054.685000097379,13646.605000132695,16431.709999917075,19093.1349999737,21394.845000002533,22595.23500013165,24970.755000133067],"key_events":[],"mouse_events":[5304.92000002414,7705.740000121295,9054.685000097379,13646.605000132695,16431.709999917075,19093.1349999737,20478.559999959543,21394.845000002533,22595.23500013165,24970.755000133067,26122.280000010505],"straightlining":0.5,"zigzagging":0.42857142857142855,"survey":"gad7","trial_type":"survey-template","trial_index":3,"time_elapsed":90089,"internal_node_id":"0.0-3.0","task_version":"battery-v0.2-trt","infrequency":0},{"responses":{"Q12":"2","Q08":"2","Q10":"2","Q03":"3","Q07":"3","Q11":"2","Q04":"3","Q05":"2","Q13":"0","Q09":"2","Q02":"3","Q06":"2","Q01":"3"},"rt":62110.24000006728,"item_order":[11,7,9,2,6,10,3,4,12,8,1,5,0],"radio_events":[5478.859999915585,7682.389999972656,9923.320000059903,13462.724999990314,19875.99499989301,26459.550000028685,30519.24499985762,34034.51499994844,38143.87000002898,40396.36499993503,42056.48500006646,51711.63500007242,58147.86499994807],"key_events":[],"mouse_events":[5478.859999915585,7682.389999972656,9923.320000059903,13462.724999990314,15306.769999908283,19875.99499989301,22548.829999985173,26459.550000028685,30519.24499985762,34034.51499994844,35743.8850000035,38143.87000002898,40396.36499993503,42056.48500006646,46290.024999994785,51711.63500007242,58147.86499994807,62108.749999897555],"straightlining":0.5384615384615384,"zigzagging":0.5833333333333334,"survey":"bisbas","trial_type":"survey-template","trial_index":4,"time_elapsed":152202,"internal_node_id":"0.0-4.0","task_version":"battery-v0.2-trt","infrequency":0},{"value":[0.5,1.5384615384615383,1.5833333333333335],"trial_type":"call-function","trial_index":5,"time_elapsed":152205,"internal_node_id":"0.0-5.0","task_version":"battery-v0.2-trt"},{"view_history":"[{\"page_index\":0,\"viewing_time\":3644.374999916181},{\"page_index\":1,\"viewing_time\":8973.98000000976},{\"page_index\":2,\"viewing_time\":9196.13999989815},{\"page_index\":3,\"viewing_time\":8404.79000005871},{\"page_index\":4,\"viewing_time\":24394.344999920577},{\"page_index\":5,\"viewing_time\":7054.340000031516},{\"page_index\":6,\"viewing_time\":7808.225000044331},{\"page_index\":7,\"viewing_time\":32163.010000018403},{\"page_index\":8,\"viewing_time\":7176.505000097677},{\"page_index\":9,\"viewing_time\":5322.059999918565}]","rt":114138.26499995776,"trial_type":"pit-instructions","trial_index":6,"time_elapsed":266345,"internal_node_id":"0.0-6.0-0.0","task_version":"battery-v0.2-trt"},{"rune":"1","rune_set":"elianto","hex":"#3366ff99","correct":32,"choice":32,"rt":843.2500001508743,"accuracy":1,"outcome":"+10","keys":[2344.245000043884],"total_keys":1,"block":0,"practice":1,"trial_type":"pit-trial","trial_index":7,"time_elapsed":269893,"internal_node_id":"0.0-6.0-1.0-0.0","task_version":"battery-v0.2-trt"},{"rune":"1","rune_set":"elianto","hex":"#3366ff99","correct":32,"choice":32,"rt":814.1299998387694,"accuracy":1,"outcome":"+10","keys":[2314.8749999236315],"total_keys":1,"block":0,"practice":1,"trial_type":"pit-trial","trial_index":8,"time_elapsed":273411,"internal_node_id":"0.0-6.0-1.1-0.1","task_version":"battery-v0.2-trt"},{"rune":"1","rune_set":"elianto","hex":"#3366ff99","correct":32,"choice":32,"rt":848.2500000391155,"accuracy":1,"outcome":"+10","keys":[2348.615000024438],"total_keys":1,"block":0,"practice":1,"trial_type":"pit-trial","trial_index":9,"time_elapsed":276966,"internal_node_id":"0.0-6.0-1.2-0.2","task_version":"battery-v0.2-trt"},{"rune":"1","rune_set":"elianto","hex":"#3366ff99","correct":32,"choice":32,"rt":1012.9550001583993,"accuracy":1,"outcome":"+10","keys":[2513.2699999958277],"total_keys":1,"block":0,"practice":1,"trial_type":"pit-trial","trial_index":10,"time_elapsed":280685,"internal_node_id":"0.0-6.0-1.3-0.3","task_version":"battery-v0.2-trt"},{"trial_type":"call-function","trial_index":11,"time_elapsed":280687,"internal_node_id":"0.0-6.0-2.0","task_version":"battery-v0.2-trt"},{"view_history":"[{\"page_index\":0,\"viewing_time\":7297.809999901801},{\"page_index\":1,\"viewing_time\":2561.4549999590963}]","rt":9859.60999992676,"trial_type":"pit-instructions","trial_index":12,"time_elapsed":290548,"internal_node_id":"0.0-6.0-3.0","task_version":"battery-v0.2-trt"},{"rune":"2","rune_set":"elianto","hex":"#3366ff99","correct":-1,"choice":32,"rt":978.865000186488,"accuracy":0,"outcome":"+1","keys":[2480.534999864176],"total_keys":1,"block":0,"practice":2,"trial_type":"pit-trial","trial_index":13,"time_elapsed":294232,"internal_node_id":"0.0-6.0-4.0-0.0","task_version":"battery-v0.2-trt"},{"rune":"2","rune_set":"elianto","hex":"#3366ff99","correct":-1,"choice":-1,"rt":-1,"accuracy":1,"outcome":"+10","keys":[],"total_keys":0,"block":0,"practice":2,"trial_type":"pit-trial","trial_index":14,"time_elapsed":298237,"internal_node_id":"0.0-6.0-4.1-0.1","task_version":"battery-v0.2-trt"},{"rune":"2","rune_set":"elianto","hex":"#3366ff99","correct":-1,"choice":-1,"rt":-1,"accuracy":1,"outcome":"+10","keys":[],"total_keys":0,"block":0,"practice":2,"trial_type":"pit-trial","trial_index":15,"time_elapsed":302244,"internal_node_id":"0.0-6.0-4.2-0.2","task_version":"battery-v0.2-trt"},{"rune":"2","rune_set":"elianto","hex":"#3366ff99","correct":-1,"choice":-1,"rt":-1,"accuracy":1,"outcome":"+10","keys":[],"total_keys":0,"block":0,"practice":2,"trial_type":"pit-trial","trial_index":16,"time_elapsed":306247,"internal_node_id":"0.0-6.0-4.3-0.3","task_version":"battery-v0.2-trt"},{"trial_type":"call-function","trial_index":17,"time_elapsed":306248,"internal_node_id":"0.0-6.0-5.0","task_version":"battery-v0.2-trt"},{"view_history":"[{\"page_index\":0,\"viewing_time\":51152.84000011161},{\"page_index\":1,\"viewing_time\":7562.170000048354}]","rt":58715.9700000193,"trial_type":"pit-instructions","trial_index":18,"time_elapsed":364965,"internal_node_id":"0.0-6.0-6.0","task_version":"battery-v0.2-trt"},{"rune":"3","rune_set":"elianto","hex":"#f73b6a7A","correct":-1,"choice":32,"rt":805.2799999713898,"accuracy":0,"outcome":"-10","keys":[2305.415000068024],"total_keys":1,"block":0,"practice":3,"trial_type":"pit-trial","trial_index":19,"time_elapsed":368477,"internal_node_id":"0.0-6.0-7.0-0.0","task_version":"battery-v0.2-trt"},{"rune":"3","rune_set":"elianto","hex":"#f73b6a7A","correct":-1,"choice":-1,"rt":-1,"accuracy":1,"outcome":"-1","keys":[],"total_keys":0,"block":0,"practice":3,"trial_type":"pit-trial","trial_index":20,"time_elapsed":372484,"internal_node_id":"0.0-6.0-7.1-0.1","task_version":"battery-v0.2-trt"},{"rune":"3","rune_set":"elianto","hex":"#f73b6a7A","correct":-1,"choice":-1,"rt":-1,"accuracy":1,"outcome":"-1","keys":[],"total_keys":0,"block":0,"practice":3,"trial_type":"pit-trial","trial_index":21,"time_elapsed":376498,"internal_node_id":"0.0-6.0-7.2-0.2","task_version":"battery-v0.2-trt"},{"rune":"3","rune_set":"elianto","hex":"#f73b6a7A","correct":-1,"choice":-1,"rt":-1,"accuracy":1,"outcome":"-1","keys":[],"total_keys":0,"block":0,"practice":3,"trial_type":"pit-trial","trial_index":22,"time_elapsed":380504,"internal_node_id":"0.0-6.0-7.3-0.3","task_version":"battery-v0.2-trt"},{"trial_type":"call-function","trial_index":23,"time_elapsed":380506,"internal_node_id":"0.0-6.0-8.0","task_version":"battery-v0.2-trt"},{"view_history":"[{\"page_index\":0,\"viewing_time\":3359.144999878481},{\"page_index\":1,\"viewing_time\":4206.100000068545}]","rt":7565.604999894276,"trial_type":"pit-instructions","trial_index":24,"time_elapsed":388073,"internal_node_id":"0.0-6.0-9.0","task_version":"battery-v0.2-trt"},{"rune":"4","rune_set":"elianto","hex":"#f73b6a7A","correct":32,"choice":32,"rt":832.7099999878556,"accuracy":1,"outcome":"-1","keys":[2333.409999962896],"total_keys":1,"block":0,"practice":4,"trial_type":"pit-trial","trial_index":25,"time_elapsed":391609,"internal_node_id":"0.0-6.0-10.0-0.0","task_version":"battery-v0.2-trt"},{"rune":"4","rune_set":"elianto","hex":"#f73b6a7A","correct":32,"choice":32,"rt":333.7100001517683,"accuracy":1,"outcome":"-1","keys":[1834.4699998851866],"total_keys":1,"block":0,"practice":4,"trial_type":"pit-trial","trial_index":26,"time_elapsed":394648,"internal_node_id":"0.0-6.0-10.1-0.1","task_version":"battery-v0.2-trt"},{"rune":"4","rune_set":"elianto","hex":"#f73b6a7A","correct":32,"choice":32,"rt":584.3199999071658,"accuracy":1,"outcome":"-1","keys":[2085.3750000242144],"total_keys":1,"block":0,"practice":4,"trial_type":"pit-trial","trial_index":27,"time_elapsed":397939,"internal_node_id":"0.0-6.0-10.2-0.2","task_version":"battery-v0.2-trt"},{"rune":"4","rune_set":"elianto","hex":"#f73b6a7A","correct":32,"choice":-1,"rt":-1,"accuracy":0,"outcome":"-10","keys":[1420.905000064522],"total_keys":1,"block":0,"practice":4,"trial_type":"pit-trial","trial_index":28,"time_elapsed":401943,"internal_node_id":"0.0-6.0-10.3-0.3","task_version":"battery-v0.2-trt"},{"rune":"4","rune_set":"elianto","hex":"#f73b6a7A","correct":32,"choice":32,"rt":558.4299999754876,"accuracy":1,"outcome":"-1","keys":[2058.915000176057],"total_keys":1,"block":0,"practice":4,"trial_type":"pit-trial","trial_index":29,"time_elapsed":405205,"internal_node_id":"0.0-6.0-10.4-0.4","task_version":"battery-v0.2-trt"},{"rune":"4","rune_set":"elianto","hex":"#f73b6a7A","correct":32,"choice":32,"rt":567.9800000507385,"accuracy":1,"outcome":"-1","keys":[2068.3500000741333],"total_keys":1,"block":0,"practice":4,"trial_type":"pit-trial","trial_index":30,"time_elapsed":408478,"internal_node_id":"0.0-6.0-10.5-0.5","task_version":"battery-v0.2-trt"},{"rune":"4","rune_set":"elianto","hex":"#f73b6a7A","correct":32,"choice":32,"rt":488.7800000142306,"accuracy":1,"outcome":"-1","keys":[1990.5850000213832],"total_keys":1,"block":0,"practice":4,"trial_type":"pit-trial","trial_index":31,"time_elapsed":411671,"internal_node_id":"0.0-6.0-10.6-0.6","task_version":"battery-v0.2-trt"},{"trial_type":"call-function","trial_index":32,"time_elapsed":411674,"internal_node_id":"0.0-6.0-11.0","task_version":"battery-v0.2-trt"},{"view_history":"[{\"page_index\":0,\"viewing_time\":13887.100000167266},{\"page_index\":1,\"viewing_time\":15095.56999988854},{\"page_index\":2,\"viewing_time\":6422.095000045374},{\"page_index\":3,\"viewing_time\":5147.480000043288},{\"page_index\":4,\"viewing_time\":5815.470000030473},{\"page_index\":5,\"viewing_time\":3996.1249998304993}]","rt":50364.1850000713,"trial_type":"pit-instructions","trial_index":33,"time_elapsed":462039,"internal_node_id":"0.0-6.0-12.0","task_version":"battery-v0.2-trt"},{"responses":["Press SPACE","+10","-1","True","True"],"num_errors":0,"rt":22531.8650000263,"trial_type":"pit-comprehension","trial_index":34,"time_elapsed":484573,"internal_node_id":"0.0-6.0-13.0","task_version":"battery-v0.2-trt"},{"view_history":"[{\"page_index\":0,\"viewing_time\":3052.9100000858307},{\"page_index\":1,\"viewing_time\":9380.284999962896}]","rt":12433.56000003405,"trial_type":"pit-instructions","trial_index":35,"time_elapsed":497009,"internal_node_id":"0.0-7.0","task_version":"battery-v0.2-trt"},{"rune":"V","rune_set":"elianto","hex":"#f73b6a7A","correct":-1,"choice":32,"rt":1050.3650000318885,"accuracy":0,"outcome":"-10","keys":[2550.4900000523776],"total_keys":1,"block":1,"trial":1,"stimulus":0,"robot":4,"valence":"lose","action":"no-go","sham":0,"trial_type":"pit-trial","trial_index":36,"time_elapsed":500764,"internal_node_id":"0.0-8.0","task_version":"battery-v0.2-trt"},{"rune":"K","rune_set":"elianto","hex":"#3366ff99","correct":-1,"choice":32,"rt":1173.7999999895692,"accuracy":0,"outcome":"+1","keys":[2674.759999848902],"total_keys":1,"block":1,"trial":2,"stimulus":3,"robot":2,"valence":"win","action":"no-go","sham":0,"trial_type":"pit-trial","trial_index":37,"time_elapsed":504644,"internal_node_id":"0.0-9.0","task_version":"battery-v0.2-trt"},{"rune":"J","rune_set":"elianto","hex":"#f73b6a7A","correct":-1,"choice":-1,"rt":-1,"accuracy":1,"outcome":"-10","keys":[2893.7850000802428],"total_keys":1,"block":1,"trial":3,"stimulus":1,"robot":4,"valence":"lose","action":"no-go","sham":1,"trial_type":"pit-trial","trial_index":38,"time_elapsed":508648,"internal_node_id":"0.0-10.0","task_version":"battery-v0.2-trt"},{"rune":"D","rune_set":"elianto","hex":"#3366ff99","correct":32,"choice":-1,"rt":-1,"accuracy":0,"outcome":"+10","keys":[],"total_keys":0,"block":1,"trial":4,"stimulus":2,"robot":1,"valence":"win","action":"go","sham":1,"trial_type":"pit-trial","trial_index":39,"time_elapsed":512652,"internal_node_id":"0.0-11.0","task_version":"battery-v0.2-trt"},{"rune":"D","rune_set":"elianto","hex":"#3366ff99","correct":32,"choice":-1,"rt":-1,"accuracy":0,"outcome":"+1","keys":[],"total_keys":0,"block":1,"trial":5,"stimulus":2,"robot":1,"valence":"win","action":"go","sham":0,"trial_type":"pit-trial","trial_index":40,"time_elapsed":516657,"internal_node_id":"0.0-12.0","task_version":"battery-v0.2-trt"},{"rune":"J","rune_set":"elianto","hex":"#f73b6a7A","correct":-1,"choice":32,"rt":806.7200002260506,"accuracy":0,"outcome":"-1","keys":[2308.6299998685718],"total_keys":1,"block":1,"trial":6,"stimulus":1,"robot":4,"valence":"lose","action":"no-go","sham":1,"trial_type":"pit-trial","trial_index":41,"time_elapsed":520182,"internal_node_id":"0.0-13.0","task_version":"battery-v0.2-trt"},{"rune":"V","rune_set":"elianto","hex":"#f73b6a7A","correct":-1,"choice":-1,"rt":-1,"accuracy":1,"outcome":"-1","keys":[],"total_keys":0,"block":1,"trial":7,"stimulus":0,"robot":4,"valence":"lose","action":"no-go","sham":0,"trial_type":"pit-trial","trial_index":42,"time_elapsed":524188,"internal_node_id":"0.0-14.0","task_version":"battery-v0.2-trt"},{"rune":"K","rune_set":"elianto","hex":"#3366ff99","correct":-1,"choice":-1,"rt":-1,"accuracy":1,"outcome":"+10","keys":[],"total_keys":0,"block":1,"trial":8,"stimulus":3,"robot":2,"valence":"win","action":"no-go","sham":0,"trial_type":"pit-trial","trial_index":43,"time_elapsed":528193,"internal_node_id":"0.0-15.0","task_version":"battery-v0.2-trt"},{"rune":"D","rune_set":"elianto","hex":"#3366ff99","correct":32,"choice":32,"rt":972.7600000333041,"accuracy":1,"outcome":"+10","keys":[2473.5049998853356],"total_keys":1,"block":1,"trial":9,"stimulus":2,"robot":1,"valence":"win","action":"go","sham":0,"trial_type":"pit-trial","trial_index":44,"time_elapsed":531870,"internal_node_id":"0.0-16.0","task_version":"battery-v0.2-trt"},{"rune":"J","rune_set":"elianto","hex":"#f73b6a7A","correct":-1,"choice":32,"rt":955.3600000217557,"accuracy":0,"outcome":"-10","keys":[2455.9300001710653],"total_keys":1,"block":1,"trial":10,"stimulus":1,"robot":4,"valence":"lose","action":"no-go","sham":0,"trial_type":"pit-trial","trial_index":45,"time_elapsed":535531,"internal_node_id":"0.0-17.0","task_version":"battery-v0.2-trt"},{"rune":"K","rune_set":"elianto","hex":"#3366ff99","correct":-1,"choice":-1,"rt":-1,"accuracy":1,"outcome":"+10","keys":[],"total_keys":0,"block":1,"trial":11,"stimulus":3,"robot":2,"valence":"win","action":"no-go","sham":0,"trial_type":"pit-trial","trial_index":46,"time_elapsed":539536,"internal_node_id":"0.0-18.0","task_version":"battery-v0.2-trt"},{"rune":"V","rune_set":"elianto","hex":"#f73b6a7A","correct":-1,"choice":-1,"rt":-1,"accuracy":1,"outcome":"-10","keys":[],"total_keys":0,"block":1,"trial":12,"stimulus":0,"robot":4,"valence":"lose","action":"no-go","sham":1,"trial_type":"pit-trial","trial_index":47,"time_elapsed":543541,"internal_node_id":"0.0-19.0","task_version":"battery-v0.2-trt"},{"rune":"V","rune_set":"elianto","hex":"#f73b6a7A","correct":-1,"choice":32,"rt":658.5900001227856,"accuracy":0,"outcome":"-1","keys":[2159.379999851808],"total_keys":1,"block":1,"trial":13,"stimulus":0,"robot":4,"valence":"lose","action":"no-go","sham":1,"trial_type":"pit-trial","trial_index":48,"time_elapsed":546905,"internal_node_id":"0.0-20.0","task_version":"battery-v0.2-trt"},{"rune":"J","rune_set":"elianto","hex":"#f73b6a7A","correct":-1,"choice":-1,"rt":-1,"accuracy":1,"outcome":"-10","keys":[2824.6049999725074],"total_keys":1,"block":1,"trial":14,"stimulus":1,"robot":4,"valence":"lose","action":"no-go","sham":1,"trial_type":"pit-trial","trial_index":49,"time_elapsed":550911,"internal_node_id":"0.0-21.0","task_version":"battery-v0.2-trt"},{"rune":"K","rune_set":"elianto","hex":"#3366ff99","correct":-1,"choice":-1,"rt":-1,"accuracy":1,"outcome":"+10","keys":[],"total_keys":0,"block":1,"trial":15,"stimulus":3,"robot":2,"valence":"win","action":"no-go","sham":0,"trial_type":"pit-trial","trial_index":50,"time_elapsed":554916,"internal_node_id":"0.0-22.0","task_version":"battery-v0.2-trt"},{"rune":"D","rune_set":"elianto","hex":"#3366ff99","correct":32,"choice":-1,"rt":-1,"accuracy":0,"outcome":"+1","keys":[],"total_keys":0,"block":1,"trial":16,"stimulus":2,"robot":1,"valence":"win","action":"go","sham":0,"trial_type":"pit-trial","trial_index":51,"time_elapsed":558922,"internal_node_id":"0.0-23.0","task_version":"battery-v0.2-trt"},{"rune":"D","rune_set":"elianto","hex":"#3366ff99","correct":32,"choice":32,"rt":561.3649999722838,"accuracy":1,"outcome":"+10","keys":[2062.069999985397],"total_keys":1,"block":1,"trial":17,"stimulus":2,"robot":1,"valence":"win","action":"go","sham":0,"trial_type":"pit-trial","trial_index":52,"time_elapsed":562189,"internal_node_id":"0.0-24.0","task_version":"battery-v0.2-trt"},{"rune":"V","rune_set":"elianto","hex":"#f73b6a7A","correct":-1,"choice":32,"rt":740.0650000199676,"accuracy":0,"outcome":"-10","keys":[2240.6300001312047],"total_keys":1,"block":1,"trial":18,"stimulus":0,"robot":4,"valence":"lose","action":"no-go","sham":0,"trial_type":"pit-trial","trial_index":53,"time_elapsed":565634,"internal_node_id":"0.0-25.0","task_version":"battery-v0.2-trt"},{"rune":"K","rune_set":"elianto","hex":"#3366ff99","correct":-1,"choice":-1,"rt":-1,"accuracy":1,"outcome":"+1","keys":[],"total_keys":0,"block":1,"trial":19,"stimulus":3,"robot":2,"valence":"win","action":"no-go","sham":1,"trial_type":"pit-trial","trial_index":54,"time_elapsed":569641,"internal_node_id":"0.0-26.0","task_version":"battery-v0.2-trt"},{"rune":"J","rune_set":"elianto","hex":"#f73b6a7A","correct":-1,"choice":32,"rt":935.5750000104308,"accuracy":0,"outcome":"-10","keys":[2436.214999994263],"total_keys":1,"block":1,"trial":20,"stimulus":1,"robot":4,"valence":"lose","action":"no-go","sham":0,"trial_type":"pit-trial","trial_index":55,"time_elapsed":573282,"internal_node_id":"0.0-27.0","task_version":"battery-v0.2-trt"},{"rune":"V","rune_set":"elianto","hex":"#f73b6a7A","correct":-1,"choice":32,"rt":912.6999999862164,"accuracy":0,"outcome":"-10","keys":[2413.6250000447035],"total_keys":1,"block":1,"trial":21,"stimulus":0,"robot":4,"valence":"lose","action":"no-go","sham":0,"trial_type":"pit-trial","trial_index":56,"time_elapsed":576901,"internal_node_id":"0.0-28.0","task_version":"battery-v0.2-trt"},{"rune":"J","rune_set":"elianto","hex":"#f73b6a7A","correct":-1,"choice":-1,"rt":-1,"accuracy":1,"outcome":"-1","keys":[],"total_keys":0,"block":1,"trial":22,"stimulus":1,"robot":4,"valence":"lose","action":"no-go","sham":0,"trial_type":"pit-trial","trial_index":57,"time_elapsed":580907,"internal_node_id":"0.0-29.0","task_version":"battery-v0.2-trt"},{"rune":"K","rune_set":"elianto","hex":"#3366ff99","correct":-1,"choice":32,"rt":1204.8700000159442,"accuracy":0,"outcome":"+1","keys":[2705.640000058338],"total_keys":1,"block":1,"trial":23,"stimulus":3,"robot":2,"valence":"win","action":"no-go","sham":0,"trial_type":"pit-trial","trial_index":58,"time_elapsed":584818,"internal_node_id":"0.0-30.0","task_version":"battery-v0.2-trt"},{"rune":"D","rune_set":"elianto","hex":"#3366ff99","correct":32,"choice":32,"rt":961.3449999596924,"accuracy":1,"outcome":"+10","keys":[2462.2199998702854],"total_keys":1,"block":1,"trial":24,"stimulus":2,"robot":1,"valence":"win","action":"go","sham":0,"trial_type":"pit-trial","trial_index":59,"time_elapsed":588483,"internal_node_id":"0.0-31.0","task_version":"battery-v0.2-trt"},{"rune":"J","rune_set":"elianto","hex":"#f73b6a7A","correct":-1,"choice":-1,"rt":-1,"accuracy":1,"outcome":"-10","keys":[],"total_keys":0,"block":1,"trial":25,"stimulus":1,"robot":4,"valence":"lose","action":"no-go","sham":1,"trial_type":"pit-trial","trial_index":60,"time_elapsed":592489,"internal_node_id":"0.0-32.0","task_version":"battery-v0.2-trt"},{"rune":"D","rune_set":"elianto","hex":"#3366ff99","correct":32,"choice":32,"rt":868.250000057742,"accuracy":1,"outcome":"+1","keys":[2368.315000087023],"total_keys":1,"block":1,"trial":26,"stimulus":2,"robot":1,"valence":"win","action":"go","sham":1,"trial_type":"pit-trial","trial_index":61,"time_elapsed":596062,"internal_node_id":"0.0-33.0","task_version":"battery-v0.2-trt"},{"rune":"K","rune_set":"elianto","hex":"#3366ff99","correct":-1,"choice":-1,"rt":-1,"accuracy":1,"outcome":"+10","keys":[],"total_keys":0,"block":1,"trial":27,"stimulus":3,"robot":2,"valence":"win","action":"no-go","sham":0,"trial_type":"pit-trial","trial_index":62,"time_elapsed":600066,"internal_node_id":"0.0-34.0","task_version":"battery-v0.2-trt"},{"rune":"V","rune_set":"elianto","hex":"#f73b6a7A","correct":-1,"choice":32,"rt":778.6949998699129,"accuracy":0,"outcome":"-1","keys":[2279.1999999899417],"total_keys":1,"block":1,"trial":28,"stimulus":0,"robot":4,"valence":"lose","action":"no-go","sham":1,"trial_type":"pit-trial","trial_index":63,"time_elapsed":603550,"internal_node_id":"0.0-35.0","task_version":"battery-v0.2-trt"},{"rune":"V","rune_set":"elianto","hex":"#f73b6a7A","correct":-1,"choice":32,"rt":1178.940000012517,"accuracy":0,"outcome":"-10","keys":[2679.47500012815],"total_keys":1,"block":1,"trial":29,"stimulus":0,"robot":4,"valence":"lose","action":"no-go","sham":0,"trial_type":"pit-trial","trial_index":64,"time_elapsed":607436,"internal_node_id":"0.0-36.0","task_version":"battery-v0.2-trt"},{"rune":"K","rune_set":"elianto","hex":"#3366ff99","correct":-1,"choice":-1,"rt":-1,"accuracy":1,"outcome":"+10","keys":[],"total_keys":0,"block":1,"trial":30,"stimulus":3,"robot":2,"valence":"win","action":"no-go","sham":0,"trial_type":"pit-trial","trial_index":65,"time_elapsed":611442,"internal_node_id":"0.0-37.0","task_version":"battery-v0.2-trt"},{"rune":"D","rune_set":"elianto","hex":"#3366ff99","correct":32,"choice":32,"rt":1021.8450000975281,"accuracy":1,"outcome":"+10","keys":[2521.910000126809],"total_keys":1,"block":1,"trial":31,"stimulus":2,"robot":1,"valence":"win","action":"go","sham":0,"trial_type":"pit-trial","trial_index":66,"time_elapsed":615168,"internal_node_id":"0.0-38.0","task_version":"battery-v0.2-trt"},{"rune":"J","rune_set":"elianto","hex":"#f73b6a7A","correct":-1,"choice":32,"rt":631.6700000315905,"accuracy":0,"outcome":"-1","keys":[2132.6150000095367],"total_keys":1,"block":1,"trial":32,"stimulus":1,"robot":4,"valence":"lose","action":"no-go","sham":1,"trial_type":"pit-trial","trial_index":67,"time_elapsed":618505,"internal_node_id":"0.0-39.0","task_version":"battery-v0.2-trt"},{"rune":"K","rune_set":"elianto","hex":"#3366ff99","correct":-1,"choice":-1,"rt":-1,"accuracy":1,"outcome":"+1","keys":[],"total_keys":0,"block":1,"trial":33,"stimulus":3,"robot":2,"valence":"win","action":"no-go","sham":1,"trial_type":"pit-trial","trial_index":68,"time_elapsed":622511,"internal_node_id":"0.0-40.0","task_version":"battery-v0.2-trt"},{"rune":"V","rune_set":"elianto","hex":"#f73b6a7A","correct":-1,"choice":-1,"rt":-1,"accuracy":1,"outcome":"-1","keys":[],"total_keys":0,"block":1,"trial":34,"stimulus":0,"robot":4,"valence":"lose","action":"no-go","sham":0,"trial_type":"pit-trial","trial_index":69,"time_elapsed":626516,"internal_node_id":"0.0-41.0","task_version":"battery-v0.2-trt"},{"rune":"D","rune_set":"elianto","hex":"#3366ff99","correct":32,"choice":32,"rt":1105.1699998788536,"accuracy":1,"outcome":"+10","keys":[2606.035000178963],"total_keys":1,"block":1,"trial":35,"stimulus":2,"robot":1,"valence":"win","action":"go","sham":0,"trial_type":"pit-trial","trial_index":70,"time_elapsed":630327,"internal_node_id":"0.0-42.0","task_version":"battery-v0.2-trt"},{"rune":"E","rune_set":"elianto","hex":"#f73b6a7A","correct":32,"choice":32,"rt":970.8400000818074,"accuracy":1,"outcome":"-1","keys":[2471.754999831319],"total_keys":1,"block":1,"trial":36,"stimulus":4,"robot":3,"valence":"lose","action":"go","sham":0,"trial_type":"pit-trial","trial_index":71,"time_elapsed":634004,"internal_node_id":"0.0-43.0","task_version":"battery-v0.2-trt"},{"rune":"V","rune_set":"elianto","hex":"#f73b6a7A","correct":-1,"choice":-1,"rt":-1,"accuracy":1,"outcome":"-1","keys":[],"total_keys":0,"block":1,"trial":37,"stimulus":0,"robot":4,"valence":"lose","action":"no-go","sham":0,"trial_type":"pit-trial","trial_index":72,"time_elapsed":638010,"internal_node_id":"0.0-44.0","task_version":"battery-v0.2-trt"},{"rune":"D","rune_set":"elianto","hex":"#3366ff99","correct":32,"choice":32,"rt":662.9500000271946,"accuracy":1,"outcome":"+10","keys":[2164.4650001544505],"total_keys":1,"block":1,"trial":38,"stimulus":2,"robot":1,"valence":"win","action":"go","sham":0,"trial_type":"pit-trial","trial_index":73,"time_elapsed":641380,"internal_node_id":"0.0-45.0","task_version":"battery-v0.2-trt"},{"rune":"E","rune_set":"elianto","hex":"#f73b6a7A","correct":32,"choice":32,"rt":821.3299999479204,"accuracy":1,"outcome":"-1","keys":[2321.9300000928342],"total_keys":1,"block":1,"trial":39,"stimulus":4,"robot":3,"valence":"lose","action":"go","sham":0,"trial_type":"pit-trial","trial_index":74,"time_elapsed":644907,"internal_node_id":"0.0-46.0","task_version":"battery-v0.2-trt"},{"rune":"K","rune_set":"elianto","hex":"#3366ff99","correct":-1,"choice":-1,"rt":-1,"accuracy":1,"outcome":"+10","keys":[],"total_keys":0,"block":1,"trial":40,"stimulus":3,"robot":2,"valence":"win","action":"no-go","sham":0,"trial_type":"pit-trial","trial_index":75,"time_elapsed":648911,"internal_node_id":"0.0-47.0","task_version":"battery-v0.2-trt"},{"rune":"V","rune_set":"elianto","hex":"#f73b6a7A","correct":-1,"choice":32,"rt":923.3450000174344,"accuracy":0,"outcome":"-10","keys":[2423.875000094995],"total_keys":1,"block":1,"trial":41,"stimulus":0,"robot":4,"valence":"lose","action":"no-go","sham":0,"trial_type":"pit-trial","trial_index":76,"time_elapsed":652538,"internal_node_id":"0.0-48.0","task_version":"battery-v0.2-trt"},{"rune":"W","rune_set":"elianto","hex":"#3366ff99","correct":-1,"choice":32,"rt":1063.8300001155585,"accuracy":0,"outcome":"+10","keys":[2563.9349999837577],"total_keys":1,"block":1,"trial":42,"stimulus":5,"robot":2,"valence":"win","action":"no-go","sham":1,"trial_type":"pit-trial","trial_index":77,"time_elapsed":656306,"internal_node_id":"0.0-49.0","task_version":"battery-v0.2-trt"},{"rune":"E","rune_set":"elianto","hex":"#f73b6a7A","correct":32,"choice":-1,"rt":-1,"accuracy":0,"outcome":"-10","keys":[2925.764999818057],"total_keys":1,"block":1,"trial":43,"stimulus":4,"robot":3,"valence":"lose","action":"go","sham":0,"trial_type":"pit-trial","trial_index":78,"time_elapsed":660311,"internal_node_id":"0.0-50.0","task_version":"battery-v0.2-trt"},{"rune":"S","rune_set":"elianto","hex":"#3366ff99","correct":32,"choice":32,"rt":1076.6449999064207,"accuracy":1,"outcome":"+10","keys":[2577.5099999736995],"total_keys":1,"block":1,"trial":44,"stimulus":6,"robot":1,"valence":"win","action":"go","sham":0,"trial_type":"pit-trial","trial_index":79,"time_elapsed":664093,"internal_node_id":"0.0-51.0","task_version":"battery-v0.2-trt"},{"rune":"V","rune_set":"elianto","hex":"#f73b6a7A","correct":-1,"choice":-1,"rt":-1,"accuracy":1,"outcome":"-1","keys":[],"total_keys":0,"block":1,"trial":45,"stimulus":0,"robot":4,"valence":"lose","action":"no-go","sham":0,"trial_type":"pit-trial","trial_index":80,"time_elapsed":668098,"internal_node_id":"0.0-52.0","task_version":"battery-v0.2-trt"},{"rune":"W","rune_set":"elianto","hex":"#3366ff99","correct":-1,"choice":32,"rt":922.3199998959899,"accuracy":0,"outcome":"+10","keys":[2422.4900000263005],"total_keys":1,"block":1,"trial":46,"stimulus":5,"robot":2,"valence":"win","action":"no-go","sham":1,"trial_type":"pit-trial","trial_index":81,"time_elapsed":671725,"internal_node_id":"0.0-53.0","task_version":"battery-v0.2-trt"},{"rune":"S","rune_set":"elianto","hex":"#3366ff99","correct":32,"choice":32,"rt":976.4799999538809,"accuracy":1,"outcome":"+10","keys":[2477.055000141263],"total_keys":1,"block":1,"trial":47,"stimulus":6,"robot":1,"valence":"win","action":"go","sham":0,"trial_type":"pit-trial","trial_index":82,"time_elapsed":675406,"internal_node_id":"0.0-54.0","task_version":"battery-v0.2-trt"},{"rune":"E","rune_set":"elianto","hex":"#f73b6a7A","correct":32,"choice":-1,"rt":-1,"accuracy":0,"outcome":"-10","keys":[],"total_keys":0,"block":1,"trial":48,"stimulus":4,"robot":3,"valence":"lose","action":"go","sham":0,"trial_type":"pit-trial","trial_index":83,"time_elapsed":679411,"internal_node_id":"0.0-55.0","task_version":"battery-v0.2-trt"},{"rune":"E","rune_set":"elianto","hex":"#f73b6a7A","correct":32,"choice":32,"rt":936.7549999151379,"accuracy":1,"outcome":"-1","keys":[2437.554999953136],"total_keys":1,"block":1,"trial":49,"stimulus":4,"robot":3,"valence":"lose","action":"go","sham":0,"trial_type":"pit-trial","trial_index":84,"time_elapsed":683054,"internal_node_id":"0.0-56.0","task_version":"battery-v0.2-trt"},{"rune":"W","rune_set":"elianto","hex":"#3366ff99","correct":-1,"choice":32,"rt":736.2049999646842,"accuracy":0,"outcome":"+1","keys":[2236.6549998987466],"total_keys":1,"block":1,"trial":50,"stimulus":5,"robot":2,"valence":"win","action":"no-go","sham":0,"trial_type":"pit-trial","trial_index":85,"time_elapsed":686495,"internal_node_id":"0.0-57.0","task_version":"battery-v0.2-trt"},{"rune":"S","rune_set":"elianto","hex":"#3366ff99","correct":32,"choice":32,"rt":1005.9450000990182,"accuracy":1,"outcome":"+10","keys":[2506.830000085756],"total_keys":1,"block":1,"trial":51,"stimulus":6,"robot":1,"valence":"win","action":"go","sham":0,"trial_type":"pit-trial","trial_index":86,"time_elapsed":690207,"internal_node_id":"0.0-58.0","task_version":"battery-v0.2-trt"},{"rune":"P","rune_set":"elianto","hex":"#f73b6a7A","correct":-1,"choice":32,"rt":855.2749999798834,"accuracy":0,"outcome":"-10","keys":[2355.259999865666],"total_keys":1,"block":1,"trial":52,"stimulus":7,"robot":4,"valence":"lose","action":"no-go","sham":0,"trial_type":"pit-trial","trial_index":87,"time_elapsed":693766,"internal_node_id":"0.0-59.0","task_version":"battery-v0.2-trt"},{"rune":"W","rune_set":"elianto","hex":"#3366ff99","correct":-1,"choice":32,"rt":1285.6999998912215,"accuracy":0,"outcome":"+1","keys":[2786.0650001093745],"total_keys":1,"block":1,"trial":53,"stimulus":5,"robot":2,"valence":"win","action":"no-go","sham":0,"trial_type":"pit-trial","trial_index":88,"time_elapsed":697757,"internal_node_id":"0.0-60.0","task_version":"battery-v0.2-trt"},{"rune":"S","rune_set":"elianto","hex":"#3366ff99","correct":32,"choice":-1,"rt":-1,"accuracy":0,"outcome":"+1","keys":[2867.5700000021607],"total_keys":1,"block":1,"trial":54,"stimulus":6,"robot":1,"valence":"win","action":"go","sham":0,"trial_type":"pit-trial","trial_index":89,"time_elapsed":701763,"internal_node_id":"0.0-61.0","task_version":"battery-v0.2-trt"},{"rune":"P","rune_set":"elianto","hex":"#f73b6a7A","correct":-1,"choice":-1,"rt":-1,"accuracy":1,"outcome":"-1","keys":[],"total_keys":0,"block":1,"trial":55,"stimulus":7,"robot":4,"valence":"lose","action":"no-go","sham":0,"trial_type":"pit-trial","trial_index":90,"time_elapsed":705767,"internal_node_id":"0.0-62.0","task_version":"battery-v0.2-trt"},{"rune":"E","rune_set":"elianto","hex":"#f73b6a7A","correct":32,"choice":-1,"rt":-1,"accuracy":0,"outcome":"-10","keys":[2987.449999898672],"total_keys":1,"block":1,"trial":56,"stimulus":4,"robot":3,"valence":"lose","action":"go","sham":0,"trial_type":"pit-trial","trial_index":91,"time_elapsed":709773,"internal_node_id":"0.0-63.0","task_version":"battery-v0.2-trt"},{"rune":"P","rune_set":"elianto","hex":"#f73b6a7A","correct":-1,"choice":-1,"rt":-1,"accuracy":1,"outcome":"-1","keys":[],"total_keys":0,"block":1,"trial":57,"stimulus":7,"robot":4,"valence":"lose","action":"no-go","sham":0,"trial_type":"pit-trial","trial_index":92,"time_elapsed":713779,"internal_node_id":"0.0-64.0","task_version":"battery-v0.2-trt"},{"rune":"E","rune_set":"elianto","hex":"#f73b6a7A","correct":32,"choice":-1,"rt":-1,"accuracy":0,"outcome":"-10","keys":[3059.8549998831004],"total_keys":1,"block":1,"trial":58,"stimulus":4,"robot":3,"valence":"lose","action":"go","sham":0,"trial_type":"pit-trial","trial_index":93,"time_elapsed":717784,"internal_node_id":"0.0-65.0","task_version":"battery-v0.2-trt"},{"rune":"S","rune_set":"elianto","hex":"#3366ff99","correct":32,"choice":32,"rt":1253.1749999616295,"accuracy":1,"outcome":"+10","keys":[2753.359999973327],"total_keys":1,"block":1,"trial":59,"stimulus":6,"robot":1,"valence":"win","action":"go","sham":0,"trial_type":"pit-trial","trial_index":94,"time_elapsed":721742,"internal_node_id":"0.0-66.0","task_version":"battery-v0.2-trt"},{"rune":"W","rune_set":"elianto","hex":"#3366ff99","correct":-1,"choice":32,"rt":794.9000000953674,"accuracy":0,"outcome":"+1","keys":[2295.725000090897],"total_keys":1,"block":1,"trial":60,"stimulus":5,"robot":2,"valence":"win","action":"no-go","sham":0,"trial_type":"pit-trial","trial_index":95,"time_elapsed":725242,"internal_node_id":"0.0-67.0","task_version":"battery-v0.2-trt"},{"rune":"S","rune_set":"elianto","hex":"#3366ff99","correct":32,"choice":32,"rt":790.8749999478459,"accuracy":1,"outcome":"+10","keys":[2291.3299999199808],"total_keys":1,"block":1,"trial":61,"stimulus":6,"robot":1,"valence":"win","action":"go","sham":0,"trial_type":"pit-trial","trial_index":96,"time_elapsed":728739,"internal_node_id":"0.0-68.0","task_version":"battery-v0.2-trt"},{"rune":"W","rune_set":"elianto","hex":"#3366ff99","correct":-1,"choice":-1,"rt":-1,"accuracy":1,"outcome":"+10","keys":[],"total_keys":0,"block":1,"trial":62,"stimulus":5,"robot":2,"valence":"win","action":"no-go","sham":0,"trial_type":"pit-trial","trial_index":97,"time_elapsed":732744,"internal_node_id":"0.0-69.0","task_version":"battery-v0.2-trt"},{"rune":"P","rune_set":"elianto","hex":"#f73b6a7A","correct":-1,"choice":-1,"rt":-1,"accuracy":1,"outcome":"-10","keys":[],"total_keys":0,"block":1,"trial":63,"stimulus":7,"robot":4,"valence":"lose","action":"no-go","sham":1,"trial_type":"pit-trial","trial_index":98,"time_elapsed":736764,"internal_node_id":"0.0-70.0","task_version":"battery-v0.2-trt"},{"rune":"E","rune_set":"elianto","hex":"#f73b6a7A","correct":32,"choice":-1,"rt":-1,"accuracy":0,"outcome":"-10","keys":[],"total_keys":0,"block":1,"trial":64,"stimulus":4,"robot":3,"valence":"lose","action":"go","sham":0,"trial_type":"pit-trial","trial_index":99,"time_elapsed":740769,"internal_node_id":"0.0-71.0","task_version":"battery-v0.2-trt"},{"rune":"W","rune_set":"elianto","hex":"#3366ff99","correct":-1,"choice":-1,"rt":-1,"accuracy":1,"outcome":"+1","keys":[],"total_keys":0,"block":1,"trial":65,"stimulus":5,"robot":2,"valence":"win","action":"no-go","sham":1,"trial_type":"pit-trial","trial_index":100,"time_elapsed":744774,"internal_node_id":"0.0-72.0","task_version":"battery-v0.2-trt"},{"rune":"P","rune_set":"elianto","hex":"#f73b6a7A","correct":-1,"choice":32,"rt":899.8749998863786,"accuracy":0,"outcome":"-10","keys":[2400.2400001045316],"total_keys":1,"block":1,"trial":66,"stimulus":7,"robot":4,"valence":"lose","action":"no-go","sham":0,"trial_type":"pit-trial","trial_index":101,"time_elapsed":748378,"internal_node_id":"0.0-73.0","task_version":"battery-v0.2-trt"},{"rune":"S","rune_set":"elianto","hex":"#3366ff99","correct":32,"choice":32,"rt":947.7299998980016,"accuracy":1,"outcome":"+10","keys":[2448.165000183508],"total_keys":1,"block":1,"trial":67,"stimulus":6,"robot":1,"valence":"win","action":"go","sham":0,"trial_type":"pit-trial","trial_index":102,"time_elapsed":752031,"internal_node_id":"0.0-74.0","task_version":"battery-v0.2-trt"},{"rune":"E","rune_set":"elianto","hex":"#f73b6a7A","correct":32,"choice":32,"rt":1282.8899999149144,"accuracy":1,"outcome":"-1","keys":[2783.610000042245],"total_keys":1,"block":1,"trial":68,"stimulus":4,"robot":3,"valence":"lose","action":"go","sham":0,"trial_type":"pit-trial","trial_index":103,"time_elapsed":756018,"internal_node_id":"0.0-75.0","task_version":"battery-v0.2-trt"},{"rune":"E","rune_set":"elianto","hex":"#f73b6a7A","correct":32,"choice":32,"rt":891.194999916479,"accuracy":1,"outcome":"-1","keys":[2391.9249998871237],"total_keys":1,"block":1,"trial":69,"stimulus":4,"robot":3,"valence":"lose","action":"go","sham":0,"trial_type":"pit-trial","trial_index":104,"time_elapsed":759615,"internal_node_id":"0.0-76.0","task_version":"battery-v0.2-trt"},{"rune":"W","rune_set":"elianto","hex":"#3366ff99","correct":-1,"choice":32,"rt":1194.6700001135468,"accuracy":0,"outcome":"+1","keys":[2695.280000101775],"total_keys":1,"block":1,"trial":70,"stimulus":5,"robot":2,"valence":"win","action":"no-go","sham":0,"trial_type":"pit-trial","trial_index":105,"time_elapsed":763515,"internal_node_id":"0.0-77.0","task_version":"battery-v0.2-trt"},{"rune":"P","rune_set":"elianto","hex":"#f73b6a7A","correct":-1,"choice":32,"rt":930.3550000768155,"accuracy":0,"outcome":"-1","keys":[2430.9050000738353],"total_keys":1,"block":1,"trial":71,"stimulus":7,"robot":4,"valence":"lose","action":"no-go","sham":1,"trial_type":"pit-trial","trial_index":106,"time_elapsed":767149,"internal_node_id":"0.0-78.0","task_version":"battery-v0.2-trt"},{"rune":"S","rune_set":"elianto","hex":"#3366ff99","correct":32,"choice":32,"rt":991.7400002013892,"accuracy":1,"outcome":"+10","keys":[2493.3199998922646],"total_keys":1,"block":1,"trial":72,"stimulus":6,"robot":1,"valence":"win","action":"go","sham":0,"trial_type":"pit-trial","trial_index":107,"time_elapsed":770845,"internal_node_id":"0.0-79.0","task_version":"battery-v0.2-trt"},{"rune":"P","rune_set":"elianto","hex":"#f73b6a7A","correct":-1,"choice":32,"rt":970.48500017263,"accuracy":0,"outcome":"-1","keys":[2471.6300000436604],"total_keys":1,"block":1,"trial":73,"stimulus":7,"robot":4,"valence":"lose","action":"no-go","sham":1,"trial_type":"pit-trial","trial_index":108,"time_elapsed":774522,"internal_node_id":"0.0-80.0","task_version":"battery-v0.2-trt"},{"rune":"A","rune_set":"elianto","hex":"#f73b6a7A","correct":32,"choice":32,"rt":1185.605000006035,"accuracy":1,"outcome":"-1","keys":[2686.6900001186877],"total_keys":1,"block":1,"trial":74,"stimulus":9,"robot":3,"valence":"lose","action":"go","sham":0,"trial_type":"pit-trial","trial_index":109,"time_elapsed":778413,"internal_node_id":"0.0-81.0","task_version":"battery-v0.2-trt"},{"rune":"W","rune_set":"elianto","hex":"#3366ff99","correct":-1,"choice":-1,"rt":-1,"accuracy":1,"outcome":"+10","keys":[],"total_keys":0,"block":1,"trial":75,"stimulus":5,"robot":2,"valence":"win","action":"no-go","sham":0,"trial_type":"pit-trial","trial_index":110,"time_elapsed":782419,"internal_node_id":"0.0-82.0","task_version":"battery-v0.2-trt"},{"rune":"G","rune_set":"elianto","hex":"#3366ff99","correct":32,"choice":32,"rt":955.8099999558181,"accuracy":1,"outcome":"+10","keys":[2456.4750001300126],"total_keys":1,"block":1,"trial":76,"stimulus":8,"robot":1,"valence":"win","action":"go","sham":0,"trial_type":"pit-trial","trial_index":111,"time_elapsed":786081,"internal_node_id":"0.0-83.0","task_version":"battery-v0.2-trt"},{"rune":"G","rune_set":"elianto","hex":"#3366ff99","correct":32,"choice":32,"rt":932.8100001439452,"accuracy":1,"outcome":"+1","keys":[2433.9350000955164],"total_keys":1,"block":1,"trial":77,"stimulus":8,"robot":1,"valence":"win","action":"go","sham":1,"trial_type":"pit-trial","trial_index":112,"time_elapsed":789719,"internal_node_id":"0.0-84.0","task_version":"battery-v0.2-trt"},{"rune":"W","rune_set":"elianto","hex":"#3366ff99","correct":-1,"choice":32,"rt":1070.4650001134723,"accuracy":0,"outcome":"+1","keys":[2570.894999895245],"total_keys":1,"block":1,"trial":78,"stimulus":5,"robot":2,"valence":"win","action":"no-go","sham":0,"trial_type":"pit-trial","trial_index":113,"time_elapsed":793493,"internal_node_id":"0.0-85.0","task_version":"battery-v0.2-trt"},{"rune":"A","rune_set":"elianto","hex":"#f73b6a7A","correct":32,"choice":32,"rt":947.3999999463558,"accuracy":1,"outcome":"-10","keys":[2447.995000053197],"total_keys":1,"block":1,"trial":79,"stimulus":9,"robot":3,"valence":"lose","action":"go","sham":1,"trial_type":"pit-trial","trial_index":114,"time_elapsed":797145,"internal_node_id":"0.0-86.0","task_version":"battery-v0.2-trt"},{"rune":"P","rune_set":"elianto","hex":"#f73b6a7A","correct":-1,"choice":-1,"rt":-1,"accuracy":1,"outcome":"-1","keys":[],"total_keys":0,"block":1,"trial":80,"stimulus":7,"robot":4,"valence":"lose","action":"no-go","sham":0,"trial_type":"pit-trial","trial_index":115,"time_elapsed":801149,"internal_node_id":"0.0-87.0","task_version":"battery-v0.2-trt"},{"rune":"W","rune_set":"elianto","hex":"#3366ff99","correct":-1,"choice":32,"rt":1163.3850000798702,"accuracy":0,"outcome":"+10","keys":[2663.685000035912],"total_keys":1,"block":1,"trial":81,"stimulus":5,"robot":2,"valence":"win","action":"no-go","sham":1,"trial_type":"pit-trial","trial_index":116,"time_elapsed":805017,"internal_node_id":"0.0-88.0","task_version":"battery-v0.2-trt"},{"rune":"A","rune_set":"elianto","hex":"#f73b6a7A","correct":32,"choice":-1,"rt":-1,"accuracy":0,"outcome":"-10","keys":[],"total_keys":0,"block":1,"trial":82,"stimulus":9,"robot":3,"valence":"lose","action":"go","sham":0,"trial_type":"pit-trial","trial_index":117,"time_elapsed":809023,"internal_node_id":"0.0-89.0","task_version":"battery-v0.2-trt"},{"rune":"P","rune_set":"elianto","hex":"#f73b6a7A","correct":-1,"choice":32,"rt":878.4350000787526,"accuracy":0,"outcome":"-10","keys":[2378.7149998825043],"total_keys":1,"block":1,"trial":83,"stimulus":7,"robot":4,"valence":"lose","action":"no-go","sham":0,"trial_type":"pit-trial","trial_index":118,"time_elapsed":812605,"internal_node_id":"0.0-90.0","task_version":"battery-v0.2-trt"},{"rune":"G","rune_set":"elianto","hex":"#3366ff99","correct":32,"choice":32,"rt":1059.2050000559539,"accuracy":1,"outcome":"+10","keys":[2559.455000096932],"total_keys":1,"block":1,"trial":84,"stimulus":8,"robot":1,"valence":"win","action":"go","sham":0,"trial_type":"pit-trial","trial_index":119,"time_elapsed":816368,"internal_node_id":"0.0-91.0","task_version":"battery-v0.2-trt"},{"rune":"A","rune_set":"elianto","hex":"#f73b6a7A","correct":32,"choice":-1,"rt":-1,"accuracy":0,"outcome":"-10","keys":[],"total_keys":0,"block":1,"trial":85,"stimulus":9,"robot":3,"valence":"lose","action":"go","sham":0,"trial_type":"pit-trial","trial_index":120,"time_elapsed":820373,"internal_node_id":"0.0-92.0","task_version":"battery-v0.2-trt"},{"rune":"P","rune_set":"elianto","hex":"#f73b6a7A","correct":-1,"choice":32,"rt":779.575000051409,"accuracy":0,"outcome":"-10","keys":[2280.504999915138],"total_keys":1,"block":1,"trial":86,"stimulus":7,"robot":4,"valence":"lose","action":"no-go","sham":0,"trial_type":"pit-trial","trial_index":121,"time_elapsed":823858,"internal_node_id":"0.0-93.0","task_version":"battery-v0.2-trt"},{"rune":"G","rune_set":"elianto","hex":"#3366ff99","correct":32,"choice":-1,"rt":-1,"accuracy":0,"outcome":"+10","keys":[],"total_keys":0,"block":1,"trial":87,"stimulus":8,"robot":1,"valence":"win","action":"go","sham":1,"trial_type":"pit-trial","trial_index":122,"time_elapsed":827865,"internal_node_id":"0.0-94.0","task_version":"battery-v0.2-trt"},{"rune":"W","rune_set":"elianto","hex":"#3366ff99","correct":-1,"choice":-1,"rt":-1,"accuracy":1,"outcome":"+10","keys":[],"total_keys":0,"block":1,"trial":88,"stimulus":5,"robot":2,"valence":"win","action":"no-go","sham":0,"trial_type":"pit-trial","trial_index":123,"time_elapsed":831875,"internal_node_id":"0.0-95.0","task_version":"battery-v0.2-trt"},{"rune":"G","rune_set":"elianto","hex":"#3366ff99","correct":32,"choice":-1,"rt":-1,"accuracy":0,"outcome":"+1","keys":[],"total_keys":0,"block":1,"trial":89,"stimulus":8,"robot":1,"valence":"win","action":"go","sham":0,"trial_type":"pit-trial","trial_index":124,"time_elapsed":835881,"internal_node_id":"0.0-96.0","task_version":"battery-v0.2-trt"},{"rune":"U","rune_set":"elianto","hex":"#3366ff99","correct":-1,"choice":32,"rt":787.9500000271946,"accuracy":0,"outcome":"+1","keys":[2288.8350000139326],"total_keys":1,"block":1,"trial":90,"stimulus":11,"robot":2,"valence":"win","action":"no-go","sham":0,"trial_type":"pit-trial","trial_index":125,"time_elapsed":839375,"internal_node_id":"0.0-97.0","task_version":"battery-v0.2-trt"},{"rune":"L","rune_set":"elianto","hex":"#f73b6a7A","correct":32,"choice":-1,"rt":-1,"accuracy":0,"outcome":"-1","keys":[],"total_keys":0,"block":1,"trial":91,"stimulus":10,"robot":3,"valence":"lose","action":"go","sham":1,"trial_type":"pit-trial","trial_index":126,"time_elapsed":843378,"internal_node_id":"0.0-98.0","task_version":"battery-v0.2-trt"},{"rune":"A","rune_set":"elianto","hex":"#f73b6a7A","correct":32,"choice":-1,"rt":-1,"accuracy":0,"outcome":"-10","keys":[],"total_keys":0,"block":1,"trial":92,"stimulus":9,"robot":3,"valence":"lose","action":"go","sham":0,"trial_type":"pit-trial","trial_index":127,"time_elapsed":847383,"internal_node_id":"0.0-99.0","task_version":"battery-v0.2-trt"},{"rune":"G","rune_set":"elianto","hex":"#3366ff99","correct":32,"choice":32,"rt":796.0800000000745,"accuracy":1,"outcome":"+10","keys":[2296.6899999883026],"total_keys":1,"block":1,"trial":93,"stimulus":8,"robot":1,"valence":"win","action":"go","sham":0,"trial_type":"pit-trial","trial_index":128,"time_elapsed":850882,"internal_node_id":"0.0-100.0","task_version":"battery-v0.2-trt"},{"rune":"U","rune_set":"elianto","hex":"#3366ff99","correct":-1,"choice":-1,"rt":-1,"accuracy":1,"outcome":"+1","keys":[],"total_keys":0,"block":1,"trial":94,"stimulus":11,"robot":2,"valence":"win","action":"no-go","sham":1,"trial_type":"pit-trial","trial_index":129,"time_elapsed":854889,"internal_node_id":"0.0-101.0","task_version":"battery-v0.2-trt"},{"rune":"L","rune_set":"elianto","hex":"#f73b6a7A","correct":32,"choice":-1,"rt":-1,"accuracy":0,"outcome":"-10","keys":[2980.94499995932],"total_keys":1,"block":1,"trial":95,"stimulus":10,"robot":3,"valence":"lose","action":"go","sham":0,"trial_type":"pit-trial","trial_index":130,"time_elapsed":858895,"internal_node_id":"0.0-102.0","task_version":"battery-v0.2-trt"},{"rune":"A","rune_set":"elianto","hex":"#f73b6a7A","correct":32,"choice":32,"rt":747.8600000031292,"accuracy":1,"outcome":"-1","keys":[2248.704999918118],"total_keys":1,"block":1,"trial":96,"stimulus":9,"robot":3,"valence":"lose","action":"go","sham":0,"trial_type":"pit-trial","trial_index":131,"time_elapsed":862348,"internal_node_id":"0.0-103.0","task_version":"battery-v0.2-trt"},{"rune":"G","rune_set":"elianto","hex":"#3366ff99","correct":32,"choice":32,"rt":737.5250000040978,"accuracy":1,"outcome":"+10","keys":[2238.5500001255423],"total_keys":1,"block":1,"trial":97,"stimulus":8,"robot":1,"valence":"win","action":"go","sham":0,"trial_type":"pit-trial","trial_index":132,"time_elapsed":865789,"internal_node_id":"0.0-104.0","task_version":"battery-v0.2-trt"},{"rune":"U","rune_set":"elianto","hex":"#3366ff99","correct":-1,"choice":32,"rt":1063.4850000496954,"accuracy":0,"outcome":"+10","keys":[2565.0849998928607],"total_keys":1,"block":1,"trial":98,"stimulus":11,"robot":2,"valence":"win","action":"no-go","sham":1,"trial_type":"pit-trial","trial_index":133,"time_elapsed":869560,"internal_node_id":"0.0-105.0","task_version":"battery-v0.2-trt"},{"rune":"A","rune_set":"elianto","hex":"#f73b6a7A","correct":32,"choice":-1,"rt":-1,"accuracy":0,"outcome":"-10","keys":[],"total_keys":0,"block":1,"trial":99,"stimulus":9,"robot":3,"valence":"lose","action":"go","sham":0,"trial_type":"pit-trial","trial_index":134,"time_elapsed":873567,"internal_node_id":"0.0-106.0","task_version":"battery-v0.2-trt"},{"rune":"L","rune_set":"elianto","hex":"#f73b6a7A","correct":32,"choice":32,"rt":1239.5550000946969,"accuracy":1,"outcome":"-1","keys":[2739.5500000566244],"total_keys":1,"block":1,"trial":100,"stimulus":10,"robot":3,"valence":"lose","action":"go","sham":0,"trial_type":"pit-trial","trial_index":135,"time_elapsed":877511,"internal_node_id":"0.0-107.0","task_version":"battery-v0.2-trt"},{"rune":"U","rune_set":"elianto","hex":"#3366ff99","correct":-1,"choice":-1,"rt":-1,"accuracy":1,"outcome":"+10","keys":[2827.280000085011],"total_keys":1,"block":1,"trial":101,"stimulus":11,"robot":2,"valence":"win","action":"no-go","sham":0,"trial_type":"pit-trial","trial_index":136,"time_elapsed":881516,"internal_node_id":"0.0-108.0","task_version":"battery-v0.2-trt"},{"rune":"L","rune_set":"elianto","hex":"#f73b6a7A","correct":32,"choice":32,"rt":1278.2749999314547,"accuracy":1,"outcome":"-1","keys":[2779.1399999987334],"total_keys":1,"block":1,"trial":102,"stimulus":10,"robot":3,"valence":"lose","action":"go","sham":0,"trial_type":"pit-trial","trial_index":137,"time_elapsed":885500,"internal_node_id":"0.0-109.0","task_version":"battery-v0.2-trt"},{"rune":"A","rune_set":"elianto","hex":"#f73b6a7A","correct":32,"choice":32,"rt":1188.2199998944998,"accuracy":1,"outcome":"-1","keys":[2688.8300001155585],"total_keys":1,"block":1,"trial":103,"stimulus":9,"robot":3,"valence":"lose","action":"go","sham":0,"trial_type":"pit-trial","trial_index":138,"time_elapsed":889392,"internal_node_id":"0.0-110.0","task_version":"battery-v0.2-trt"},{"rune":"G","rune_set":"elianto","hex":"#3366ff99","correct":32,"choice":32,"rt":648.6299999523908,"accuracy":1,"outcome":"+10","keys":[2149.7800000943244],"total_keys":1,"block":1,"trial":104,"stimulus":8,"robot":1,"valence":"win","action":"go","sham":0,"trial_type":"pit-trial","trial_index":139,"time_elapsed":892745,"internal_node_id":"0.0-111.0","task_version":"battery-v0.2-trt"},{"rune":"G","rune_set":"elianto","hex":"#3366ff99","correct":32,"choice":32,"rt":664.7900000680238,"accuracy":1,"outcome":"+10","keys":[2166.7800000868738],"total_keys":1,"block":1,"trial":105,"stimulus":8,"robot":1,"valence":"win","action":"go","sham":0,"trial_type":"pit-trial","trial_index":140,"time_elapsed":896116,"internal_node_id":"0.0-112.0","task_version":"battery-v0.2-trt"},{"rune":"A","rune_set":"elianto","hex":"#f73b6a7A","correct":32,"choice":32,"rt":635.7999998144805,"accuracy":1,"outcome":"-10","keys":[2136.515000136569],"total_keys":1,"block":1,"trial":106,"stimulus":9,"robot":3,"valence":"lose","action":"go","sham":1,"trial_type":"pit-trial","trial_index":141,"time_elapsed":899457,"internal_node_id":"0.0-113.0","task_version":"battery-v0.2-trt"},{"rune":"U","rune_set":"elianto","hex":"#3366ff99","correct":-1,"choice":32,"rt":1059.150000102818,"accuracy":0,"outcome":"+1","keys":[2559.8549998831004],"total_keys":1,"block":1,"trial":107,"stimulus":11,"robot":2,"valence":"win","action":"no-go","sham":0,"trial_type":"pit-trial","trial_index":142,"time_elapsed":903219,"internal_node_id":"0.0-114.0","task_version":"battery-v0.2-trt"},{"rune":"L","rune_set":"elianto","hex":"#f73b6a7A","correct":32,"choice":-1,"rt":-1,"accuracy":0,"outcome":"-10","keys":[],"total_keys":0,"block":1,"trial":108,"stimulus":10,"robot":3,"valence":"lose","action":"go","sham":0,"trial_type":"pit-trial","trial_index":143,"time_elapsed":907223,"internal_node_id":"0.0-115.0","task_version":"battery-v0.2-trt"},{"rune":"U","rune_set":"elianto","hex":"#3366ff99","correct":-1,"choice":-1,"rt":-1,"accuracy":1,"outcome":"+10","keys":[],"total_keys":0,"block":1,"trial":109,"stimulus":11,"robot":2,"valence":"win","action":"no-go","sham":0,"trial_type":"pit-trial","trial_index":144,"time_elapsed":911228,"internal_node_id":"0.0-116.0","task_version":"battery-v0.2-trt"},{"rune":"A","rune_set":"elianto","hex":"#f73b6a7A","correct":32,"choice":-1,"rt":-1,"accuracy":0,"outcome":"-10","keys":[],"total_keys":0,"block":1,"trial":110,"stimulus":9,"robot":3,"valence":"lose","action":"go","sham":0,"trial_type":"pit-trial","trial_index":145,"time_elapsed":915232,"internal_node_id":"0.0-117.0","task_version":"battery-v0.2-trt"},{"rune":"L","rune_set":"elianto","hex":"#f73b6a7A","correct":32,"choice":32,"rt":1007.1350000798702,"accuracy":1,"outcome":"-1","keys":[2508.495000191033],"total_keys":1,"block":1,"trial":111,"stimulus":10,"robot":3,"valence":"lose","action":"go","sham":0,"trial_type":"pit-trial","trial_index":146,"time_elapsed":918946,"internal_node_id":"0.0-118.0","task_version":"battery-v0.2-trt"},{"rune":"G","rune_set":"elianto","hex":"#3366ff99","correct":32,"choice":32,"rt":556.4300001133233,"accuracy":1,"outcome":"+10","keys":[2056.4600001089275],"total_keys":1,"block":1,"trial":112,"stimulus":8,"robot":1,"valence":"win","action":"go","sham":0,"trial_type":"pit-trial","trial_index":147,"time_elapsed":922207,"internal_node_id":"0.0-119.0","task_version":"battery-v0.2-trt"},{"rune":"L","rune_set":"elianto","hex":"#f73b6a7A","correct":32,"choice":32,"rt":563.8299998827279,"accuracy":1,"outcome":"-1","keys":[2064.9049999192357],"total_keys":1,"block":1,"trial":113,"stimulus":10,"robot":3,"valence":"lose","action":"go","sham":0,"trial_type":"pit-trial","trial_index":148,"time_elapsed":925476,"internal_node_id":"0.0-120.0","task_version":"battery-v0.2-trt"},{"rune":"G","rune_set":"elianto","hex":"#3366ff99","correct":32,"choice":32,"rt":462.07999996840954,"accuracy":1,"outcome":"+10","keys":[1963.0499999038875],"total_keys":1,"block":1,"trial":114,"stimulus":8,"robot":1,"valence":"win","action":"go","sham":0,"trial_type":"pit-trial","trial_index":149,"time_elapsed":928643,"internal_node_id":"0.0-121.0","task_version":"battery-v0.2-trt"},{"rune":"U","rune_set":"elianto","hex":"#3366ff99","correct":-1,"choice":32,"rt":884.265000000596,"accuracy":0,"outcome":"+1","keys":[2384.6800001338124],"total_keys":1,"block":1,"trial":115,"stimulus":11,"robot":2,"valence":"win","action":"no-go","sham":0,"trial_type":"pit-trial","trial_index":150,"time_elapsed":932233,"internal_node_id":"0.0-122.0","task_version":"battery-v0.2-trt"},{"rune":"A","rune_set":"elianto","hex":"#f73b6a7A","correct":32,"choice":-1,"rt":-1,"accuracy":0,"outcome":"-10","keys":[2890.98499994725],"total_keys":1,"block":1,"trial":116,"stimulus":9,"robot":3,"valence":"lose","action":"go","sham":0,"trial_type":"pit-trial","trial_index":151,"time_elapsed":936240,"internal_node_id":"0.0-123.0","task_version":"battery-v0.2-trt"},{"rune":"A","rune_set":"elianto","hex":"#f73b6a7A","correct":32,"choice":32,"rt":877.6899999938905,"accuracy":1,"outcome":"-1","keys":[2377.8350001666695],"total_keys":1,"block":1,"trial":117,"stimulus":9,"robot":3,"valence":"lose","action":"go","sham":0,"trial_type":"pit-trial","trial_index":152,"time_elapsed":939823,"internal_node_id":"0.0-124.0","task_version":"battery-v0.2-trt"},{"rune":"G","rune_set":"elianto","hex":"#3366ff99","correct":32,"choice":32,"rt":920.3599998727441,"accuracy":1,"outcome":"+1","keys":[2421.104999957606],"total_keys":1,"block":1,"trial":118,"stimulus":8,"robot":1,"valence":"win","action":"go","sham":1,"trial_type":"pit-trial","trial_index":153,"time_elapsed":943449,"internal_node_id":"0.0-125.0","task_version":"battery-v0.2-trt"},{"rune":"L","rune_set":"elianto","hex":"#f73b6a7A","correct":32,"choice":-1,"rt":-1,"accuracy":0,"outcome":"-1","keys":[2866.8200001120567],"total_keys":1,"block":1,"trial":119,"stimulus":10,"robot":3,"valence":"lose","action":"go","sham":1,"trial_type":"pit-trial","trial_index":154,"time_elapsed":947453,"internal_node_id":"0.0-126.0","task_version":"battery-v0.2-trt"},{"rune":"U","rune_set":"elianto","hex":"#3366ff99","correct":-1,"choice":32,"rt":1268.004999961704,"accuracy":0,"outcome":"+1","keys":[2768.7350001651794],"total_keys":1,"block":1,"trial":120,"stimulus":11,"robot":2,"valence":"win","action":"no-go","sham":0,"trial_type":"pit-trial","trial_index":155,"time_elapsed":951426,"internal_node_id":"0.0-127.0","task_version":"battery-v0.2-trt"},{"view_history":"[{\"page_index\":0,\"viewing_time\":10996.279999846593},{\"page_index\":1,\"viewing_time\":7152.010000078008}]","rt":18148.679999867454,"trial_type":"pit-instructions","trial_index":156,"time_elapsed":969578,"internal_node_id":"0.0-128.0","task_version":"battery-v0.2-trt"},{"rune":"F","rune_set":"elianto","hex":"#f73b6a7A","correct":-1,"choice":32,"rt":708.9350000023842,"accuracy":0,"outcome":"-10","keys":[2209.7400000784546],"total_keys":1,"block":2,"trial":121,"stimulus":2,"robot":4,"valence":"lose","action":"no-go","sham":0,"trial_type":"pit-trial","trial_index":157,"time_elapsed":973000,"internal_node_id":"0.0-129.0","task_version":"battery-v0.2-trt"},{"rune":"X","rune_set":"elianto","hex":"#3366ff99","correct":32,"choice":32,"rt":768.8249999191612,"accuracy":1,"outcome":"+10","keys":[2269.0500000026077],"total_keys":1,"block":2,"trial":122,"stimulus":3,"robot":1,"valence":"win","action":"go","sham":0,"trial_type":"pit-trial","trial_index":158,"time_elapsed":976472,"internal_node_id":"0.0-130.0","task_version":"battery-v0.2-trt"},{"rune":"Q","rune_set":"elianto","hex":"#3366ff99","correct":-1,"choice":32,"rt":832.7849998604506,"accuracy":0,"outcome":"+1","keys":[2333.5750000551343],"total_keys":1,"block":2,"trial":123,"stimulus":0,"robot":2,"valence":"win","action":"no-go","sham":0,"trial_type":"pit-trial","trial_index":159,"time_elapsed":980009,"internal_node_id":"0.0-131.0","task_version":"battery-v0.2-trt"},{"rune":"N","rune_set":"elianto","hex":"#3366ff99","correct":32,"choice":32,"rt":1289.8399999830872,"accuracy":1,"outcome":"+10","keys":[2790.5950001440942],"total_keys":1,"block":2,"trial":124,"stimulus":1,"robot":1,"valence":"win","action":"go","sham":0,"trial_type":"pit-trial","trial_index":160,"time_elapsed":984004,"internal_node_id":"0.0-132.0","task_version":"battery-v0.2-trt"},{"rune":"X","rune_set":"elianto","hex":"#3366ff99","correct":32,"choice":32,"rt":831.620000069961,"accuracy":1,"outcome":"+10","keys":[2332.16999983415],"total_keys":1,"block":2,"trial":125,"stimulus":3,"robot":1,"valence":"win","action":"go","sham":0,"trial_type":"pit-trial","trial_index":161,"time_elapsed":987541,"internal_node_id":"0.0-133.0","task_version":"battery-v0.2-trt"},{"rune":"F","rune_set":"elianto","hex":"#f73b6a7A","correct":-1,"choice":-1,"rt":-1,"accuracy":1,"outcome":"-1","keys":[],"total_keys":0,"block":2,"trial":126,"stimulus":2,"robot":4,"valence":"lose","action":"no-go","sham":0,"trial_type":"pit-trial","trial_index":162,"time_elapsed":991545,"internal_node_id":"0.0-134.0","task_version":"battery-v0.2-trt"},{"rune":"N","rune_set":"elianto","hex":"#3366ff99","correct":32,"choice":32,"rt":927.8300001751631,"accuracy":1,"outcome":"+10","keys":[2428.760000038892],"total_keys":1,"block":2,"trial":127,"stimulus":1,"robot":1,"valence":"win","action":"go","sham":0,"trial_type":"pit-trial","trial_index":163,"time_elapsed":995177,"internal_node_id":"0.0-135.0","task_version":"battery-v0.2-trt"},{"rune":"Q","rune_set":"elianto","hex":"#3366ff99","correct":-1,"choice":-1,"rt":-1,"accuracy":1,"outcome":"+10","keys":[],"total_keys":0,"block":2,"trial":128,"stimulus":0,"robot":2,"valence":"win","action":"no-go","sham":0,"trial_type":"pit-trial","trial_index":164,"time_elapsed":999180,"internal_node_id":"0.0-136.0","task_version":"battery-v0.2-trt"},{"rune":"N","rune_set":"elianto","hex":"#3366ff99","correct":32,"choice":32,"rt":995.060000102967,"accuracy":1,"outcome":"+10","keys":[2495.864999946207],"total_keys":1,"block":2,"trial":129,"stimulus":1,"robot":1,"valence":"win","action":"go","sham":0,"trial_type":"pit-trial","trial_index":165,"time_elapsed":1002886,"internal_node_id":"0.0-137.0","task_version":"battery-v0.2-trt"},{"rune":"Q","rune_set":"elianto","hex":"#3366ff99","correct":-1,"choice":-1,"rt":-1,"accuracy":1,"outcome":"+10","keys":[],"total_keys":0,"block":2,"trial":130,"stimulus":0,"robot":2,"valence":"win","action":"no-go","sham":0,"trial_type":"pit-trial","trial_index":166,"time_elapsed":1006891,"internal_node_id":"0.0-138.0","task_version":"battery-v0.2-trt"},{"rune":"X","rune_set":"elianto","hex":"#3366ff99","correct":32,"choice":-1,"rt":-1,"accuracy":0,"outcome":"+1","keys":[],"total_keys":0,"block":2,"trial":131,"stimulus":3,"robot":1,"valence":"win","action":"go","sham":0,"trial_type":"pit-trial","trial_index":167,"time_elapsed":1010895,"internal_node_id":"0.0-139.0","task_version":"battery-v0.2-trt"},{"rune":"F","rune_set":"elianto","hex":"#f73b6a7A","correct":-1,"choice":-1,"rt":-1,"accuracy":1,"outcome":"-10","keys":[],"total_keys":0,"block":2,"trial":132,"stimulus":2,"robot":4,"valence":"lose","action":"no-go","sham":1,"trial_type":"pit-trial","trial_index":168,"time_elapsed":1014905,"internal_node_id":"0.0-140.0","task_version":"battery-v0.2-trt"},{"rune":"F","rune_set":"elianto","hex":"#f73b6a7A","correct":-1,"choice":32,"rt":970.2100001741201,"accuracy":0,"outcome":"-10","keys":[2470.4599999822676],"total_keys":1,"block":2,"trial":133,"stimulus":2,"robot":4,"valence":"lose","action":"no-go","sham":0,"trial_type":"pit-trial","trial_index":169,"time_elapsed":1018580,"internal_node_id":"0.0-141.0","task_version":"battery-v0.2-trt"},{"rune":"N","rune_set":"elianto","hex":"#3366ff99","correct":32,"choice":32,"rt":1134.4699999317527,"accuracy":1,"outcome":"+1","keys":[2634.6899999771267],"total_keys":1,"block":2,"trial":134,"stimulus":1,"robot":1,"valence":"win","action":"go","sham":1,"trial_type":"pit-trial","trial_index":170,"time_elapsed":1022418,"internal_node_id":"0.0-142.0","task_version":"battery-v0.2-trt"},{"rune":"X","rune_set":"elianto","hex":"#3366ff99","correct":32,"choice":32,"rt":728.2849999610335,"accuracy":1,"outcome":"+10","keys":[2228.8850001059473],"total_keys":1,"block":2,"trial":135,"stimulus":3,"robot":1,"valence":"win","action":"go","sham":0,"trial_type":"pit-trial","trial_index":171,"time_elapsed":1025853,"internal_node_id":"0.0-143.0","task_version":"battery-v0.2-trt"},{"rune":"Q","rune_set":"elianto","hex":"#3366ff99","correct":-1,"choice":-1,"rt":-1,"accuracy":1,"outcome":"+1","keys":[],"total_keys":0,"block":2,"trial":136,"stimulus":0,"robot":2,"valence":"win","action":"no-go","sham":1,"trial_type":"pit-trial","trial_index":172,"time_elapsed":1029859,"internal_node_id":"0.0-144.0","task_version":"battery-v0.2-trt"},{"rune":"N","rune_set":"elianto","hex":"#3366ff99","correct":32,"choice":-1,"rt":-1,"accuracy":0,"outcome":"+1","keys":[],"total_keys":0,"block":2,"trial":137,"stimulus":1,"robot":1,"valence":"win","action":"go","sham":0,"trial_type":"pit-trial","trial_index":173,"time_elapsed":1033865,"internal_node_id":"0.0-145.0","task_version":"battery-v0.2-trt"},{"rune":"X","rune_set":"elianto","hex":"#3366ff99","correct":32,"choice":32,"rt":962.4050001148134,"accuracy":1,"outcome":"+10","keys":[2462.855000048876],"total_keys":1,"block":2,"trial":138,"stimulus":3,"robot":1,"valence":"win","action":"go","sham":0,"trial_type":"pit-trial","trial_index":174,"time_elapsed":1037533,"internal_node_id":"0.0-146.0","task_version":"battery-v0.2-trt"},{"rune":"F","rune_set":"elianto","hex":"#f73b6a7A","correct":-1,"choice":-1,"rt":-1,"accuracy":1,"outcome":"-1","keys":[],"total_keys":0,"block":2,"trial":139,"stimulus":2,"robot":4,"valence":"lose","action":"no-go","sham":0,"trial_type":"pit-trial","trial_index":175,"time_elapsed":1041539,"internal_node_id":"0.0-147.0","task_version":"battery-v0.2-trt"},{"rune":"Q","rune_set":"elianto","hex":"#3366ff99","correct":-1,"choice":32,"rt":777.9699999373406,"accuracy":0,"outcome":"+10","keys":[2278.9400001056492],"total_keys":1,"block":2,"trial":140,"stimulus":0,"robot":2,"valence":"win","action":"no-go","sham":1,"trial_type":"pit-trial","trial_index":176,"time_elapsed":1045022,"internal_node_id":"0.0-148.0","task_version":"battery-v0.2-trt"},{"rune":"Q","rune_set":"elianto","hex":"#3366ff99","correct":-1,"choice":32,"rt":551.5950000844896,"accuracy":0,"outcome":"+10","keys":[2052.1899999585003],"total_keys":1,"block":2,"trial":141,"stimulus":0,"robot":2,"valence":"win","action":"no-go","sham":1,"trial_type":"pit-trial","trial_index":177,"time_elapsed":1048279,"internal_node_id":"0.0-149.0","task_version":"battery-v0.2-trt"},{"rune":"X","rune_set":"elianto","hex":"#3366ff99","correct":32,"choice":32,"rt":611.8600000627339,"accuracy":1,"outcome":"+1","keys":[2112.6749999821186],"total_keys":1,"block":2,"trial":142,"stimulus":3,"robot":1,"valence":"win","action":"go","sham":1,"trial_type":"pit-trial","trial_index":178,"time_elapsed":1051596,"internal_node_id":"0.0-150.0","task_version":"battery-v0.2-trt"},{"rune":"N","rune_set":"elianto","hex":"#3366ff99","correct":32,"choice":32,"rt":687.4299999326468,"accuracy":1,"outcome":"+10","keys":[2187.764999922365],"total_keys":1,"block":2,"trial":143,"stimulus":1,"robot":1,"valence":"win","action":"go","sham":0,"trial_type":"pit-trial","trial_index":179,"time_elapsed":1054987,"internal_node_id":"0.0-151.0","task_version":"battery-v0.2-trt"},{"rune":"F","rune_set":"elianto","hex":"#f73b6a7A","correct":-1,"choice":-1,"rt":-1,"accuracy":1,"outcome":"-1","keys":[],"total_keys":0,"block":2,"trial":144,"stimulus":2,"robot":4,"valence":"lose","action":"no-go","sham":0,"trial_type":"pit-trial","trial_index":180,"time_elapsed":1058991,"internal_node_id":"0.0-152.0","task_version":"battery-v0.2-trt"},{"rune":"N","rune_set":"elianto","hex":"#3366ff99","correct":32,"choice":32,"rt":907.4599999003112,"accuracy":1,"outcome":"+1","keys":[2407.589999958873],"total_keys":1,"block":2,"trial":145,"stimulus":1,"robot":1,"valence":"win","action":"go","sham":1,"trial_type":"pit-trial","trial_index":181,"time_elapsed":1062604,"internal_node_id":"0.0-153.0","task_version":"battery-v0.2-trt"},{"rune":"F","rune_set":"elianto","hex":"#f73b6a7A","correct":-1,"choice":-1,"rt":-1,"accuracy":1,"outcome":"-1","keys":[],"total_keys":0,"block":2,"trial":146,"stimulus":2,"robot":4,"valence":"lose","action":"no-go","sham":0,"trial_type":"pit-trial","trial_index":182,"time_elapsed":1066609,"internal_node_id":"0.0-154.0","task_version":"battery-v0.2-trt"},{"rune":"Q","rune_set":"elianto","hex":"#3366ff99","correct":-1,"choice":32,"rt":525.5299999844283,"accuracy":0,"outcome":"+1","keys":[2026.480000000447],"total_keys":1,"block":2,"trial":147,"stimulus":0,"robot":2,"valence":"win","action":"no-go","sham":0,"trial_type":"pit-trial","trial_index":183,"time_elapsed":1069839,"internal_node_id":"0.0-155.0","task_version":"battery-v0.2-trt"},{"rune":"X","rune_set":"elianto","hex":"#3366ff99","correct":32,"choice":-1,"rt":-1,"accuracy":0,"outcome":"+1","keys":[3058.0749998334795],"total_keys":1,"block":2,"trial":148,"stimulus":3,"robot":1,"valence":"win","action":"go","sham":0,"trial_type":"pit-trial","trial_index":184,"time_elapsed":1073845,"internal_node_id":"0.0-156.0","task_version":"battery-v0.2-trt"},{"rune":"N","rune_set":"elianto","hex":"#3366ff99","correct":32,"choice":-1,"rt":-1,"accuracy":0,"outcome":"+1","keys":[],"total_keys":0,"block":2,"trial":149,"stimulus":1,"robot":1,"valence":"win","action":"go","sham":0,"trial_type":"pit-trial","trial_index":185,"time_elapsed":1077851,"internal_node_id":"0.0-157.0","task_version":"battery-v0.2-trt"},{"rune":"F","rune_set":"elianto","hex":"#f73b6a7A","correct":-1,"choice":-1,"rt":-1,"accuracy":1,"outcome":"-1","keys":[],"total_keys":0,"block":2,"trial":150,"stimulus":2,"robot":4,"valence":"lose","action":"no-go","sham":0,"trial_type":"pit-trial","trial_index":186,"time_elapsed":1081857,"internal_node_id":"0.0-158.0","task_version":"battery-v0.2-trt"},{"rune":"X","rune_set":"elianto","hex":"#3366ff99","correct":32,"choice":32,"rt":809.7449999768287,"accuracy":1,"outcome":"+10","keys":[2310.3150001261383],"total_keys":1,"block":2,"trial":151,"stimulus":3,"robot":1,"valence":"win","action":"go","sham":0,"trial_type":"pit-trial","trial_index":187,"time_elapsed":1085372,"internal_node_id":"0.0-159.0","task_version":"battery-v0.2-trt"},{"rune":"Q","rune_set":"elianto","hex":"#3366ff99","correct":-1,"choice":32,"rt":659.5799999777228,"accuracy":0,"outcome":"+1","keys":[2161.070000147447],"total_keys":1,"block":2,"trial":152,"stimulus":0,"robot":2,"valence":"win","action":"no-go","sham":0,"trial_type":"pit-trial","trial_index":188,"time_elapsed":1088738,"internal_node_id":"0.0-160.0","task_version":"battery-v0.2-trt"},{"rune":"F","rune_set":"elianto","hex":"#f73b6a7A","correct":-1,"choice":-1,"rt":-1,"accuracy":1,"outcome":"-1","keys":[],"total_keys":0,"block":2,"trial":153,"stimulus":2,"robot":4,"valence":"lose","action":"no-go","sham":0,"trial_type":"pit-trial","trial_index":189,"time_elapsed":1092740,"internal_node_id":"0.0-161.0","task_version":"battery-v0.2-trt"},{"rune":"T","rune_set":"elianto","hex":"#3366ff99","correct":32,"choice":32,"rt":902.8600000310689,"accuracy":1,"outcome":"+10","keys":[2403.470000019297],"total_keys":1,"block":2,"trial":154,"stimulus":4,"robot":1,"valence":"win","action":"go","sham":0,"trial_type":"pit-trial","trial_index":190,"time_elapsed":1096349,"internal_node_id":"0.0-162.0","task_version":"battery-v0.2-trt"},{"rune":"X","rune_set":"elianto","hex":"#3366ff99","correct":32,"choice":32,"rt":690.4800001066178,"accuracy":1,"outcome":"+10","keys":[2190.7899999059737],"total_keys":1,"block":2,"trial":155,"stimulus":3,"robot":1,"valence":"win","action":"go","sham":0,"trial_type":"pit-trial","trial_index":191,"time_elapsed":1099744,"internal_node_id":"0.0-163.0","task_version":"battery-v0.2-trt"},{"rune":"Q","rune_set":"elianto","hex":"#3366ff99","correct":-1,"choice":-1,"rt":-1,"accuracy":1,"outcome":"+10","keys":[],"total_keys":0,"block":2,"trial":156,"stimulus":0,"robot":2,"valence":"win","action":"no-go","sham":0,"trial_type":"pit-trial","trial_index":192,"time_elapsed":1103751,"internal_node_id":"0.0-164.0","task_version":"battery-v0.2-trt"},{"rune":"Q","rune_set":"elianto","hex":"#3366ff99","correct":-1,"choice":-1,"rt":-1,"accuracy":1,"outcome":"+10","keys":[],"total_keys":0,"block":2,"trial":157,"stimulus":0,"robot":2,"valence":"win","action":"no-go","sham":0,"trial_type":"pit-trial","trial_index":193,"time_elapsed":1107755,"internal_node_id":"0.0-165.0","task_version":"battery-v0.2-trt"},{"rune":"F","rune_set":"elianto","hex":"#f73b6a7A","correct":-1,"choice":-1,"rt":-1,"accuracy":1,"outcome":"-1","keys":[],"total_keys":0,"block":2,"trial":158,"stimulus":2,"robot":4,"valence":"lose","action":"no-go","sham":0,"trial_type":"pit-trial","trial_index":194,"time_elapsed":1111759,"internal_node_id":"0.0-166.0","task_version":"battery-v0.2-trt"},{"rune":"T","rune_set":"elianto","hex":"#3366ff99","correct":32,"choice":32,"rt":1041.1600000225008,"accuracy":1,"outcome":"+10","keys":[2541.3500000722706],"total_keys":1,"block":2,"trial":159,"stimulus":4,"robot":1,"valence":"win","action":"go","sham":0,"trial_type":"pit-trial","trial_index":195,"time_elapsed":1115504,"internal_node_id":"0.0-167.0","task_version":"battery-v0.2-trt"},{"rune":"X","rune_set":"elianto","hex":"#3366ff99","correct":32,"choice":32,"rt":714.6250000223517,"accuracy":1,"outcome":"+10","keys":[2214.9750001262873],"total_keys":1,"block":2,"trial":160,"stimulus":3,"robot":1,"valence":"win","action":"go","sham":0,"trial_type":"pit-trial","trial_index":196,"time_elapsed":1118923,"internal_node_id":"0.0-168.0","task_version":"battery-v0.2-trt"},{"rune":"B","rune_set":"elianto","hex":"#f73b6a7A","correct":32,"choice":32,"rt":811.1500001978129,"accuracy":1,"outcome":"-1","keys":[2312.2600000351667],"total_keys":1,"block":2,"trial":161,"stimulus":5,"robot":3,"valence":"lose","action":"go","sham":0,"trial_type":"pit-trial","trial_index":197,"time_elapsed":1122441,"internal_node_id":"0.0-169.0","task_version":"battery-v0.2-trt"},{"rune":"C","rune_set":"elianto","hex":"#f73b6a7A","correct":-1,"choice":32,"rt":1041.1099998746067,"accuracy":0,"outcome":"-10","keys":[2541.6899998672307],"total_keys":1,"block":2,"trial":162,"stimulus":6,"robot":4,"valence":"lose","action":"no-go","sham":0,"trial_type":"pit-trial","trial_index":198,"time_elapsed":1126187,"internal_node_id":"0.0-170.0","task_version":"battery-v0.2-trt"},{"rune":"Q","rune_set":"elianto","hex":"#3366ff99","correct":-1,"choice":-1,"rt":-1,"accuracy":1,"outcome":"+10","keys":[],"total_keys":0,"block":2,"trial":163,"stimulus":0,"robot":2,"valence":"win","action":"no-go","sham":0,"trial_type":"pit-trial","trial_index":199,"time_elapsed":1130192,"internal_node_id":"0.0-171.0","task_version":"battery-v0.2-trt"},{"rune":"T","rune_set":"elianto","hex":"#3366ff99","correct":32,"choice":32,"rt":597.7399998810142,"accuracy":1,"outcome":"+10","keys":[2099.644999951124],"total_keys":1,"block":2,"trial":164,"stimulus":4,"robot":1,"valence":"win","action":"go","sham":0,"trial_type":"pit-trial","trial_index":200,"time_elapsed":1133496,"internal_node_id":"0.0-172.0","task_version":"battery-v0.2-trt"},{"rune":"B","rune_set":"elianto","hex":"#f73b6a7A","correct":32,"choice":32,"rt":1141.234999988228,"accuracy":1,"outcome":"-1","keys":[2641.3450001273304],"total_keys":1,"block":2,"trial":165,"stimulus":5,"robot":3,"valence":"lose","action":"go","sham":0,"trial_type":"pit-trial","trial_index":201,"time_elapsed":1137342,"internal_node_id":"0.0-173.0","task_version":"battery-v0.2-trt"},{"rune":"T","rune_set":"elianto","hex":"#3366ff99","correct":32,"choice":32,"rt":694.4499998353422,"accuracy":1,"outcome":"+1","keys":[2194.649999961257],"total_keys":1,"block":2,"trial":166,"stimulus":4,"robot":1,"valence":"win","action":"go","sham":1,"trial_type":"pit-trial","trial_index":202,"time_elapsed":1140741,"internal_node_id":"0.0-174.0","task_version":"battery-v0.2-trt"},{"rune":"Q","rune_set":"elianto","hex":"#3366ff99","correct":-1,"choice":-1,"rt":-1,"accuracy":1,"outcome":"+10","keys":[],"total_keys":0,"block":2,"trial":167,"stimulus":0,"robot":2,"valence":"win","action":"no-go","sham":0,"trial_type":"pit-trial","trial_index":203,"time_elapsed":1144745,"internal_node_id":"0.0-175.0","task_version":"battery-v0.2-trt"},{"rune":"C","rune_set":"elianto","hex":"#f73b6a7A","correct":-1,"choice":-1,"rt":-1,"accuracy":1,"outcome":"-1","keys":[],"total_keys":0,"block":2,"trial":168,"stimulus":6,"robot":4,"valence":"lose","action":"no-go","sham":0,"trial_type":"pit-trial","trial_index":204,"time_elapsed":1148749,"internal_node_id":"0.0-176.0","task_version":"battery-v0.2-trt"},{"rune":"C","rune_set":"elianto","hex":"#f73b6a7A","correct":-1,"choice":-1,"rt":-1,"accuracy":1,"outcome":"-10","keys":[],"total_keys":0,"block":2,"trial":169,"stimulus":6,"robot":4,"valence":"lose","action":"no-go","sham":1,"trial_type":"pit-trial","trial_index":205,"time_elapsed":1152755,"internal_node_id":"0.0-177.0","task_version":"battery-v0.2-trt"},{"rune":"T","rune_set":"elianto","hex":"#3366ff99","correct":32,"choice":32,"rt":727.5149999186397,"accuracy":1,"outcome":"+10","keys":[2228.9700000546873],"total_keys":1,"block":2,"trial":170,"stimulus":4,"robot":1,"valence":"win","action":"go","sham":0,"trial_type":"pit-trial","trial_index":206,"time_elapsed":1156189,"internal_node_id":"0.0-178.0","task_version":"battery-v0.2-trt"},{"rune":"B","rune_set":"elianto","hex":"#f73b6a7A","correct":32,"choice":32,"rt":948.0350001249462,"accuracy":1,"outcome":"-10","keys":[2449.259999906644],"total_keys":1,"block":2,"trial":171,"stimulus":5,"robot":3,"valence":"lose","action":"go","sham":1,"trial_type":"pit-trial","trial_index":207,"time_elapsed":1159842,"internal_node_id":"0.0-179.0","task_version":"battery-v0.2-trt"},{"rune":"Z","rune_set":"elianto","hex":"#3366ff99","correct":-1,"choice":-1,"rt":-1,"accuracy":1,"outcome":"+10","keys":[2935.3750001173466],"total_keys":1,"block":2,"trial":172,"stimulus":7,"robot":2,"valence":"win","action":"no-go","sham":0,"trial_type":"pit-trial","trial_index":208,"time_elapsed":1163845,"internal_node_id":"0.0-180.0","task_version":"battery-v0.2-trt"},{"rune":"Z","rune_set":"elianto","hex":"#3366ff99","correct":-1,"choice":32,"rt":1012.5649999827147,"accuracy":0,"outcome":"+1","keys":[2513.604999985546],"total_keys":1,"block":2,"trial":173,"stimulus":7,"robot":2,"valence":"win","action":"no-go","sham":0,"trial_type":"pit-trial","trial_index":209,"time_elapsed":1167561,"internal_node_id":"0.0-181.0","task_version":"battery-v0.2-trt"},{"rune":"B","rune_set":"elianto","hex":"#f73b6a7A","correct":32,"choice":-1,"rt":-1,"accuracy":0,"outcome":"-10","keys":[],"total_keys":0,"block":2,"trial":174,"stimulus":5,"robot":3,"valence":"lose","action":"go","sham":0,"trial_type":"pit-trial","trial_index":210,"time_elapsed":1171565,"internal_node_id":"0.0-182.0","task_version":"battery-v0.2-trt"},{"rune":"C","rune_set":"elianto","hex":"#f73b6a7A","correct":-1,"choice":32,"rt":1254.410000052303,"accuracy":0,"outcome":"-10","keys":[2755.5350000038743],"total_keys":1,"block":2,"trial":175,"stimulus":6,"robot":4,"valence":"lose","action":"no-go","sham":0,"trial_type":"pit-trial","trial_index":211,"time_elapsed":1175525,"internal_node_id":"0.0-183.0","task_version":"battery-v0.2-trt"},{"rune":"T","rune_set":"elianto","hex":"#3366ff99","correct":32,"choice":32,"rt":1107.090000063181,"accuracy":1,"outcome":"+10","keys":[2607.9299999400973],"total_keys":1,"block":2,"trial":176,"stimulus":4,"robot":1,"valence":"win","action":"go","sham":0,"trial_type":"pit-trial","trial_index":212,"time_elapsed":1179338,"internal_node_id":"0.0-184.0","task_version":"battery-v0.2-trt"},{"rune":"C","rune_set":"elianto","hex":"#f73b6a7A","correct":-1,"choice":32,"rt":827.4649998638779,"accuracy":0,"outcome":"-1","keys":[2329.115000087768],"total_keys":1,"block":2,"trial":177,"stimulus":6,"robot":4,"valence":"lose","action":"no-go","sham":1,"trial_type":"pit-trial","trial_index":213,"time_elapsed":1182872,"internal_node_id":"0.0-185.0","task_version":"battery-v0.2-trt"},{"rune":"T","rune_set":"elianto","hex":"#3366ff99","correct":32,"choice":32,"rt":743.724999949336,"accuracy":1,"outcome":"+1","keys":[2245.3900000546128],"total_keys":1,"block":2,"trial":178,"stimulus":4,"robot":1,"valence":"win","action":"go","sham":1,"trial_type":"pit-trial","trial_index":214,"time_elapsed":1186320,"internal_node_id":"0.0-186.0","task_version":"battery-v0.2-trt"},{"rune":"Z","rune_set":"elianto","hex":"#3366ff99","correct":-1,"choice":32,"rt":637.224999954924,"accuracy":0,"outcome":"+1","keys":[2137.540000025183],"total_keys":1,"block":2,"trial":179,"stimulus":7,"robot":2,"valence":"win","action":"no-go","sham":0,"trial_type":"pit-trial","trial_index":215,"time_elapsed":1189662,"internal_node_id":"0.0-187.0","task_version":"battery-v0.2-trt"},{"rune":"B","rune_set":"elianto","hex":"#f73b6a7A","correct":32,"choice":-1,"rt":-1,"accuracy":0,"outcome":"-10","keys":[],"total_keys":0,"block":2,"trial":180,"stimulus":5,"robot":3,"valence":"lose","action":"go","sham":0,"trial_type":"pit-trial","trial_index":216,"time_elapsed":1193670,"internal_node_id":"0.0-188.0","task_version":"battery-v0.2-trt"},{"rune":"B","rune_set":"elianto","hex":"#f73b6a7A","correct":32,"choice":32,"rt":564.2050001770258,"accuracy":1,"outcome":"-10","keys":[2064.239999977872],"total_keys":1,"block":2,"trial":181,"stimulus":5,"robot":3,"valence":"lose","action":"go","sham":1,"trial_type":"pit-trial","trial_index":217,"time_elapsed":1196940,"internal_node_id":"0.0-189.0","task_version":"battery-v0.2-trt"},{"rune":"C","rune_set":"elianto","hex":"#f73b6a7A","correct":-1,"choice":32,"rt":686.479999916628,"accuracy":0,"outcome":"-1","keys":[2187.8449998330325],"total_keys":1,"block":2,"trial":182,"stimulus":6,"robot":4,"valence":"lose","action":"no-go","sham":1,"trial_type":"pit-trial","trial_index":218,"time_elapsed":1200332,"internal_node_id":"0.0-190.0","task_version":"battery-v0.2-trt"},{"rune":"Z","rune_set":"elianto","hex":"#3366ff99","correct":-1,"choice":32,"rt":737.9000000655651,"accuracy":0,"outcome":"+1","keys":[2238.3550000377],"total_keys":1,"block":2,"trial":183,"stimulus":7,"robot":2,"valence":"win","action":"no-go","sham":0,"trial_type":"pit-trial","trial_index":219,"time_elapsed":1203776,"internal_node_id":"0.0-191.0","task_version":"battery-v0.2-trt"},{"rune":"T","rune_set":"elianto","hex":"#3366ff99","correct":32,"choice":32,"rt":891.9349999632686,"accuracy":1,"outcome":"+1","keys":[2392.0299999881536],"total_keys":1,"block":2,"trial":184,"stimulus":4,"robot":1,"valence":"win","action":"go","sham":1,"trial_type":"pit-trial","trial_index":220,"time_elapsed":1207373,"internal_node_id":"0.0-192.0","task_version":"battery-v0.2-trt"},{"rune":"B","rune_set":"elianto","hex":"#f73b6a7A","correct":32,"choice":32,"rt":1033.6599999573082,"accuracy":1,"outcome":"-10","keys":[2534.76499998942],"total_keys":1,"block":2,"trial":185,"stimulus":5,"robot":3,"valence":"lose","action":"go","sham":1,"trial_type":"pit-trial","trial_index":221,"time_elapsed":1211114,"internal_node_id":"0.0-193.0","task_version":"battery-v0.2-trt"},{"rune":"T","rune_set":"elianto","hex":"#3366ff99","correct":32,"choice":32,"rt":823.6849999520928,"accuracy":1,"outcome":"+10","keys":[2324.1399999242276],"total_keys":1,"block":2,"trial":186,"stimulus":4,"robot":1,"valence":"win","action":"go","sham":0,"trial_type":"pit-trial","trial_index":222,"time_elapsed":1214642,"internal_node_id":"0.0-194.0","task_version":"battery-v0.2-trt"},{"rune":"Z","rune_set":"elianto","hex":"#3366ff99","correct":-1,"choice":-1,"rt":-1,"accuracy":1,"outcome":"+10","keys":[],"total_keys":0,"block":2,"trial":187,"stimulus":7,"robot":2,"valence":"win","action":"no-go","sham":0,"trial_type":"pit-trial","trial_index":223,"time_elapsed":1218647,"internal_node_id":"0.0-195.0","task_version":"battery-v0.2-trt"},{"rune":"C","rune_set":"elianto","hex":"#f73b6a7A","correct":-1,"choice":-1,"rt":-1,"accuracy":1,"outcome":"-1","keys":[2915.0249999947846],"total_keys":1,"block":2,"trial":188,"stimulus":6,"robot":4,"valence":"lose","action":"no-go","sham":0,"trial_type":"pit-trial","trial_index":224,"time_elapsed":1222653,"internal_node_id":"0.0-196.0","task_version":"battery-v0.2-trt"},{"rune":"C","rune_set":"elianto","hex":"#f73b6a7A","correct":-1,"choice":32,"rt":660.6000000610948,"accuracy":0,"outcome":"-10","keys":[2160.7900001108646],"total_keys":1,"block":2,"trial":189,"stimulus":6,"robot":4,"valence":"lose","action":"no-go","sham":0,"trial_type":"pit-trial","trial_index":225,"time_elapsed":1226018,"internal_node_id":"0.0-197.0","task_version":"battery-v0.2-trt"},{"rune":"T","rune_set":"elianto","hex":"#3366ff99","correct":32,"choice":32,"rt":826.2000000104308,"accuracy":1,"outcome":"+10","keys":[2327.040000120178],"total_keys":1,"block":2,"trial":190,"stimulus":4,"robot":1,"valence":"win","action":"go","sham":0,"trial_type":"pit-trial","trial_index":226,"time_elapsed":1229549,"internal_node_id":"0.0-198.0","task_version":"battery-v0.2-trt"},{"rune":"Z","rune_set":"elianto","hex":"#3366ff99","correct":-1,"choice":-1,"rt":-1,"accuracy":1,"outcome":"+10","keys":[],"total_keys":0,"block":2,"trial":191,"stimulus":7,"robot":2,"valence":"win","action":"no-go","sham":0,"trial_type":"pit-trial","trial_index":227,"time_elapsed":1233553,"internal_node_id":"0.0-199.0","task_version":"battery-v0.2-trt"},{"rune":"B","rune_set":"elianto","hex":"#f73b6a7A","correct":32,"choice":32,"rt":841.3550001569092,"accuracy":1,"outcome":"-1","keys":[2341.980000026524],"total_keys":1,"block":2,"trial":192,"stimulus":5,"robot":3,"valence":"lose","action":"go","sham":0,"trial_type":"pit-trial","trial_index":228,"time_elapsed":1237099,"internal_node_id":"0.0-200.0","task_version":"battery-v0.2-trt"},{"rune":"H","rune_set":"elianto","hex":"#f73b6a7A","correct":32,"choice":32,"rt":902.5899998378009,"accuracy":1,"outcome":"-10","keys":[2403.524999972433],"total_keys":1,"block":2,"trial":193,"stimulus":8,"robot":3,"valence":"lose","action":"go","sham":1,"trial_type":"pit-trial","trial_index":229,"time_elapsed":1240706,"internal_node_id":"0.0-201.0","task_version":"battery-v0.2-trt"},{"rune":"Z","rune_set":"elianto","hex":"#3366ff99","correct":-1,"choice":32,"rt":951.4999999664724,"accuracy":0,"outcome":"+1","keys":[2452.165000140667],"total_keys":1,"block":2,"trial":194,"stimulus":7,"robot":2,"valence":"win","action":"no-go","sham":0,"trial_type":"pit-trial","trial_index":230,"time_elapsed":1244363,"internal_node_id":"0.0-202.0","task_version":"battery-v0.2-trt"},{"rune":"C","rune_set":"elianto","hex":"#f73b6a7A","correct":-1,"choice":32,"rt":1036.250000121072,"accuracy":0,"outcome":"-10","keys":[2536.8650001473725],"total_keys":1,"block":2,"trial":195,"stimulus":6,"robot":4,"valence":"lose","action":"no-go","sham":0,"trial_type":"pit-trial","trial_index":231,"time_elapsed":1248104,"internal_node_id":"0.0-203.0","task_version":"battery-v0.2-trt"},{"rune":"T","rune_set":"elianto","hex":"#3366ff99","correct":32,"choice":32,"rt":981.0699999798089,"accuracy":1,"outcome":"+1","keys":[2481.184999924153],"total_keys":1,"block":2,"trial":196,"stimulus":4,"robot":1,"valence":"win","action":"go","sham":1,"trial_type":"pit-trial","trial_index":232,"time_elapsed":1251790,"internal_node_id":"0.0-204.0","task_version":"battery-v0.2-trt"},{"rune":"C","rune_set":"elianto","hex":"#f73b6a7A","correct":-1,"choice":32,"rt":1072.5400000810623,"accuracy":0,"outcome":"-10","keys":[2572.6449999492615],"total_keys":1,"block":2,"trial":197,"stimulus":6,"robot":4,"valence":"lose","action":"no-go","sham":0,"trial_type":"pit-trial","trial_index":233,"time_elapsed":1255568,"internal_node_id":"0.0-205.0","task_version":"battery-v0.2-trt"},{"rune":"H","rune_set":"elianto","hex":"#f73b6a7A","correct":32,"choice":32,"rt":1163.7249998748302,"accuracy":1,"outcome":"-10","keys":[2665.0050000753254],"total_keys":1,"block":2,"trial":198,"stimulus":8,"robot":3,"valence":"lose","action":"go","sham":1,"trial_type":"pit-trial","trial_index":234,"time_elapsed":1259437,"internal_node_id":"0.0-206.0","task_version":"battery-v0.2-trt"},{"rune":"T","rune_set":"elianto","hex":"#3366ff99","correct":32,"choice":-1,"rt":-1,"accuracy":0,"outcome":"+1","keys":[],"total_keys":0,"block":2,"trial":199,"stimulus":4,"robot":1,"valence":"win","action":"go","sham":0,"trial_type":"pit-trial","trial_index":235,"time_elapsed":1263443,"internal_node_id":"0.0-207.0","task_version":"battery-v0.2-trt"},{"rune":"Z","rune_set":"elianto","hex":"#3366ff99","correct":-1,"choice":32,"rt":827.250000089407,"accuracy":0,"outcome":"+1","keys":[2328.044999856502],"total_keys":1,"block":2,"trial":200,"stimulus":7,"robot":2,"valence":"win","action":"no-go","sham":0,"trial_type":"pit-trial","trial_index":236,"time_elapsed":1266975,"internal_node_id":"0.0-208.0","task_version":"battery-v0.2-trt"},{"rune":"C","rune_set":"elianto","hex":"#f73b6a7A","correct":-1,"choice":-1,"rt":-1,"accuracy":1,"outcome":"-1","keys":[],"total_keys":0,"block":2,"trial":201,"stimulus":6,"robot":4,"valence":"lose","action":"no-go","sham":0,"trial_type":"pit-trial","trial_index":237,"time_elapsed":1270981,"internal_node_id":"0.0-209.0","task_version":"battery-v0.2-trt"},{"rune":"Z","rune_set":"elianto","hex":"#3366ff99","correct":-1,"choice":-1,"rt":-1,"accuracy":1,"outcome":"+10","keys":[],"total_keys":0,"block":2,"trial":202,"stimulus":7,"robot":2,"valence":"win","action":"no-go","sham":0,"trial_type":"pit-trial","trial_index":238,"time_elapsed":1274984,"internal_node_id":"0.0-210.0","task_version":"battery-v0.2-trt"},{"rune":"H","rune_set":"elianto","hex":"#f73b6a7A","correct":32,"choice":-1,"rt":-1,"accuracy":0,"outcome":"-1","keys":[],"total_keys":0,"block":2,"trial":203,"stimulus":8,"robot":3,"valence":"lose","action":"go","sham":1,"trial_type":"pit-trial","trial_index":239,"time_elapsed":1278987,"internal_node_id":"0.0-211.0","task_version":"battery-v0.2-trt"},{"rune":"Y","rune_set":"elianto","hex":"#f73b6a7A","correct":32,"choice":32,"rt":708.5950002074242,"accuracy":1,"outcome":"-1","keys":[2209.5099999569356],"total_keys":1,"block":2,"trial":204,"stimulus":9,"robot":3,"valence":"lose","action":"go","sham":0,"trial_type":"pit-trial","trial_index":240,"time_elapsed":1282401,"internal_node_id":"0.0-212.0","task_version":"battery-v0.2-trt"},{"rune":"Z","rune_set":"elianto","hex":"#3366ff99","correct":-1,"choice":-1,"rt":-1,"accuracy":1,"outcome":"+10","keys":[],"total_keys":0,"block":2,"trial":205,"stimulus":7,"robot":2,"valence":"win","action":"no-go","sham":0,"trial_type":"pit-trial","trial_index":241,"time_elapsed":1286405,"internal_node_id":"0.0-213.0","task_version":"battery-v0.2-trt"},{"rune":"H","rune_set":"elianto","hex":"#f73b6a7A","correct":32,"choice":-1,"rt":-1,"accuracy":0,"outcome":"-10","keys":[],"total_keys":0,"block":2,"trial":206,"stimulus":8,"robot":3,"valence":"lose","action":"go","sham":0,"trial_type":"pit-trial","trial_index":242,"time_elapsed":1290411,"internal_node_id":"0.0-214.0","task_version":"battery-v0.2-trt"},{"rune":"Y","rune_set":"elianto","hex":"#f73b6a7A","correct":32,"choice":-1,"rt":-1,"accuracy":0,"outcome":"-10","keys":[3023.229999933392],"total_keys":1,"block":2,"trial":207,"stimulus":9,"robot":3,"valence":"lose","action":"go","sham":0,"trial_type":"pit-trial","trial_index":243,"time_elapsed":1294416,"internal_node_id":"0.0-215.0","task_version":"battery-v0.2-trt"},{"rune":"C","rune_set":"elianto","hex":"#f73b6a7A","correct":-1,"choice":-1,"rt":-1,"accuracy":1,"outcome":"-1","keys":[],"total_keys":0,"block":2,"trial":208,"stimulus":6,"robot":4,"valence":"lose","action":"no-go","sham":0,"trial_type":"pit-trial","trial_index":244,"time_elapsed":1298422,"internal_node_id":"0.0-216.0","task_version":"battery-v0.2-trt"},{"rune":"H","rune_set":"elianto","hex":"#f73b6a7A","correct":32,"choice":32,"rt":1018.184999935329,"accuracy":1,"outcome":"-10","keys":[2519.3999998737127],"total_keys":1,"block":2,"trial":209,"stimulus":8,"robot":3,"valence":"lose","action":"go","sham":1,"trial_type":"pit-trial","trial_index":245,"time_elapsed":1302146,"internal_node_id":"0.0-217.0","task_version":"battery-v0.2-trt"},{"rune":"M","rune_set":"elianto","hex":"#3366ff99","correct":-1,"choice":32,"rt":928.6899999715388,"accuracy":0,"outcome":"+1","keys":[2429.5999999158084],"total_keys":1,"block":2,"trial":210,"stimulus":11,"robot":2,"valence":"win","action":"no-go","sham":0,"trial_type":"pit-trial","trial_index":246,"time_elapsed":1305781,"internal_node_id":"0.0-218.0","task_version":"battery-v0.2-trt"},{"rune":"Y","rune_set":"elianto","hex":"#f73b6a7A","correct":32,"choice":32,"rt":927.6799999643117,"accuracy":1,"outcome":"-1","keys":[2429.20000012964],"total_keys":1,"block":2,"trial":211,"stimulus":9,"robot":3,"valence":"lose","action":"go","sham":0,"trial_type":"pit-trial","trial_index":247,"time_elapsed":1309415,"internal_node_id":"0.0-219.0","task_version":"battery-v0.2-trt"},{"rune":"R","rune_set":"elianto","hex":"#f73b6a7A","correct":-1,"choice":32,"rt":837.1600001119077,"accuracy":0,"outcome":"-1","keys":[2337.749999947846],"total_keys":1,"block":2,"trial":212,"stimulus":10,"robot":4,"valence":"lose","action":"no-go","sham":1,"trial_type":"pit-trial","trial_index":248,"time_elapsed":1312956,"internal_node_id":"0.0-220.0","task_version":"battery-v0.2-trt"},{"rune":"H","rune_set":"elianto","hex":"#f73b6a7A","correct":32,"choice":-1,"rt":-1,"accuracy":0,"outcome":"-10","keys":[],"total_keys":0,"block":2,"trial":213,"stimulus":8,"robot":3,"valence":"lose","action":"go","sham":0,"trial_type":"pit-trial","trial_index":249,"time_elapsed":1316960,"internal_node_id":"0.0-221.0","task_version":"battery-v0.2-trt"},{"rune":"Y","rune_set":"elianto","hex":"#f73b6a7A","correct":32,"choice":32,"rt":836.1349999904633,"accuracy":1,"outcome":"-1","keys":[2336.33999992162],"total_keys":1,"block":2,"trial":214,"stimulus":9,"robot":3,"valence":"lose","action":"go","sham":0,"trial_type":"pit-trial","trial_index":250,"time_elapsed":1320501,"internal_node_id":"0.0-222.0","task_version":"battery-v0.2-trt"},{"rune":"M","rune_set":"elianto","hex":"#3366ff99","correct":-1,"choice":32,"rt":1189.185000024736,"accuracy":0,"outcome":"+1","keys":[2689.3800001125783],"total_keys":1,"block":2,"trial":215,"stimulus":11,"robot":2,"valence":"win","action":"no-go","sham":0,"trial_type":"pit-trial","trial_index":251,"time_elapsed":1324396,"internal_node_id":"0.0-223.0","task_version":"battery-v0.2-trt"},{"rune":"R","rune_set":"elianto","hex":"#f73b6a7A","correct":-1,"choice":-1,"rt":-1,"accuracy":1,"outcome":"-10","keys":[2919.149999972433],"total_keys":1,"block":2,"trial":216,"stimulus":10,"robot":4,"valence":"lose","action":"no-go","sham":1,"trial_type":"pit-trial","trial_index":252,"time_elapsed":1328402,"internal_node_id":"0.0-224.0","task_version":"battery-v0.2-trt"},{"rune":"M","rune_set":"elianto","hex":"#3366ff99","correct":-1,"choice":32,"rt":678.6849999334663,"accuracy":0,"outcome":"+1","keys":[2179.249999811873],"total_keys":1,"block":2,"trial":217,"stimulus":11,"robot":2,"valence":"win","action":"no-go","sham":0,"trial_type":"pit-trial","trial_index":253,"time_elapsed":1331786,"internal_node_id":"0.0-225.0","task_version":"battery-v0.2-trt"},{"rune":"Y","rune_set":"elianto","hex":"#f73b6a7A","correct":32,"choice":-1,"rt":-1,"accuracy":0,"outcome":"-10","keys":[3032.374999951571],"total_keys":1,"block":2,"trial":218,"stimulus":9,"robot":3,"valence":"lose","action":"go","sham":0,"trial_type":"pit-trial","trial_index":254,"time_elapsed":1335791,"internal_node_id":"0.0-226.0","task_version":"battery-v0.2-trt"},{"rune":"H","rune_set":"elianto","hex":"#f73b6a7A","correct":32,"choice":32,"rt":1005.644999910146,"accuracy":1,"outcome":"-1","keys":[2506.580000044778],"total_keys":1,"block":2,"trial":219,"stimulus":8,"robot":3,"valence":"lose","action":"go","sham":0,"trial_type":"pit-trial","trial_index":255,"time_elapsed":1339503,"internal_node_id":"0.0-227.0","task_version":"battery-v0.2-trt"},{"rune":"R","rune_set":"elianto","hex":"#f73b6a7A","correct":-1,"choice":32,"rt":822.4400000181049,"accuracy":0,"outcome":"-10","keys":[2322.6749999448657],"total_keys":1,"block":2,"trial":220,"stimulus":10,"robot":4,"valence":"lose","action":"no-go","sham":0,"trial_type":"pit-trial","trial_index":256,"time_elapsed":1343030,"internal_node_id":"0.0-228.0","task_version":"battery-v0.2-trt"},{"rune":"M","rune_set":"elianto","hex":"#3366ff99","correct":-1,"choice":32,"rt":838.129999814555,"accuracy":0,"outcome":"+10","keys":[2338.3349999785423],"total_keys":1,"block":2,"trial":221,"stimulus":11,"robot":2,"valence":"win","action":"no-go","sham":1,"trial_type":"pit-trial","trial_index":257,"time_elapsed":1346571,"internal_node_id":"0.0-229.0","task_version":"battery-v0.2-trt"},{"rune":"Y","rune_set":"elianto","hex":"#f73b6a7A","correct":32,"choice":32,"rt":730.3450000472367,"accuracy":1,"outcome":"-1","keys":[2231.3899998553097],"total_keys":1,"block":2,"trial":222,"stimulus":9,"robot":3,"valence":"lose","action":"go","sham":0,"trial_type":"pit-trial","trial_index":258,"time_elapsed":1350006,"internal_node_id":"0.0-230.0","task_version":"battery-v0.2-trt"},{"rune":"R","rune_set":"elianto","hex":"#f73b6a7A","correct":-1,"choice":32,"rt":730.0750000867993,"accuracy":0,"outcome":"-10","keys":[2230.920000001788],"total_keys":1,"block":2,"trial":223,"stimulus":10,"robot":4,"valence":"lose","action":"no-go","sham":0,"trial_type":"pit-trial","trial_index":259,"time_elapsed":1353442,"internal_node_id":"0.0-231.0","task_version":"battery-v0.2-trt"},{"rune":"H","rune_set":"elianto","hex":"#f73b6a7A","correct":32,"choice":-1,"rt":-1,"accuracy":0,"outcome":"-10","keys":[],"total_keys":0,"block":2,"trial":224,"stimulus":8,"robot":3,"valence":"lose","action":"go","sham":0,"trial_type":"pit-trial","trial_index":260,"time_elapsed":1357447,"internal_node_id":"0.0-232.0","task_version":"battery-v0.2-trt"},{"rune":"Y","rune_set":"elianto","hex":"#f73b6a7A","correct":32,"choice":32,"rt":769.8699999600649,"accuracy":1,"outcome":"-1","keys":[2270.160000072792],"total_keys":1,"block":2,"trial":225,"stimulus":9,"robot":3,"valence":"lose","action":"go","sham":0,"trial_type":"pit-trial","trial_index":261,"time_elapsed":1360921,"internal_node_id":"0.0-233.0","task_version":"battery-v0.2-trt"},{"rune":"R","rune_set":"elianto","hex":"#f73b6a7A","correct":-1,"choice":-1,"rt":-1,"accuracy":1,"outcome":"-1","keys":[],"total_keys":0,"block":2,"trial":226,"stimulus":10,"robot":4,"valence":"lose","action":"no-go","sham":0,"trial_type":"pit-trial","trial_index":262,"time_elapsed":1364927,"internal_node_id":"0.0-234.0","task_version":"battery-v0.2-trt"},{"rune":"M","rune_set":"elianto","hex":"#3366ff99","correct":-1,"choice":-1,"rt":-1,"accuracy":1,"outcome":"+10","keys":[],"total_keys":0,"block":2,"trial":227,"stimulus":11,"robot":2,"valence":"win","action":"no-go","sham":0,"trial_type":"pit-trial","trial_index":263,"time_elapsed":1368933,"internal_node_id":"0.0-235.0","task_version":"battery-v0.2-trt"},{"rune":"H","rune_set":"elianto","hex":"#f73b6a7A","correct":32,"choice":32,"rt":1206.9550000596792,"accuracy":1,"outcome":"-1","keys":[2707.090000156313],"total_keys":1,"block":2,"trial":228,"stimulus":8,"robot":3,"valence":"lose","action":"go","sham":0,"trial_type":"pit-trial","trial_index":264,"time_elapsed":1372845,"internal_node_id":"0.0-236.0","task_version":"battery-v0.2-trt"},{"rune":"Y","rune_set":"elianto","hex":"#f73b6a7A","correct":32,"choice":-1,"rt":-1,"accuracy":0,"outcome":"-1","keys":[],"total_keys":0,"block":2,"trial":229,"stimulus":9,"robot":3,"valence":"lose","action":"go","sham":1,"trial_type":"pit-trial","trial_index":265,"time_elapsed":1376852,"internal_node_id":"0.0-237.0","task_version":"battery-v0.2-trt"},{"rune":"H","rune_set":"elianto","hex":"#f73b6a7A","correct":32,"choice":32,"rt":443.33000015467405,"accuracy":1,"outcome":"-1","keys":[1944.080000044778],"total_keys":1,"block":2,"trial":230,"stimulus":8,"robot":3,"valence":"lose","action":"go","sham":0,"trial_type":"pit-trial","trial_index":266,"time_elapsed":1380000,"internal_node_id":"0.0-238.0","task_version":"battery-v0.2-trt"},{"rune":"M","rune_set":"elianto","hex":"#3366ff99","correct":-1,"choice":-1,"rt":-1,"accuracy":1,"outcome":"+10","keys":[],"total_keys":0,"block":2,"trial":231,"stimulus":11,"robot":2,"valence":"win","action":"no-go","sham":0,"trial_type":"pit-trial","trial_index":267,"time_elapsed":1384006,"internal_node_id":"0.0-239.0","task_version":"battery-v0.2-trt"},{"rune":"R","rune_set":"elianto","hex":"#f73b6a7A","correct":-1,"choice":-1,"rt":-1,"accuracy":1,"outcome":"-1","keys":[],"total_keys":0,"block":2,"trial":232,"stimulus":10,"robot":4,"valence":"lose","action":"no-go","sham":0,"trial_type":"pit-trial","trial_index":268,"time_elapsed":1388011,"internal_node_id":"0.0-240.0","task_version":"battery-v0.2-trt"},{"rune":"Y","rune_set":"elianto","hex":"#f73b6a7A","correct":32,"choice":-1,"rt":-1,"accuracy":0,"outcome":"-10","keys":[],"total_keys":0,"block":2,"trial":233,"stimulus":9,"robot":3,"valence":"lose","action":"go","sham":0,"trial_type":"pit-trial","trial_index":269,"time_elapsed":1392019,"internal_node_id":"0.0-241.0","task_version":"battery-v0.