[{"view_history":"[{\"page_index\":0,\"viewing_time\":2408.96500000008}]","rt":2409.2399999999543,"trial_type":"instructions","trial_index":0,"time_elapsed":2417,"internal_node_id":"0.0-0.0","task_version":"battery-v0.2-trt"},{"slider_type":"valence","raw_loc":630.5,"loc":0.761,"trial_type":"affective-slider","trial_index":1,"time_elapsed":8772,"internal_node_id":"0.0-1.0","task_version":"battery-v0.2-trt"},{"responses":{"Q02":"0","Q06":"0","Q08":"3","Q04":"0","Q05":"0","Q01":"0","Q07":"0","Q03":"0"},"rt":18203.67499999975,"item_order":[1,5,7,3,4,0,6,2],"radio_events":[5219.605000000229,7672.034999999596,9573.519999999917,10462.405000000217,12498.429999999644,13398.809999999685,14377.2799999997,17426.25500000031],"key_events":[],"mouse_events":[5219.605000000229,5849.540000000161,7672.034999999596,9573.519999999917,10462.405000000217,11271.990000000187,12498.429999999644,13398.809999999685,14377.2799999997,16132.794999999533,17426.25500000031,18202.800000000025],"straightlining":0.875,"zigzagging":0.2857142857142857,"survey":"dass_d","trial_type":"survey-template","trial_index":2,"time_elapsed":26978,"internal_node_id":"0.0-2.0","task_version":"battery-v0.2-trt","infrequency":0.5},{"responses":{"Q03":"0","Q08":"0","Q02":"0","Q04":"0","Q07":"0","Q05":"0","Q06":"0","Q01":"0"},"rt":10843.410000000404,"item_order":[2,7,1,3,6,4,5,0],"radio_events":[3833.349999999882,4711.140000000341,5374.749999999949,5982.050000000527,7444.655000000239,7906.399999999849,8603.455000000395,9188.990000000558],"key_events":[],"mouse_events":[3833.349999999882,4711.140000000341,5374.749999999949,5982.050000000527,6758.899999999812,7444.655000000239,7906.399999999849,8603.455000000395,9188.990000000558,10842.709999999897],"straightlining":1,"zigzagging":0,"survey":"gad7","trial_type":"survey-template","trial_index":3,"time_elapsed":37823,"internal_node_id":"0.0-3.0","task_version":"battery-v0.2-trt","infrequency":0},{"responses":{"Q09":"2","Q06":"2","Q13":"0","Q08":"0","Q01":"0","Q12":"2","Q04":"0","Q07":"3","Q11":"2","Q03":"0","Q02":"0","Q10":"0","Q05":"0"},"rt":62158.68499999942,"item_order":[8,5,12,7,0,11,3,6,10,2,1,9,4],"radio_events":[3912.225000000035,4924.935000000005,8300.334999999905,25795.46500000015,32219.304999999622,49073.01000000006,50197.54499999999,53021.79999999953,55148.489999999576,56453.19999999992,57780.6300000002,59243.695000000116,60841.0899999999],"key_events":[],"mouse_events":[3912.225000000035,4924.935000000005,8300.334999999905,25795.46500000015,32219.304999999622,49073.01000000006,50197.54499999999,53021.79999999953,55148.489999999576,56453.19999999992,57780.6300000002,59243.695000000116,60841.0899999999,62157.3699999999],"straightlining":0.6153846153846154,"zigzagging":0.16666666666666666,"survey":"bisbas","trial_type":"survey-template","trial_index":4,"time_elapsed":99982,"internal_node_id":"0.0-4.0","task_version":"battery-v0.2-trt","infrequency":0},{"value":[0.5,2.4903846153846154,0.45238095238095233],"trial_type":"call-function","trial_index":5,"time_elapsed":99984,"internal_node_id":"0.0-5.0","task_version":"battery-v0.2-trt"},{"view_history":"[{\"page_index\":0,\"viewing_time\":3617.094999999623},{\"page_index\":1,\"viewing_time\":8247.110000000248},{\"page_index\":2,\"viewing_time\":2474.9750000000786},{\"page_index\":3,\"viewing_time\":3712.709999999788},{\"page_index\":4,\"viewing_time\":4556.700000000084},{\"page_index\":5,\"viewing_time\":2812.660000000513},{\"page_index\":6,\"viewing_time\":4522.939999999842},{\"page_index\":7,\"viewing_time\":10451.794999999955},{\"page_index\":8,\"viewing_time\":5422.950000000128},{\"page_index\":9,\"viewing_time\":7121.889999999432}]","rt":52941.15499999953,"trial_type":"pit-instructions","trial_index":6,"time_elapsed":152916,"internal_node_id":"0.0-6.0-0.0","task_version":"battery-v0.2-trt"},{"rune":"1","rune_set":"elianto","hex":"#3366ff99","correct":32,"choice":32,"rt":1218.2700000003097,"accuracy":1,"outcome":"+10","keys":[2721.005000000325],"total_keys":1,"block":0,"practice":1,"trial_type":"pit-trial","trial_index":7,"time_elapsed":156840,"internal_node_id":"0.0-6.0-1.0-0.0","task_version":"battery-v0.2-trt"},{"rune":"1","rune_set":"elianto","hex":"#3366ff99","correct":32,"choice":32,"rt":1219.7400000004563,"accuracy":1,"outcome":"+10","keys":[2722.710000000021],"total_keys":1,"block":0,"practice":1,"trial_type":"pit-trial","trial_index":8,"time_elapsed":160765,"internal_node_id":"0.0-6.0-1.1-0.1","task_version":"battery-v0.2-trt"},{"rune":"1","rune_set":"elianto","hex":"#3366ff99","correct":32,"choice":-1,"rt":-1,"accuracy":0,"outcome":"+1","keys":[],"total_keys":0,"block":0,"practice":1,"trial_type":"pit-trial","trial_index":9,"time_elapsed":164774,"internal_node_id":"0.0-6.0-1.2-0.2","task_version":"battery-v0.2-trt"},{"rune":"1","rune_set":"elianto","hex":"#3366ff99","correct":32,"choice":32,"rt":645.8499999998603,"accuracy":1,"outcome":"+10","keys":[1145.1200000001118,2145.9649999997055],"total_keys":2,"block":0,"practice":1,"trial_type":"pit-trial","trial_index":10,"time_elapsed":168126,"internal_node_id":"0.0-6.0-1.3-0.3","task_version":"battery-v0.2-trt"},{"rune":"1","rune_set":"elianto","hex":"#3366ff99","correct":32,"choice":32,"rt":353.13500000027125,"accuracy":1,"outcome":"+10","keys":[1853.6500000000233],"total_keys":1,"block":0,"practice":1,"trial_type":"pit-trial","trial_index":11,"time_elapsed":171184,"internal_node_id":"0.0-6.0-1.4-0.4","task_version":"battery-v0.2-trt"},{"rune":"1","rune_set":"elianto","hex":"#3366ff99","correct":32,"choice":-1,"rt":-1,"accuracy":0,"outcome":"+1","keys":[],"total_keys":0,"block":0,"practice":1,"trial_type":"pit-trial","trial_index":12,"time_elapsed":175190,"internal_node_id":"0.0-6.0-1.5-0.5","task_version":"battery-v0.2-trt"},{"rune":"1","rune_set":"elianto","hex":"#3366ff99","correct":32,"choice":-1,"rt":-1,"accuracy":0,"outcome":"+1","keys":[],"total_keys":0,"block":0,"practice":1,"trial_type":"pit-trial","trial_index":13,"time_elapsed":179195,"internal_node_id":"0.0-6.0-1.6-0.6","task_version":"battery-v0.2-trt"},{"rune":"1","rune_set":"elianto","hex":"#3366ff99","correct":32,"choice":32,"rt":600.0149999999849,"accuracy":1,"outcome":"+10","keys":[2101.744999999937],"total_keys":1,"block":0,"practice":1,"trial_type":"pit-trial","trial_index":14,"time_elapsed":182504,"internal_node_id":"0.0-6.0-1.7-0.7","task_version":"battery-v0.2-trt"},{"rune":"1","rune_set":"elianto","hex":"#3366ff99","correct":32,"choice":32,"rt":285.2650000004505,"accuracy":1,"outcome":"+10","keys":[1785.5099999997183],"total_keys":1,"block":0,"practice":1,"trial_type":"pit-trial","trial_index":15,"time_elapsed":185491,"internal_node_id":"0.0-6.0-1.8-0.8","task_version":"battery-v0.2-trt"},{"rune":"1","rune_set":"elianto","hex":"#3366ff99","correct":32,"choice":32,"rt":334.7850000000035,"accuracy":1,"outcome":"+10","keys":[1835.0049999999173],"total_keys":1,"block":0,"practice":1,"trial_type":"pit-trial","trial_index":16,"time_elapsed":188529,"internal_node_id":"0.0-6.0-1.9-0.9","task_version":"battery-v0.2-trt"},{"trial_type":"call-function","trial_index":17,"time_elapsed":188530,"internal_node_id":"0.0-6.0-2.0","task_version":"battery-v0.2-trt"},{"view_history":"[{\"page_index\":0,\"viewing_time\":4085.070000000065},{\"page_index\":1,\"viewing_time\":3420.9700000001467}]","rt":7506.295000000129,"trial_type":"pit-instructions","trial_index":18,"time_elapsed":196036,"internal_node_id":"0.0-6.0-3.0","task_version":"battery-v0.2-trt"},{"rune":"2","rune_set":"elianto","hex":"#3366ff99","correct":-1,"choice":32,"rt":973.3200000000652,"accuracy":0,"outcome":"+1","keys":[2473.524999999412],"total_keys":1,"block":0,"practice":2,"trial_type":"pit-trial","trial_index":19,"time_elapsed":199711,"internal_node_id":"0.0-6.0-4.0-0.0","task_version":"battery-v0.2-trt"},{"rune":"2","rune_set":"elianto","hex":"#3366ff99","correct":-1,"choice":32,"rt":581.5649999995076,"accuracy":0,"outcome":"+1","keys":[2082.940000000235],"total_keys":1,"block":0,"practice":2,"trial_type":"pit-trial","trial_index":20,"time_elapsed":202997,"internal_node_id":"0.0-6.0-4.1-0.1","task_version":"battery-v0.2-trt"},{"rune":"2","rune_set":"elianto","hex":"#3366ff99","correct":-1,"choice":32,"rt":321.87500000052387,"accuracy":0,"outcome":"+1","keys":[1823.7950000002456],"total_keys":1,"block":0,"practice":2,"trial_type":"pit-trial","trial_index":21,"time_elapsed":206023,"internal_node_id":"0.0-6.0-4.2-0.2","task_version":"battery-v0.2-trt"},{"rune":"2","rune_set":"elianto","hex":"#3366ff99","correct":-1,"choice":32,"rt":242.97999999998137,"accuracy":0,"outcome":"+1","keys":[1744.96499999988],"total_keys":1,"block":0,"practice":2,"trial_type":"pit-trial","trial_index":22,"time_elapsed":208974,"internal_node_id":"0.0-6.0-4.3-0.3","task_version":"battery-v0.2-trt"},{"rune":"2","rune_set":"elianto","hex":"#3366ff99","correct":-1,"choice":32,"rt":410.8350000005739,"accuracy":0,"outcome":"+1","keys":[1911.2050000003655],"total_keys":1,"block":0,"practice":2,"trial_type":"pit-trial","trial_index":23,"time_elapsed":212091,"internal_node_id":"0.0-6.0-4.4-0.4","task_version":"battery-v0.2-trt"},{"rune":"2","rune_set":"elianto","hex":"#3366ff99","correct":-1,"choice":32,"rt":408.9000000003434,"accuracy":0,"outcome":"+1","keys":[1910.4049999996205],"total_keys":1,"block":0,"practice":2,"trial_type":"pit-trial","trial_index":24,"time_elapsed":215208,"internal_node_id":"0.0-6.0-4.5-0.5","task_version":"battery-v0.2-trt"},{"rune":"2","rune_set":"elianto","hex":"#3366ff99","correct":-1,"choice":32,"rt":533.1299999998009,"accuracy":0,"outcome":"+1","keys":[2033.265000000043],"total_keys":1,"block":0,"practice":2,"trial_type":"pit-trial","trial_index":25,"time_elapsed":218442,"internal_node_id":"0.0-6.0-4.6-0.6","task_version":"battery-v0.2-trt"},{"rune":"2","rune_set":"elianto","hex":"#3366ff99","correct":-1,"choice":32,"rt":549.8049999996438,"accuracy":0,"outcome":"+1","keys":[2049.939999999886],"total_keys":1,"block":0,"practice":2,"trial_type":"pit-trial","trial_index":26,"time_elapsed":221694,"internal_node_id":"0.0-6.0-4.7-0.7","task_version":"battery-v0.2-trt"},{"rune":"2","rune_set":"elianto","hex":"#3366ff99","correct":-1,"choice":32,"rt":403.9849999999278,"accuracy":0,"outcome":"+1","keys":[1904.0350000004692],"total_keys":1,"block":0,"practice":2,"trial_type":"pit-trial","trial_index":27,"time_elapsed":224800,"internal_node_id":"0.0-6.0-4.8-0.8","task_version":"battery-v0.2-trt"},{"rune":"2","rune_set":"elianto","hex":"#3366ff99","correct":-1,"choice":32,"rt":413.7199999995646,"accuracy":0,"outcome":"+1","keys":[1913.965000000666],"total_keys":1,"block":0,"practice":2,"trial_type":"pit-trial","trial_index":28,"time_elapsed":227915,"internal_node_id":"0.0-6.0-4.9-0.9","task_version":"battery-v0.2-trt"},{"rune":"2","rune_set":"elianto","hex":"#3366ff99","correct":-1,"choice":-1,"rt":-1,"accuracy":1,"outcome":"+10","keys":[],"total_keys":0,"block":0,"practice":2,"trial_type":"pit-trial","trial_index":29,"time_elapsed":231926,"internal_node_id":"0.0-6.0-4.10-0.10","task_version":"battery-v0.2-trt"},{"rune":"2","rune_set":"elianto","hex":"#3366ff99","correct":-1,"choice":-1,"rt":-1,"accuracy":1,"outcome":"+10","keys":[],"total_keys":0,"block":0,"practice":2,"trial_type":"pit-trial","trial_index":30,"time_elapsed":235931,"internal_node_id":"0.0-6.0-4.11-0.11","task_version":"battery-v0.2-trt"},{"rune":"2","rune_set":"elianto","hex":"#3366ff99","correct":-1,"choice":-1,"rt":-1,"accuracy":1,"outcome":"+10","keys":[],"total_keys":0,"block":0,"practice":2,"trial_type":"pit-trial","trial_index":31,"time_elapsed":239933,"internal_node_id":"0.0-6.0-4.12-0.12","task_version":"battery-v0.2-trt"},{"trial_type":"call-function","trial_index":32,"time_elapsed":239934,"internal_node_id":"0.0-6.0-5.0","task_version":"battery-v0.2-trt"},{"view_history":"[{\"page_index\":0,\"viewing_time\":6492.500000000291},{\"page_index\":1,\"viewing_time\":5523.650000000111}]","rt":12016.384999999922,"trial_type":"pit-instructions","trial_index":33,"time_elapsed":251950,"internal_node_id":"0.0-6.0-6.0","task_version":"battery-v0.2-trt"},{"rune":"3","rune_set":"elianto","hex":"#f73b6a7A","correct":-1,"choice":32,"rt":793.5449999995471,"accuracy":0,"outcome":"-10","keys":[2293.670000000013],"total_keys":1,"block":0,"practice":3,"trial_type":"pit-trial","trial_index":34,"time_elapsed":255446,"internal_node_id":"0.0-6.0-7.0-0.0","task_version":"battery-v0.2-trt"},{"rune":"3","rune_set":"elianto","hex":"#f73b6a7A","correct":-1,"choice":-1,"rt":-1,"accuracy":1,"outcome":"-1","keys":[],"total_keys":0,"block":0,"practice":3,"trial_type":"pit-trial","trial_index":35,"time_elapsed":259452,"internal_node_id":"0.0-6.0-7.1-0.1","task_version":"battery-v0.2-trt"},{"rune":"3","rune_set":"elianto","hex":"#f73b6a7A","correct":-1,"choice":-1,"rt":-1,"accuracy":1,"outcome":"-1","keys":[],"total_keys":0,"block":0,"practice":3,"trial_type":"pit-trial","trial_index":36,"time_elapsed":263457,"internal_node_id":"0.0-6.0-7.2-0.2","task_version":"battery-v0.2-trt"},{"rune":"3","rune_set":"elianto","hex":"#f73b6a7A","correct":-1,"choice":-1,"rt":-1,"accuracy":1,"outcome":"-1","keys":[],"total_keys":0,"block":0,"practice":3,"trial_type":"pit-trial","trial_index":37,"time_elapsed":267462,"internal_node_id":"0.0-6.0-7.3-0.3","task_version":"battery-v0.2-trt"},{"trial_type":"call-function","trial_index":38,"time_elapsed":267463,"internal_node_id":"0.0-6.0-8.0","task_version":"battery-v0.2-trt"},{"view_history":"[{\"page_index\":0,\"viewing_time\":2531.810000000405},{\"page_index\":1,\"viewing_time\":5681.819999999832}]","rt":8213.865000000631,"trial_type":"pit-instructions","trial_index":39,"time_elapsed":275677,"internal_node_id":"0.0-6.0-9.0","task_version":"battery-v0.2-trt"},{"rune":"4","rune_set":"elianto","hex":"#f73b6a7A","correct":32,"choice":32,"rt":724.124999999709,"accuracy":1,"outcome":"-1","keys":[2225.4050000001444],"total_keys":1,"block":0,"practice":4,"trial_type":"pit-trial","trial_index":40,"time_elapsed":279106,"internal_node_id":"0.0-6.0-10.0-0.0","task_version":"battery-v0.2-trt"},{"rune":"4","rune_set":"elianto","hex":"#f73b6a7A","correct":32,"choice":32,"rt":514.6100000002189,"accuracy":1,"outcome":"-1","keys":[2014.8049999997602],"total_keys":1,"block":0,"practice":4,"trial_type":"pit-trial","trial_index":41,"time_elapsed":282324,"internal_node_id":"0.0-6.0-10.1-0.1","task_version":"battery-v0.2-trt"},{"rune":"4","rune_set":"elianto","hex":"#f73b6a7A","correct":32,"choice":32,"rt":479.899999999383,"accuracy":1,"outcome":"-1","keys":[1980.3350000001956],"total_keys":1,"block":0,"practice":4,"trial_type":"pit-trial","trial_index":42,"time_elapsed":285509,"internal_node_id":"0.0-6.0-10.2-0.2","task_version":"battery-v0.2-trt"},{"rune":"4","rune_set":"elianto","hex":"#f73b6a7A","correct":32,"choice":-1,"rt":-1,"accuracy":0,"outcome":"-10","keys":[2823.240000000631],"total_keys":1,"block":0,"practice":4,"trial_type":"pit-trial","trial_index":43,"time_elapsed":289515,"internal_node_id":"0.0-6.0-10.3-0.3","task_version":"battery-v0.2-trt"},{"rune":"4","rune_set":"elianto","hex":"#f73b6a7A","correct":32,"choice":32,"rt":252.62000000016997,"accuracy":1,"outcome":"-1","keys":[1753.3350000003702],"total_keys":1,"block":0,"practice":4,"trial_type":"pit-trial","trial_index":44,"time_elapsed":292472,"internal_node_id":"0.0-6.0-10.4-0.4","task_version":"battery-v0.2-trt"},{"rune":"4","rune_set":"elianto","hex":"#f73b6a7A","correct":32,"choice":32,"rt":401.0450000005658,"accuracy":1,"outcome":"-1","keys":[1901.1999999993714],"total_keys":1,"block":0,"practice":4,"trial_type":"pit-trial","trial_index":45,"time_elapsed":295575,"internal_node_id":"0.0-6.0-10.5-0.5","task_version":"battery-v0.2-trt"},{"rune":"4","rune_set":"elianto","hex":"#f73b6a7A","correct":32,"choice":32,"rt":571.5950000003213,"accuracy":1,"outcome":"-1","keys":[2071.659999999567],"total_keys":1,"block":0,"practice":4,"trial_type":"pit-trial","trial_index":46,"time_elapsed":298853,"internal_node_id":"0.0-6.0-10.6-0.6","task_version":"battery-v0.2-trt"},{"trial_type":"call-function","trial_index":47,"time_elapsed":298854,"internal_node_id":"0.0-6.0-11.0","task_version":"battery-v0.2-trt"},{"view_history":"[{\"page_index\":0,\"viewing_time\":1966.4050000001444},{\"page_index\":1,\"viewing_time\":5479.019999999728},{\"page_index\":2,\"viewing_time\":4860.670000000042},{\"page_index\":3,\"viewing_time\":2767.7549999998882},{\"page_index\":4,\"viewing_time\":3183.8649999999325},{\"page_index\":5,\"viewing_time\":1653.4350000001723}]","rt":19911.40999999974,"trial_type":"pit-instructions","trial_index":48,"time_elapsed":318765,"internal_node_id":"0.0-6.0-12.0","task_version":"battery-v0.2-trt"},{"responses":["Press SPACE","+10","-1","True","True"],"num_errors":0,"rt":19419.95000000042,"trial_type":"pit-comprehension","trial_index":49,"time_elapsed":338187,"internal_node_id":"0.0-6.0-13.0","task_version":"battery-v0.2-trt"},{"view_history":"[{\"page_index\":0,\"viewing_time\":2289.9200000001583},{\"page_index\":1,\"viewing_time\":3701.5549999996438}]","rt":5991.72499999986,"trial_type":"pit-instructions","trial_index":50,"time_elapsed":344180,"internal_node_id":"0.0-7.0","task_version":"battery-v0.2-trt"},{"rune":"Y","rune_set":"elianto","hex":"#f73b6a7A","correct":-1,"choice":32,"rt":702.6049999994575,"accuracy":0,"outcome":"-10","keys":[2202.970000000263],"total_keys":1,"block":1,"trial":1,"stimulus":2,"robot":4,"valence":"lose","action":"no-go","sham":0,"trial_type":"pit-trial","trial_index":51,"time_elapsed":347586,"internal_node_id":"0.0-8.0","task_version":"battery-v0.2-trt"},{"rune":"R","rune_set":"elianto","hex":"#3366ff99","correct":32,"choice":32,"rt":726.7499999998254,"accuracy":1,"outcome":"+10","keys":[2228.780000000377],"total_keys":1,"block":1,"trial":2,"stimulus":1,"robot":1,"valence":"win","action":"go","sham":0,"trial_type":"pit-trial","trial_index":52,"time_elapsed":351016,"internal_node_id":"0.0-9.0","task_version":"battery-v0.2-trt"},{"rune":"H","rune_set":"elianto","hex":"#3366ff99","correct":32,"choice":32,"rt":526.9050000006682,"accuracy":1,"outcome":"+10","keys":[2027.0499999996973],"total_keys":1,"block":1,"trial":3,"stimulus":3,"robot":1,"valence":"win","action":"go","sham":0,"trial_type":"pit-trial","trial_index":53,"time_elapsed":354247,"internal_node_id":"0.0-10.0","task_version":"battery-v0.2-trt"},{"rune":"M","rune_set":"elianto","hex":"#3366ff99","correct":-1,"choice":32,"rt":682.7299999995157,"accuracy":0,"outcome":"+10","keys":[2182.975000000617],"total_keys":1,"block":1,"trial":4,"stimulus":0,"robot":2,"valence":"win","action":"no-go","sham":1,"trial_type":"pit-trial","trial_index":54,"time_elapsed":357633,"internal_node_id":"0.0-11.0","task_version":"battery-v0.2-trt"},{"rune":"Y","rune_set":"elianto","hex":"#f73b6a7A","correct":-1,"choice":32,"rt":803.6849999998813,"accuracy":0,"outcome":"-10","keys":[2306.1950000001234],"total_keys":1,"block":1,"trial":5,"stimulus":2,"robot":4,"valence":"lose","action":"no-go","sham":0,"trial_type":"pit-trial","trial_index":55,"time_elapsed":361146,"internal_node_id":"0.0-12.0","task_version":"battery-v0.2-trt"},{"rune":"M","rune_set":"elianto","hex":"#3366ff99","correct":-1,"choice":32,"rt":545.4449999997742,"accuracy":0,"outcome":"+1","keys":[2045.550000000745],"total_keys":1,"block":1,"trial":6,"stimulus":0,"robot":2,"valence":"win","action":"no-go","sham":0,"trial_type":"pit-trial","trial_index":56,"time_elapsed":364394,"internal_node_id":"0.0-13.0","task_version":"battery-v0.2-trt"},{"rune":"H","rune_set":"elianto","hex":"#3366ff99","correct":32,"choice":32,"rt":919.75,"accuracy":1,"outcome":"+10","keys":[2420.0750000000116],"total_keys":1,"block":1,"trial":7,"stimulus":3,"robot":1,"valence":"win","action":"go","sham":0,"trial_type":"pit-trial","trial_index":57,"time_elapsed":368019,"internal_node_id":"0.0-14.0","task_version":"battery-v0.2-trt"},{"rune":"R","rune_set":"elianto","hex":"#3366ff99","correct":32,"choice":32,"rt":602.4900000002235,"accuracy":1,"outcome":"+1","keys":[2102.6950000004726],"total_keys":1,"block":1,"trial":8,"stimulus":1,"robot":1,"valence":"win","action":"go","sham":1,"trial_type":"pit-trial","trial_index":58,"time_elapsed":371323,"internal_node_id":"0.0-15.0","task_version":"battery-v0.2-trt"},{"rune":"Y","rune_set":"elianto","hex":"#f73b6a7A","correct":-1,"choice":32,"rt":662.5100000001257,"accuracy":0,"outcome":"-10","keys":[2162.5800000001327],"total_keys":1,"block":1,"trial":9,"stimulus":2,"robot":4,"valence":"lose","action":"no-go","sham":0,"trial_type":"pit-trial","trial_index":59,"time_elapsed":374689,"internal_node_id":"0.0-16.0","task_version":"battery-v0.2-trt"},{"rune":"H","rune_set":"elianto","hex":"#3366ff99","correct":32,"choice":32,"rt":389.64500000019325,"accuracy":1,"outcome":"+10","keys":[1890.9800000000978],"total_keys":1,"block":1,"trial":10,"stimulus":3,"robot":1,"valence":"win","action":"go","sham":0,"trial_type":"pit-trial","trial_index":60,"time_elapsed":377785,"internal_node_id":"0.0-17.0","task_version":"battery-v0.2-trt"},{"rune":"R","rune_set":"elianto","hex":"#3366ff99","correct":32,"choice":-1,"rt":-1,"accuracy":0,"outcome":"+1","keys":[],"total_keys":0,"block":1,"trial":11,"stimulus":1,"robot":1,"valence":"win","action":"go","sham":0,"trial_type":"pit-trial","trial_index":61,"time_elapsed":381794,"internal_node_id":"0.0-18.0","task_version":"battery-v0.2-trt"},{"rune":"M","rune_set":"elianto","hex":"#3366ff99","correct":-1,"choice":32,"rt":519.6400000004796,"accuracy":0,"outcome":"+1","keys":[2019.8499999996857],"total_keys":1,"block":1,"trial":12,"stimulus":0,"robot":2,"valence":"win","action":"no-go","sham":0,"trial_type":"pit-trial","trial_index":62,"time_elapsed":385018,"internal_node_id":"0.0-19.0","task_version":"battery-v0.2-trt"},{"rune":"Y","rune_set":"elianto","hex":"#f73b6a7A","correct":-1,"choice":32,"rt":331.8099999996484,"accuracy":0,"outcome":"-10","keys":[1832.6400000005378],"total_keys":1,"block":1,"trial":13,"stimulus":2,"robot":4,"valence":"lose","action":"no-go","sham":0,"trial_type":"pit-trial","trial_index":63,"time_elapsed":388055,"internal_node_id":"0.0-20.0","task_version":"battery-v0.2-trt"},{"rune":"R","rune_set":"elianto","hex":"#3366ff99","correct":32,"choice":32,"rt":197.1400000002468,"accuracy":1,"outcome":"+10","keys":[1698.3850000006496],"total_keys":1,"block":1,"trial":14,"stimulus":1,"robot":1,"valence":"win","action":"go","sham":0,"trial_type":"pit-trial","trial_index":64,"time_elapsed":390959,"internal_node_id":"0.0-21.0","task_version":"battery-v0.2-trt"},{"rune":"H","rune_set":"elianto","hex":"#3366ff99","correct":32,"choice":32,"rt":511.7799999997951,"accuracy":1,"outcome":"+10","keys":[2011.9549999998999],"total_keys":1,"block":1,"trial":15,"stimulus":3,"robot":1,"valence":"win","action":"go","sham":0,"trial_type":"pit-trial","trial_index":65,"time_elapsed":394175,"internal_node_id":"0.0-22.0","task_version":"battery-v0.2-trt"},{"rune":"M","rune_set":"elianto","hex":"#3366ff99","correct":-1,"choice":32,"rt":782.7250000000349,"accuracy":0,"outcome":"+1","keys":[1428.3949999999022,2283.4349999993574],"total_keys":2,"block":1,"trial":16,"stimulus":0,"robot":2,"valence":"win","action":"no-go","sham":0,"trial_type":"pit-trial","trial_index":66,"time_elapsed":397663,"internal_node_id":"0.0-23.0","task_version":"battery-v0.2-trt"},{"rune":"H","rune_set":"elianto","hex":"#3366ff99","correct":32,"choice":32,"rt":353.0600000003469,"accuracy":1,"outcome":"+10","keys":[1856.0550000001676],"total_keys":1,"block":1,"trial":17,"stimulus":3,"robot":1,"valence":"win","action":"go","sham":0,"trial_type":"pit-trial","trial_index":67,"time_elapsed":400724,"internal_node_id":"0.0-24.0","task_version":"battery-v0.2-trt"},{"rune":"R","rune_set":"elianto","hex":"#3366ff99","correct":32,"choice":32,"rt":310.4949999997043,"accuracy":1,"outcome":"+1","keys":[1810.5350000005565],"total_keys":1,"block":1,"trial":18,"stimulus":1,"robot":1,"valence":"win","action":"go","sham":1,"trial_type":"pit-trial","trial_index":68,"time_elapsed":403737,"internal_node_id":"0.0-25.0","task_version":"battery-v0.2-trt"},{"rune":"M","rune_set":"elianto","hex":"#3366ff99","correct":-1,"choice":32,"rt":311.13999999978114,"accuracy":0,"outcome":"+1","keys":[1407.009999999893,1811.780000000028],"total_keys":2,"block":1,"trial":19,"stimulus":0,"robot":2,"valence":"win","action":"no-go","sham":0,"trial_type":"pit-trial","trial_index":69,"time_elapsed":406752,"internal_node_id":"0.0-26.0","task_version":"battery-v0.2-trt"},{"rune":"Y","rune_set":"elianto","hex":"#f73b6a7A","correct":-1,"choice":32,"rt":658.9599999997881,"accuracy":0,"outcome":"-10","keys":[2160.475000000559],"total_keys":1,"block":1,"trial":20,"stimulus":2,"robot":4,"valence":"lose","action":"no-go","sham":0,"trial_type":"pit-trial","trial_index":70,"time_elapsed":410115,"internal_node_id":"0.0-27.0","task_version":"battery-v0.2-trt"},{"rune":"Y","rune_set":"elianto","hex":"#f73b6a7A","correct":-1,"choice":32,"rt":493.21499999955995,"accuracy":0,"outcome":"-10","keys":[1993.309999999823],"total_keys":1,"block":1,"trial":21,"stimulus":2,"robot":4,"valence":"lose","action":"no-go","sham":0,"trial_type":"pit-trial","trial_index":71,"time_elapsed":413311,"internal_node_id":"0.0-28.0","task_version":"battery-v0.2-trt"},{"rune":"M","rune_set":"elianto","hex":"#3366ff99","correct":-1,"choice":32,"rt":311.42499999987194,"accuracy":0,"outcome":"+1","keys":[1812.2049999992596],"total_keys":1,"block":1,"trial":22,"stimulus":0,"robot":2,"valence":"win","action":"no-go","sham":0,"trial_type":"pit-trial","trial_index":72,"time_elapsed":416325,"internal_node_id":"0.0-29.0","task_version":"battery-v0.2-trt"},{"rune":"R","rune_set":"elianto","hex":"#3366ff99","correct":32,"choice":32,"rt":1145.4499999999534,"accuracy":1,"outcome":"+10","keys":[2645.5150000001304],"total_keys":1,"block":1,"trial":23,"stimulus":1,"robot":1,"valence":"win","action":"go","sham":0,"trial_type":"pit-trial","trial_index":73,"time_elapsed":420175,"internal_node_id":"0.0-30.0","task_version":"battery-v0.2-trt"},{"rune":"H","rune_set":"elianto","hex":"#3366ff99","correct":32,"choice":32,"rt":355.8849999999511,"accuracy":1,"outcome":"+10","keys":[1855.929999999702],"total_keys":1,"block":1,"trial":24,"stimulus":3,"robot":1,"valence":"win","action":"go","sham":0,"trial_type":"pit-trial","trial_index":74,"time_elapsed":423234,"internal_node_id":"0.0-31.0","task_version":"battery-v0.2-trt"},{"rune":"R","rune_set":"elianto","hex":"#3366ff99","correct":32,"choice":32,"rt":1255.2850000002072,"accuracy":1,"outcome":"+1","keys":[2756.9700000003795],"total_keys":1,"block":1,"trial":25,"stimulus":1,"robot":1,"valence":"win","action":"go","sham":1,"trial_type":"pit-trial","trial_index":75,"time_elapsed":427194,"internal_node_id":"0.0-32.0","task_version":"battery-v0.2-trt"},{"rune":"Y","rune_set":"elianto","hex":"#f73b6a7A","correct":-1,"choice":32,"rt":176.2699999999022,"accuracy":0,"outcome":"-1","keys":[1676.9800000002142],"total_keys":1,"block":1,"trial":26,"stimulus":2,"robot":4,"valence":"lose","action":"no-go","sham":1,"trial_type":"pit-trial","trial_index":76,"time_elapsed":430073,"internal_node_id":"0.0-33.0","task_version":"battery-v0.2-trt"},{"rune":"H","rune_set":"elianto","hex":"#3366ff99","correct":32,"choice":32,"rt":311.6849999996484,"accuracy":1,"outcome":"+1","keys":[1812.3349999996135],"total_keys":1,"block":1,"trial":27,"stimulus":3,"robot":1,"valence":"win","action":"go","sham":1,"trial_type":"pit-trial","trial_index":77,"time_elapsed":433087,"internal_node_id":"0.0-34.0","task_version":"battery-v0.2-trt"},{"rune":"M","rune_set":"elianto","hex":"#3366ff99","correct":-1,"choice":32,"rt":527.7500000002328,"accuracy":0,"outcome":"+1","keys":[2028.0849999999045],"total_keys":1,"block":1,"trial":28,"stimulus":0,"robot":2,"valence":"win","action":"no-go","sham":0,"trial_type":"pit-trial","trial_index":78,"time_elapsed":436318,"internal_node_id":"0.0-35.0","task_version":"battery-v0.2-trt"},{"rune":"H","rune_set":"elianto","hex":"#3366ff99","correct":32,"choice":32,"rt":130.12000000069384,"accuracy":1,"outcome":"+1","keys":[1631.760000000184],"total_keys":1,"block":1,"trial":29,"stimulus":3,"robot":1,"valence":"win","action":"go","sham":1,"trial_type":"pit-trial","trial_index":79,"time_elapsed":439156,"internal_node_id":"0.0-36.0","task_version":"battery-v0.2-trt"},{"rune":"R","rune_set":"elianto","hex":"#3366ff99","correct":32,"choice":-1,"rt":-1,"accuracy":0,"outcome":"+1","keys":[3631.4349999993574],"total_keys":1,"block":1,"trial":30,"stimulus":1,"robot":1,"valence":"win","action":"go","sham":0,"trial_type":"pit-trial","trial_index":80,"time_elapsed":443164,"internal_node_id":"0.0-37.0","task_version":"battery-v0.2-trt"},{"rune":"M","rune_set":"elianto","hex":"#3366ff99","correct":-1,"choice":32,"rt":733.2599999999511,"accuracy":0,"outcome":"+1","keys":[106.93499999982305,2233.369999999937],"total_keys":2,"block":1,"trial":31,"stimulus":0,"robot":2,"valence":"win","action":"no-go","sham":0,"trial_type":"pit-trial","trial_index":81,"time_elapsed":446601,"internal_node_id":"0.0-38.0","task_version":"battery-v0.2-trt"},{"rune":"Y","rune_set":"elianto","hex":"#f73b6a7A","correct":-1,"choice":32,"rt":805.9800000000978,"accuracy":0,"outcome":"-10","keys":[2307.0950000001467],"total_keys":1,"block":1,"trial":32,"stimulus":2,"robot":4,"valence":"lose","action":"no-go","sham":0,"trial_type":"pit-trial","trial_index":82,"time_elapsed":450113,"internal_node_id":"0.0-39.0","task_version":"battery-v0.2-trt"},{"rune":"Z","rune_set":"elianto","hex":"#3366ff99","correct":32,"choice":32,"rt":1254.2299999995157,"accuracy":1,"outcome":"+10","keys":[2754.969999999972],"total_keys":1,"block":1,"trial":33,"stimulus":4,"robot":1,"valence":"win","action":"go","sham":0,"trial_type":"pit-trial","trial_index":83,"time_elapsed":454071,"internal_node_id":"0.0-40.0","task_version":"battery-v0.2-trt"},{"rune":"Y","rune_set":"elianto","hex":"#f73b6a7A","correct":-1,"choice":-1,"rt":-1,"accuracy":1,"outcome":"-1","keys":[3487.6250000006403],"total_keys":1,"block":1,"trial":34,"stimulus":2,"robot":4,"valence":"lose","action":"no-go","sham":0,"trial_type":"pit-trial","trial_index":84,"time_elapsed":458077,"internal_node_id":"0.0-41.0","task_version":"battery-v0.2-trt"},{"rune":"H","rune_set":"elianto","hex":"#3366ff99","correct":32,"choice":-1,"rt":-1,"accuracy":0,"outcome":"+1","keys":[3150.1950000001816,3622.5749999994296],"total_keys":2,"block":1,"trial":35,"stimulus":3,"robot":1,"valence":"win","action":"go","sham":0,"trial_type":"pit-trial","trial_index":85,"time_elapsed":462083,"internal_node_id":"0.0-42.0","task_version":"battery-v0.2-trt"},{"rune":"M","rune_set":"elianto","hex":"#3366ff99","correct":-1,"choice":-1,"rt":-1,"accuracy":1,"outcome":"+10","keys":[136.4700000003795,2845.8100000007544],"total_keys":2,"block":1,"trial":36,"stimulus":0,"robot":2,"valence":"win","action":"no-go","sham":0,"trial_type":"pit-trial","trial_index":86,"time_elapsed":466087,"internal_node_id":"0.0-43.0","task_version":"battery-v0.2-trt"},{"rune":"Z","rune_set":"elianto","hex":"#3366ff99","correct":32,"choice":-1,"rt":-1,"accuracy":0,"outcome":"+1","keys":[3139.369999999879,3634.5200000005425],"total_keys":2,"block":1,"trial":37,"stimulus":4,"robot":1,"valence":"win","action":"go","sham":0,"trial_type":"pit-trial","trial_index":87,"time_elapsed":470090,"internal_node_id":"0.0-44.0","task_version":"battery-v0.2-trt"},{"rune":"M","rune_set":"elianto","hex":"#3366ff99","correct":-1,"choice":32,"rt":718.0699999998906,"accuracy":0,"outcome":"+1","keys":[226.86499999964144,2218.2299999995157],"total_keys":2,"block":1,"trial":38,"stimulus":0,"robot":2,"valence":"win","action":"no-go","sham":0,"trial_type":"pit-trial","trial_index":88,"time_elapsed":473510,"internal_node_id":"0.0-45.0","task_version":"battery-v0.2-trt"},{"rune":"H","rune_set":"elianto","hex":"#3366ff99","correct":32,"choice":-1,"rt":-1,"accuracy":0,"outcome":"+1","keys":[],"total_keys":0,"block":1,"trial":39,"stimulus":3,"robot":1,"valence":"win","action":"go","sham":0,"trial_type":"pit-trial","trial_index":89,"time_elapsed":477517,"internal_node_id":"0.0-46.0","task_version":"battery-v0.2-trt"},{"rune":"Y","rune_set":"elianto","hex":"#f73b6a7A","correct":-1,"choice":32,"rt":525.7050000000745,"accuracy":0,"outcome":"-10","keys":[2026.2249999995693],"total_keys":1,"block":1,"trial":40,"stimulus":2,"robot":4,"valence":"lose","action":"no-go","sham":0,"trial_type":"pit-trial","trial_index":90,"time_elapsed":480746,"internal_node_id":"0.0-47.0","task_version":"battery-v0.2-trt"},{"rune":"C","rune_set":"elianto","hex":"#f73b6a7A","correct":32,"choice":32,"rt":671.3699999999953,"accuracy":1,"outcome":"-1","keys":[2171.78000000061],"total_keys":1,"block":1,"trial":41,"stimulus":5,"robot":3,"valence":"lose","action":"go","sham":0,"trial_type":"pit-trial","trial_index":91,"time_elapsed":484122,"internal_node_id":"0.0-48.0","task_version":"battery-v0.2-trt"},{"rune":"M","rune_set":"elianto","hex":"#3366ff99","correct":-1,"choice":32,"rt":299.05499999952735,"accuracy":0,"outcome":"+1","keys":[1799.2450000001118],"total_keys":1,"block":1,"trial":42,"stimulus":0,"robot":2,"valence":"win","action":"no-go","sham":0,"trial_type":"pit-trial","trial_index":92,"time_elapsed":487124,"internal_node_id":"0.0-49.0","task_version":"battery-v0.2-trt"},{"rune":"B","rune_set":"elianto","hex":"#f73b6a7A","correct":-1,"choice":32,"rt":287.07499999931315,"accuracy":0,"outcome":"-10","keys":[1790.0899999995017],"total_keys":1,"block":1,"trial":43,"stimulus":6,"robot":4,"valence":"lose","action":"no-go","sham":0,"trial_type":"pit-trial","trial_index":93,"time_elapsed":490116,"internal_node_id":"0.0-50.0","task_version":"battery-v0.2-trt"},{"rune":"Z","rune_set":"elianto","hex":"#3366ff99","correct":32,"choice":32,"rt":289.800000000454,"accuracy":1,"outcome":"+10","keys":[1790.2199999998556],"total_keys":1,"block":1,"trial":44,"stimulus":4,"robot":1,"valence":"win","action":"go","sham":0,"trial_type":"pit-trial","trial_index":94,"time_elapsed":493108,"internal_node_id":"0.0-51.0","task_version":"battery-v0.2-trt"},{"rune":"C","rune_set":"elianto","hex":"#f73b6a7A","correct":32,"choice":32,"rt":594.7449999994133,"accuracy":1,"outcome":"-1","keys":[2095.199999999779],"total_keys":1,"block":1,"trial":45,"stimulus":5,"robot":3,"valence":"lose","action":"go","sham":0,"trial_type":"pit-trial","trial_index":95,"time_elapsed":496404,"internal_node_id":"0.0-52.0","task_version":"battery-v0.2-trt"},{"rune":"Z","rune_set":"elianto","hex":"#3366ff99","correct":32,"choice":32,"rt":347.2149999997928,"accuracy":1,"outcome":"+10","keys":[1847.6399999999558],"total_keys":1,"block":1,"trial":46,"stimulus":4,"robot":1,"valence":"win","action":"go","sham":0,"trial_type":"pit-trial","trial_index":96,"time_elapsed":499456,"internal_node_id":"0.0-53.0","task_version":"battery-v0.2-trt"},{"rune":"M","rune_set":"elianto","hex":"#3366ff99","correct":-1,"choice":32,"rt":701.6899999998859,"accuracy":0,"outcome":"+1","keys":[2204.450000000128],"total_keys":1,"block":1,"trial":47,"stimulus":0,"robot":2,"valence":"win","action":"no-go","sham":0,"trial_type":"pit-trial","trial_index":97,"time_elapsed":502864,"internal_node_id":"0.0-54.0","task_version":"battery-v0.2-trt"},{"rune":"B","rune_set":"elianto","hex":"#f73b6a7A","correct":-1,"choice":32,"rt":716.5099999993108,"accuracy":0,"outcome":"-10","keys":[2216.6849999994156],"total_keys":1,"block":1,"trial":48,"stimulus":6,"robot":4,"valence":"lose","action":"no-go","sham":0,"trial_type":"pit-trial","trial_index":98,"time_elapsed":506283,"internal_node_id":"0.0-55.0","task_version":"battery-v0.2-trt"},{"rune":"Z","rune_set":"elianto","hex":"#3366ff99","correct":32,"choice":32,"rt":447.67000000044936,"accuracy":1,"outcome":"+10","keys":[1947.9100000007893],"total_keys":1,"block":1,"trial":49,"stimulus":4,"robot":1,"valence":"win","action":"go","sham":0,"trial_type":"pit-trial","trial_index":99,"time_elapsed":509434,"internal_node_id":"0.0-56.0","task_version":"battery-v0.2-trt"},{"rune":"B","rune_set":"elianto","hex":"#f73b6a7A","correct":-1,"choice":32,"rt":1043.2899999996298,"accuracy":0,"outcome":"-10","keys":[2543.450000000128],"total_keys":1,"block":1,"trial":50,"stimulus":6,"robot":4,"valence":"lose","action":"no-go","sham":0,"trial_type":"pit-trial","trial_index":100,"time_elapsed":513179,"internal_node_id":"0.0-57.0","task_version":"battery-v0.2-trt"},{"rune":"C","rune_set":"elianto","hex":"#f73b6a7A","correct":32,"choice":32,"rt":774.1349999996601,"accuracy":1,"outcome":"-1","keys":[2274.395000000368],"total_keys":1,"block":1,"trial":51,"stimulus":5,"robot":3,"valence":"lose","action":"go","sham":0,"trial_type":"pit-trial","trial_index":101,"time_elapsed":516656,"internal_node_id":"0.0-58.0","task_version":"battery-v0.2-trt"},{"rune":"T","rune_set":"elianto","hex":"#3366ff99","correct":-1,"choice":32,"rt":704.4850000002189,"accuracy":0,"outcome":"+10","keys":[2206.0450000007986],"total_keys":1,"block":1,"trial":52,"stimulus":7,"robot":2,"valence":"win","action":"no-go","sham":1,"trial_type":"pit-trial","trial_index":102,"time_elapsed":520066,"internal_node_id":"0.0-59.0","task_version":"battery-v0.2-trt"},{"rune":"T","rune_set":"elianto","hex":"#3366ff99","correct":-1,"choice":32,"rt":525.4699999995646,"accuracy":0,"outcome":"+1","keys":[2025.6699999999837],"total_keys":1,"block":1,"trial":53,"stimulus":7,"robot":2,"valence":"win","action":"no-go","sham":0,"trial_type":"pit-trial","trial_index":103,"time_elapsed":523293,"internal_node_id":"0.0-60.0","task_version":"battery-v0.2-trt"},{"rune":"Z","rune_set":"elianto","hex":"#3366ff99","correct":32,"choice":32,"rt":718.1149999996414,"accuracy":1,"outcome":"+10","keys":[2218.4050000004936],"total_keys":1,"block":1,"trial":54,"stimulus":4,"robot":1,"valence":"win","action":"go","sham":0,"trial_type":"pit-trial","trial_index":104,"time_elapsed":526716,"internal_node_id":"0.0-61.0","task_version":"battery-v0.2-trt"},{"rune":"C","rune_set":"elianto","hex":"#f73b6a7A","correct":32,"choice":32,"rt":646.7750000001397,"accuracy":1,"outcome":"-10","keys":[2148.545000000042],"total_keys":1,"block":1,"trial":55,"stimulus":5,"robot":3,"valence":"lose","action":"go","sham":1,"trial_type":"pit-trial","trial_index":105,"time_elapsed":530071,"internal_node_id":"0.0-62.0","task_version":"battery-v0.2-trt"},{"rune":"B","rune_set":"elianto","hex":"#f73b6a7A","correct":-1,"choice":32,"rt":227.3949999999022,"accuracy":0,"outcome":"-10","keys":[1729.4400000000605],"total_keys":1,"block":1,"trial":56,"stimulus":6,"robot":4,"valence":"lose","action":"no-go","sham":0,"trial_type":"pit-trial","trial_index":106,"time_elapsed":533005,"internal_node_id":"0.0-63.0","task_version":"battery-v0.2-trt"},{"rune":"B","rune_set":"elianto","hex":"#f73b6a7A","correct":-1,"choice":-1,"rt":-1,"accuracy":1,"outcome":"-1","keys":[],"total_keys":0,"block":1,"trial":57,"stimulus":6,"robot":4,"valence":"lose","action":"no-go","sham":0,"trial_type":"pit-trial","trial_index":107,"time_elapsed":537009,"internal_node_id":"0.0-64.0","task_version":"battery-v0.2-trt"},{"rune":"C","rune_set":"elianto","hex":"#f73b6a7A","correct":32,"choice":-1,"rt":-1,"accuracy":0,"outcome":"-10","keys":[],"total_keys":0,"block":1,"trial":58,"stimulus":5,"robot":3,"valence":"lose","action":"go","sham":0,"trial_type":"pit-trial","trial_index":108,"time_elapsed":541014,"internal_node_id":"0.0-65.0","task_version":"battery-v0.2-trt"},{"rune":"T","rune_set":"elianto","hex":"#3366ff99","correct":-1,"choice":32,"rt":805.7550000003539,"accuracy":0,"outcome":"+1","keys":[2307.550000000396],"total_keys":1,"block":1,"trial":59,"stimulus":7,"robot":2,"valence":"win","action":"no-go","sham":0,"trial_type":"pit-trial","trial_index":109,"time_elapsed":544527,"internal_node_id":"0.0-66.0","task_version":"battery-v0.2-trt"},{"rune":"Z","rune_set":"elianto","hex":"#3366ff99","correct":32,"choice":32,"rt":274.5649999997113,"accuracy":1,"outcome":"+10","keys":[1774.715000000433],"total_keys":1,"block":1,"trial":60,"stimulus":4,"robot":1,"valence":"win","action":"go","sham":0,"trial_type":"pit-trial","trial_index":110,"time_elapsed":547506,"internal_node_id":"0.0-67.0","task_version":"battery-v0.2-trt"},{"rune":"Z","rune_set":"elianto","hex":"#3366ff99","correct":32,"choice":32,"rt":1164.0349999997998,"accuracy":1,"outcome":"+10","keys":[2666.170000000391],"total_keys":1,"block":1,"trial":61,"stimulus":4,"robot":1,"valence":"win","action":"go","sham":0,"trial_type":"pit-trial","trial_index":111,"time_elapsed":551377,"internal_node_id":"0.0-68.0","task_version":"battery-v0.2-trt"},{"rune":"B","rune_set":"elianto","hex":"#f73b6a7A","correct":-1,"choice":-1,"rt":-1,"accuracy":1,"outcome":"-1","keys":[],"total_keys":0,"block":1,"trial":62,"stimulus":6,"robot":4,"valence":"lose","action":"no-go","sham":0,"trial_type":"pit-trial","trial_index":112,"time_elapsed":555381,"internal_node_id":"0.0-69.0","task_version":"battery-v0.2-trt"},{"rune":"C","rune_set":"elianto","hex":"#f73b6a7A","correct":32,"choice":32,"rt":636.234999999986,"accuracy":1,"outcome":"-1","keys":[2137.689999999595],"total_keys":1,"block":1,"trial":63,"stimulus":5,"robot":3,"valence":"lose","action":"go","sham":0,"trial_type":"pit-trial","trial_index":113,"time_elapsed":558723,"internal_node_id":"0.0-70.0","task_version":"battery-v0.2-trt"},{"rune":"T","rune_set":"elianto","hex":"#3366ff99","correct":-1,"choice":32,"rt":512.7300000003306,"accuracy":0,"outcome":"+1","keys":[2012.8949999999022],"total_keys":1,"block":1,"trial":64,"stimulus":7,"robot":2,"valence":"win","action":"no-go","sham":0,"trial_type":"pit-trial","trial_index":114,"time_elapsed":561937,"internal_node_id":"0.0-71.0","task_version":"battery-v0.2-trt"},{"rune":"B","rune_set":"elianto","hex":"#f73b6a7A","correct":-1,"choice":32,"rt":617.8099999997066,"accuracy":0,"outcome":"-10","keys":[2117.9799999999814],"total_keys":1,"block":1,"trial":65,"stimulus":6,"robot":4,"valence":"lose","action":"no-go","sham":0,"trial_type":"pit-trial","trial_index":115,"time_elapsed":565259,"internal_node_id":"0.0-72.0","task_version":"battery-v0.2-trt"},{"rune":"T","rune_set":"elianto","hex":"#3366ff99","correct":-1,"choice":-1,"rt":-1,"accuracy":1,"outcome":"+10","keys":[],"total_keys":0,"block":1,"trial":66,"stimulus":7,"robot":2,"valence":"win","action":"no-go","sham":0,"trial_type":"pit-trial","trial_index":116,"time_elapsed":570822,"internal_node_id":"0.0-73.0","task_version":"battery-v0.2-trt"},{"rune":"C","rune_set":"elianto","hex":"#f73b6a7A","correct":32,"choice":-1,"rt":-1,"accuracy":0,"outcome":"-10","keys":[],"total_keys":0,"block":1,"trial":67,"stimulus":5,"robot":3,"valence":"lose","action":"go","sham":0,"trial_type":"pit-trial","trial_index":117,"time_elapsed":576367,"internal_node_id":"0.0-74.0","task_version":"battery-v0.2-trt"},{"rune":"Z","rune_set":"elianto","hex":"#3366ff99","correct":32,"choice":-1,"rt":-1,"accuracy":0,"outcome":"+1","keys":[],"total_keys":0,"block":1,"trial":68,"stimulus":4,"robot":1,"valence":"win","action":"go","sham":0,"trial_type":"pit-trial","trial_index":118,"time_elapsed":581182,"internal_node_id":"0.0-75.0","task_version":"battery-v0.2-trt"},{"rune":"C","rune_set":"elianto","hex":"#f73b6a7A","correct":32,"choice":32,"rt":1173.289999999688,"accuracy":1,"outcome":"-10","keys":[1076.654999999795,2673.4999999998836],"total_keys":2,"block":1,"trial":69,"stimulus":5,"robot":3,"valence":"lose","action":"go","sham":1,"trial_type":"pit-trial","trial_index":119,"time_elapsed":585057,"internal_node_id":"0.0-76.0","task_version":"battery-v0.2-trt"},{"rune":"Z","rune_set":"elianto","hex":"#3366ff99","correct":32,"choice":32,"rt":549.3649999998743,"accuracy":1,"outcome":"+10","keys":[2050.269999999786],"total_keys":1,"block":1,"trial":70,"stimulus":4,"robot":1,"valence":"win","action":"go","sham":0,"trial_type":"pit-trial","trial_index":120,"time_elapsed":588311,"internal_node_id":"0.0-77.0","task_version":"battery-v0.2-trt"},{"rune":"T","rune_set":"elianto","hex":"#3366ff99","correct":-1,"choice":32,"rt":479.82499999937136,"accuracy":0,"outcome":"+1","keys":[1980.0450000002747],"total_keys":1,"block":1,"trial":71,"stimulus":7,"robot":2,"valence":"win","action":"no-go","sham":0,"trial_type":"pit-trial","trial_index":121,"time_elapsed":591497,"internal_node_id":"0.0-78.0","task_version":"battery-v0.2-trt"},{"rune":"B","rune_set":"elianto","hex":"#f73b6a7A","correct":-1,"choice":32,"rt":780.4400000005262,"accuracy":0,"outcome":"-1","keys":[2280.865000000689],"total_keys":1,"block":1,"trial":72,"stimulus":6,"robot":4,"valence":"lose","action":"no-go","sham":1,"trial_type":"pit-trial","trial_index":122,"time_elapsed":594984,"internal_node_id":"0.0-79.0","task_version":"battery-v0.2-trt"},{"rune":"T","rune_set":"elianto","hex":"#3366ff99","correct":-1,"choice":32,"rt":590.5149999998976,"accuracy":0,"outcome":"+10","keys":[2090.579999999958],"total_keys":1,"block":1,"trial":73,"stimulus":7,"robot":2,"valence":"win","action":"no-go","sham":1,"trial_type":"pit-trial","trial_index":123,"time_elapsed":598279,"internal_node_id":"0.0-80.0","task_version":"battery-v0.2-trt"},{"rune":"B","rune_set":"elianto","hex":"#f73b6a7A","correct":-1,"choice":32,"rt":815.9050000003772,"accuracy":0,"outcome":"-10","keys":[2317.044999999809],"total_keys":1,"block":1,"trial":74,"stimulus":6,"robot":4,"valence":"lose","action":"no-go","sham":0,"trial_type":"pit-trial","trial_index":124,"time_elapsed":601797,"internal_node_id":"0.0-81.0","task_version":"battery-v0.2-trt"},{"rune":"X","rune_set":"elianto","hex":"#f73b6a7A","correct":32,"choice":32,"rt":457.7550000003539,"accuracy":1,"outcome":"-1","keys":[1959.5399999998044],"total_keys":1,"block":1,"trial":75,"stimulus":8,"robot":3,"valence":"lose","action":"go","sham":0,"trial_type":"pit-trial","trial_index":125,"time_elapsed":604963,"internal_node_id":"0.0-82.0","task_version":"battery-v0.2-trt"},{"rune":"Z","rune_set":"elianto","hex":"#3366ff99","correct":32,"choice":32,"rt":272.78999999992084,"accuracy":1,"outcome":"+10","keys":[1775.2200000004377],"total_keys":1,"block":1,"trial":76,"stimulus":4,"robot":1,"valence":"win","action":"go","sham":0,"trial_type":"pit-trial","trial_index":126,"time_elapsed":607941,"internal_node_id":"0.0-83.0","task_version":"battery-v0.2-trt"},{"rune":"T","rune_set":"elianto","hex":"#3366ff99","correct":-1,"choice":32,"rt":887.104999999865,"accuracy":0,"outcome":"+1","keys":[2387.270000000135],"total_keys":1,"block":1,"trial":77,"stimulus":7,"robot":2,"valence":"win","action":"no-go","sham":0,"trial_type":"pit-trial","trial_index":127,"time_elapsed":611530,"internal_node_id":"0.0-84.0","task_version":"battery-v0.2-trt"},{"rune":"X","rune_set":"elianto","hex":"#f73b6a7A","correct":32,"choice":32,"rt":369.22000000055414,"accuracy":1,"outcome":"-10","keys":[1869.3100000000559],"total_keys":1,"block":1,"trial":78,"stimulus":8,"robot":3,"valence":"lose","action":"go","sham":1,"trial_type":"pit-trial","trial_index":128,"time_elapsed":614600,"internal_node_id":"0.0-85.0","task_version":"battery-v0.2-trt"},{"rune":"B","rune_set":"elianto","hex":"#f73b6a7A","correct":-1,"choice":32,"rt":348.68499999982305,"accuracy":0,"outcome":"-10","keys":[1442.5000000001164,1848.769999999553],"total_keys":2,"block":1,"trial":79,"stimulus":6,"robot":4,"valence":"lose","action":"no-go","sham":0,"trial_type":"pit-trial","trial_index":129,"time_elapsed":617653,"internal_node_id":"0.0-86.0","task_version":"battery-v0.2-trt"},{"rune":"Z","rune_set":"elianto","hex":"#3366ff99","correct":32,"choice":32,"rt":455.13500000012573,"accuracy":1,"outcome":"+10","keys":[1955.3050000004005],"total_keys":1,"block":1,"trial":80,"stimulus":4,"robot":1,"valence":"win","action":"go","sham":0,"trial_type":"pit-trial","trial_index":130,"time_elapsed":620812,"internal_node_id":"0.0-87.0","task_version":"battery-v0.2-trt"},{"rune":"B","rune_set":"elianto","hex":"#f73b6a7A","correct":-1,"choice":32,"rt":345.4500000006519,"accuracy":0,"outcome":"-1","keys":[1846.0299999996787],"total_keys":1,"block":1,"trial":81,"stimulus":6,"robot":4,"valence":"lose","action":"no-go","sham":1,"trial_type":"pit-trial","trial_index":131,"time_elapsed":623860,"internal_node_id":"0.0-88.0","task_version":"battery-v0.2-trt"},{"rune":"T","rune_set":"elianto","hex":"#3366ff99","correct":-1,"choice":32,"rt":785.2249999996275,"accuracy":0,"outcome":"+1","keys":[2285.4500000003027],"total_keys":1,"block":1,"trial":82,"stimulus":7,"robot":2,"valence":"win","action":"no-go","sham":0,"trial_type":"pit-trial","trial_index":132,"time_elapsed":627348,"internal_node_id":"0.0-89.0","task_version":"battery-v0.2-trt"},{"rune":"X","rune_set":"elianto","hex":"#f73b6a7A","correct":32,"choice":32,"rt":121.5099999998929,"accuracy":1,"outcome":"-1","keys":[1621.7149999993853],"total_keys":1,"block":1,"trial":83,"stimulus":8,"robot":3,"valence":"lose","action":"go","sham":0,"trial_type":"pit-trial","trial_index":133,"time_elapsed":630171,"internal_node_id":"0.0-90.0","task_version":"battery-v0.2-trt"},{"rune":"F","rune_set":"elianto","hex":"#f73b6a7A","correct":32,"choice":32,"rt":345.3899999995483,"accuracy":1,"outcome":"-1","keys":[1847.0349999996834],"total_keys":1,"block":1,"trial":84,"stimulus":9,"robot":3,"valence":"lose","action":"go","sham":0,"trial_type":"pit-trial","trial_index":134,"time_elapsed":633222,"internal_node_id":"0.0-91.0","task_version":"battery-v0.2-trt"},{"rune":"T","rune_set":"elianto","hex":"#3366ff99","correct":-1,"choice":32,"rt":468.59499999939,"accuracy":0,"outcome":"+1","keys":[1968.705000000191],"total_keys":1,"block":1,"trial":85,"stimulus":7,"robot":2,"valence":"win","action":"no-go","sham":0,"trial_type":"pit-trial","trial_index":135,"time_elapsed":636392,"internal_node_id":"0.0-92.0","task_version":"battery-v0.2-trt"},{"rune":"B","rune_set":"elianto","hex":"#f73b6a7A","correct":-1,"choice":32,"rt":414.35499999986496,"accuracy":0,"outcome":"-10","keys":[1914.4249999999302],"total_keys":1,"block":1,"trial":86,"stimulus":6,"robot":4,"valence":"lose","action":"no-go","sham":0,"trial_type":"pit-trial","trial_index":136,"time_elapsed":639513,"internal_node_id":"0.0-93.0","task_version":"battery-v0.2-trt"},{"rune":"F","rune_set":"elianto","hex":"#f73b6a7A","correct":32,"choice":32,"rt":419.3800000002375,"accuracy":1,"outcome":"-1","keys":[1055.0050000002375,1482.6149999999907,1921.2550000002375],"total_keys":3,"block":1,"trial":87,"stimulus":9,"robot":3,"valence":"lose","action":"go","sham":0,"trial_type":"pit-trial","trial_index":137,"time_elapsed":642640,"internal_node_id":"0.0-94.0","task_version":"battery-v0.2-trt"},{"rune":"X","rune_set":"elianto","hex":"#f73b6a7A","correct":32,"choice":-1,"rt":-1,"accuracy":0,"outcome":"-10","keys":[3205.9399999998277],"total_keys":1,"block":1,"trial":88,"stimulus":8,"robot":3,"valence":"lose","action":"go","sham":0,"trial_type":"pit-trial","trial_index":138,"time_elapsed":646645,"internal_node_id":"0.0-95.0","task_version":"battery-v0.2-trt"},{"rune":"N","rune_set":"elianto","hex":"#f73b6a7A","correct":-1,"choice":32,"rt":342.4699999996228,"accuracy":0,"outcome":"-10","keys":[1281.1099999998696,1843.8700000005774],"total_keys":2,"block":1,"trial":89,"stimulus":10,"robot":4,"valence":"lose","action":"no-go","sham":0,"trial_type":"pit-trial","trial_index":139,"time_elapsed":649692,"internal_node_id":"0.0-96.0","task_version":"battery-v0.2-trt"},{"rune":"F","rune_set":"elianto","hex":"#f73b6a7A","correct":32,"choice":32,"rt":457.7449999996461,"accuracy":1,"outcome":"-10","keys":[1958.1200000002282],"total_keys":1,"block":1,"trial":90,"stimulus":9,"robot":3,"valence":"lose","action":"go","sham":1,"trial_type":"pit-trial","trial_index":140,"time_elapsed":652852,"internal_node_id":"0.0-97.0","task_version":"battery-v0.2-trt"},{"rune":"X","rune_set":"elianto","hex":"#f73b6a7A","correct":32,"choice":32,"rt":222.69999999937136,"accuracy":1,"outcome":"-1","keys":[1723.1499999997905],"total_keys":1,"block":1,"trial":91,"stimulus":8,"robot":3,"valence":"lose","action":"go","sham":0,"trial_type":"pit-trial","trial_index":141,"time_elapsed":655781,"internal_node_id":"0.0-98.0","task_version":"battery-v0.2-trt"},{"rune":"Q","rune_set":"elianto","hex":"#3366ff99","correct":-1,"choice":-1,"rt":-1,"accuracy":1,"outcome":"+1","keys":[3024.585000000079,3417.8149999998277],"total_keys":2,"block":1,"trial":92,"stimulus":11,"robot":2,"valence":"win","action":"no-go","sham":1,"trial_type":"pit-trial","trial_index":142,"time_elapsed":659787,"internal_node_id":"0.0-99.0","task_version":"battery-v0.2-trt"},{"rune":"F","rune_set":"elianto","hex":"#f73b6a7A","correct":32,"choice":-1,"rt":-1,"accuracy":0,"outcome":"-10","keys":[3169.9800000005635],"total_keys":1,"block":1,"trial":93,"stimulus":9,"robot":3,"valence":"lose","action":"go","sham":0,"trial_type":"pit-trial","trial_index":143,"time_elapsed":663790,"internal_node_id":"0.0-100.0","task_version":"battery-v0.2-trt"},{"rune":"N","rune_set":"elianto","hex":"#f73b6a7A","correct":-1,"choice":32,"rt":556.0750000004191,"accuracy":0,"outcome":"-10","keys":[2058.1099999998696],"total_keys":1,"block":1,"trial":94,"stimulus":10,"robot":4,"valence":"lose","action":"no-go","sham":0,"trial_type":"pit-trial","trial_index":144,"time_elapsed":667051,"internal_node_id":"0.0-101.0","task_version":"battery-v0.2-trt"},{"rune":"X","rune_set":"elianto","hex":"#f73b6a7A","correct":32,"choice":-1,"rt":-1,"accuracy":0,"outcome":"-10","keys":[],"total_keys":0,"block":1,"trial":95,"stimulus":8,"robot":3,"valence":"lose","action":"go","sham":0,"trial_type":"pit-trial","trial_index":145,"time_elapsed":671054,"internal_node_id":"0.0-102.0","task_version":"battery-v0.2-trt"},{"rune":"Q","rune_set":"elianto","hex":"#3366ff99","correct":-1,"choice":-1,"rt":-1,"accuracy":1,"outcome":"+10","keys":[2883.2700000002515],"total_keys":1,"block":1,"trial":96,"stimulus":11,"robot":2,"valence":"win","action":"no-go","sham":0,"trial_type":"pit-trial","trial_index":146,"time_elapsed":675064,"internal_node_id":"0.0-103.0","task_version":"battery-v0.2-trt"},{"rune":"X","rune_set":"elianto","hex":"#f73b6a7A","correct":32,"choice":-1,"rt":-1,"accuracy":0,"outcome":"-1","keys":[],"total_keys":0,"block":1,"trial":97,"stimulus":8,"robot":3,"valence":"lose","action":"go","sham":1,"trial_type":"pit-trial","trial_index":147,"time_elapsed":679071,"internal_node_id":"0.0-104.0","task_version":"battery-v0.2-trt"},{"rune":"F","rune_set":"elianto","hex":"#f73b6a7A","correct":32,"choice":-1,"rt":-1,"accuracy":0,"outcome":"-1","keys":[3506.9999999995343],"total_keys":1,"block":1,"trial":98,"stimulus":9,"robot":3,"valence":"lose","action":"go","sham":1,"trial_type":"pit-trial","trial_index":148,"time_elapsed":683075,"internal_node_id":"0.0-105.0","task_version":"battery-v0.2-trt"},{"rune":"N","rune_set":"elianto","hex":"#f73b6a7A","correct":-1,"choice":32,"rt":252.26000000024214,"accuracy":0,"outcome":"-1","keys":[1752.6349999997765],"total_keys":1,"block":1,"trial":99,"stimulus":10,"robot":4,"valence":"lose","action":"no-go","sham":1,"trial_type":"pit-trial","trial_index":149,"time_elapsed":686034,"internal_node_id":"0.0-106.0","task_version":"battery-v0.2-trt"},{"rune":"Q","rune_set":"elianto","hex":"#3366ff99","correct":-1,"choice":32,"rt":1183.6499999999069,"accuracy":0,"outcome":"+1","keys":[2685.7850000006147],"total_keys":1,"block":1,"trial":100,"stimulus":11,"robot":2,"valence":"win","action":"no-go","sham":0,"trial_type":"pit-trial","trial_index":150,"time_elapsed":689924,"internal_node_id":"0.0-107.0","task_version":"battery-v0.2-trt"},{"rune":"Q","rune_set":"elianto","hex":"#3366ff99","correct":-1,"choice":32,"rt":625.7599999998929,"accuracy":0,"outcome":"+1","keys":[2126.280000000377],"total_keys":1,"block":1,"trial":101,"stimulus":11,"robot":2,"valence":"win","action":"no-go","sham":0,"trial_type":"pit-trial","trial_index":151,"time_elapsed":693255,"internal_node_id":"0.0-108.0","task_version":"battery-v0.2-trt"},{"rune":"F","rune_set":"elianto","hex":"#f73b6a7A","correct":32,"choice":32,"rt":647.4399999997113,"accuracy":1,"outcome":"-1","keys":[2147.605000000098],"total_keys":1,"block":1,"trial":102,"stimulus":9,"robot":3,"valence":"lose","action":"go","sham":0,"trial_type":"pit-trial","trial_index":152,"time_elapsed":696605,"internal_node_id":"0.0-109.0","task_version":"battery-v0.2-trt"},{"rune":"X","rune_set":"elianto","hex":"#f73b6a7A","correct":32,"choice":-1,"rt":-1,"accuracy":0,"outcome":"-10","keys":[3129.5549999995856],"total_keys":1,"block":1,"trial":103,"stimulus":8,"robot":3,"valence":"lose","action":"go","sham":0,"trial_type":"pit-trial","trial_index":153,"time_elapsed":700612,"internal_node_id":"0.0-110.0","task_version":"battery-v0.2-trt"},{"rune":"N","rune_set":"elianto","hex":"#f73b6a7A","correct":-1,"choice":-1,"rt":-1,"accuracy":1,"outcome":"-1","keys":[],"total_keys":0,"block":1,"trial":104,"stimulus":10,"robot":4,"valence":"lose","action":"no-go","sham":0,"trial_type":"pit-trial","trial_index":154,"time_elapsed":704620,"internal_node_id":"0.0-111.0","task_version":"battery-v0.2-trt"},{"rune":"X","rune_set":"elianto","hex":"#f73b6a7A","correct":32,"choice":-1,"rt":-1,"accuracy":0,"outcome":"-10","keys":[3203.634999999893],"total_keys":1,"block":1,"trial":105,"stimulus":8,"robot":3,"valence":"lose","action":"go","sham":0,"trial_type":"pit-trial","trial_index":155,"time_elapsed":708625,"internal_node_id":"0.0-112.0","task_version":"battery-v0.2-trt"},{"rune":"F","rune_set":"elianto","hex":"#f73b6a7A","correct":32,"choice":32,"rt":329.8949999997858,"accuracy":1,"outcome":"-1","keys":[1301.9600000006612,1830.340000000433],"total_keys":2,"block":1,"trial":106,"stimulus":9,"robot":3,"valence":"lose","action":"go","sham":0,"trial_type":"pit-trial","trial_index":156,"time_elapsed":711662,"internal_node_id":"0.0-113.0","task_version":"battery-v0.2-trt"},{"rune":"Q","rune_set":"elianto","hex":"#3366ff99","correct":-1,"choice":32,"rt":217.20000000006985,"accuracy":0,"outcome":"+1","keys":[1719.3150000002934],"total_keys":1,"block":1,"trial":107,"stimulus":11,"robot":2,"valence":"win","action":"no-go","sham":0,"trial_type":"pit-trial","trial_index":157,"time_elapsed":714584,"internal_node_id":"0.0-114.0","task_version":"battery-v0.2-trt"},{"rune":"N","rune_set":"elianto","hex":"#f73b6a7A","correct":-1,"choice":32,"rt":285.5699999999488,"accuracy":0,"outcome":"-10","keys":[1788.9300000006333],"total_keys":1,"block":1,"trial":108,"stimulus":10,"robot":4,"valence":"lose","action":"no-go","sham":0,"trial_type":"pit-trial","trial_index":158,"time_elapsed":717577,"internal_node_id":"0.0-115.0","task_version":"battery-v0.2-trt"},{"rune":"Q","rune_set":"elianto","hex":"#3366ff99","correct":-1,"choice":32,"rt":660.6000000002095,"accuracy":0,"outcome":"+10","keys":[2160.6499999997905],"total_keys":1,"block":1,"trial":109,"stimulus":11,"robot":2,"valence":"win","action":"no-go","sham":1,"trial_type":"pit-trial","trial_index":159,"time_elapsed":720940,"internal_node_id":"0.0-116.0","task_version":"battery-v0.2-trt"},{"rune":"X","rune_set":"elianto","hex":"#f73b6a7A","correct":32,"choice":32,"rt":445.4099999993341,"accuracy":1,"outcome":"-10","keys":[1947.7249999999767],"total_keys":1,"block":1,"trial":110,"stimulus":8,"robot":3,"valence":"lose","action":"go","sham":1,"trial_type":"pit-trial","trial_index":160,"time_elapsed":724089,"internal_node_id":"0.0-117.0","task_version":"battery-v0.2-trt"},{"rune":"F","rune_set":"elianto","hex":"#f73b6a7A","correct":32,"choice":32,"rt":809.2349999996368,"accuracy":1,"outcome":"-1","keys":[2309.6150000002235],"total_keys":1,"block":1,"trial":111,"stimulus":9,"robot":3,"valence":"lose","action":"go","sham":0,"trial_type":"pit-trial","trial_index":161,"time_elapsed":727604,"internal_node_id":"0.0-118.0","task_version":"battery-v0.2-trt"},{"rune":"N","rune_set":"elianto","hex":"#f73b6a7A","correct":-1,"choice":32,"rt":668.1399999997811,"accuracy":0,"outcome":"-10","keys":[2168.3699999994133],"total_keys":1,"block":1,"trial":112,"stimulus":10,"robot":4,"valence":"lose","action":"no-go","sham":0,"trial_type":"pit-trial","trial_index":162,"time_elapsed":730974,"internal_node_id":"0.0-119.0","task_version":"battery-v0.2-trt"},{"rune":"X","rune_set":"elianto","hex":"#f73b6a7A","correct":32,"choice":-1,"rt":-1,"accuracy":0,"outcome":"-10","keys":[3579.5999999999767],"total_keys":1,"block":1,"trial":113,"stimulus":8,"robot":3,"valence":"lose","action":"go","sham":0,"trial_type":"pit-trial","trial_index":163,"time_elapsed":734986,"internal_node_id":"0.0-120.0","task_version":"battery-v0.2-trt"},{"rune":"N","rune_set":"elianto","hex":"#f73b6a7A","correct":-1,"choice":32,"rt":283.0649999997113,"accuracy":0,"outcome":"-10","keys":[1784.5050000004703],"total_keys":1,"block":1,"trial":114,"stimulus":10,"robot":4,"valence":"lose","action":"no-go","sham":0,"trial_type":"pit-trial","trial_index":164,"time_elapsed":737973,"internal_node_id":"0.0-121.0","task_version":"battery-v0.2-trt"},{"rune":"F","rune_set":"elianto","hex":"#f73b6a7A","correct":32,"choice":32,"rt":332.01000000012573,"accuracy":1,"outcome":"-10","keys":[1835.1000000002095],"total_keys":1,"block":1,"trial":115,"stimulus":9,"robot":3,"valence":"lose","action":"go","sham":1,"trial_type":"pit-trial","trial_index":165,"time_elapsed":741010,"internal_node_id":"0.0-122.0","task_version":"battery-v0.2-trt"},{"rune":"Q","rune_set":"elianto","hex":"#3366ff99","correct":-1,"choice":-1,"rt":-1,"accuracy":1,"outcome":"+10","keys":[],"total_keys":0,"block":1,"trial":116,"stimulus":11,"robot":2,"valence":"win","action":"no-go","sham":0,"trial_type":"pit-trial","trial_index":166,"time_elapsed":745020,"internal_node_id":"0.0-123.0","task_version":"battery-v0.2-trt"},{"rune":"N","rune_set":"elianto","hex":"#f73b6a7A","correct":-1,"choice":-1,"rt":-1,"accuracy":1,"outcome":"-1","keys":[],"total_keys":0,"block":1,"trial":117,"stimulus":10,"robot":4,"valence":"lose","action":"no-go","sham":0,"trial_type":"pit-trial","trial_index":167,"time_elapsed":749024,"internal_node_id":"0.0-124.0","task_version":"battery-v0.2-trt"},{"rune":"Q","rune_set":"elianto","hex":"#3366ff99","correct":-1,"choice":32,"rt":950.8100000002887,"accuracy":0,"outcome":"+1","keys":[2451.219999999972],"total_keys":1,"block":1,"trial":118,"stimulus":11,"robot":2,"valence":"win","action":"no-go","sham":0,"trial_type":"pit-trial","trial_index":168,"time_elapsed":752679,"internal_node_id":"0.0-125.0","task_version":"battery-v0.2-trt"},{"rune":"X","rune_set":"elianto","hex":"#f73b6a7A","correct":32,"choice":32,"rt":1232.9550000004238,"accuracy":1,"outcome":"-1","keys":[2733.320000000298],"total_keys":1,"block":1,"trial":119,"stimulus":8,"robot":3,"valence":"lose","action":"go","sham":0,"trial_type":"pit-trial","trial_index":169,"time_elapsed":756614,"internal_node_id":"0.0-126.0","task_version":"battery-v0.2-trt"},{"rune":"F","rune_set":"elianto","hex":"#f73b6a7A","correct":32,"choice":32,"rt":626.6599999999162,"accuracy":1,"outcome":"-1","keys":[2127.774999999907],"total_keys":1,"block":1,"trial":120,"stimulus":9,"robot":3,"valence":"lose","action":"go","sham":0,"trial_type":"pit-trial","trial_index":170,"time_elapsed":759943,"internal_node_id":"0.0-127.0","task_version":"battery-v0.2-trt"},{"view_history":"[{\"page_index\":0,\"viewing_time\":2883.4200000001583},{\"page_index\":1,\"viewing_time\":2666.439999999944}]","rt":5550.100000000442,"trial_type":"pit-instructions","trial_index":171,"time_elapsed":765494,"internal_node_id":"0.0-128.0","task_version":"battery-v0.2-trt"},{"rune":"A","rune_set":"elianto","hex":"#3366ff99","correct":32,"choice":32,"rt":410.1700000000419,"accuracy":1,"outcome":"+10","keys":[1910.3999999997905],"total_keys":1,"block":2,"trial":121,"stimulus":2,"robot":1,"valence":"win","action":"go","sham":0,"trial_type":"pit-trial","trial_index":172,"time_elapsed":768606,"internal_node_id":"0.0-129.0","task_version":"battery-v0.2-trt"},{"rune":"L","rune_set":"elianto","hex":"#f73b6a7A","correct":-1,"choice":32,"rt":670.7200000000885,"accuracy":0,"outcome":"-10","keys":[2173.7600000005914],"total_keys":1,"block":2,"trial":122,"stimulus":1,"robot":4,"valence":"lose","action":"no-go","sham":0,"trial_type":"pit-trial","trial_index":173,"time_elapsed":771983,"internal_node_id":"0.0-130.0","task_version":"battery-v0.2-trt"},{"rune":"G","rune_set":"elianto","hex":"#3366ff99","correct":-1,"choice":32,"rt":503.02000000013504,"accuracy":0,"outcome":"+1","keys":[2003.2350000001024],"total_keys":1,"block":2,"trial":123,"stimulus":3,"robot":2,"valence":"win","action":"no-go","sham":0,"trial_type":"pit-trial","trial_index":174,"time_elapsed":775191,"internal_node_id":"0.0-131.0","task_version":"battery-v0.2-trt"},{"rune":"U","rune_set":"elianto","hex":"#f73b6a7A","correct":-1,"choice":32,"rt":1188.200000000419,"accuracy":0,"outcome":"-1","keys":[2688.5199999996694],"total_keys":1,"block":2,"trial":124,"stimulus":0,"robot":4,"valence":"lose","action":"no-go","sham":1,"trial_type":"pit-trial","trial_index":175,"time_elapsed":779085,"internal_node_id":"0.0-132.0","task_version":"battery-v0.2-trt"},{"rune":"G","rune_set":"elianto","hex":"#3366ff99","correct":-1,"choice":32,"rt":444.1500000002561,"accuracy":0,"outcome":"+10","keys":[1944.2549999994226],"total_keys":1,"block":2,"trial":125,"stimulus":3,"robot":2,"valence":"win","action":"no-go","sham":1,"trial_type":"pit-trial","trial_index":176,"time_elapsed":782232,"internal_node_id":"0.0-133.0","task_version":"battery-v0.2-trt"},{"rune":"L","rune_set":"elianto","hex":"#f73b6a7A","correct":-1,"choice":32,"rt":1121.9049999999115,"accuracy":0,"outcome":"-1","keys":[2622.129999999772],"total_keys":1,"block":2,"trial":126,"stimulus":1,"robot":4,"valence":"lose","action":"no-go","sham":1,"trial_type":"pit-trial","trial_index":177,"time_elapsed":786056,"internal_node_id":"0.0-134.0","task_version":"battery-v0.2-trt"},{"rune":"U","rune_set":"elianto","hex":"#f73b6a7A","correct":-1,"choice":32,"rt":412.5800000001909,"accuracy":0,"outcome":"-10","keys":[1914.3749999993015],"total_keys":1,"block":2,"trial":127,"stimulus":0,"robot":4,"valence":"lose","action":"no-go","sham":0,"trial_type":"pit-trial","trial_index":178,"time_elapsed":789176,"internal_node_id":"0.0-135.0","task_version":"battery-v0.2-trt"},{"rune":"A","rune_set":"elianto","hex":"#3366ff99","correct":32,"choice":32,"rt":577.7799999995623,"accuracy":1,"outcome":"+10","keys":[2079.9250000000466],"total_keys":1,"block":2,"trial":128,"stimulus":2,"robot":1,"valence":"win","action":"go","sham":0,"trial_type":"pit-trial","trial_index":179,"time_elapsed":792461,"internal_node_id":"0.0-136.0","task_version":"battery-v0.2-trt"},{"rune":"L","rune_set":"elianto","hex":"#f73b6a7A","correct":-1,"choice":32,"rt":1061.494999999879,"accuracy":0,"outcome":"-1","keys":[2563.0149999996647],"total_keys":1,"block":2,"trial":129,"stimulus":1,"robot":4,"valence":"lose","action":"no-go","sham":1,"trial_type":"pit-trial","trial_index":180,"time_elapsed":796226,"internal_node_id":"0.0-137.0","task_version":"battery-v0.2-trt"},{"rune":"G","rune_set":"elianto","hex":"#3366ff99","correct":-1,"choice":32,"rt":673.2900000006193,"accuracy":0,"outcome":"+1","keys":[2173.359999999753],"total_keys":1,"block":2,"trial":130,"stimulus":3,"robot":2,"valence":"win","action":"no-go","sham":0,"trial_type":"pit-trial","trial_index":181,"time_elapsed":799602,"internal_node_id":"0.0-138.0","task_version":"battery-v0.2-trt"},{"rune":"U","rune_set":"elianto","hex":"#f73b6a7A","correct":-1,"choice":-1,"rt":-1,"accuracy":1,"outcome":"-1","keys":[],"total_keys":0,"block":2,"trial":131,"stimulus":0,"robot":4,"valence":"lose","action":"no-go","sham":0,"trial_type":"pit-trial","trial_index":182,"time_elapsed":803608,"internal_node_id":"0.0-139.0","task_version":"battery-v0.2-trt"},{"rune":"A","rune_set":"elianto","hex":"#3366ff99","correct":32,"choice":32,"rt":492.0350000002654,"accuracy":1,"outcome":"+10","keys":[1992.229999999865],"total_keys":1,"block":2,"trial":132,"stimulus":2,"robot":1,"valence":"win","action":"go","sham":0,"trial_type":"pit-trial","trial_index":183,"time_elapsed":806802,"internal_node_id":"0.0-140.0","task_version":"battery-v0.2-trt"},{"rune":"L","rune_set":"elianto","hex":"#f73b6a7A","correct":-1,"choice":32,"rt":661.1450000000186,"accuracy":0,"outcome":"-10","keys":[2161.979999999865],"total_keys":1,"block":2,"trial":133,"stimulus":1,"robot":4,"valence":"lose","action":"no-go","sham":0,"trial_type":"pit-trial","trial_index":184,"time_elapsed":810169,"internal_node_id":"0.0-141.0","task_version":"battery-v0.2-trt"},{"rune":"A","rune_set":"elianto","hex":"#3366ff99","correct":32,"choice":32,"rt":464.830000000773,"accuracy":1,"outcome":"+10","keys":[1966.9050000002608],"total_keys":1,"block":2,"trial":134,"stimulus":2,"robot":1,"valence":"win","action":"go","sham":0,"trial_type":"pit-trial","trial_index":185,"time_elapsed":813339,"internal_node_id":"0.0-142.0","task_version":"battery-v0.2-trt"},{"rune":"G","rune_set":"elianto","hex":"#3366ff99","correct":-1,"choice":-1,"rt":-1,"accuracy":1,"outcome":"+10","keys":[2892.030000000028],"total_keys":1,"block":2,"trial":135,"stimulus":3,"robot":2,"valence":"win","action":"no-go","sham":0,"trial_type":"pit-trial","trial_index":186,"time_elapsed":817350,"internal_node_id":"0.0-143.0","task_version":"battery-v0.2-trt"},{"rune":"U","rune_set":"elianto","hex":"#f73b6a7A","correct":-1,"choice":-1,"rt":-1,"accuracy":1,"outcome":"-10","keys":[3426.9999999996508],"total_keys":1,"block":2,"trial":136,"stimulus":0,"robot":4,"valence":"lose","action":"no-go","sham":1,"trial_type":"pit-trial","trial_index":187,"time_elapsed":821352,"internal_node_id":"0.0-144.0","task_version":"battery-v0.2-trt"},{"rune":"G","rune_set":"elianto","hex":"#3366ff99","correct":-1,"choice":32,"rt":602.055000000284,"accuracy":0,"outcome":"+1","keys":[2102.2499999998836],"total_keys":1,"block":2,"trial":137,"stimulus":3,"robot":2,"valence":"win","action":"no-go","sham":0,"trial_type":"pit-trial","trial_index":188,"time_elapsed":824655,"internal_node_id":"0.0-145.0","task_version":"battery-v0.2-trt"},{"rune":"A","rune_set":"elianto","hex":"#3366ff99","correct":32,"choice":32,"rt":426.28500000038184,"accuracy":1,"outcome":"+10","keys":[1926.3350000000792],"total_keys":1,"block":2,"trial":138,"stimulus":2,"robot":1,"valence":"win","action":"go","sham":0,"trial_type":"pit-trial","trial_index":189,"time_elapsed":827785,"internal_node_id":"0.0-146.0","task_version":"battery-v0.2-trt"},{"rune":"U","rune_set":"elianto","hex":"#f73b6a7A","correct":-1,"choice":-1,"rt":-1,"accuracy":1,"outcome":"-1","keys":[],"total_keys":0,"block":2,"trial":139,"stimulus":0,"robot":4,"valence":"lose","action":"no-go","sham":0,"trial_type":"pit-trial","trial_index":190,"time_elapsed":831786,"internal_node_id":"0.0-147.0","task_version":"battery-v0.2-trt"},{"rune":"L","rune_set":"elianto","hex":"#f73b6a7A","correct":-1,"choice":32,"rt":1114.0600000008708,"accuracy":0,"outcome":"-10","keys":[2614.439999999362],"total_keys":1,"block":2,"trial":140,"stimulus":1,"robot":4,"valence":"lose","action":"no-go","sham":0,"trial_type":"pit-trial","trial_index":191,"time_elapsed":835605,"internal_node_id":"0.0-148.0","task_version":"battery-v0.2-trt"},{"rune":"G","rune_set":"elianto","hex":"#3366ff99","correct":-1,"choice":32,"rt":535.260000000475,"accuracy":0,"outcome":"+1","keys":[2035.4399999997113],"total_keys":1,"block":2,"trial":141,"stimulus":3,"robot":2,"valence":"win","action":"no-go","sham":0,"trial_type":"pit-trial","trial_index":192,"time_elapsed":838843,"internal_node_id":"0.0-149.0","task_version":"battery-v0.2-trt"},{"rune":"A","rune_set":"elianto","hex":"#3366ff99","correct":32,"choice":32,"rt":456.77500000060536,"accuracy":1,"outcome":"+10","keys":[1958.5250000000233],"total_keys":1,"block":2,"trial":142,"stimulus":2,"robot":1,"valence":"win","action":"go","sham":0,"trial_type":"pit-trial","trial_index":193,"time_elapsed":842006,"internal_node_id":"0.0-150.0","task_version":"battery-v0.2-trt"},{"rune":"U","rune_set":"elianto","hex":"#f73b6a7A","correct":-1,"choice":-1,"rt":-1,"accuracy":1,"outcome":"-10","keys":[],"total_keys":0,"block":2,"trial":143,"stimulus":0,"robot":4,"valence":"lose","action":"no-go","sham":1,"trial_type":"pit-trial","trial_index":194,"time_elapsed":846014,"internal_node_id":"0.0-151.0","task_version":"battery-v0.2-trt"},{"rune":"L","rune_set":"elianto","hex":"#f73b6a7A","correct":-1,"choice":-1,"rt":-1,"accuracy":1,"outcome":"-1","keys":[],"total_keys":0,"block":2,"trial":144,"stimulus":1,"robot":4,"valence":"lose","action":"no-go","sham":0,"trial_type":"pit-trial","trial_index":195,"time_elapsed":850018,"internal_node_id":"0.0-152.0","task_version":"battery-v0.2-trt"},{"rune":"A","rune_set":"elianto","hex":"#3366ff99","correct":32,"choice":32,"rt":455.7849999991013,"accuracy":1,"outcome":"+10","keys":[1955.9550000004238],"total_keys":1,"block":2,"trial":145,"stimulus":2,"robot":1,"valence":"win","action":"go","sham":0,"trial_type":"pit-trial","trial_index":196,"time_elapsed":853176,"internal_node_id":"0.0-153.0","task_version":"battery-v0.2-trt"},{"rune":"L","rune_set":"elianto","hex":"#f73b6a7A","correct":-1,"choice":32,"rt":918.429999999702,"accuracy":0,"outcome":"-10","keys":[2420.430000000051],"total_keys":1,"block":2,"trial":146,"stimulus":1,"robot":4,"valence":"lose","action":"no-go","sham":0,"trial_type":"pit-trial","trial_index":197,"time_elapsed":856802,"internal_node_id":"0.0-154.0","task_version":"battery-v0.2-trt"},{"rune":"U","rune_set":"elianto","hex":"#f73b6a7A","correct":-1,"choice":32,"rt":1162.7150000003166,"accuracy":0,"outcome":"-10","keys":[2664.5600000001723],"total_keys":1,"block":2,"trial":147,"stimulus":0,"robot":4,"valence":"lose","action":"no-go","sham":0,"trial_type":"pit-trial","trial_index":198,"time_elapsed":860671,"internal_node_id":"0.0-155.0","task_version":"battery-v0.2-trt"},{"rune":"G","rune_set":"elianto","hex":"#3366ff99","correct":-1,"choice":-1,"rt":-1,"accuracy":1,"outcome":"+10","keys":[],"total_keys":0,"block":2,"trial":148,"stimulus":3,"robot":2,"valence":"win","action":"no-go","sham":0,"trial_type":"pit-trial","trial_index":199,"time_elapsed":864675,"internal_node_id":"0.0-156.0","task_version":"battery-v0.2-trt"},{"rune":"G","rune_set":"elianto","hex":"#3366ff99","correct":-1,"choice":-1,"rt":-1,"accuracy":1,"outcome":"+10","keys":[],"total_keys":0,"block":2,"trial":149,"stimulus":3,"robot":2,"valence":"win","action":"no-go","sham":0,"trial_type":"pit-trial","trial_index":200,"time_elapsed":868676,"internal_node_id":"0.0-157.0","task_version":"battery-v0.2-trt"},{"rune":"A","rune_set":"elianto","hex":"#3366ff99","correct":32,"choice":32,"rt":449.2799999997951,"accuracy":1,"outcome":"+10","keys":[1950.9799999996321],"total_keys":1,"block":2,"trial":150,"stimulus":2,"robot":1,"valence":"win","action":"go","sham":0,"trial_type":"pit-trial","trial_index":201,"time_elapsed":871830,"internal_node_id":"0.0-158.0","task_version":"battery-v0.2-trt"},{"rune":"L","rune_set":"elianto","hex":"#f73b6a7A","correct":-1,"choice":-1,"rt":-1,"accuracy":1,"outcome":"-1","keys":[2914.604999999865],"total_keys":1,"block":2,"trial":151,"stimulus":1,"robot":4,"valence":"lose","action":"no-go","sham":0,"trial_type":"pit-trial","trial_index":202,"time_elapsed":875838,"internal_node_id":"0.0-159.0","task_version":"battery-v0.2-trt"},{"rune":"U","rune_set":"elianto","hex":"#f73b6a7A","correct":-1,"choice":32,"rt":1140.2299999999814,"accuracy":0,"outcome":"-10","keys":[2641.6250000001164],"total_keys":1,"block":2,"trial":152,"stimulus":0,"robot":4,"valence":"lose","action":"no-go","sham":0,"trial_type":"pit-trial","trial_index":203,"time_elapsed":879682,"internal_node_id":"0.0-160.0","task_version":"battery-v0.2-trt"},{"rune":"G","rune_set":"elianto","hex":"#3366ff99","correct":-1,"choice":32,"rt":550.2150000002002,"accuracy":0,"outcome":"+1","keys":[2050.4249999994645],"total_keys":1,"block":2,"trial":153,"stimulus":3,"robot":2,"valence":"win","action":"no-go","sham":0,"trial_type":"pit-trial","trial_index":204,"time_elapsed":882938,"internal_node_id":"0.0-161.0","task_version":"battery-v0.2-trt"},{"rune":"P","rune_set":"elianto","hex":"#f73b6a7A","correct":32,"choice":-1,"rt":-1,"accuracy":0,"outcome":"-1","keys":[],"total_keys":0,"block":2,"trial":154,"stimulus":4,"robot":3,"valence":"lose","action":"go","sham":1,"trial_type":"pit-trial","trial_index":205,"time_elapsed":886944,"internal_node_id":"0.0-162.0","task_version":"battery-v0.2-trt"},{"rune":"A","rune_set":"elianto","hex":"#3366ff99","correct":32,"choice":32,"rt":498.28499999968335,"accuracy":1,"outcome":"+10","keys":[1998.5399999995716],"total_keys":1,"block":2,"trial":155,"stimulus":2,"robot":1,"valence":"win","action":"go","sham":0,"trial_type":"pit-trial","trial_index":206,"time_elapsed":890147,"internal_node_id":"0.0-163.0","task_version":"battery-v0.2-trt"},{"rune":"U","rune_set":"elianto","hex":"#f73b6a7A","correct":-1,"choice":-1,"rt":-1,"accuracy":1,"outcome":"-1","keys":[],"total_keys":0,"block":2,"trial":156,"stimulus":0,"robot":4,"valence":"lose","action":"no-go","sham":0,"trial_type":"pit-trial","trial_index":207,"time_elapsed":894155,"internal_node_id":"0.0-164.0","task_version":"battery-v0.2-trt"},{"rune":"P","rune_set":"elianto","hex":"#f73b6a7A","correct":32,"choice":-1,"rt":-1,"accuracy":0,"outcome":"-10","keys":[],"total_keys":0,"block":2,"trial":157,"stimulus":4,"robot":3,"valence":"lose","action":"go","sham":0,"trial_type":"pit-trial","trial_index":208,"time_elapsed":898157,"internal_node_id":"0.0-165.0","task_version":"battery-v0.2-trt"},{"rune":"A","rune_set":"elianto","hex":"#3366ff99","correct":32,"choice":32,"rt":433.63500000035856,"accuracy":1,"outcome":"+10","keys":[1935.2249999992782],"total_keys":1,"block":2,"trial":158,"stimulus":2,"robot":1,"valence":"win","action":"go","sham":0,"trial_type":"pit-trial","trial_index":209,"time_elapsed":901294,"internal_node_id":"0.0-166.0","task_version":"battery-v0.2-trt"},{"rune":"G","rune_set":"elianto","hex":"#3366ff99","correct":-1,"choice":-1,"rt":-1,"accuracy":1,"outcome":"+10","keys":[],"total_keys":0,"block":2,"trial":159,"stimulus":3,"robot":2,"valence":"win","action":"no-go","sham":0,"trial_type":"pit-trial","trial_index":210,"time_elapsed":905303,"internal_node_id":"0.0-167.0","task_version":"battery-v0.2-trt"},{"rune":"U","rune_set":"elianto","hex":"#f73b6a7A","correct":-1,"choice":-1,"rt":-1,"accuracy":1,"outcome":"-1","keys":[],"total_keys":0,"block":2,"trial":160,"stimulus":0,"robot":4,"valence":"lose","action":"no-go","sham":0,"trial_type":"pit-trial","trial_index":211,"time_elapsed":909309,"internal_node_id":"0.0-168.0","task_version":"battery-v0.2-trt"},{"rune":"W","rune_set":"elianto","hex":"#3366ff99","correct":32,"choice":32,"rt":825.3300000006566,"accuracy":1,"outcome":"+10","keys":[2325.4799999995157],"total_keys":1,"block":2,"trial":161,"stimulus":6,"robot":1,"valence":"win","action":"go","sham":0,"trial_type":"pit-trial","trial_index":212,"time_elapsed":912839,"internal_node_id":"0.0-169.0","task_version":"battery-v0.2-trt"},{"rune":"U","rune_set":"elianto","hex":"#f73b6a7A","correct":-1,"choice":-1,"rt":-1,"accuracy":1,"outcome":"-10","keys":[],"total_keys":0,"block":2,"trial":162,"stimulus":0,"robot":4,"valence":"lose","action":"no-go","sham":1,"trial_type":"pit-trial","trial_index":213,"time_elapsed":916841,"internal_node_id":"0.0-170.0","task_version":"battery-v0.2-trt"},{"rune":"S","rune_set":"elianto","hex":"#3366ff99","correct":-1,"choice":32,"rt":740.9950000001118,"accuracy":0,"outcome":"+1","keys":[2241.0800000006566],"total_keys":1,"block":2,"trial":163,"stimulus":5,"robot":2,"valence":"win","action":"no-go","sham":0,"trial_type":"pit-trial","trial_index":214,"time_elapsed":920283,"internal_node_id":"0.0-171.0","task_version":"battery-v0.2-trt"},{"rune":"P","rune_set":"elianto","hex":"#f73b6a7A","correct":32,"choice":-1,"rt":-1,"accuracy":0,"outcome":"-1","keys":[],"total_keys":0,"block":2,"trial":164,"stimulus":4,"robot":3,"valence":"lose","action":"go","sham":1,"trial_type":"pit-trial","trial_index":215,"time_elapsed":924291,"internal_node_id":"0.0-172.0","task_version":"battery-v0.2-trt"},{"rune":"S","rune_set":"elianto","hex":"#3366ff99","correct":-1,"choice":32,"rt":681.2950000003912,"accuracy":0,"outcome":"+1","keys":[2183.135000000242],"total_keys":1,"block":2,"trial":165,"stimulus":5,"robot":2,"valence":"win","action":"no-go","sham":0,"trial_type":"pit-trial","trial_index":216,"time_elapsed":927675,"internal_node_id":"0.0-173.0","task_version":"battery-v0.2-trt"},{"rune":"U","rune_set":"elianto","hex":"#f73b6a7A","correct":-1,"choice":-1,"rt":-1,"accuracy":1,"outcome":"-1","keys":[3073.1799999993527],"total_keys":1,"block":2,"trial":166,"stimulus":0,"robot":4,"valence":"lose","action":"no-go","sham":0,"trial_type":"pit-trial","trial_index":217,"time_elapsed":931683,"internal_node_id":"0.0-174.0","task_version":"battery-v0.2-trt"},{"rune":"P","rune_set":"elianto","hex":"#f73b6a7A","correct":32,"choice":-1,"rt":-1,"accuracy":0,"outcome":"-10","keys":[],"total_keys":0,"block":2,"trial":167,"stimulus":4,"robot":3,"valence":"lose","action":"go","sham":0,"trial_type":"pit-trial","trial_index":218,"time_elapsed":935689,"internal_node_id":"0.0-175.0","task_version":"battery-v0.2-trt"},{"rune":"W","rune_set":"elianto","hex":"#3366ff99","correct":32,"choice":32,"rt":803.7749999994412,"accuracy":1,"outcome":"+10","keys":[2304.9049999999115],"total_keys":1,"block":2,"trial":168,"stimulus":6,"robot":1,"valence":"win","action":"go","sham":0,"trial_type":"pit-trial","trial_index":219,"time_elapsed":939197,"internal_node_id":"0.0-176.0","task_version":"battery-v0.2-trt"},{"rune":"P","rune_set":"elianto","hex":"#f73b6a7A","correct":32,"choice":-1,"rt":-1,"accuracy":0,"outcome":"-10","keys":[3161.8350000007777],"total_keys":1,"block":2,"trial":169,"stimulus":4,"robot":3,"valence":"lose","action":"go","sham":0,"trial_type":"pit-trial","trial_index":220,"time_elapsed":943203,"internal_node_id":"0.0-177.0","task_version":"battery-v0.2-trt"},{"rune":"E","rune_set":"elianto","hex":"#f73b6a7A","correct":-1,"choice":-1,"rt":-1,"accuracy":1,"outcome":"-1","keys":[],"total_keys":0,"block":2,"trial":170,"stimulus":7,"robot":4,"valence":"lose","action":"no-go","sham":0,"trial_type":"pit-trial","trial_index":221,"time_elapsed":947214,"internal_node_id":"0.0-178.0","task_version":"battery-v0.2-trt"},{"rune":"W","rune_set":"elianto","hex":"#3366ff99","correct":32,"choice":32,"rt":765.4849999998696,"accuracy":1,"outcome":"+1","keys":[2266.574999999604],"total_keys":1,"block":2,"trial":171,"stimulus":6,"robot":1,"valence":"win","action":"go","sham":1,"trial_type":"pit-trial","trial_index":222,"time_elapsed":950686,"internal_node_id":"0.0-179.0","task_version":"battery-v0.2-trt"},{"rune":"S","rune_set":"elianto","hex":"#3366ff99","correct":-1,"choice":-1,"rt":-1,"accuracy":1,"outcome":"+10","keys":[],"total_keys":0,"block":2,"trial":172,"stimulus":5,"robot":2,"valence":"win","action":"no-go","sham":0,"trial_type":"pit-trial","trial_index":223,"time_elapsed":954692,"internal_node_id":"0.0-180.0","task_version":"battery-v0.2-trt"},{"rune":"S","rune_set":"elianto","hex":"#3366ff99","correct":-1,"choice":-1,"rt":-1,"accuracy":1,"outcome":"+10","keys":[],"total_keys":0,"block":2,"trial":173,"stimulus":5,"robot":2,"valence":"win","action":"no-go","sham":0,"trial_type":"pit-trial","trial_index":224,"time_elapsed":958702,"internal_node_id":"0.0-181.0","task_version":"battery-v0.2-trt"},{"rune":"P","rune_set":"elianto","hex":"#f73b6a7A","correct":32,"choice":32,"rt":1046.6550000001444,"accuracy":1,"outcome":"-1","keys":[2546.784999999567],"total_keys":1,"block":2,"trial":174,"stimulus":4,"robot":3,"valence":"lose","action":"go","sham":0,"trial_type":"pit-trial","trial_index":225,"time_elapsed":962452,"internal_node_id":"0.0-182.0","task_version":"battery-v0.2-trt"},{"rune":"E","rune_set":"elianto","hex":"#f73b6a7A","correct":-1,"choice":32,"rt":704.7300000003306,"accuracy":0,"outcome":"-10","keys":[2204.8100000001723],"total_keys":1,"block":2,"trial":175,"stimulus":7,"robot":4,"valence":"lose","action":"no-go","sham":0,"trial_type":"pit-trial","trial_index":226,"time_elapsed":965863,"internal_node_id":"0.0-183.0","task_version":"battery-v0.2-trt"},{"rune":"W","rune_set":"elianto","hex":"#3366ff99","correct":32,"choice":-1,"rt":-1,"accuracy":0,"outcome":"+10","keys":[],"total_keys":0,"block":2,"trial":176,"stimulus":6,"robot":1,"valence":"win","action":"go","sham":1,"trial_type":"pit-trial","trial_index":227,"time_elapsed":969866,"internal_node_id":"0.0-184.0","task_version":"battery-v0.2-trt"},{"rune":"W","rune_set":"elianto","hex":"#3366ff99","correct":32,"choice":-1,"rt":-1,"accuracy":0,"outcome":"+1","keys":[],"total_keys":0,"block":2,"trial":177,"stimulus":6,"robot":1,"valence":"win","action":"go","sham":0,"trial_type":"pit-trial","trial_index":228,"time_elapsed":973870,"internal_node_id":"0.0-185.0","task_version":"battery-v0.2-trt"},{"rune":"S","rune_set":"elianto","hex":"#3366ff99","correct":-1,"choice":-1,"rt":-1,"accuracy":1,"outcome":"+10","keys":[],"total_keys":0,"block":2,"trial":178,"stimulus":5,"robot":2,"valence":"win","action":"no-go","sham":0,"trial_type":"pit-trial","trial_index":229,"time_elapsed":977876,"internal_node_id":"0.0-186.0","task_version":"battery-v0.2-trt"},{"rune":"P","rune_set":"elianto","hex":"#f73b6a7A","correct":32,"choice":-1,"rt":-1,"accuracy":0,"outcome":"-10","keys":[],"total_keys":0,"block":2,"trial":179,"stimulus":4,"robot":3,"valence":"lose","action":"go","sham":0,"trial_type":"pit-trial","trial_index":230,"time_elapsed":981879,"internal_node_id":"0.0-187.0","task_version":"battery-v0.2-trt"},{"rune":"E","rune_set":"elianto","hex":"#f73b6a7A","correct":-1,"choice":-1,"rt":-1,"accuracy":1,"outcome":"-1","keys":[],"total_keys":0,"block":2,"trial":180,"stimulus":7,"robot":4,"valence":"lose","action":"no-go","sham":0,"trial_type":"pit-trial","trial_index":231,"time_elapsed":985886,"internal_node_id":"0.0-188.0","task_version":"battery-v0.2-trt"},{"rune":"P","rune_set":"elianto","hex":"#f73b6a7A","correct":32,"choice":-1,"rt":-1,"accuracy":0,"outcome":"-10","keys":[],"total_keys":0,"block":2,"trial":181,"stimulus":4,"robot":3,"valence":"lose","action":"go","sham":0,"trial_type":"pit-trial","trial_index":232,"time_elapsed":989895,"internal_node_id":"0.0-189.0","task_version":"battery-v0.2-trt"},{"rune":"E","rune_set":"elianto","hex":"#f73b6a7A","correct":-1,"choice":32,"rt":892.84499999939,"accuracy":0,"outcome":"-10","keys":[2393.8849999995437],"total_keys":1,"block":2,"trial":182,"stimulus":7,"robot":4,"valence":"lose","action":"no-go","sham":0,"trial_type":"pit-trial","trial_index":233,"time_elapsed":993490,"internal_node_id":"0.0-190.0","task_version":"battery-v0.2-trt"},{"rune":"W","rune_set":"elianto","hex":"#3366ff99","correct":32,"choice":-1,"rt":-1,"accuracy":0,"outcome":"+1","keys":[],"total_keys":0,"block":2,"trial":183,"stimulus":6,"robot":1,"valence":"win","action":"go","sham":0,"trial_type":"pit-trial","trial_index":234,"time_elapsed":997499,"internal_node_id":"0.0-191.0","task_version":"battery-v0.2-trt"},{"rune":"S","rune_set":"elianto","hex":"#3366ff99","correct":-1,"choice":-1,"rt":-1,"accuracy":1,"outcome":"+1","keys":[],"total_keys":0,"block":2,"trial":184,"stimulus":5,"robot":2,"valence":"win","action":"no-go","sham":1,"trial_type":"pit-trial","trial_index":235,"time_elapsed":1001501,"internal_node_id":"0.0-192.0","task_version":"battery-v0.2-trt"},{"rune":"S","rune_set":"elianto","hex":"#3366ff99","correct":-1,"choice":32,"rt":783.2299999999814,"accuracy":0,"outcome":"+1","keys":[2284.9550000000745],"total_keys":1,"block":2,"trial":185,"stimulus":5,"robot":2,"valence":"win","action":"no-go","sham":0,"trial_type":"pit-trial","trial_index":236,"time_elapsed":1004990,"internal_node_id":"0.0-193.0","task_version":"battery-v0.2-trt"},{"rune":"P","rune_set":"elianto","hex":"#f73b6a7A","correct":32,"choice":-1,"rt":-1,"accuracy":0,"outcome":"-10","keys":[],"total_keys":0,"block":2,"trial":186,"stimulus":4,"robot":3,"valence":"lose","action":"go","sham":0,"trial_type":"pit-trial","trial_index":237,"time_elapsed":1008998,"internal_node_id":"0.0-194.0","task_version":"battery-v0.2-trt"},{"rune":"E","rune_set":"elianto","hex":"#f73b6a7A","correct":-1,"choice":32,"rt":925.7200000000885,"accuracy":0,"outcome":"-10","keys":[2426.9850000001024],"total_keys":1,"block":2,"trial":187,"stimulus":7,"robot":4,"valence":"lose","action":"no-go","sham":0,"trial_type":"pit-trial","trial_index":238,"time_elapsed":1012629,"internal_node_id":"0.0-195.0","task_version":"battery-v0.2-trt"},{"rune":"W","rune_set":"elianto","hex":"#3366ff99","correct":32,"choice":32,"rt":749.2550000007031,"accuracy":1,"outcome":"+10","keys":[2249.50999999966],"total_keys":1,"block":2,"trial":188,"stimulus":6,"robot":1,"valence":"win","action":"go","sham":0,"trial_type":"pit-trial","trial_index":239,"time_elapsed":1016080,"internal_node_id":"0.0-196.0","task_version":"battery-v0.2-trt"},{"rune":"E","rune_set":"elianto","hex":"#f73b6a7A","correct":-1,"choice":-1,"rt":-1,"accuracy":1,"outcome":"-10","keys":[],"total_keys":0,"block":2,"trial":189,"stimulus":7,"robot":4,"valence":"lose","action":"no-go","sham":1,"trial_type":"pit-trial","trial_index":240,"time_elapsed":1020090,"internal_node_id":"0.0-197.0","task_version":"battery-v0.2-trt"},{"rune":"W","rune_set":"elianto","hex":"#3366ff99","correct":32,"choice":-1,"rt":-1,"accuracy":0,"outcome":"+10","keys":[],"total_keys":0,"block":2,"trial":190,"stimulus":6,"robot":1,"valence":"win","action":"go","sham":1,"trial_type":"pit-trial","trial_index":241,"time_elapsed":1024093,"internal_node_id":"0.0-198.0","task_version":"battery-v0.2-trt"},{"rune":"S","rune_set":"elianto","hex":"#3366ff99","correct":-1,"choice":-1,"rt":-1,"accuracy":1,"outcome":"+1","keys":[],"total_keys":0,"block":2,"trial":191,"stimulus":5,"robot":2,"valence":"win","action":"no-go","sham":1,"trial_type":"pit-trial","trial_index":242,"time_elapsed":1028098,"internal_node_id":"0.0-199.0","task_version":"battery-v0.2-trt"},{"rune":"P","rune_set":"elianto","hex":"#f73b6a7A","correct":32,"choice":-1,"rt":-1,"accuracy":0,"outcome":"-10","keys":[],"total_keys":0,"block":2,"trial":192,"stimulus":4,"robot":3,"valence":"lose","action":"go","sham":0,"trial_type":"pit-trial","trial_index":243,"time_elapsed":1032106,"internal_node_id":"0.0-200.0","task_version":"battery-v0.2-trt"},{"rune":"K","rune_set":"elianto","hex":"#3366ff99","correct":32,"choice":32,"rt":733.2449999994133,"accuracy":1,"outcome":"+10","keys":[2235.800000000396],"total_keys":1,"block":2,"trial":193,"stimulus":8,"robot":1,"valence":"win","action":"go","sham":0,"trial_type":"pit-trial","trial_index":244,"time_elapsed":1035547,"internal_node_id":"0.0-201.0","task_version":"battery-v0.2-trt"},{"rune":"D","rune_set":"elianto","hex":"#f73b6a7A","correct":32,"choice":-1,"rt":-1,"accuracy":0,"outcome":"-10","keys":[],"total_keys":0,"block":2,"trial":194,"stimulus":9,"robot":3,"valence":"lose","action":"go","sham":0,"trial_type":"pit-trial","trial_index":245,"time_elapsed":1039550,"internal_node_id":"0.0-202.0","task_version":"battery-v0.2-trt"},{"rune":"S","rune_set":"elianto","hex":"#3366ff99","correct":-1,"choice":-1,"rt":-1,"accuracy":1,"outcome":"+10","keys":[2835.589999999618],"total_keys":1,"block":2,"trial":195,"stimulus":5,"robot":2,"valence":"win","action":"no-go","sham":0,"trial_type":"pit-trial","trial_index":246,"time_elapsed":1043555,"internal_node_id":"0.0-203.0","task_version":"battery-v0.2-trt"},{"rune":"E","rune_set":"elianto","hex":"#f73b6a7A","correct":-1,"choice":32,"rt":996.8100000005215,"accuracy":0,"outcome":"-10","keys":[2498.354999999632],"total_keys":1,"block":2,"trial":196,"stimulus":7,"robot":4,"valence":"lose","action":"no-go","sham":0,"trial_type":"pit-trial","trial_index":247,"time_elapsed":1047257,"internal_node_id":"0.0-204.0","task_version":"battery-v0.2-trt"},{"rune":"D","rune_set":"elianto","hex":"#f73b6a7A","correct":32,"choice":32,"rt":1109.844999999972,"accuracy":1,"outcome":"-10","keys":[2610.410000000382],"total_keys":1,"block":2,"trial":197,"stimulus":9,"robot":3,"valence":"lose","action":"go","sham":1,"trial_type":"pit-trial","trial_index":248,"time_elapsed":1051070,"internal_node_id":"0.0-205.0","task_version":"battery-v0.2-trt"},{"rune":"S","rune_set":"elianto","hex":"#3366ff99","correct":-1,"choice":32,"rt":571.5400000000373,"accuracy":0,"outcome":"+1","keys":[2071.654999999795],"total_keys":1,"block":2,"trial":198,"stimulus":5,"robot":2,"valence":"win","action":"no-go","sham":0,"trial_type":"pit-trial","trial_index":249,"time_elapsed":1054347,"internal_node_id":"0.0-206.0","task_version":"battery-v0.2-trt"},{"rune":"E","rune_set":"elianto","hex":"#f73b6a7A","correct":-1,"choice":-1,"rt":-1,"accuracy":1,"outcome":"-1","keys":[],"total_keys":0,"block":2,"trial":199,"stimulus":7,"robot":4,"valence":"lose","action":"no-go","sham":0,"trial_type":"pit-trial","trial_index":250,"time_elapsed":1058353,"internal_node_id":"0.0-207.0","task_version":"battery-v0.2-trt"},{"rune":"K","rune_set":"elianto","hex":"#3366ff99","correct":32,"choice":-1,"rt":-1,"accuracy":0,"outcome":"+1","keys":[],"total_keys":0,"block":2,"trial":200,"stimulus":8,"robot":1,"valence":"win","action":"go","sham":0,"trial_type":"pit-trial","trial_index":251,"time_elapsed":1062359,"internal_node_id":"0.0-208.0","task_version":"battery-v0.2-trt"},{"rune":"D","rune_set":"elianto","hex":"#f73b6a7A","correct":32,"choice":-1,"rt":-1,"accuracy":0,"outcome":"-10","keys":[3102.730000000447],"total_keys":1,"block":2,"trial":201,"stimulus":9,"robot":3,"valence":"lose","action":"go","sham":0,"trial_type":"pit-trial","trial_index":252,"time_elapsed":1066363,"internal_node_id":"0.0-209.0","task_version":"battery-v0.2-trt"},{"rune":"S","rune_set":"elianto","hex":"#3366ff99","correct":-1,"choice":-1,"rt":-1,"accuracy":1,"outcome":"+10","keys":[],"total_keys":0,"block":2,"trial":202,"stimulus":5,"robot":2,"valence":"win","action":"no-go","sham":0,"trial_type":"pit-trial","trial_index":253,"time_elapsed":1070369,"internal_node_id":"0.0-210.0","task_version":"battery-v0.2-trt"},{"rune":"K","rune_set":"elianto","hex":"#3366ff99","correct":32,"choice":32,"rt":915.8750000006985,"accuracy":1,"outcome":"+10","keys":[2416.000000000233],"total_keys":1,"block":2,"trial":203,"stimulus":8,"robot":1,"valence":"win","action":"go","sham":0,"trial_type":"pit-trial","trial_index":254,"time_elapsed":1073987,"internal_node_id":"0.0-211.0","task_version":"battery-v0.2-trt"},{"rune":"E","rune_set":"elianto","hex":"#f73b6a7A","correct":-1,"choice":-1,"rt":-1,"accuracy":1,"outcome":"-10","keys":[],"total_keys":0,"block":2,"trial":204,"stimulus":7,"robot":4,"valence":"lose","action":"no-go","sham":1,"trial_type":"pit-trial","trial_index":255,"time_elapsed":1077990,"internal_node_id":"0.0-212.0","task_version":"battery-v0.2-trt"},{"rune":"K","rune_set":"elianto","hex":"#3366ff99","correct":32,"choice":32,"rt":594.7699999997858,"accuracy":1,"outcome":"+10","keys":[2095.225000000093],"total_keys":1,"block":2,"trial":205,"stimulus":8,"robot":1,"valence":"win","action":"go","sham":0,"trial_type":"pit-trial","trial_index":256,"time_elapsed":1081290,"internal_node_id":"0.0-213.0","task_version":"battery-v0.2-trt"},{"rune":"D","rune_set":"elianto","hex":"#f73b6a7A","correct":32,"choice":-1,"rt":-1,"accuracy":0,"outcome":"-10","keys":[],"total_keys":0,"block":2,"trial":206,"stimulus":9,"robot":3,"valence":"lose","action":"go","sham":0,"trial_type":"pit-trial","trial_index":257,"time_elapsed":1085296,"internal_node_id":"0.0-214.0","task_version":"battery-v0.2-trt"},{"rune":"S","rune_set":"elianto","hex":"#3366ff99","correct":-1,"choice":-1,"rt":-1,"accuracy":1,"outcome":"+10","keys":[],"total_keys":0,"block":2,"trial":207,"stimulus":5,"robot":2,"valence":"win","action":"no-go","sham":0,"trial_type":"pit-trial","trial_index":258,"time_elapsed":1089300,"internal_node_id":"0.0-215.0","task_version":"battery-v0.2-trt"},{"rune":"E","rune_set":"elianto","hex":"#f73b6a7A","correct":-1,"choice":-1,"rt":-1,"accuracy":1,"outcome":"-1","keys":[2925.024999999674],"total_keys":1,"block":2,"trial":208,"stimulus":7,"robot":4,"valence":"lose","action":"no-go","sham":0,"trial_type":"pit-trial","trial_index":259,"time_elapsed":1093303,"internal_node_id":"0.0-216.0","task_version":"battery-v0.2-trt"},{"rune":"J","rune_set":"elianto","hex":"#f73b6a7A","correct":32,"choice":-1,"rt":-1,"accuracy":0,"outcome":"-10","keys":[],"total_keys":0,"block":2,"trial":209,"stimulus":10,"robot":3,"valence":"lose","action":"go","sham":0,"trial_type":"pit-trial","trial_index":260,"time_elapsed":1097308,"internal_node_id":"0.0-217.0","task_version":"battery-v0.2-trt"},{"rune":"D","rune_set":"elianto","hex":"#f73b6a7A","correct":32,"choice":32,"rt":1224.600000000326,"accuracy":1,"outcome":"-1","keys":[2724.8799999998882],"total_keys":1,"block":2,"trial":210,"stimulus":9,"robot":3,"valence":"lose","action":"go","sham":0,"trial_type":"pit-trial","trial_index":261,"time_elapsed":1101236,"internal_node_id":"0.0-218.0","task_version":"battery-v0.2-trt"},{"rune":"V","rune_set":"elianto","hex":"#3366ff99","correct":-1,"choice":-1,"rt":-1,"accuracy":1,"outcome":"+10","keys":[],"total_keys":0,"block":2,"trial":211,"stimulus":11,"robot":2,"valence":"win","action":"no-go","sham":0,"trial_type":"pit-trial","trial_index":262,"time_elapsed":1105243,"internal_node_id":"0.0-219.0","task_version":"battery-v0.2-trt"},{"rune":"K","rune_set":"elianto","hex":"#3366ff99","correct":32,"choice":32,"rt":883.4100000003818,"accuracy":1,"outcome":"+10","keys":[2383.5449999996927],"total_keys":1,"block":2,"trial":212,"stimulus":8,"robot":1,"valence":"win","action":"go","sham":0,"trial_type":"pit-trial","trial_index":263,"time_elapsed":1108827,"internal_node_id":"0.0-220.0","task_version":"battery-v0.2-trt"},{"rune":"K","rune_set":"elianto","hex":"#3366ff99","correct":32,"choice":-1,"rt":-1,"accuracy":0,"outcome":"+1","keys":[],"total_keys":0,"block":2,"trial":213,"stimulus":8,"robot":1,"valence":"win","action":"go","sham":0,"trial_type":"pit-trial","trial_index":264,"time_elapsed":1112831,"internal_node_id":"0.0-221.0","task_version":"battery-v0.2-trt"},{"rune":"V","rune_set":"elianto","hex":"#3366ff99","correct":-1,"choice":-1,"rt":-1,"accuracy":1,"outcome":"+10","keys":[],"total_keys":0,"block":2,"trial":214,"stimulus":11,"robot":2,"valence":"win","action":"no-go","sham":0,"trial_type":"pit-trial","trial_index":265,"time_elapsed":1116836,"internal_node_id":"0.0-222.0","task_version":"battery-v0.2-trt"},{"rune":"J","rune_set":"elianto","hex":"#f73b6a7A","correct":32,"choice":-1,"rt":-1,"accuracy":0,"outcome":"-10","keys":[],"total_keys":0,"block":2,"trial":215,"stimulus":10,"robot":3,"valence":"lose","action":"go","sham":0,"trial_type":"pit-trial","trial_index":266,"time_elapsed":1120841,"internal_node_id":"0.0-223.0","task_version":"battery-v0.2-trt"},{"rune":"D","rune_set":"elianto","hex":"#f73b6a7A","correct":32,"choice":-1,"rt":-1,"accuracy":0,"outcome":"-10","keys":[],"total_keys":0,"block":2,"trial":216,"stimulus":9,"robot":3,"valence":"lose","action":"go","sham":0,"trial_type":"pit-trial","trial_index":267,"time_elapsed":1124845,"internal_node_id":"0.0-224.0","task_version":"battery-v0.2-trt"},{"rune":"K","rune_set":"elianto","hex":"#3366ff99","correct":32,"choice":-1,"rt":-1,"accuracy":0,"outcome":"+1","keys":[],"total_keys":0,"block":2,"trial":217,"stimulus":8,"robot":1,"valence":"win","action":"go","sham":0,"trial_type":"pit-trial","trial_index":268,"time_elapsed":1128850,"internal_node_id":"0.0-225.0","task_version":"battery-v0.2-trt"},{"rune":"J","rune_set":"elianto","hex":"#f73b6a7A","correct":32,"choice":-1,"rt":-1,"accuracy":0,"outcome":"-10","keys":[],"total_keys":0,"block":2,"trial":218,"stimulus":10,"robot":3,"valence":"lose","action":"go","sham":0,"trial_type":"pit-trial","trial_index":269,"time_elapsed":1132856,"internal_node_id":"0.0-226.0","task_version":"battery-v0.2-trt"},{"rune":"V","rune_set":"elianto","hex":"#3366ff99","correct":-1,"choice":-1,"rt":-1,"accuracy":1,"outcome":"+1","keys":[],"total_keys":0,"block":2,"trial":219,"stimulus":11,"robot":2,"valence":"win","action":"no-go","sham":1,"trial_type":"p