[{"view_history":"[{\"page_index\":0,\"viewing_time\":3250.599999912083}]","rt":3251.0749999200925,"trial_type":"instructions","trial_index":0,"time_elapsed":3260,"internal_node_id":"0.0-0.0","task_version":"battery-v0.2-trt"},{"slider_type":"valence","raw_loc":661,"loc":0.822,"trial_type":"affective-slider","trial_index":1,"time_elapsed":7464,"internal_node_id":"0.0-1.0","task_version":"battery-v0.2-trt"},{"responses":{"Q11":"2","Q10":"2","Q05":"3","Q03":"1","Q13":"1","Q06":"3","Q08":"3","Q09":"2","Q02":"0","Q07":"3","Q12":"2","Q04":"2","Q01":"2"},"rt":67411.764999968,"item_order":[10,9,4,2,12,5,7,8,1,6,11,3,0],"radio_events":[9723.659999901429,11318.614999996498,13333.579999976791,17174.414999899454,24173.294999985956,25641.364999930374,30879.604999907315,52519.95999994688,56665.43999989517,58929.74499997217,60517.08499994129,62709.52999999281,65029.37999996357],"key_events":[],"mouse_events":[6078.099999926053,8492.319999961182,9723.659999901429,11318.614999996498,13333.579999976791,16430.194999906234,17174.414999899454,23166.18999990169,24173.294999985956,25641.364999930374,30879.604999907315,50352.474999963306,52519.95999994688,56665.43999989517,58929.74499997217,60517.08499994129,62709.52999999281,65029.37999996357,67410.03999998793],"straightlining":0.46153846153846156,"zigzagging":0.3333333333333333,"survey":"bisbas","trial_type":"survey-template","trial_index":2,"time_elapsed":74879,"internal_node_id":"0.0-2.0","task_version":"battery-v0.2-trt","infrequency":0.5},{"responses":{"Q01":"0","Q04":"0","Q02":"0","Q07":"0","Q06":"0","Q03":"0","Q08":"3","Q05":"0"},"rt":17224.649999989197,"item_order":[0,3,1,6,5,2,7,4],"radio_events":[3127.879999927245,4272.5700000301,5571.774999960326,6471.720000030473,7478.634999948554,8582.509999978356,11866.694999975152,13738.245000015013],"key_events":[],"mouse_events":[3127.879999927245,4272.5700000301,5571.774999960326,6471.720000030473,7478.634999948554,8582.509999978356,11866.694999975152,13738.245000015013,17223.09999994468],"straightlining":0.875,"zigzagging":0.2857142857142857,"survey":"dass_d","trial_type":"survey-template","trial_index":3,"time_elapsed":92107,"internal_node_id":"0.0-3.0","task_version":"battery-v0.2-trt","infrequency":0.5},{"responses":{"Q05":"0","Q06":"0","Q08":"0","Q02":"0","Q03":"0","Q07":"0","Q04":"0","Q01":"0"},"rt":14449.15499992203,"item_order":[4,5,7,1,2,6,3,0],"radio_events":[2379.0749999461696,6309.490000014193,6977.390000014566,7799.445000011474,8734.944999916479,10507.044999976642,11357.264999998733,12343.524999916553],"key_events":[],"mouse_events":[2379.0749999461696,3167.81000001356,4007.1849999949336,4984.909999999218,5719.18499993626,6309.490000014193,6977.390000014566,7799.445000011474,8734.944999916479,9761.775000020862,10507.044999976642,11357.264999998733,12343.524999916553,14448.175000026822],"straightlining":1,"zigzagging":0,"survey":"gad7","trial_type":"survey-template","trial_index":4,"time_elapsed":106561,"internal_node_id":"0.0-4.0","task_version":"battery-v0.2-trt","infrequency":0},{"value":[1,2.3365384615384617,0.6190476190476191],"trial_type":"call-function","trial_index":5,"time_elapsed":106563,"internal_node_id":"0.0-5.0","task_version":"battery-v0.2-trt"},{"view_history":"[{\"page_index\":0,\"viewing_time\":2413.355000084266},{\"page_index\":1,\"viewing_time\":3117.8849999560043},{\"page_index\":2,\"viewing_time\":5371.859999955632},{\"page_index\":3,\"viewing_time\":3963.755000033416},{\"page_index\":4,\"viewing_time\":4620.5400000326335},{\"page_index\":5,\"viewing_time\":3557.829999946989},{\"page_index\":6,\"viewing_time\":3821.765000000596},{\"page_index\":7,\"viewing_time\":43190.019999979995},{\"page_index\":8,\"viewing_time\":6372.180000063963},{\"page_index\":9,\"viewing_time\":2603.5599999595433}]","rt":79033.61500008032,"trial_type":"pit-instructions","trial_index":6,"time_elapsed":185601,"internal_node_id":"0.0-6.0-0.0","task_version":"battery-v0.2-trt"},{"rune":"1","rune_set":"elianto","hex":"#3366ff99","correct":32,"choice":-1,"rt":-1,"accuracy":0,"outcome":"+1","keys":[],"total_keys":0,"block":0,"practice":1,"trial_type":"pit-trial","trial_index":7,"time_elapsed":189607,"internal_node_id":"0.0-6.0-1.0-0.0","task_version":"battery-v0.2-trt"},{"rune":"1","rune_set":"elianto","hex":"#3366ff99","correct":32,"choice":32,"rt":382.9949999926612,"accuracy":1,"outcome":"+10","keys":[1884.2100000474602],"total_keys":1,"block":0,"practice":1,"trial_type":"pit-trial","trial_index":8,"time_elapsed":192695,"internal_node_id":"0.0-6.0-1.1-0.1","task_version":"battery-v0.2-trt"},{"rune":"1","rune_set":"elianto","hex":"#3366ff99","correct":32,"choice":32,"rt":493.6100000049919,"accuracy":1,"outcome":"+10","keys":[1994.1300000064075],"total_keys":1,"block":0,"practice":1,"trial_type":"pit-trial","trial_index":9,"time_elapsed":195895,"internal_node_id":"0.0-6.0-1.2-0.2","task_version":"battery-v0.2-trt"},{"rune":"1","rune_set":"elianto","hex":"#3366ff99","correct":32,"choice":32,"rt":433.74500004574656,"accuracy":1,"outcome":"+10","keys":[1934.3949999893084],"total_keys":1,"block":0,"practice":1,"trial_type":"pit-trial","trial_index":10,"time_elapsed":199034,"internal_node_id":"0.0-6.0-1.3-0.3","task_version":"battery-v0.2-trt"},{"trial_type":"call-function","trial_index":11,"time_elapsed":199035,"internal_node_id":"0.0-6.0-2.0","task_version":"battery-v0.2-trt"},{"view_history":"[{\"page_index\":0,\"viewing_time\":3242.2300000907853},{\"page_index\":1,\"viewing_time\":2016.0599999362603}]","rt":5258.604999980889,"trial_type":"pit-instructions","trial_index":12,"time_elapsed":204295,"internal_node_id":"0.0-6.0-3.0","task_version":"battery-v0.2-trt"},{"rune":"2","rune_set":"elianto","hex":"#3366ff99","correct":-1,"choice":-1,"rt":-1,"accuracy":1,"outcome":"+10","keys":[2819.084999966435],"total_keys":1,"block":0,"practice":2,"trial_type":"pit-trial","trial_index":13,"time_elapsed":208300,"internal_node_id":"0.0-6.0-4.0-0.0","task_version":"battery-v0.2-trt"},{"rune":"2","rune_set":"elianto","hex":"#3366ff99","correct":-1,"choice":32,"rt":826.7200000118464,"accuracy":0,"outcome":"+1","keys":[1445.9400000050664,2327.549999929033],"total_keys":2,"block":0,"practice":2,"trial_type":"pit-trial","trial_index":14,"time_elapsed":211832,"internal_node_id":"0.0-6.0-4.1-0.1","task_version":"battery-v0.2-trt"},{"rune":"2","rune_set":"elianto","hex":"#3366ff99","correct":-1,"choice":32,"rt":494.5000000298023,"accuracy":0,"outcome":"+1","keys":[1995.4750000033528],"total_keys":1,"block":0,"practice":2,"trial_type":"pit-trial","trial_index":15,"time_elapsed":215030,"internal_node_id":"0.0-6.0-4.2-0.2","task_version":"battery-v0.2-trt"},{"rune":"2","rune_set":"elianto","hex":"#3366ff99","correct":-1,"choice":-1,"rt":-1,"accuracy":1,"outcome":"+10","keys":[],"total_keys":0,"block":0,"practice":2,"trial_type":"pit-trial","trial_index":16,"time_elapsed":219034,"internal_node_id":"0.0-6.0-4.3-0.3","task_version":"battery-v0.2-trt"},{"rune":"2","rune_set":"elianto","hex":"#3366ff99","correct":-1,"choice":-1,"rt":-1,"accuracy":1,"outcome":"+10","keys":[],"total_keys":0,"block":0,"practice":2,"trial_type":"pit-trial","trial_index":17,"time_elapsed":223039,"internal_node_id":"0.0-6.0-4.4-0.4","task_version":"battery-v0.2-trt"},{"rune":"2","rune_set":"elianto","hex":"#3366ff99","correct":-1,"choice":-1,"rt":-1,"accuracy":1,"outcome":"+10","keys":[],"total_keys":0,"block":0,"practice":2,"trial_type":"pit-trial","trial_index":18,"time_elapsed":227043,"internal_node_id":"0.0-6.0-4.5-0.5","task_version":"battery-v0.2-trt"},{"trial_type":"call-function","trial_index":19,"time_elapsed":227045,"internal_node_id":"0.0-6.0-5.0","task_version":"battery-v0.2-trt"},{"view_history":"[{\"page_index\":0,\"viewing_time\":17398.994999937713},{\"page_index\":1,\"viewing_time\":15262.455000076443}]","rt":32661.740000010468,"trial_type":"pit-instructions","trial_index":20,"time_elapsed":259707,"internal_node_id":"0.0-6.0-6.0","task_version":"battery-v0.2-trt"},{"rune":"3","rune_set":"elianto","hex":"#f73b6a7A","correct":-1,"choice":32,"rt":530.3950000088662,"accuracy":0,"outcome":"-10","keys":[2031.8149999948218],"total_keys":1,"block":0,"practice":3,"trial_type":"pit-trial","trial_index":21,"time_elapsed":262942,"internal_node_id":"0.0-6.0-7.0-0.0","task_version":"battery-v0.2-trt"},{"rune":"3","rune_set":"elianto","hex":"#f73b6a7A","correct":-1,"choice":-1,"rt":-1,"accuracy":1,"outcome":"-1","keys":[],"total_keys":0,"block":0,"practice":3,"trial_type":"pit-trial","trial_index":22,"time_elapsed":266945,"internal_node_id":"0.0-6.0-7.1-0.1","task_version":"battery-v0.2-trt"},{"rune":"3","rune_set":"elianto","hex":"#f73b6a7A","correct":-1,"choice":-1,"rt":-1,"accuracy":1,"outcome":"-1","keys":[],"total_keys":0,"block":0,"practice":3,"trial_type":"pit-trial","trial_index":23,"time_elapsed":270949,"internal_node_id":"0.0-6.0-7.2-0.2","task_version":"battery-v0.2-trt"},{"rune":"3","rune_set":"elianto","hex":"#f73b6a7A","correct":-1,"choice":-1,"rt":-1,"accuracy":1,"outcome":"-1","keys":[],"total_keys":0,"block":0,"practice":3,"trial_type":"pit-trial","trial_index":24,"time_elapsed":274953,"internal_node_id":"0.0-6.0-7.3-0.3","task_version":"battery-v0.2-trt"},{"trial_type":"call-function","trial_index":25,"time_elapsed":274955,"internal_node_id":"0.0-6.0-8.0","task_version":"battery-v0.2-trt"},{"view_history":"[{\"page_index\":0,\"viewing_time\":8822.905000066385},{\"page_index\":1,\"viewing_time\":2208.769999910146}]","rt":11031.955000013113,"trial_type":"pit-instructions","trial_index":26,"time_elapsed":285988,"internal_node_id":"0.0-6.0-9.0","task_version":"battery-v0.2-trt"},{"rune":"4","rune_set":"elianto","hex":"#f73b6a7A","correct":32,"choice":32,"rt":412.3399999225512,"accuracy":1,"outcome":"-1","keys":[1912.614999921061],"total_keys":1,"block":0,"practice":4,"trial_type":"pit-trial","trial_index":27,"time_elapsed":289104,"internal_node_id":"0.0-6.0-10.0-0.0","task_version":"battery-v0.2-trt"},{"rune":"4","rune_set":"elianto","hex":"#f73b6a7A","correct":32,"choice":-1,"rt":-1,"accuracy":0,"outcome":"-10","keys":[],"total_keys":0,"block":0,"practice":4,"trial_type":"pit-trial","trial_index":28,"time_elapsed":293108,"internal_node_id":"0.0-6.0-10.1-0.1","task_version":"battery-v0.2-trt"},{"rune":"4","rune_set":"elianto","hex":"#f73b6a7A","correct":32,"choice":32,"rt":624.225000035949,"accuracy":1,"outcome":"-1","keys":[1262.5099999131635,2125.5899999523535],"total_keys":2,"block":0,"practice":4,"trial_type":"pit-trial","trial_index":29,"time_elapsed":296437,"internal_node_id":"0.0-6.0-10.2-0.2","task_version":"battery-v0.2-trt"},{"rune":"4","rune_set":"elianto","hex":"#f73b6a7A","correct":32,"choice":32,"rt":320.17500000074506,"accuracy":1,"outcome":"-1","keys":[1820.8899999735877],"total_keys":1,"block":0,"practice":4,"trial_type":"pit-trial","trial_index":30,"time_elapsed":299462,"internal_node_id":"0.0-6.0-10.3-0.3","task_version":"battery-v0.2-trt"},{"rune":"4","rune_set":"elianto","hex":"#f73b6a7A","correct":32,"choice":32,"rt":254.28500003181398,"accuracy":1,"outcome":"-1","keys":[1755.059999995865],"total_keys":1,"block":0,"practice":4,"trial_type":"pit-trial","trial_index":31,"time_elapsed":302419,"internal_node_id":"0.0-6.0-10.4-0.4","task_version":"battery-v0.2-trt"},{"trial_type":"call-function","trial_index":32,"time_elapsed":302420,"internal_node_id":"0.0-6.0-11.0","task_version":"battery-v0.2-trt"},{"view_history":"[{\"page_index\":0,\"viewing_time\":2763.579999911599},{\"page_index\":1,\"viewing_time\":3242.2650000080466},{\"page_index\":2,\"viewing_time\":3732.245000079274},{\"page_index\":3,\"viewing_time\":2255.810000002384},{\"page_index\":4,\"viewing_time\":2216.024999972433},{\"page_index\":5,\"viewing_time\":1240.1349999709055}]","rt":15450.39499993436,"trial_type":"pit-instructions","trial_index":33,"time_elapsed":317871,"internal_node_id":"0.0-6.0-12.0","task_version":"battery-v0.2-trt"},{"responses":["Press SPACE","+10","-1","True","True"],"num_errors":0,"rt":14178.19500004407,"trial_type":"pit-comprehension","trial_index":34,"time_elapsed":332053,"internal_node_id":"0.0-6.0-13.0","task_version":"battery-v0.2-trt"},{"view_history":"[{\"page_index\":0,\"viewing_time\":8394.409999949858},{\"page_index\":1,\"viewing_time\":2367.9250000277534}]","rt":10762.649999931455,"trial_type":"pit-instructions","trial_index":35,"time_elapsed":342819,"internal_node_id":"0.0-7.0","task_version":"battery-v0.2-trt"},{"rune":"R","rune_set":"bacs1","hex":"#3366ff99","correct":32,"choice":32,"rt":583.7299999548122,"accuracy":1,"outcome":"+1","keys":[2084.044999908656],"total_keys":1,"block":1,"trial":1,"stimulus":3,"robot":1,"valence":"win","action":"go","sham":1,"trial_type":"pit-trial","trial_index":36,"time_elapsed":346108,"internal_node_id":"0.0-8.0","task_version":"battery-v0.2-trt"},{"rune":"J","rune_set":"bacs1","hex":"#f73b6a7A","correct":-1,"choice":32,"rt":731.2750000273809,"accuracy":0,"outcome":"-10","keys":[2232.579999952577],"total_keys":1,"block":1,"trial":2,"stimulus":2,"robot":4,"valence":"lose","action":"no-go","sham":0,"trial_type":"pit-trial","trial_index":37,"time_elapsed":349546,"internal_node_id":"0.0-9.0","task_version":"battery-v0.2-trt"},{"rune":"Z","rune_set":"bacs1","hex":"#3366ff99","correct":32,"choice":32,"rt":740.7149999635294,"accuracy":1,"outcome":"+10","keys":[2240.9500000067055],"total_keys":1,"block":1,"trial":3,"stimulus":1,"robot":1,"valence":"win","action":"go","sham":0,"trial_type":"pit-trial","trial_index":38,"time_elapsed":352990,"internal_node_id":"0.0-10.0","task_version":"battery-v0.2-trt"},{"rune":"B","rune_set":"bacs1","hex":"#3366ff99","correct":-1,"choice":-1,"rt":-1,"accuracy":1,"outcome":"+10","keys":[],"total_keys":0,"block":1,"trial":4,"stimulus":0,"robot":2,"valence":"win","action":"no-go","sham":0,"trial_type":"pit-trial","trial_index":39,"time_elapsed":356994,"internal_node_id":"0.0-11.0","task_version":"battery-v0.2-trt"},{"rune":"J","rune_set":"bacs1","hex":"#f73b6a7A","correct":-1,"choice":-1,"rt":-1,"accuracy":1,"outcome":"-1","keys":[],"total_keys":0,"block":1,"trial":5,"stimulus":2,"robot":4,"valence":"lose","action":"no-go","sham":0,"trial_type":"pit-trial","trial_index":40,"time_elapsed":361000,"internal_node_id":"0.0-12.0","task_version":"battery-v0.2-trt"},{"rune":"Z","rune_set":"bacs1","hex":"#3366ff99","correct":32,"choice":32,"rt":686.1500000813976,"accuracy":1,"outcome":"+1","keys":[2187.6349999802187],"total_keys":1,"block":1,"trial":6,"stimulus":1,"robot":1,"valence":"win","action":"go","sham":1,"trial_type":"pit-trial","trial_index":41,"time_elapsed":364390,"internal_node_id":"0.0-13.0","task_version":"battery-v0.2-trt"},{"rune":"B","rune_set":"bacs1","hex":"#3366ff99","correct":-1,"choice":-1,"rt":-1,"accuracy":1,"outcome":"+10","keys":[],"total_keys":0,"block":1,"trial":7,"stimulus":0,"robot":2,"valence":"win","action":"no-go","sham":0,"trial_type":"pit-trial","trial_index":42,"time_elapsed":368393,"internal_node_id":"0.0-14.0","task_version":"battery-v0.2-trt"},{"rune":"R","rune_set":"bacs1","hex":"#3366ff99","correct":32,"choice":32,"rt":483.8800000725314,"accuracy":1,"outcome":"+10","keys":[1984.9249999970198],"total_keys":1,"block":1,"trial":8,"stimulus":3,"robot":1,"valence":"win","action":"go","sham":0,"trial_type":"pit-trial","trial_index":43,"time_elapsed":371580,"internal_node_id":"0.0-15.0","task_version":"battery-v0.2-trt"},{"rune":"Z","rune_set":"bacs1","hex":"#3366ff99","correct":32,"choice":32,"rt":656.8999999435619,"accuracy":1,"outcome":"+1","keys":[2158.1649999134243],"total_keys":1,"block":1,"trial":9,"stimulus":1,"robot":1,"valence":"win","action":"go","sham":1,"trial_type":"pit-trial","trial_index":44,"time_elapsed":374941,"internal_node_id":"0.0-16.0","task_version":"battery-v0.2-trt"},{"rune":"J","rune_set":"bacs1","hex":"#f73b6a7A","correct":-1,"choice":32,"rt":503.8700000150129,"accuracy":0,"outcome":"-10","keys":[2004.1150000179186],"total_keys":1,"block":1,"trial":10,"stimulus":2,"robot":4,"valence":"lose","action":"no-go","sham":0,"trial_type":"pit-trial","trial_index":45,"time_elapsed":378148,"internal_node_id":"0.0-17.0","task_version":"battery-v0.2-trt"},{"rune":"R","rune_set":"bacs1","hex":"#3366ff99","correct":32,"choice":32,"rt":586.2800000468269,"accuracy":1,"outcome":"+10","keys":[2086.8400000035763],"total_keys":1,"block":1,"trial":11,"stimulus":3,"robot":1,"valence":"win","action":"go","sham":0,"trial_type":"pit-trial","trial_index":46,"time_elapsed":381438,"internal_node_id":"0.0-18.0","task_version":"battery-v0.2-trt"},{"rune":"B","rune_set":"bacs1","hex":"#3366ff99","correct":-1,"choice":-1,"rt":-1,"accuracy":1,"outcome":"+10","keys":[],"total_keys":0,"block":1,"trial":12,"stimulus":0,"robot":2,"valence":"win","action":"no-go","sham":0,"trial_type":"pit-trial","trial_index":47,"time_elapsed":385442,"internal_node_id":"0.0-19.0","task_version":"battery-v0.2-trt"},{"rune":"J","rune_set":"bacs1","hex":"#f73b6a7A","correct":-1,"choice":-1,"rt":-1,"accuracy":1,"outcome":"-1","keys":[],"total_keys":0,"block":1,"trial":13,"stimulus":2,"robot":4,"valence":"lose","action":"no-go","sham":0,"trial_type":"pit-trial","trial_index":48,"time_elapsed":389447,"internal_node_id":"0.0-20.0","task_version":"battery-v0.2-trt"},{"rune":"R","rune_set":"bacs1","hex":"#3366ff99","correct":32,"choice":32,"rt":494.22500003129244,"accuracy":1,"outcome":"+1","keys":[1994.9049999704584],"total_keys":1,"block":1,"trial":14,"stimulus":3,"robot":1,"valence":"win","action":"go","sham":1,"trial_type":"pit-trial","trial_index":49,"time_elapsed":392646,"internal_node_id":"0.0-21.0","task_version":"battery-v0.2-trt"},{"rune":"Z","rune_set":"bacs1","hex":"#3366ff99","correct":32,"choice":32,"rt":613.9749999856576,"accuracy":1,"outcome":"+1","keys":[2115.074999979697],"total_keys":1,"block":1,"trial":15,"stimulus":1,"robot":1,"valence":"win","action":"go","sham":1,"trial_type":"pit-trial","trial_index":50,"time_elapsed":395963,"internal_node_id":"0.0-22.0","task_version":"battery-v0.2-trt"},{"rune":"B","rune_set":"bacs1","hex":"#3366ff99","correct":-1,"choice":32,"rt":729.7099999850616,"accuracy":0,"outcome":"+1","keys":[2231.3149999827147],"total_keys":1,"block":1,"trial":16,"stimulus":0,"robot":2,"valence":"win","action":"no-go","sham":0,"trial_type":"pit-trial","trial_index":51,"time_elapsed":399397,"internal_node_id":"0.0-23.0","task_version":"battery-v0.2-trt"},{"rune":"B","rune_set":"bacs1","hex":"#3366ff99","correct":-1,"choice":-1,"rt":-1,"accuracy":1,"outcome":"+10","keys":[],"total_keys":0,"block":1,"trial":17,"stimulus":0,"robot":2,"valence":"win","action":"no-go","sham":0,"trial_type":"pit-trial","trial_index":52,"time_elapsed":403403,"internal_node_id":"0.0-24.0","task_version":"battery-v0.2-trt"},{"rune":"J","rune_set":"bacs1","hex":"#f73b6a7A","correct":-1,"choice":-1,"rt":-1,"accuracy":1,"outcome":"-1","keys":[],"total_keys":0,"block":1,"trial":18,"stimulus":2,"robot":4,"valence":"lose","action":"no-go","sham":0,"trial_type":"pit-trial","trial_index":53,"time_elapsed":407409,"internal_node_id":"0.0-25.0","task_version":"battery-v0.2-trt"},{"rune":"R","rune_set":"bacs1","hex":"#3366ff99","correct":32,"choice":-1,"rt":-1,"accuracy":0,"outcome":"+10","keys":[],"total_keys":0,"block":1,"trial":19,"stimulus":3,"robot":1,"valence":"win","action":"go","sham":1,"trial_type":"pit-trial","trial_index":54,"time_elapsed":411414,"internal_node_id":"0.0-26.0","task_version":"battery-v0.2-trt"},{"rune":"Z","rune_set":"bacs1","hex":"#3366ff99","correct":32,"choice":-1,"rt":-1,"accuracy":0,"outcome":"+1","keys":[],"total_keys":0,"block":1,"trial":20,"stimulus":1,"robot":1,"valence":"win","action":"go","sham":0,"trial_type":"pit-trial","trial_index":55,"time_elapsed":415417,"internal_node_id":"0.0-27.0","task_version":"battery-v0.2-trt"},{"rune":"R","rune_set":"bacs1","hex":"#3366ff99","correct":32,"choice":-1,"rt":-1,"accuracy":0,"outcome":"+1","keys":[],"total_keys":0,"block":1,"trial":21,"stimulus":3,"robot":1,"valence":"win","action":"go","sham":0,"trial_type":"pit-trial","trial_index":56,"time_elapsed":419422,"internal_node_id":"0.0-28.0","task_version":"battery-v0.2-trt"},{"rune":"B","rune_set":"bacs1","hex":"#3366ff99","correct":-1,"choice":-1,"rt":-1,"accuracy":1,"outcome":"+10","keys":[],"total_keys":0,"block":1,"trial":22,"stimulus":0,"robot":2,"valence":"win","action":"no-go","sham":0,"trial_type":"pit-trial","trial_index":57,"time_elapsed":423426,"internal_node_id":"0.0-29.0","task_version":"battery-v0.2-trt"},{"rune":"Z","rune_set":"bacs1","hex":"#3366ff99","correct":32,"choice":32,"rt":464.97999993152916,"accuracy":1,"outcome":"+10","keys":[1966.260000015609],"total_keys":1,"block":1,"trial":23,"stimulus":1,"robot":1,"valence":"win","action":"go","sham":0,"trial_type":"pit-trial","trial_index":58,"time_elapsed":426597,"internal_node_id":"0.0-30.0","task_version":"battery-v0.2-trt"},{"rune":"J","rune_set":"bacs1","hex":"#f73b6a7A","correct":-1,"choice":-1,"rt":-1,"accuracy":1,"outcome":"-1","keys":[],"total_keys":0,"block":1,"trial":24,"stimulus":2,"robot":4,"valence":"lose","action":"no-go","sham":0,"trial_type":"pit-trial","trial_index":59,"time_elapsed":430602,"internal_node_id":"0.0-31.0","task_version":"battery-v0.2-trt"},{"rune":"J","rune_set":"bacs1","hex":"#f73b6a7A","correct":-1,"choice":-1,"rt":-1,"accuracy":1,"outcome":"-1","keys":[],"total_keys":0,"block":1,"trial":25,"stimulus":2,"robot":4,"valence":"lose","action":"no-go","sham":0,"trial_type":"pit-trial","trial_index":60,"time_elapsed":434608,"internal_node_id":"0.0-32.0","task_version":"battery-v0.2-trt"},{"rune":"Z","rune_set":"bacs1","hex":"#3366ff99","correct":32,"choice":32,"rt":1028.8099999306723,"accuracy":1,"outcome":"+10","keys":[2530.104999896139],"total_keys":1,"block":1,"trial":26,"stimulus":1,"robot":1,"valence":"win","action":"go","sham":0,"trial_type":"pit-trial","trial_index":61,"time_elapsed":438341,"internal_node_id":"0.0-33.0","task_version":"battery-v0.2-trt"},{"rune":"B","rune_set":"bacs1","hex":"#3366ff99","correct":-1,"choice":-1,"rt":-1,"accuracy":1,"outcome":"+10","keys":[],"total_keys":0,"block":1,"trial":27,"stimulus":0,"robot":2,"valence":"win","action":"no-go","sham":0,"trial_type":"pit-trial","trial_index":62,"time_elapsed":442344,"internal_node_id":"0.0-34.0","task_version":"battery-v0.2-trt"},{"rune":"R","rune_set":"bacs1","hex":"#3366ff99","correct":32,"choice":32,"rt":595.2149999793619,"accuracy":1,"outcome":"+1","keys":[2096.0800000466406],"total_keys":1,"block":1,"trial":28,"stimulus":3,"robot":1,"valence":"win","action":"go","sham":1,"trial_type":"pit-trial","trial_index":63,"time_elapsed":445644,"internal_node_id":"0.0-35.0","task_version":"battery-v0.2-trt"},{"rune":"Z","rune_set":"bacs1","hex":"#3366ff99","correct":32,"choice":-1,"rt":-1,"accuracy":0,"outcome":"+1","keys":[],"total_keys":0,"block":1,"trial":29,"stimulus":1,"robot":1,"valence":"win","action":"go","sham":0,"trial_type":"pit-trial","trial_index":64,"time_elapsed":449649,"internal_node_id":"0.0-36.0","task_version":"battery-v0.2-trt"},{"rune":"R","rune_set":"bacs1","hex":"#3366ff99","correct":32,"choice":-1,"rt":-1,"accuracy":0,"outcome":"+10","keys":[],"total_keys":0,"block":1,"trial":30,"stimulus":3,"robot":1,"valence":"win","action":"go","sham":1,"trial_type":"pit-trial","trial_index":65,"time_elapsed":453656,"internal_node_id":"0.0-37.0","task_version":"battery-v0.2-trt"},{"rune":"B","rune_set":"bacs1","hex":"#3366ff99","correct":-1,"choice":-1,"rt":-1,"accuracy":1,"outcome":"+10","keys":[],"total_keys":0,"block":1,"trial":31,"stimulus":0,"robot":2,"valence":"win","action":"no-go","sham":0,"trial_type":"pit-trial","trial_index":66,"time_elapsed":457660,"internal_node_id":"0.0-38.0","task_version":"battery-v0.2-trt"},{"rune":"J","rune_set":"bacs1","hex":"#f73b6a7A","correct":-1,"choice":-1,"rt":-1,"accuracy":1,"outcome":"-1","keys":[],"total_keys":0,"block":1,"trial":32,"stimulus":2,"robot":4,"valence":"lose","action":"no-go","sham":0,"trial_type":"pit-trial","trial_index":67,"time_elapsed":461664,"internal_node_id":"0.0-39.0","task_version":"battery-v0.2-trt"},{"rune":"J","rune_set":"bacs1","hex":"#f73b6a7A","correct":-1,"choice":-1,"rt":-1,"accuracy":1,"outcome":"-1","keys":[],"total_keys":0,"block":1,"trial":33,"stimulus":2,"robot":4,"valence":"lose","action":"no-go","sham":0,"trial_type":"pit-trial","trial_index":68,"time_elapsed":465669,"internal_node_id":"0.0-40.0","task_version":"battery-v0.2-trt"},{"rune":"R","rune_set":"bacs1","hex":"#3366ff99","correct":32,"choice":-1,"rt":-1,"accuracy":0,"outcome":"+1","keys":[3555.1050000358373],"total_keys":1,"block":1,"trial":34,"stimulus":3,"robot":1,"valence":"win","action":"go","sham":0,"trial_type":"pit-trial","trial_index":69,"time_elapsed":469674,"internal_node_id":"0.0-41.0","task_version":"battery-v0.2-trt"},{"rune":"V","rune_set":"bacs1","hex":"#3366ff99","correct":32,"choice":32,"rt":666.025000042282,"accuracy":1,"outcome":"+10","keys":[2166.650000028312],"total_keys":1,"block":1,"trial":35,"stimulus":4,"robot":1,"valence":"win","action":"go","sham":0,"trial_type":"pit-trial","trial_index":70,"time_elapsed":473045,"internal_node_id":"0.0-42.0","task_version":"battery-v0.2-trt"},{"rune":"B","rune_set":"bacs1","hex":"#3366ff99","correct":-1,"choice":-1,"rt":-1,"accuracy":1,"outcome":"+10","keys":[],"total_keys":0,"block":1,"trial":36,"stimulus":0,"robot":2,"valence":"win","action":"no-go","sham":0,"trial_type":"pit-trial","trial_index":71,"time_elapsed":477050,"internal_node_id":"0.0-43.0","task_version":"battery-v0.2-trt"},{"rune":"V","rune_set":"bacs1","hex":"#3366ff99","correct":32,"choice":32,"rt":657.4500000569969,"accuracy":1,"outcome":"+10","keys":[2158.1899999873713],"total_keys":1,"block":1,"trial":37,"stimulus":4,"robot":1,"valence":"win","action":"go","sham":0,"trial_type":"pit-trial","trial_index":72,"time_elapsed":480412,"internal_node_id":"0.0-44.0","task_version":"battery-v0.2-trt"},{"rune":"J","rune_set":"bacs1","hex":"#f73b6a7A","correct":-1,"choice":-1,"rt":-1,"accuracy":1,"outcome":"-1","keys":[],"total_keys":0,"block":1,"trial":38,"stimulus":2,"robot":4,"valence":"lose","action":"no-go","sham":0,"trial_type":"pit-trial","trial_index":73,"time_elapsed":484417,"internal_node_id":"0.0-45.0","task_version":"battery-v0.2-trt"},{"rune":"B","rune_set":"bacs1","hex":"#3366ff99","correct":-1,"choice":-1,"rt":-1,"accuracy":1,"outcome":"+10","keys":[],"total_keys":0,"block":1,"trial":39,"stimulus":0,"robot":2,"valence":"win","action":"no-go","sham":0,"trial_type":"pit-trial","trial_index":74,"time_elapsed":488421,"internal_node_id":"0.0-46.0","task_version":"battery-v0.2-trt"},{"rune":"R","rune_set":"bacs1","hex":"#3366ff99","correct":32,"choice":32,"rt":699.06000001356,"accuracy":1,"outcome":"+1","keys":[2200.055000022985],"total_keys":1,"block":1,"trial":40,"stimulus":3,"robot":1,"valence":"win","action":"go","sham":1,"trial_type":"pit-trial","trial_index":75,"time_elapsed":491824,"internal_node_id":"0.0-47.0","task_version":"battery-v0.2-trt"},{"rune":"V","rune_set":"bacs1","hex":"#3366ff99","correct":32,"choice":32,"rt":650.8550000144169,"accuracy":1,"outcome":"+10","keys":[2152.140000020154],"total_keys":1,"block":1,"trial":41,"stimulus":4,"robot":1,"valence":"win","action":"go","sham":0,"trial_type":"pit-trial","trial_index":76,"time_elapsed":495181,"internal_node_id":"0.0-48.0","task_version":"battery-v0.2-trt"},{"rune":"E","rune_set":"bacs1","hex":"#f73b6a7A","correct":32,"choice":32,"rt":1064.644999918528,"accuracy":1,"outcome":"-1","keys":[2565.599999972619],"total_keys":1,"block":1,"trial":42,"stimulus":5,"robot":3,"valence":"lose","action":"go","sham":0,"trial_type":"pit-trial","trial_index":77,"time_elapsed":498949,"internal_node_id":"0.0-49.0","task_version":"battery-v0.2-trt"},{"rune":"T","rune_set":"bacs1","hex":"#f73b6a7A","correct":-1,"choice":32,"rt":640.2000000234693,"accuracy":0,"outcome":"-1","keys":[2140.720000024885],"total_keys":1,"block":1,"trial":43,"stimulus":6,"robot":4,"valence":"lose","action":"no-go","sham":1,"trial_type":"pit-trial","trial_index":78,"time_elapsed":502293,"internal_node_id":"0.0-50.0","task_version":"battery-v0.2-trt"},{"rune":"B","rune_set":"bacs1","hex":"#3366ff99","correct":-1,"choice":32,"rt":862.8949999110773,"accuracy":0,"outcome":"+1","keys":[2364.3700000829995],"total_keys":1,"block":1,"trial":44,"stimulus":0,"robot":2,"valence":"win","action":"no-go","sham":0,"trial_type":"pit-trial","trial_index":79,"time_elapsed":505860,"internal_node_id":"0.0-51.0","task_version":"battery-v0.2-trt"},{"rune":"B","rune_set":"bacs1","hex":"#3366ff99","correct":-1,"choice":-1,"rt":-1,"accuracy":1,"outcome":"+10","keys":[],"total_keys":0,"block":1,"trial":45,"stimulus":0,"robot":2,"valence":"win","action":"no-go","sham":0,"trial_type":"pit-trial","trial_index":80,"time_elapsed":509866,"internal_node_id":"0.0-52.0","task_version":"battery-v0.2-trt"},{"rune":"T","rune_set":"bacs1","hex":"#f73b6a7A","correct":-1,"choice":-1,"rt":-1,"accuracy":1,"outcome":"-1","keys":[],"total_keys":0,"block":1,"trial":46,"stimulus":6,"robot":4,"valence":"lose","action":"no-go","sham":0,"trial_type":"pit-trial","trial_index":81,"time_elapsed":513873,"internal_node_id":"0.0-53.0","task_version":"battery-v0.2-trt"},{"rune":"E","rune_set":"bacs1","hex":"#f73b6a7A","correct":32,"choice":-1,"rt":-1,"accuracy":0,"outcome":"-10","keys":[],"total_keys":0,"block":1,"trial":47,"stimulus":5,"robot":3,"valence":"lose","action":"go","sham":0,"trial_type":"pit-trial","trial_index":82,"time_elapsed":517878,"internal_node_id":"0.0-54.0","task_version":"battery-v0.2-trt"},{"rune":"V","rune_set":"bacs1","hex":"#3366ff99","correct":32,"choice":32,"rt":1200.0000000698492,"accuracy":1,"outcome":"+10","keys":[2700.485000037588],"total_keys":1,"block":1,"trial":48,"stimulus":4,"robot":1,"valence":"win","action":"go","sham":0,"trial_type":"pit-trial","trial_index":83,"time_elapsed":521784,"internal_node_id":"0.0-55.0","task_version":"battery-v0.2-trt"},{"rune":"F","rune_set":"bacs1","hex":"#3366ff99","correct":-1,"choice":32,"rt":788.1749999942258,"accuracy":0,"outcome":"+10","keys":[2288.869999931194],"total_keys":1,"block":1,"trial":49,"stimulus":7,"robot":2,"valence":"win","action":"no-go","sham":1,"trial_type":"pit-trial","trial_index":84,"time_elapsed":525277,"internal_node_id":"0.0-56.0","task_version":"battery-v0.2-trt"},{"rune":"E","rune_set":"bacs1","hex":"#f73b6a7A","correct":32,"choice":32,"rt":807.9250000882894,"accuracy":1,"outcome":"-1","keys":[2308.5800000699237],"total_keys":1,"block":1,"trial":50,"stimulus":5,"robot":3,"valence":"lose","action":"go","sham":0,"trial_type":"pit-trial","trial_index":85,"time_elapsed":528788,"internal_node_id":"0.0-57.0","task_version":"battery-v0.2-trt"},{"rune":"T","rune_set":"bacs1","hex":"#f73b6a7A","correct":-1,"choice":-1,"rt":-1,"accuracy":1,"outcome":"-1","keys":[],"total_keys":0,"block":1,"trial":51,"stimulus":6,"robot":4,"valence":"lose","action":"no-go","sham":0,"trial_type":"pit-trial","trial_index":86,"time_elapsed":532794,"internal_node_id":"0.0-58.0","task_version":"battery-v0.2-trt"},{"rune":"V","rune_set":"bacs1","hex":"#3366ff99","correct":32,"choice":32,"rt":769.9450000654906,"accuracy":1,"outcome":"+10","keys":[2271.40500000678],"total_keys":1,"block":1,"trial":52,"stimulus":4,"robot":1,"valence":"win","action":"go","sham":0,"trial_type":"pit-trial","trial_index":87,"time_elapsed":536268,"internal_node_id":"0.0-59.0","task_version":"battery-v0.2-trt"},{"rune":"F","rune_set":"bacs1","hex":"#3366ff99","correct":-1,"choice":-1,"rt":-1,"accuracy":1,"outcome":"+10","keys":[],"total_keys":0,"block":1,"trial":53,"stimulus":7,"robot":2,"valence":"win","action":"no-go","sham":0,"trial_type":"pit-trial","trial_index":88,"time_elapsed":540271,"internal_node_id":"0.0-60.0","task_version":"battery-v0.2-trt"},{"rune":"E","rune_set":"bacs1","hex":"#f73b6a7A","correct":32,"choice":32,"rt":822.2799999639392,"accuracy":1,"outcome":"-1","keys":[2323.5100000165403],"total_keys":1,"block":1,"trial":54,"stimulus":5,"robot":3,"valence":"lose","action":"go","sham":0,"trial_type":"pit-trial","trial_index":89,"time_elapsed":543798,"internal_node_id":"0.0-61.0","task_version":"battery-v0.2-trt"},{"rune":"T","rune_set":"bacs1","hex":"#f73b6a7A","correct":-1,"choice":-1,"rt":-1,"accuracy":1,"outcome":"-1","keys":[],"total_keys":0,"block":1,"trial":55,"stimulus":6,"robot":4,"valence":"lose","action":"no-go","sham":0,"trial_type":"pit-trial","trial_index":90,"time_elapsed":547803,"internal_node_id":"0.0-62.0","task_version":"battery-v0.2-trt"},{"rune":"V","rune_set":"bacs1","hex":"#3366ff99","correct":32,"choice":-1,"rt":-1,"accuracy":0,"outcome":"+1","keys":[3260.9599999850616],"total_keys":1,"block":1,"trial":56,"stimulus":4,"robot":1,"valence":"win","action":"go","sham":0,"trial_type":"pit-trial","trial_index":91,"time_elapsed":551808,"internal_node_id":"0.0-63.0","task_version":"battery-v0.2-trt"},{"rune":"F","rune_set":"bacs1","hex":"#3366ff99","correct":-1,"choice":32,"rt":796.364999958314,"accuracy":0,"outcome":"+1","keys":[2296.9900000607595],"total_keys":1,"block":1,"trial":57,"stimulus":7,"robot":2,"valence":"win","action":"no-go","sham":0,"trial_type":"pit-trial","trial_index":92,"time_elapsed":555309,"internal_node_id":"0.0-64.0","task_version":"battery-v0.2-trt"},{"rune":"T","rune_set":"bacs1","hex":"#f73b6a7A","correct":-1,"choice":-1,"rt":-1,"accuracy":1,"outcome":"-1","keys":[],"total_keys":0,"block":1,"trial":58,"stimulus":6,"robot":4,"valence":"lose","action":"no-go","sham":0,"trial_type":"pit-trial","trial_index":93,"time_elapsed":559315,"internal_node_id":"0.0-65.0","task_version":"battery-v0.2-trt"},{"rune":"V","rune_set":"bacs1","hex":"#3366ff99","correct":32,"choice":32,"rt":784.2550000641495,"accuracy":1,"outcome":"+10","keys":[2285.189999965951],"total_keys":1,"block":1,"trial":59,"stimulus":4,"robot":1,"valence":"win","action":"go","sham":0,"trial_type":"pit-trial","trial_index":94,"time_elapsed":562804,"internal_node_id":"0.0-66.0","task_version":"battery-v0.2-trt"},{"rune":"E","rune_set":"bacs1","hex":"#f73b6a7A","correct":32,"choice":32,"rt":647.510000038892,"accuracy":1,"outcome":"-1","keys":[2148.6649999860674],"total_keys":1,"block":1,"trial":60,"stimulus":5,"robot":3,"valence":"lose","action":"go","sham":0,"trial_type":"pit-trial","trial_index":95,"time_elapsed":566157,"internal_node_id":"0.0-67.0","task_version":"battery-v0.2-trt"},{"rune":"F","rune_set":"bacs1","hex":"#3366ff99","correct":-1,"choice":32,"rt":663.9000000432134,"accuracy":0,"outcome":"+1","keys":[2164.73999992013],"total_keys":1,"block":1,"trial":61,"stimulus":7,"robot":2,"valence":"win","action":"no-go","sham":0,"trial_type":"pit-trial","trial_index":96,"time_elapsed":569524,"internal_node_id":"0.0-68.0","task_version":"battery-v0.2-trt"},{"rune":"V","rune_set":"bacs1","hex":"#3366ff99","correct":32,"choice":32,"rt":518.4199999785051,"accuracy":1,"outcome":"+10","keys":[2018.6049999902025],"total_keys":1,"block":1,"trial":62,"stimulus":4,"robot":1,"valence":"win","action":"go","sham":0,"trial_type":"pit-trial","trial_index":97,"time_elapsed":572749,"internal_node_id":"0.0-69.0","task_version":"battery-v0.2-trt"},{"rune":"T","rune_set":"bacs1","hex":"#f73b6a7A","correct":-1,"choice":-1,"rt":-1,"accuracy":1,"outcome":"-10","keys":[],"total_keys":0,"block":1,"trial":63,"stimulus":6,"robot":4,"valence":"lose","action":"no-go","sham":1,"trial_type":"pit-trial","trial_index":98,"time_elapsed":576755,"internal_node_id":"0.0-70.0","task_version":"battery-v0.2-trt"},{"rune":"E","rune_set":"bacs1","hex":"#f73b6a7A","correct":32,"choice":32,"rt":690.2199999894947,"accuracy":1,"outcome":"-1","keys":[2190.5750000150874],"total_keys":1,"block":1,"trial":64,"stimulus":5,"robot":3,"valence":"lose","action":"go","sham":0,"trial_type":"pit-trial","trial_index":99,"time_elapsed":580149,"internal_node_id":"0.0-71.0","task_version":"battery-v0.2-trt"},{"rune":"T","rune_set":"bacs1","hex":"#f73b6a7A","correct":-1,"choice":32,"rt":730.4149999981746,"accuracy":0,"outcome":"-10","keys":[2231.29499994684],"total_keys":1,"block":1,"trial":65,"stimulus":6,"robot":4,"valence":"lose","action":"no-go","sham":0,"trial_type":"pit-trial","trial_index":100,"time_elapsed":583583,"internal_node_id":"0.0-72.0","task_version":"battery-v0.2-trt"},{"rune":"V","rune_set":"bacs1","hex":"#3366ff99","correct":32,"choice":32,"rt":645.3249999321997,"accuracy":1,"outcome":"+10","keys":[2146.1750000016764],"total_keys":1,"block":1,"trial":66,"stimulus":4,"robot":1,"valence":"win","action":"go","sham":0,"trial_type":"pit-trial","trial_index":101,"time_elapsed":586934,"internal_node_id":"0.0-73.0","task_version":"battery-v0.2-trt"},{"rune":"F","rune_set":"bacs1","hex":"#3366ff99","correct":-1,"choice":32,"rt":1141.8899999698624,"accuracy":0,"outcome":"+1","keys":[2643.6499999836087],"total_keys":1,"block":1,"trial":67,"stimulus":7,"robot":2,"valence":"win","action":"no-go","sham":0,"trial_type":"pit-trial","trial_index":102,"time_elapsed":590783,"internal_node_id":"0.0-74.0","task_version":"battery-v0.2-trt"},{"rune":"E","rune_set":"bacs1","hex":"#f73b6a7A","correct":32,"choice":32,"rt":764.3800000660121,"accuracy":1,"outcome":"-10","keys":[2265.125000034459],"total_keys":1,"block":1,"trial":68,"stimulus":5,"robot":3,"valence":"lose","action":"go","sham":1,"trial_type":"pit-trial","trial_index":103,"time_elapsed":594253,"internal_node_id":"0.0-75.0","task_version":"battery-v0.2-trt"},{"rune":"F","rune_set":"bacs1","hex":"#3366ff99","correct":-1,"choice":32,"rt":702.6449999539182,"accuracy":0,"outcome":"+1","keys":[2203.8750000065193],"total_keys":1,"block":1,"trial":69,"stimulus":7,"robot":2,"valence":"win","action":"no-go","sham":0,"trial_type":"pit-trial","trial_index":104,"time_elapsed":597659,"internal_node_id":"0.0-76.0","task_version":"battery-v0.2-trt"},{"rune":"T","rune_set":"bacs1","hex":"#f73b6a7A","correct":-1,"choice":-1,"rt":-1,"accuracy":1,"outcome":"-10","keys":[],"total_keys":0,"block":1,"trial":70,"stimulus":6,"robot":4,"valence":"lose","action":"no-go","sham":1,"trial_type":"pit-trial","trial_index":105,"time_elapsed":601664,"internal_node_id":"0.0-77.0","task_version":"battery-v0.2-trt"},{"rune":"E","rune_set":"bacs1","hex":"#f73b6a7A","correct":32,"choice":-1,"rt":-1,"accuracy":0,"outcome":"-10","keys":[],"total_keys":0,"block":1,"trial":71,"stimulus":5,"robot":3,"valence":"lose","action":"go","sham":0,"trial_type":"pit-trial","trial_index":106,"time_elapsed":605669,"internal_node_id":"0.0-78.0","task_version":"battery-v0.2-trt"},{"rune":"V","rune_set":"bacs1","hex":"#3366ff99","correct":32,"choice":32,"rt":528.2949999673292,"accuracy":1,"outcome":"+1","keys":[2029.2800000170246],"total_keys":1,"block":1,"trial":72,"stimulus":4,"robot":1,"valence":"win","action":"go","sham":1,"trial_type":"pit-trial","trial_index":107,"time_elapsed":608901,"internal_node_id":"0.0-79.0","task_version":"battery-v0.2-trt"},{"rune":"A","rune_set":"bacs1","hex":"#f73b6a7A","correct":32,"choice":32,"rt":967.6299999700859,"accuracy":1,"outcome":"-1","keys":[2468.6900000087917],"total_keys":1,"block":1,"trial":73,"stimulus":8,"robot":3,"valence":"lose","action":"go","sham":0,"trial_type":"pit-trial","trial_index":108,"time_elapsed":612573,"internal_node_id":"0.0-80.0","task_version":"battery-v0.2-trt"},{"rune":"F","rune_set":"bacs1","hex":"#3366ff99","correct":-1,"choice":32,"rt":509.53499996103346,"accuracy":0,"outcome":"+1","keys":[2010.4200000641868],"total_keys":1,"block":1,"trial":74,"stimulus":7,"robot":2,"valence":"win","action":"no-go","sham":0,"trial_type":"pit-trial","trial_index":109,"time_elapsed":615788,"internal_node_id":"0.0-81.0","task_version":"battery-v0.2-trt"},{"rune":"V","rune_set":"bacs1","hex":"#3366ff99","correct":32,"choice":32,"rt":551.3050000881776,"accuracy":1,"outcome":"+10","keys":[2052.6499999687076],"total_keys":1,"block":1,"trial":75,"stimulus":4,"robot":1,"valence":"win","action":"go","sham":0,"trial_type":"pit-trial","trial_index":110,"time_elapsed":619045,"internal_node_id":"0.0-82.0","task_version":"battery-v0.2-trt"},{"rune":"T","rune_set":"bacs1","hex":"#f73b6a7A","correct":-1,"choice":32,"rt":794.9899999657646,"accuracy":0,"outcome":"-10","keys":[2297.0350000541657],"total_keys":1,"block":1,"trial":76,"stimulus":6,"robot":4,"valence":"lose","action":"no-go","sham":0,"trial_type":"pit-trial","trial_index":111,"time_elapsed":622549,"internal_node_id":"0.0-83.0","task_version":"battery-v0.2-trt"},{"rune":"F","rune_set":"bacs1","hex":"#3366ff99","correct":-1,"choice":32,"rt":591.0350000485778,"accuracy":0,"outcome":"+1","keys":[2091.145000071265],"total_keys":1,"block":1,"trial":77,"stimulus":7,"robot":2,"valence":"win","action":"no-go","sham":0,"trial_type":"pit-trial","trial_index":112,"time_elapsed":625845,"internal_node_id":"0.0-84.0","task_version":"battery-v0.2-trt"},{"rune":"V","rune_set":"bacs1","hex":"#3366ff99","correct":32,"choice":32,"rt":718.2200000388548,"accuracy":1,"outcome":"+1","keys":[2218.489999999292],"total_keys":1,"block":1,"trial":78,"stimulus":4,"robot":1,"valence":"win","action":"go","sham":1,"trial_type":"pit-trial","trial_index":113,"time_elapsed":629269,"internal_node_id":"0.0-85.0","task_version":"battery-v0.2-trt"},{"rune":"A","rune_set":"bacs1","hex":"#f73b6a7A","correct":32,"choice":32,"rt":1071.280000032857,"accuracy":1,"outcome":"-1","keys":[2572.8750000707805],"total_keys":1,"block":1,"trial":79,"stimulus":8,"robot":3,"valence":"lose","action":"go","sham":0,"trial_type":"pit-trial","trial_index":114,"time_elapsed":633045,"internal_node_id":"0.0-86.0","task_version":"battery-v0.2-trt"},{"rune":"T","rune_set":"bacs1","hex":"#f73b6a7A","correct":-1,"choice":32,"rt":1157.8100000042468,"accuracy":0,"outcome":"-1","keys":[2659.404999925755],"total_keys":1,"block":1,"trial":80,"stimulus":6,"robot":4,"valence":"lose","action":"no-go","sham":1,"trial_type":"pit-trial","trial_index":115,"time_elapsed":636909,"internal_node_id":"0.0-87.0","task_version":"battery-v0.2-trt"},{"rune":"A","rune_set":"bacs1","hex":"#f73b6a7A","correct":32,"choice":32,"rt":751.5999999595806,"accuracy":1,"outcome":"-1","keys":[2252.364999963902],"total_keys":1,"block":1,"trial":81,"stimulus":8,"robot":3,"valence":"lose","action":"go","sham":0,"trial_type":"pit-trial","trial_index":116,"time_elapsed":640363,"internal_node_id":"0.0-88.0","task_version":"battery-v0.2-trt"},{"rune":"T","rune_set":"bacs1","hex":"#f73b6a7A","correct":-1,"choice":32,"rt":1233.0300000030547,"accuracy":0,"outcome":"-10","keys":[2733.089999994263],"total_keys":1,"block":1,"trial":82,"stimulus":6,"robot":4,"valence":"lose","action":"no-go","sham":0,"trial_type":"pit-trial","trial_index":117,"time_elapsed":644301,"internal_node_id":"0.0-89.0","task_version":"battery-v0.2-trt"},{"rune":"F","rune_set":"bacs1","hex":"#3366ff99","correct":-1,"choice":32,"rt":646.5199999511242,"accuracy":0,"outcome":"+1","keys":[2146.9100000103936],"total_keys":1,"block":1,"trial":83,"stimulus":7,"robot":2,"valence":"win","action":"no-go","sham":0,"trial_type":"pit-trial","trial_index":118,"time_elapsed":647651,"internal_node_id":"0.0-90.0","task_version":"battery-v0.2-trt"},{"rune":"C","rune_set":"bacs1","hex":"#f73b6a7A","correct":32,"choice":-1,"rt":-1,"accuracy":0,"outcome":"-10","keys":[],"total_keys":0,"block":1,"trial":84,"stimulus":9,"robot":3,"valence":"lose","action":"go","sham":0,"trial_type":"pit-trial","trial_index":119,"time_elapsed":651657,"internal_node_id":"0.0-91.0","task_version":"battery-v0.2-trt"},{"rune":"A","rune_set":"bacs1","hex":"#f73b6a7A","correct":32,"choice":32,"rt":700.7100000046194,"accuracy":1,"outcome":"-1","keys":[2201.2650000397116],"total_keys":1,"block":1,"trial":85,"stimulus":8,"robot":3,"valence":"lose","action":"go","sham":0,"trial_type":"pit-trial","trial_index":120,"time_elapsed":655061,"internal_node_id":"0.0-92.0","task_version":"battery-v0.2-trt"},{"rune":"C","rune_set":"bacs1","hex":"#f73b6a7A","correct":32,"choice":32,"rt":590.6599999871105,"accuracy":1,"outcome":"-1","keys":[2091.2449999013916],"total_keys":1,"block":1,"trial":86,"stimulus":9,"robot":3,"valence":"lose","action":"go","sham":0,"trial_type":"pit-trial","trial_index":121,"time_elapsed":658356,"internal_node_id":"0.0-93.0","task_version":"battery-v0.2-trt"},{"rune":"F","rune_set":"bacs1","hex":"#3366ff99","correct":-1,"choice":32,"rt":479.7049999469891,"accuracy":0,"outcome":"+1","keys":[1980.2350000245497],"total_keys":1,"block":1,"trial":87,"stimulus":7,"robot":2,"valence":"win","action":"no-go","sham":0,"trial_type":"pit-trial","trial_index":122,"time_elapsed":661540,"internal_node_id":"0.0-94.0","task_version":"battery-v0.2-trt"},{"rune":"T","rune_set":"bacs1","hex":"#f73b6a7A","correct":-1,"choice":32,"rt":964.7550000809133,"accuracy":0,"outcome":"-10","keys":[2465.639999951236],"total_keys":1,"block":1,"trial":88,"stimulus":6,"robot":4,"valence":"lose","action":"no-go","sham":0,"trial_type":"pit-trial","trial_index":123,"time_elapsed":665209,"internal_node_id":"0.0-95.0","task_version":"battery-v0.2-trt"},{"rune":"A","rune_set":"bacs1","hex":"#f73b6a7A","correct":32,"choice":32,"rt":659.3649999704212,"accuracy":1,"outcome":"-1","keys":[2160.8000000705943],"total_keys":1,"block":1,"trial":89,"stimulus":8,"robot":3,"valence":"lose","action":"go","sham":0,"trial_type":"pit-trial","trial_index":124,"time_elapsed":668572,"internal_node_id":"0.0-96.0","task_version":"battery-v0.2-trt"},{"rune":"Q","rune_set":"bacs1","hex":"#3366ff99","correct":-1,"choice":32,"rt":518.819999997504,"accuracy":0,"outcome":"+1","keys":[2019.8650000384077],"total_keys":1,"block":1,"trial":90,"stimulus":11,"robot":2,"valence":"win","action":"no-go","sham":0,"trial_type":"pit-trial","trial_index":125,"time_elapsed":671795,"internal_node_id":"0.0-97.0","task_version":"battery-v0.2-trt"},{"rune":"C","rune_set":"bacs1","hex":"#f73b6a7A","correct":32,"choice":32,"rt":720.6800000276417,"accuracy":1,"outcome":"-10","keys":[2222.9349999688566],"total_keys":1,"block":1,"trial":91,"stimulus":9,"robot":3,"valence":"lose","action":"go","sham":1,"trial_type":"pit-trial","trial_index":126,"time_elapsed":675221,"internal_node_id":"0.0-98.0","task_version":"battery-v0.2-trt"},{"rune":"L","rune_set":"bacs1","hex":"#f73b6a7A","correct":-1,"choice":32,"rt":661.5499999606982,"accuracy":0,"outcome":"-10","keys":[2162.364999996498],"total_keys":1,"block":1,"trial":92,"stimulus":10,"robot":4,"valence":"lose","action":"no-go","sham":0,"trial_type":"pit-trial","trial_index":127,"time_elapsed":678588,"internal_node_id":"0.0-99.0","task_version":"battery-v0.2-trt"},{"rune":"Q","rune_set":"bacs1","hex":"#3366ff99","correct":-1,"choice":32,"rt":551.2450000969693,"accuracy":0,"outcome":"+1","keys":[2051.7750000581145],"total_keys":1,"block":1,"trial":93,"stimulus":11,"robot":2,"valence":"win","action":"no-go","sham":0,"trial_type":"pit-trial","trial_index":128,"time_elapsed":681844,"internal_node_id":"0.0-100.0","task_version":"battery-v0.2-trt"},{"rune":"A","rune_set":"bacs1","hex":"#f73b6a7A","correct":32,"choice":32,"rt":825.3350000595674,"accuracy":1,"outcome":"-1","keys":[2326.274999999441],"total_keys":1,"block":1,"trial":94,"stimulus":8,"robot":3,"valence":"lose","action":"go","sham":0,"trial_type":"pit-trial","trial_index":129,"time_elapsed":685374,"internal_node_id":"0.0-101.0","task_version":"battery-v0.2-trt"},{"rune":"L","rune_set":"bacs1","hex":"#f73b6a7A","correct":-1,"choice":-1,"rt":-1,"accuracy":1,"outcome":"-1","keys":[],"total_keys":0,"block":1,"trial":95,"stimulus":10,"robot":4,"valence":"lose","action":"no-go","sham":0,"trial_type":"pit-trial","trial_index":130,"time_elapsed":689379,"internal_node_id":"0.0-102.0","task_version":"battery-v0.2-trt"},{"rune":"C","rune_set":"bacs1","hex":"#f73b6a7A","correct":32,"choice":32,"rt":723.0849999468774,"accuracy":1,"outcome":"-1","keys":[2224.119999911636],"total_keys":1,"block":1,"trial":96,"stimulus":9,"robot":3,"valence":"lose","action":"go","sham":0,"trial_type":"pit-trial","trial_index":131,"time_elapsed":692805,"internal_node_id":"0.0-103.0","task_version":"battery-v0.2-trt"},{"rune":"Q","rune_set":"bacs1","hex":"#3366ff99","correct":-1,"choice":32,"rt":622.8349999291822,"accuracy":0,"outcome":"+1","keys":[2123.6949999583885],"total_keys":1,"block":1,"trial":97,"stimulus":11,"robot":2,"valence":"win","action":"no-go","sham":0,"trial_type":"pit-trial","trial_index":132,"time_elapsed":696131,"internal_node_id":"0.0-104.0","task_version":"battery-v0.2-trt"},{"rune":"C","rune_set":"bacs1","hex":"#f73b6a7A","correct":32,"choice":32,"rt":993.8799999654293,"accuracy":1,"outcome":"-1","keys":[2494.230000069365],"total_keys":1,"block":1,"trial":98,"stimulus":9,"robot":3,"valence":"lose","action":"go","sham":0,"trial_type":"pit-trial","trial_index":133,"time_elapsed":699827,"internal_node_id":"0.0-105.0","task_version":"battery-v0.2-trt"},{"rune":"L","rune_set":"bacs1","hex":"#f73b6a7A","correct":-1,"choice":32,"rt":769.4299999857321,"accuracy":0,"outcome":"-1","keys":[2269.68999998644],"total_keys":1,"block":1,"trial":99,"stimulus":10,"robot":4,"valence":"lose","action":"no-go","sham":1,"trial_type":"pit-trial","trial_index":134,"time_elapsed":703301,"internal_node_id":"0.0-106.0","task_version":"battery-v0.2-trt"},{"rune":"A","rune_set":"bacs1","hex":"#f73b6a7A","correct":32,"choice":32,"rt":871.650000102818,"accuracy":1,"outcome":"-1","keys":[2372.7900000521913],"total_keys":1,"block":1,"trial":100,"stimulus":8,"robot":3,"valence":"lose","action":"go","sham":0,"trial_type":"pit-trial","trial_index":135,"time_elapsed":706878,"internal_node_id":"0.0-107.0","task_version":"battery-v0.2-trt"},{"rune":"A","rune_set":"bacs1","hex":"#f73b6a7A","correct":32,"choice":32,"rt":542.9650000296533,"accuracy":1,"outcome":"-1","keys":[2042.9950000252575],"total_keys":1,"block":1,"trial":101,"stimulus":8,"robot":3,"valence":"lose","action":"go","sham":0,"trial_type":"pit-trial","trial_index":136,"time_elapsed":710125,"internal_node_id":"0.0-108.0","task_version":"battery-v0.2-trt"},{"rune":"C","rune_set":"bacs1","hex":"#f73b6a7A","correct":32,"choice":32,"rt":628.3350000157952,"accuracy":1,"outcome":"-10","keys":[2128.484999993816],"total_keys":1,"block":1,"trial":102,"stimulus":9,"robot":3,"valence":"lose","action":"go","sham":1,"trial_type":"pit-trial","trial_index":137,"time_elapsed":713460,"internal_node_id":"0.0-109.0","task_version":"battery-v0.2-trt"},{"rune":"L","rune_set":"bacs1","hex":"#f73b6a7A","correct":-1,"choice":32,"rt":841.8499999679625,"accuracy":0,"outcome":"-10","keys":[2342.4300000770018],"total_keys":1,"block":1,"trial":103,"stimulus":10,"robot":4,"valence":"lose","action":"no-go","sham":0,"trial_type":"pit-trial","trial_index":138,"time_elapsed":717007,"internal_node_id":"0.0-110.0","task_version":"battery-v0.2-trt"},{"rune":"Q","rune_set":"bacs1","hex":"#3366ff99","correct":-1,"choice":32,"rt":749.5900000212714,"accuracy":0,"outcome":"+1","keys":[2250.289999996312],"total_keys":1,"block":1,"trial":104,"stimulus":11,"robot":2,"valence":"win","action":"no-go","sham":0,"trial_type":"pit-trial","trial_index":139,"time_elapsed":720460,"internal_node_id":"0.0-111.0","task_version":"battery-v0.2-trt"},{"rune":"L","rune_set":"bacs1","hex":"#f73b6a7A","correct":-1,"choice":-1,"rt":-1,"accuracy":1,"outcome":"-1","keys":[],"total_keys":0,"block":1,"trial":105,"stimulus":10,"robot":4,"valence":"lose","action":"no-go","sham":0,"trial_type":"pit-trial","trial_index":140,"time_elapsed":724463,"internal_node_id":"0.0-112.0","task_version":"battery-v0.2-trt"},{"rune":"C","rune_set":"bacs1","hex":"#f73b6a7A","correct":32,"choice":32,"rt":783.6699999170378,"accuracy":1,"outcome":"-1","keys":[2284.8099999828264],"total_keys":1,"block":1,"trial":106,"stimulus":9,"robot":3,"valence":"lose","action":"go","sham":0,"trial_type":"pit-trial","trial_index":141,"time_elapsed":727951,"internal_node_id":"0.0-113.0","task_version":"battery-v0.2-trt"},{"rune":"Q","rune_set":"bacs1","hex":"#3366ff99","correct":-1,"choice":-1,"rt":-1,"accuracy":1,"outcome":"+1","keys":[],"total_keys":0,"block":1,"trial":107,"stimulus":11,"robot":2,"valence":"win","action":"no-go","sham":1,"trial_type":"pit-trial","trial_index":142,"time_elapsed":731956,"internal_node_id":"0.0-114.0","task_version":"battery-v0.2-trt"},{"rune":"A","rune_set":"bacs1","hex":"#f73b6a7A","correct":32,"choice":32,"rt":759.3699999852106,"accuracy":1,"outcome":"-10","keys":[2259.9199999822304],"total_keys":1,"block":1,"trial":108,"stimulus":8,"robot":3,"valence":"lose","action":"go","sham":1,"trial_type":"pit-trial","trial_index":143,"time_elapsed":735420,"internal_node_id":"0.0-115.0","task_version":"battery-v0.2-trt"},{"rune":"Q","rune_set":"bacs1","hex":"#3366ff99","correct":-1,"choice":-1,"rt":-1,"accuracy":1,"outcome":"+10","keys":[],"total_keys":0,"block":1,"trial":109,"stimulus":11,"robot":2,"valence":"win","action":"no-go","sham":0,"trial_type":"pit-trial","trial_index":144,"time_elapsed":739427,"internal_node_id":"0.0-116.0","task_version":"battery-v0.2-trt"},{"rune":"L","rune_set":"bacs1","hex":"#f73b6a7A","correct":-1,"choice":-1,"rt":-1,"accuracy":1,"outcome":"-1","keys":[],"total_keys":0,"block":1,"trial":110,"stimulus":10,"robot":4,"valence":"lose","action":"no-go","sham":0,"trial_type":"pit-trial","trial_index":145,"time_elapsed":743431,"internal_node_id":"0.0-117.0","task_version":"battery-v0.2-trt"},{"rune":"C","rune_set":"bacs1","hex":"#f73b6a7A","correct":32,"choice":32,"rt":788.3600000059232,"accuracy":1,"outcome":"-10","keys":[2288.799999980256],"total_keys":1,"block":1,"trial":111,"stimulus":9,"robot":3,"valence":"lose","action":"go","sham":1,"trial_type":"pit-trial","trial_index":146,"time_elapsed":746924,"internal_node_id":"0.0-118.0","task_version":"battery-v0.2-trt"},{"rune":"A","rune_set":"bacs1","hex":"#f73b6a7A","correct":32,"choice":-1,"rt":-1,"accuracy":0,"outcome":"-10","keys":[],"total_keys":0,"block":1,"trial":112,"stimulus":8,"robot":3,"valence":"lose","action":"go","sham":0,"trial_type":"pit-trial","trial_index":147,"time_elapsed":750929,"internal_node_id":"0.0-119.0","task_version":"battery-v0.2-trt"},{"rune":"C","rune_set":"bacs1","hex":"#f73b6a7A","correct":32,"choice":32,"rt":976.6750000417233,"accuracy":1,"outcome":"-1","keys":[2476.9250000827014],"total_keys":1,"block":1,"trial":113,"stimulus":9,"robot":3,"valence":"lose","action":"go","sham":0,"trial_type":"pit-trial","trial_index":148,"time_elapsed":754609,"internal_node_id":"0.0-120.0","task_version":"battery-v0.2-trt"},{"rune":"L","rune_set":"bacs1","hex":"#f73b6a7A","correct":-1,"choice":32,"rt":779.5150000602007,"accuracy":0,"outcome":"-10","keys":[2280.585000058636],"total_keys":1,"block":1,"trial":114,"stimulus":10,"robot":4,"valence":"lose","action":"no-go","sham":0,"trial_type":"pit-trial","trial_index":149,"time_elapsed":758093,"internal_node_id":"0.0-121.0","task_version":"battery-v0.2-trt"},{"rune":"Q","rune_set":"bacs1","hex":"#3366ff99","correct":-1,"choice":32,"rt":622.1449999138713,"accuracy":0,"outcome":"+1","keys":[2122.9899999452755],"total_keys":1,"block":1,"trial":115,"stimulus":11,"robot":2,"valence":"win","action":"no-go","sham":0,"trial_type":"pit-trial","trial_index":150,"time_elapsed":761420,"internal_node_id":"0.0-122.0","task_version":"battery-v0.2-trt"},{"rune":"A","rune_set":"bacs1","hex":"#f73b6a7A","correct":32,"choice":-1,"rt":-1,"accuracy":0,"outcome":"-10","keys":[],"total_keys":0,"block":1,"trial":116,"stimulus":8,"robot":3,"valence":"lose","action":"go","sham":0,"trial_type":"pit-trial","trial_index":151,"time_elapsed":765424,"internal_node_id":"0.0-123.0","task_version":"battery-v0.2-trt"},{"rune":"A","rune_set":"bacs1","hex":"#f73b6a7A","correct":32,"choice":32,"rt":597.914999932982,"accuracy":1,"outcome":"-1","keys":[2098.8999999826774],"total_keys":1,"block":1,"trial":117,"stimulus":8,"robot":3,"valence":"lose","action":"go","sham":0,"trial_type":"pit-trial","trial_index":152,"time_elapsed":768727,"internal_node_id":"0.0-124.0","task_version":"battery-v0.2-trt"},{"rune":"Q","rune_set":"bacs1","hex":"#3366ff99","correct":-1,"choice":-1,"rt":-1,"accuracy":1,"outcome":"+1","keys":[3399.394999956712],"total_keys":1,"block":1,"trial":118,"stimulus":11,"robot":2,"valence":"win","action":"no-go","sham":1,"trial_type":"pit-trial","trial_index":153,"time_elapsed":772733,"internal_node_id":"0.0-125.0","task_version":"battery-v0.2-trt"},{"rune":"L","rune_set":"bacs1","hex":"#f73b6a7A","correct":-1,"choice":-1,"rt":-1,"accuracy":1,"outcome":"-1","keys":[],"total_keys":0,"block":1,"trial":119,"stimulus":10,"robot":4,"valence":"lose","action":"no-go","sham":0,"trial_type":"pit-trial","trial_index":154,"time_elapsed":776737,"internal_node_id":"0.0-126.0","task_version":"battery-v0.2-trt"},{"rune":"C","rune_set":"bacs1","hex":"#f73b6a7A","correct":32,"choice":32,"rt":822.0199999632314,"accuracy":1,"outcome":"-10","keys":[2323.1549999909475],"total_keys":1,"block":1,"trial":120,"stimulus":9,"robot":3,"valence":"lose","action":"go","sham":1,"trial_type":"pit-trial","trial_index":155,"time_elapsed":780263,"internal_node_id":"0.0-127.0","task_version":"battery-v0.2-trt"},{"view_history":"[{\"page_index\":0,\"viewing_time\":122227.13999997359},{\"page_index\":1,\"viewing_time\":4431.79499998223}]","rt":126659.32999993674,"trial_type":"pit-instructions","trial_index":156,"time_elapsed":906925,"internal_node_id":"0.0-128.0","task_version":"battery-v0.2-trt"},{"rune":"G","rune_set":"bacs1","hex":"#f73b6a7A","correct":-1,"choice":-1,"rt":-1,"accuracy":1,"outcome":"-1","keys":[],"total_keys":0,"block":2,"trial":121,"stimulus":1,"robot":4,"valence":"lose","action":"no-go","sham":0,"trial_type":"pit-trial","trial_index":157,"time_elapsed":910932,"internal_node_id":"0.0-129.0","task_version":"battery-v0.2-trt"},{"rune":"N","rune_set":"bacs1","hex":"#f73b6a7A","correct":-1,"choice":32,"rt":1102.6599999750033,"accuracy":0,"outcome":"-10","keys":[2603.5350000020117],"total_keys":1,"block":2,"trial":122,"stimulus":0,"robot":4,"valence":"lose","action":"no-go","sham":0,"trial_type":"pit-trial","trial_index":158,"time_elapsed":914738,"internal_node_id":"0.0-130.0","task_version":"battery-v0.2-trt"},{"rune":"I","rune_set":"bacs1","hex":"#3366ff99","correct":32,"choice":32,"rt":578.7799999816343,"accuracy":1,"outcome":"+1","keys":[2079.4999999925494],"total_keys":1,"block":2,"trial":123,"stimulus":2,"robot":1,"valence":"win","action":"go","sham":1,"trial_type":"pit-trial","trial_index":159,"time_elapsed":918021,"internal_node_id":"0.0-131.0","task_version":"battery-v0.2-trt"},{"rune":"O","rune_set":"bacs1","hex":"#3366ff99","correct":-1,"choice":32,"rt":566.5449999505654,"accuracy":0,"outcome":"+10","keys":[2067.449999973178],"total_keys":1,"block":2,"trial":124,"stimulus":3,"robot":2,"valence":"win","action":"no-go","sham":1,"trial_type":"pit-trial","trial_index":160,"time_elapsed":921292,"internal_node_id":"0.0-132.0","task_version":"battery-v0.2-trt"},{"rune":"I","rune_set":"bacs1","hex":"#3366ff99","correct":32,"choice":-1,"rt":-1,"accuracy":0,"outcome":"+10","keys":[],"total_keys":0,"block":2,"trial":125,"stimulus":2,"robot":1,"valence":"win","action":"go","sham":1,"trial_type":"pit-trial","trial_index":161,"time_elapsed":925295,"internal_node_id":"0.0-133.0","task_version":"battery-v0.2-trt"},{"rune":"O","rune_set":"bacs1","hex":"#3366ff99","correct":-1,"choice":32,"rt":934.1099999146536,"accuracy":0,"outcome":"+1","keys":[2434.385000029579],"total_keys":1,"block":2,"trial":126,"stimulus":3,"robot":2,"valence":"win","action":"no-go","sham":0,"trial_type":"pit-trial","trial_index":162,"time_elapsed":928932,"internal_node_id":"0.0-134.0","task_version":"battery-v0.2-trt"},{"rune":"N","rune_set":"bacs1","hex":"#f73b6a7A","correct":-1,"choice":-1,"rt":-1,"accuracy":1,"outcome":"-1","keys":[],"total_keys":0,"block":2,"trial":127,"stimulus":0,"robot":4,"valence":"lose","action":"no-go","sham":0,"trial_type":"pit-trial","trial_index":163,"time_elapsed":932937,"internal_node_id":"0.0-135.0","task_version":"battery-v0.2-trt"},{"rune":"G","rune_set":"bacs1","hex":"#f73b6a7A","correct":-1,"choice":-1,"rt":-1,"accuracy":1,"outcome":"-10","keys":[],"total_keys":0,"block":2,"trial":128,"stimulus":1,"robot":4,"valence":"lose","action":"no-go","sham":1,"trial_type":"pit-trial","trial_index":164,"time_elapsed":936943,"internal_node_id":"0.0-136.0","task_version":"battery-v0.2-trt"},{"rune":"O","rune_set":"bacs1","hex":"#3366ff99","correct":-1,"choice":-1,"rt":-1,"accuracy":1,"outcome":"+10","keys":[],"total_keys":0,"block":2,"trial":129,"stimulus":3,"robot":2,"valence":"win","action":"no-go","sham":0,"trial_type":"pit-trial","trial_index":165,"time_elapsed":940948,"internal_node_id":"0.0-137.0","task_version":"battery-v0.2-trt"},{"rune":"N","rune_set":"bacs1","hex":"#f73b6a7A","correct":-1,"choice":32,"rt":1110.4749999940395,"accuracy":0,"outcome":"-10","keys":[2611.6100000217557],"total_keys":1,"block":2,"trial":130,"stimulus":0,"robot":4,"valence":"lose","action":"no-go","sham":0,"trial_type":"pit-trial","trial_index":166,"time_elapsed":944764,"internal_node_id":"0.0-138.0","task_version":"battery-v0.2-trt"},{"rune":"G","rune_set":"bacs1","hex":"#f73b6a7A","correct":-1,"choice":-1,"rt":-1,"accuracy":1,"outcome":"-1","keys":[],"total_keys":0,"block":2,"trial":131,"stimulus":1,"robot":4,"valence":"lose","action":"no-go","sham":0,"trial_type":"pit-trial","trial_index":167,"time_elapsed":948767,"internal_node_id":"0.0-139.0","task_version":"battery-v0.2-trt"},{"rune":"I","rune_set":"bacs1","hex":"#3366ff99","correct":32,"choice":32,"rt":1021.0799999767914,"accuracy":1,"outcome":"+10","keys":[2521.2700000265613],"total_keys":1,"block":2,"trial":132,"stimulus":2,"robot":1,"valence":"win","action":"go","sham":0,"trial_type":"pit-trial","trial_index":168,"time_elapsed":952492,"internal_node_id":"0.0-140.0","task_version":"battery-v0.2-trt"},{"rune":"N","rune_set":"bacs1","hex":"#f73b6a7A","correct":-1,"choice":-1,"rt":-1,"accuracy":1,"outcome":"-1","keys":[],"total_keys":0,"block":2,"trial":133,"stimulus":0,"robot":4,"valence":"lose","action":"no-go","sham":0,"trial_type":"pit-trial","trial_index":169,"time_elapsed":956498,"internal_node_id":"0.0-141.0","task_version":"battery-v0.2-trt"},{"rune":"O","rune_set":"bacs1","hex":"#3366ff99","correct":-1,"choice":32,"rt":744.6850000414997,"accuracy":0,"outcome":"+1","keys":[2245.770000037737],"total_keys":1,"block":2,"trial":134,"stimulus":3,"robot":2,"valence":"win","action":"no-go","sham":0,"trial_type":"pit-trial","trial_index":170,"time_elapsed":959948,"internal_node_id":"0.0-142.0","task_version":"battery-v0.2-trt"},{"rune":"I","rune_set":"bacs1","hex":"#3366ff99","correct":32,"choice":32,"rt":776.1849999660626,"accuracy":1,"outcome":"+10","keys":[2276.194999925792],"total_keys":1,"block":2,"trial":135,"stimulus":2,"robot":1,"valence":"win","action":"go","sham":0,"trial_type":"pit-trial","trial_index":171,"time_elapsed":963428,"internal_node_id":"0.0-143.0","task_version":"battery-v0.2-trt"},{"rune":"G","rune_set":"bacs1","hex":"#f73b6a7A","correct":-1,"choice":-1,"rt":-1,"accuracy":1,"outcome":"-1","keys":[],"total_keys":0,"block":2,"trial":136,"stimulus":1,"robot":4,"valence":"lose","action":"no-go","sham":0,"trial_type":"pit-trial","trial_index":172,"time_elapsed":967430,"internal_node_id":"0.0-144.0","task_version":"battery-v0.2-trt"},{"rune":"G","rune_set":"bacs1","hex":"#f73b6a7A","correct":-1,"choice":-1,"rt":-1,"accuracy":1,"outcome":"-1","keys":[],"total_keys":0,"block":2,"trial":137,"stimulus":1,"robot":4,"valence":"lose","action":"no-go","sham":0,"trial_type":"pit-trial","trial_index":173,"time_elapsed":971434,"internal_node_id":"0.0-145.0","task_version":"battery-v0.2-trt"},{"rune":"N","rune_set":"bacs1","hex":"#f73b6a7A","correct":-1,"choice":32,"rt":891.4550000336021,"accuracy":0,"outcome":"-10","keys":[2392.8300000261515],"total_keys":1,"block":2,"trial":138,"stimulus":0,"robot":4,"valence":"lose","action":"no-go","sham":0,"trial_type":"pit-trial","trial_index":174,"time_elapsed":975031,"internal_node_id":"0.0-146.0","task_version":"battery-v0.2-trt"},{"rune":"O","rune_set":"bacs1","hex":"#3366ff99","correct":-1,"choice":32,"rt":739.1249999636784,"accuracy":0,"outcome":"+1","keys":[2240.525000030175],"total_keys":1,"block":2,"trial":139,"stimulus":3,"robot":2,"valence":"win","action":"no-go","sham":0,"trial_type":"pit-trial","trial_index":175,"time_elapsed":978476,"internal_node_id":"0.0-147.0","task_version":"battery-v0.2-trt"},{"rune":"I","rune_set":"bacs1","hex":"#3366ff99","correct":32,"choice":32,"rt":822.9600000195205,"accuracy":1,"outcome":"+10","keys":[2323.6500000348315],"total_keys":1,"block":2,"trial":140,"stimulus":2,"robot":1,"valence":"win","action":"go","sham":0,"trial_type":"pit-trial","trial_index":176,"time_elapsed":982003,"internal_node_id":"0.0-148.0","task_version":"battery-v0.2-trt"},{"rune":"I","rune_set":"bacs1","hex":"#3366ff99","correct":32,"choice":32,"rt":656.455000047572,"accuracy":1,"outcome":"+10","keys":[2157.359999953769],"total_keys":1,"block":2,"trial":141,"stimulus":2,"robot":1,"valence":"win","action":"go","sham":0,"trial_type":"pit-trial","trial_index":177,"time_elapsed":985363,"internal_node_id":"0.0-149.0","task_version":"battery-v0.2-trt"},{"rune":"O","rune_set":"bacs1","hex":"#3366ff99","correct":-1,"choice":32,"rt":624.2249999195337,"accuracy":0,"outcome":"+1","keys":[2125.35999994725],"total_keys":1,"block":2,"trial":142,"stimulus":3,"robot":2,"valence":"win","action":"no-go","sham":0,"trial_type":"pit-trial","trial_index":178,"time_elapsed":988691,"internal_node_id":"0.0-150.0","task_version":"battery-v0.2-trt"},{"rune":"N","rune_set":"bacs1","hex":"#f73b6a7A","correct":-1,"choice":-1,"rt":-1,"accuracy":1,"outcome":"-1","keys":[],"total_keys":0,"block":2,"trial":143,"stimulus":0,"robot":4,"valence":"lose","action":"no-go","sham":0,"trial_type":"pit-trial","trial_index":179,"time_elapsed":992697,"internal_node_id":"0.0-151.0","task_version":"battery-v0.2-trt"},{"rune":"G","rune_set":"bacs1","hex":"#f73b6a7A","correct":-1,"choice":-1,"rt":-1,"accuracy":1,"outcome":"-1","keys":[],"total_keys":0,"block":2,"trial":144,"stimulus":1,"robot":4,"valence":"lose","action":"no-go","sham":0,"trial_type":"pit-trial","trial_index":180,"time_elapsed":996700,"internal_node_id":"0.0-152.0","task_version":"battery-v0.2-trt"},{"rune":"I","rune_set":"bacs1","hex":"#3366ff99","correct":32,"choice":32,"rt":753.8400000194088,"accuracy":1,"outcome":"+10","keys":[2255.2750000031665],"total_keys":1,"block":2,"trial":145,"stimulus":2,"robot":1,"valence":"win","action":"go","sham":0,"trial_type":"pit-trial","trial_index":181,"time_elapsed":1000160,"internal_node_id":"0.0-153.0","task_version":"battery-v0.2-trt"},{"rune":"O","rune_set":"bacs1","hex":"#3366ff99","correct":-1,"choice":32,"rt":851.0800000512972,"accuracy":0,"outcome":"+1","keys":[2352.130000013858],"total_keys":1,"block":2,"trial":146,"stimulus":3,"robot":2,"valence":"win","action":"no-go","sham":0,"trial_type":"pit-trial","trial_index":182,"time_elapsed":1003715,"internal_node_id":"0.0-154.0","task_version":"battery-v0.2-trt"},{"rune":"G","rune_set":"bacs1","hex":"#f73b6a7A","correct":-1,"choice":-1,"rt":-1,"accuracy":1,"outcome":"-10","keys":[],"total_keys":0,"block":2,"trial":147,"stimulus":1,"robot":4,"valence":"lose","action":"no-go","sham":1,"trial_type":"pit-trial","trial_index":183,"time_elapsed":1007719,"internal_node_id":"0.0-155.0","task_version":"battery-v0.2-trt"},{"rune":"N","rune_set":"bacs1","hex":"#f73b6a7A","correct":-1,"choice":-1,"rt":-1,"accuracy":1,"outcome":"-10","keys":[],"total_keys":0,"block":2,"trial":148,"stimulus":0,"robot":4,"valence":"lose","action":"no-go","sham":1,"trial_type":"pit-trial","trial_index":184,"time_elapsed":1011723,"internal_node_id":"0.0-156.0","task_version":"battery-v0.2-trt"},{"rune":"O","rune_set":"bacs1","hex":"#3366ff99","correct":-1,"choice":32,"rt":792.7200000267476,"accuracy":0,"outcome":"+10","keys":[2293.3450000127777],"total_keys":1,"block":2,"trial":149,"stimulus":3,"robot":2,"valence":"win","action":"no-go","sham":1,"trial_type":"pit-trial","trial_index":185,"time_elapsed":1015220,"internal_node_id":"0.0-157.0","task_version":"battery-v0.2-trt"},{"rune":"G","rune_set":"bacs1","hex":"#f73b6a7A","correct":-1,"choice":32,"rt":912.0699999621138,"accuracy":0,"outcome":"-10","keys":[2412.925000069663],"total_keys":1,"block":2,"trial":150,"stimulus":1,"robot":4,"valence":"lose","action":"no-go","sham":0,"trial_type":"pit-trial","trial_index":186,"time_elapsed":1018836,"internal_node_id":"0.0-158.0","task_version":"battery-v0.2-trt"},{"rune":"N","rune_set":"bacs1","hex":"#f73b6a7A","correct":-1,"choice":32,"rt":926.7150000669062,"accuracy":0,"outcome":"-10","keys":[2427.7149999979883],"total_keys":1,"block":2,"trial":151,"stimulus":0,"robot":4,"valence":"lose","action":"no-go","sham":0,"trial_type":"pit-trial","trial_index":187,"time_elapsed":1022468,"internal_node_id":"0.0-159.0","task_version":"battery-v0.2-trt"},{"rune":"I","rune_set":"bacs1","hex":"#3366ff99","correct":32,"choice":32,"rt":665.1550000533462,"accuracy":1,"outcome":"+10","keys":[2166.289999964647],"total_keys":1,"block":2,"trial":152,"stimulus":2,"robot":1,"valence":"win","action":"go","sham":0,"trial_type":"pit-trial","trial_index":188,"time_elapsed":1025837,"internal_node_id":"0.0-160.0","task_version":"battery-v0.2-trt"},{"rune":"I","rune_set":"bacs1","hex":"#3366ff99","correct":32,"choice":-1,"rt":-1,"accuracy":0,"outcome":"+1","keys":[3404.1000000433996],"total_keys":1,"block":2,"trial":153,"stimulus":2,"robot":1,"valence":"win","action":"go","sham":0,"trial_type":"pit-trial","trial_index":189,"time_elapsed":1029844,"internal_node_id":"0.0-161.0","task_version":"battery-v0.2-trt"},{"rune":"O","rune_set":"bacs1","hex":"#3366ff99","correct":-1,"choice":32,"rt":773.2600000454113,"accuracy":0,"outcome":"+1","keys":[2274.1500000702217],"total_keys":1,"block":2,"trial":154,"stimulus":3,"robot":2,"valence":"win","action":"no-go","sham":0,"trial_type":"pit-trial","trial_index":190,"time_elapsed":1033323,"internal_node_id":"0.0-162.0","task_version":"battery-v0.2-trt"},{"rune":"N","rune_set":"bacs1","hex":"#f73b6a7A","correct":-1,"choice":-1,"rt":-1,"accuracy":1,"outcome":"-1","keys":[],"total_keys":0,"block":2,"trial":155,"stimulus":0,"robot":4,"valence":"lose","action":"no-go","sham":0,"trial_type":"pit-trial","trial_index":191,"time_elapsed":1037327,"internal_node_id":"0.0-163.0","task_version":"battery-v0.2-trt"},{"rune":"D","rune_set":"bacs1","hex":"#f73b6a7A","correct":32,"choice":32,"rt":885.2100000949576,"accuracy":1,"outcome":"-10","keys":[2386.030000052415],"total_keys":1,"block":2,"trial":156,"stimulus":4,"robot":3,"valence":"lose","action":"go","sham":1,"trial_type":"pit-trial","trial_index":192,"time_elapsed":1040917,"internal_node_id":"0.0-164.0","task_version":"battery-v0.2-trt"},{"rune":"I","rune_set":"bacs1","hex":"#3366ff99","correct":32,"choice":32,"rt":814.4600000232458,"accuracy":1,"outcome":"+10","keys":[2315.30500005465],"total_keys":1,"block":2,"trial":157,"stimulus":2,"robot":1,"valence":"win","action":"go","sham":0,"trial_type":"pit-trial","trial_index":193,"time_elapsed":1044436,"internal_node_id":"0.0-165.0","task_version":"battery-v0.2-trt"},{"rune":"N","rune_set":"bacs1","hex":"#f73b6a7A","correct":-1,"choice":-1,"rt":-1,"accuracy":1,"outcome":"-1","keys":[],"total_keys":0,"block":2,"trial":158,"stimulus":0,"robot":4,"valence":"lose","action":"no-go","sham":0,"trial_type":"pit-trial","trial_index":194,"time_elapsed":1048439,"internal_node_id":"0.0-166.0","task_version":"battery-v0.2-trt"},{"rune":"D","rune_set":"bacs1","hex":"#f73b6a7A","correct":32,"choice":-1,"rt":-1,"accuracy":0,"outcome":"-10","keys":[3405.3250000579283],"total_keys":1,"block":2,"trial":159,"stimulus":4,"robot":3,"valence":"lose","action":"go","sham":0,"trial_type":"pit-trial","trial_index":195,"time_elapsed":1052443,"internal_node_id":"0.0-167.0","task_version":"battery-v0.2-trt"},{"rune":"O","rune_set":"bacs1","hex":"#3366ff99","correct":-1,"choice":32,"rt":655.9999999590218,"accuracy":0,"outcome":"+1","keys":[2157.164999982342],"total_keys":1,"block":2,"trial":160,"stimulus":3,"robot":2,"valence":"win","action":"no-go","sham":0,"trial_type":"pit-trial","trial_index":196,"time_elapsed":1055804,"internal_node_id":"0.0-168.0","task_version":"battery-v0.2-trt"},{"rune":"K","rune_set":"bacs1","hex":"#3366ff99","correct":-1,"choice":32,"rt":605.3199999732897,"accuracy":0,"outcome":"+10","keys":[2105.945000075735],"total_keys":1,"block":2,"trial":161,"stimulus":5,"robot":2,"valence":"win","action":"no-go","sham":1,"trial_type":"pit-trial","trial_index":197,"time_elapsed":1059114,"internal_node_id":"0.0-169.0","task_version":"battery-v0.2-trt"},{"rune":"D","rune_set":"bacs1","hex":"#f73b6a7A","correct":32,"choice":-1,"rt":-1,"accuracy":0,"outcome":"-10","keys":[],"total_keys":0,"block":2,"trial":162,"stimulus":4,"robot":3,"valence":"lose","action":"go","sham":0,"trial_type":"pit-trial","trial_index":198,"time_elapsed":1063117,"internal_node_id":"0.0-170.0","task_version":"battery-v0.2-trt"},{"rune":"N","rune_set":"bacs1","hex":"#f73b6a7A","correct":-1,"choice":-1,"rt":-1,"accuracy":1,"outcome":"-1","keys":[],"total_keys":0,"block":2,"trial":163,"stimulus":0,"robot":4,"valence":"lose","action":"no-go","sham":0,"trial_type":"pit-trial","trial_index":199,"time_elapsed":1067121,"internal_node_id":"0.0-171.0","task_version":"battery-v0.2-trt"},{"rune":"S","rune_set":"bacs1","hex":"#3366ff99","correct":32,"choice":32,"rt":757.1849999949336,"accuracy":1,"outcome":"+1","keys":[2258.239999995567],"total_keys":1,"block":2,"trial":164,"stimulus":6,"robot":1,"valence":"win","action":"go","sham":1,"trial_type":"pit-trial","trial_index":200,"time_elapsed":1070582,"internal_node_id":"0.0-172.0","task_version":"battery-v0.2-trt"},{"rune":"S","rune_set":"bacs1","hex":"#3366ff99","correct":32,"choice":32,"rt":693.474999978207,"accuracy":1,"outcome":"+1","keys":[2194.5299999788404],"total_keys":1,"block":2,"trial":165,"stimulus":6,"robot":1,"valence":"win","action":"go","sham":1,"trial_type":"pit-trial","trial_index":201,"time_elapsed":1073979,"internal_node_id":"0.0-173.0","task_version":"battery-v0.2-trt"},{"rune":"D","rune_set":"bacs1","hex":"#f73b6a7A","correct":32,"choice":32,"rt":755.0050000427291,"accuracy":1,"outcome":"-1","keys":[2255.784999928437],"total_keys":1,"block":2,"trial":166,"stimulus":4,"robot":3,"valence":"lose","action":"go","sham":0,"trial_type":"pit-trial","trial_index":202,"time_elapsed":1077437,"internal_node_id":"0.0-174.0","task_version":"battery-v0.2-trt"},{"rune":"N","rune_set":"bacs1","hex":"#f73b6a7A","correct":-1,"choice":-1,"rt":-1,"accuracy":1,"outcome":"-10","keys":[],"total_keys":0,"block":2,"trial":167,"stimulus":0,"robot":4,"valence":"lose","action":"no-go","sham":1,"trial_type":"pit-trial","trial_index":203,"time_elapsed":1081443,"internal_node_id":"0.0-175.0","task_version":"battery-v0.2-trt"},{"rune":"K","rune_set":"bacs1","hex":"#3366ff99","correct":-1,"choice":32,"rt":578.0749999685213,"accuracy":0,"outcome":"+1","keys":[2079.094999935478],"total_keys":1,"block":2,"trial":168,"stimulus":5,"robot":2,"valence":"win","action":"no-go","sham":0,"trial_type":"pit-trial","trial_index":204,"time_elapsed":1084725,"internal_node_id":"0.0-176.0","task_version":"battery-v0.2-trt"},{"rune":"U","rune_set":"bacs1","hex":"#f73b6a7A","correct":-1,"choice":32,"rt":1046.2850000476465,"accuracy":0,"outcome":"-10","keys":[2547.3549999296665],"total_keys":1,"block":2,"trial":169,"stimulus":7,"robot":4,"valence":"lose","action":"no-go","sham":0,"trial_type":"pit-trial","trial_index":205,"time_elapsed":1088476,"internal_node_id":"0.0-177.0","task_version":"battery-v0.2-trt"},{"rune":"K","rune_set":"bacs1","hex":"#3366ff99","correct":-1,"choice":32,"rt":635.6149999191985,"accuracy":0,"outcome":"+1","keys":[2136.880000005476],"total_keys":1,"block":2,"trial":170,"stimulus":5,"robot":2,"valence":"win","action":"no-go","sham":0,"trial_type":"pit-trial","trial_index":206,"time_elapsed":1091817,"internal_node_id":"0.0-178.0","task_version":"battery-v0.2-trt"},{"rune":"S","rune_set":"bacs1","hex":"#3366ff99","correct":32,"choice":-1,"rt":-1,"accuracy":0,"outcome":"+1","keys":[3388.7950000353158],"total_keys":1,"block":2,"trial":171,"stimulus":6,"robot":1,"valence":"win","action":"go","sham":0,"trial_type":"pit-trial","trial_index":207,"time_elapsed":1095823,"internal_node_id":"0.0-179.0","task_version":"battery-v0.2-trt"},{"rune":"D","rune_set":"bacs1","hex":"#f73b6a7A","correct":32,"choice":-1,"rt":-1,"accuracy":0,"outcome":"-10","keys":[],"total_keys":0,"block":2,"trial":172,"stimulus":4,"robot":3,"valence":"lose","action":"go","sham":0,"trial_type":"pit-trial","trial_index":208,"time_elapsed":1099829,"internal_node_id":"0.0-180.0","task_version":"battery-v0.2-trt"},{"rune":"D","rune_set":"bacs1","hex":"#f73b6a7A","correct":32,"choice":32,"rt":789.0549999428913,"accuracy":1,"outcome":"-1","keys":[2290.4400000115857],"total_keys":1,"block":2,"trial":173,"stimulus":4,"robot":3,"valence":"lose","action":"go","sham":0,"trial_type":"pit-trial","trial_index":209,"time_elapsed":1103325,"internal_node_id":"0.0-181.0","task_version":"battery-v0.2-trt"},{"rune":"U","rune_set":"bacs1","hex":"#f73b6a7A","correct":-1,"choice":-1,"rt":-1,"accuracy":1,"outcome":"-10","keys":[3606.3800000119954],"total_keys":1,"block":2,"trial":174,"stimulus":7,"robot":4,"valence":"lose","action":"no-go","sham":1,"trial_type":"pit-trial","trial_index":210,"time_elapsed":1107331,"internal_node_id":"0.0-182.0","task_version":"battery-v0.2-trt"},{"rune":"K","rune_set":"bacs1","hex":"#3366ff99","correct":-1,"choice":32,"rt":841.6300000390038,"accuracy":0,"outcome":"+1","keys":[2342.7499999525025],"total_keys":1,"block":2,"trial":175,"stimulus":5,"robot":2,"valence":"win","action":"no-go","sham":0,"trial_type":"pit-trial","trial_index":211,"time_elapsed":1110878,"internal_node_id":"0.0-183.0","task_version":"battery-v0.2-trt"},{"rune":"S","rune_set":"bacs1","hex":"#3366ff99","correct":32,"choice":32,"rt":740.6600000103936,"accuracy":1,"outcome":"+10","keys":[2241.0600000293925],"total_keys":1,"block":2,"trial":176,"stimulus":6,"robot":1,"valence":"win","action":"go","sham":0,"trial_type":"pit-trial","trial_index":212,"time_elapsed":1114325,"internal_node_id":"0.0-184.0","task_version":"battery-v0.2-trt"},{"rune":"D","rune_set":"bacs1","hex":"#f73b6a7A","correct":32,"choice":32,"rt":935.4649999877438,"accuracy":1,"outcome":"-1","keys":[2436.104999971576],"total_keys":1,"block":2,"trial":177,"stimulus":4,"robot":3,"valence":"lose","action":"go","sham":0,"trial_type":"pit-trial","trial_index":213,"time_elapsed":1117966,"internal_node_id":"0.0-185.0","task_version":"battery-v0.2-trt"},{"rune":"S","rune_set":"bacs1","hex":"#3366ff99","correct":32,"choice":-1,"rt":-1,"accuracy":0,"outcome":"+1","keys":[3275.874999933876],"total_keys":1,"block":2,"trial":178,"stimulus":6,"robot":1,"valence":"win","action":"go","sham":0,"trial_type":"pit-trial","trial_index":214,"time_elapsed":1121972,"internal_node_id":"0.0-186.0","task_version":"battery-v0.2-trt"},{"rune":"U","rune_set":"bacs1","hex":"#f73b6a7A","correct":-1,"choice":32,"rt":735.0150001002476,"accuracy":0,"outcome":"-10","keys":[2235.2650000248104],"total_keys":1,"block":2,"trial":179,"stimulus":7,"robot":4,"valence":"lose","action":"no-go","sham":0,"trial_type":"pit-trial","trial_index":215,"time_elapsed":1125410,"internal_node_id":"0.0-187.0","task_version":"battery-v0.2-trt"},{"rune":"K","rune_set":"bacs1","hex":"#3366ff99","correct":-1,"choice":32,"rt":536.8299999972805,"accuracy":0,"outcome":"+1","keys":[2037.4000000301749],"total_keys":1,"block":2,"trial":180,"stimulus":5,"robot":2,"valence":"win","action":"no-go","sham":0,"trial_type":"pit-trial","trial_index":216,"time_elapsed":1128652,"internal_node_id":"0.0-188.0","task_version":"battery-v0.2-trt"},{"rune":"D","rune_set":"bacs1","hex":"#f73b6a7A","correct":32,"choice":-1,"rt":-1,"accuracy":0,"outcome":"-10","keys":[],"total_keys":0,"block":2,"trial":181,"stimulus":4,"robot":3,"valence":"lose","action":"go","sham":0,"trial_type":"pit-trial","trial_index":217,"time_elapsed":1132658,"internal_node_id":"0.0-189.0","task_version":"battery-v0.2-trt"},{"rune":"S","rune_set":"bacs1","hex":"#3366ff99","correct":32,"choice":-1,"rt":-1,"accuracy":0,"outcome":"+10","keys":[],"total_keys":0,"block":2,"trial":182,"stimulus":6,"robot":1,"valence":"win","action":"go","sham":1,"trial_type":"pit-trial","trial_index":218,"time_elapsed":1136663,"internal_node_id":"0.0-190.0","task_version":"battery-v0.2-trt"},{"rune":"U","rune_set":"bacs1","hex":"#f73b6a7A","correct":-1,"choice":32,"rt":679.2349999304861,"accuracy":0,"outcome":"-1","keys":[2180.2850000094622],"total_keys":1,"block":2,"trial":183,"stimulus":7,"robot":4,"valence":"lose","action":"no-go","sham":1,"trial_type":"pit-trial","trial_index":219,"time_elapsed":1140047,"internal_node_id":"0.0-191.0","task_version":"battery-v0.2-trt"},{"rune":"K","rune_set":"bacs1","hex":"#3366ff99","correct":-1,"choice":32,"rt":633.4400000050664,"accuracy":0,"outcome":"+1","keys":[2136.575000011362],"total_keys":1,"block":2,"trial":184,"stimulus":5,"robot":2,"valence":"win","action":"no-go","sham":0,"trial_type":"pit-trial","trial_index":220,"time_elapsed":1143387,"internal_node_id":"0.0-192.0","task_version":"battery-v0.2-trt"},{"rune":"D","rune_set":"bacs1","hex":"#f73b6a7A","correct":32,"choice":32,"rt":1271.0449999431148,"accuracy":1,"outcome":"-1","keys":[2771.225000033155],"total_keys":1,"block":2,"trial":185,"stimulus":4,"robot":3,"valence":"lose","action":"go","sham":0,"trial_type":"pit-trial","trial_index":221,"time_elapsed":1147363,"internal_node_id":"0.0-193.0","task_version":"battery-v0.2-trt"},{"rune":"U","rune_set":"bacs1","hex":"#f73b6a7A","correct":-1,"choice":32,"rt":695.6650000065565,"accuracy":0,"outcome":"-10","keys":[2196.4099999750033],"total_keys":1,"block":2,"trial":186,"stimulus":7,"robot":4,"valence":"lose","action":"no-go","sham":0,"trial_type":"pit-trial","trial_index":222,"time_elapsed":1150762,"internal_node_id":"0.0-194.0","task_version":"battery-v0.2-trt"},{"rune":"S","rune_set":"bacs1","hex":"#3366ff99","correct":32,"choice":-1,"rt":-1,"accuracy":0,"outcome":"+1","keys":[3293.610000051558],"total_keys":1,"block":2,"trial":187,"stimulus":6,"robot":1,"valence":"win","action":"go","sham":0,"trial_type":"pit-trial","trial_index":223,"time_elapsed":1154767,"internal_node_id":"0.0-195.0","task_version":"battery-v0.2-trt"},{"rune":"K","rune_set":"bacs1","hex":"#3366ff99","correct":-1,"choice":32,"rt":427.6049999753013,"accuracy":0,"outcome":"+1","keys":[1928.9900000439957],"total_keys":1,"block":2,"trial":188,"stimulus":5,"robot":2,"valence":"win","action":"no-go","sham":0,"trial_type":"pit-trial","trial_index":224,"time_elapsed":1157899,"internal_node_id":"0.0-196.0","task_version":"battery-v0.2-trt"},{"rune":"K","rune_set":"bacs1","hex":"#3366ff99","correct":-1,"choice":-1,"rt":-1,"accuracy":1,"outcome":"+10","keys":[],"total_keys":0,"block":2,"trial":189,"stimulus":5,"robot":2,"valence":"win","action":"no-go","sham":0,"trial_type":"pit-trial","trial_index":225,"time_elapsed":1161906,"internal_node_id":"0.0-197.0","task_version":"battery-v0.2-trt"},{"rune":"U","rune_set":"bacs1","hex":"#f73b6a7A","correct":-1,"choice":-1,"rt":-1,"accuracy":1,"outcome":"-1","keys":[],"total_keys":0,"block":2,"trial":190,"stimulus":7,"robot":4,"valence":"lose","action":"no-go","sham":0,"trial_type":"pit-trial","trial_index":226,"time_elapsed":1165909,"internal_node_id":"0.0-198.0","task_version":"battery-v0.2-trt"},{"rune":"S","rune_set":"bacs1","hex":"#3366ff99","correct":32,"choice":32,"rt":646.0649999789894,"accuracy":1,"outcome":"+1","keys":[2146.5600000228733],"total_keys":1,"block":2,"trial":191,"stimulus":6,"robot":1,"valence":"win","action":"go","sham":1,"trial_type":"pit-trial","trial_index":227,"time_elapsed":1169259,"internal_node_id":"0.0-199.0","task_version":"battery-v0.2-trt"},{"rune":"D","rune_set":"bacs1","hex":"#f73b6a7A","correct":32,"choice":32,"rt":1097.3249999806285,"accuracy":1,"outcome":"-1","keys":[2597.3900000099093],"total_keys":1,"block":2,"trial":192,"stimulus":4,"robot":3,"valence":"lose","action":"go","sham":0,"trial_type":"pit-trial","trial_index":228,"time_elapsed":1173060,"internal_node_id":"0.0-200.0","task_version":"battery-v0.2-trt"},{"rune":"U","rune_set":"bacs1","hex":"#f73b6a7A","correct":-1,"choice":32,"rt":715.6950000207871,"accuracy":0,"outcome":"-10","keys":[2215.8800000324845],"total_keys":1,"block":2,"trial":193,"stimulus":7,"robot":4,"valence":"lose","action":"no-go","sham":0,"trial_type":"pit-trial","trial_index":229,"time_elapsed":1176491,"internal_node_id":"0.0-201.0","task_version":"battery-v0.2-trt"},{"rune":"P","rune_set":"bacs1","hex":"#f73b6a7A","correct":32,"choice":32,"rt":854.1849999455735,"accuracy":1,"outcome":"-1","keys":[2355.2500000223517],"total_keys":1,"block":2,"trial":194,"stimulus":9,"robot":3,"valence":"lose","action":"go","sham":0,"trial_type":"pit-trial","trial_index":230,"time_elapsed":1180051,"internal_node_id":"0.0-202.0","task_version":"battery-v0.2-trt"},{"rune":"M","rune_set":"bacs1","hex":"#3366ff99","correct":32,"choice":32,"rt":518.9750000135973,"accuracy":1,"outcome":"+10","keys":[2019.220000016503],"total_keys":1,"block":2,"trial":195,"stimulus":8,"robot":1,"valence":"win","action":"go","sham":0,"trial_type":"pit-trial","trial_index":231,"time_elapsed":1183274,"internal_node_id":"0.0-203.0","task_version":"battery-v0.2-trt"},{"rune":"K","rune_set":"bacs1","hex":"#3366ff99","correct":-1,"choice":32,"rt":480.11000000406057,"accuracy":0,"outcome":"+1","keys":[1981.2699999893084],"total_keys":1,"block":2,"trial":196,"stimulus":5,"robot":2,"valence":"win","action":"no-go","sham":0,"trial_type":"pit-trial","trial_index":232,"time_elapsed":1186458,"internal_node_id":"0.0-204.0","task_version":"battery-v0.2-trt"},{"rune":"U","rune_set":"bacs1","hex":"#f73b6a7A","correct":-1,"choice":32,"rt":1034.4749999931082,"accuracy":0,"outcome":"-10","keys":[2535.5550000676885],"total_keys":1,"block":2,"trial":197,"stimulus":7,"robot":4,"valence":"lose","action":"no-go","sham":0,"trial_type":"pit-trial","trial_index":233,"time_elapsed":1190197,"internal_node_id":"0.0-205.0","task_version":"battery-v0.2-trt"},{"rune":"K","rune_set":"bacs1","hex":"#3366ff99","correct":-1,"choice":32,"rt":534.3050000956282,"accuracy":0,"outcome":"+1","keys":[2035.0900000194088],"total_keys":1,"block":2,"trial":198,"stimulus":5,"robot":2,"valence":"win","action":"no-go","sham":0,"trial_type":"pit-trial","trial_index":234,"time_elapsed":1193435,"internal_node_id":"0.0-206.0","task_version":"battery-v0.2-trt"},{"rune":"M","rune_set":"bacs1","hex":"#3366ff99","correct":32,"choice":32,"rt":535.5250000720844,"accuracy":1,"outcome":"+10","keys":[2036.2949999980628],"total_keys":1,"block":2,"trial":199,"stimulus":8,"robot":1,"valence":"win","action":"go","sham":0,"trial_type":"pit-trial","trial_index":235,"time_elapsed":1196674,"internal_node_id":"0.0-207.0","task_version":"battery-v0.2-trt"},{"rune":"P","rune_set":"bacs1","hex":"#f73b6a7A","correct":32,"choice":32,"rt":767.9849999258295,"accuracy":1,"outcome":"-10","keys":[2268.495000083931],"total_keys":1,"block":2,"trial":200,"stimulus":9,"robot":3,"valence":"lose","action":"go","sham":1,"trial_type":"pit-trial","trial_index":236,"time_elapsed":1200145,"internal_node_id":"0.0-208.0","task_version":"battery-v0.2-trt"},{"rune":"K","rune_set":"bacs1","hex":"#3366ff99","correct":-1,"choice":32,"rt":536.7700000060722,"accuracy":0,"outcome":"+1","keys":[2037.9749999847263],"total_keys":1,"block":2,"trial":201,"stimulus":5,"robot":2,"valence":"win","action":"no-go","sham":0,"trial_type":"pit-trial","trial_index":237,"time_elapsed":1203387,"internal_node_id":"0.0-209.0","task_version":"battery-v0.2-trt"},{"rune":"P","rune_set":"bacs1","hex":"#f73b6a7A","correct":32,"choice":32,"rt":787.3299999628216,"accuracy":1,"outcome":"-10","keys":[2288.5549999773502],"total_keys":1,"block":2,"trial":202,"stimulus":9,"robot":3,"valence":"lose","action":"go","sham":1,"trial_type":"pit-trial","trial_index":238,"time_elapsed":1206879,"internal_node_id":"0.0-210.0","task_version":"battery-v0.2-trt"},{"rune":"M","rune_set":"bacs1","hex":"#3366ff99","correct":32,"choice":32,"rt":770.3299999702722,"accuracy":1,"outcome":"+1","keys":[2270.989999989979],"total_keys":1,"block":2,"trial":203,"stimulus":8,"robot":1,"valence":"win","action":"go","sham":1,"trial_type":"pit-trial","trial_index":239,"time_elapsed":1210355,"internal_node_id":"0.0-211.0","task_version":"battery-v0.2-trt"},{"rune":"U","rune_set":"bacs1","hex":"#f73b6a7A","correct":-1,"choice":32,"rt":1216.7399999452755,"accuracy":0,"outcome":"-10","keys":[2717.240000027232],"total_keys":1,"block":2,"trial":204,"stimulus":7,"robot":4,"valence":"lose","action":"no-go","sham":0,"trial_type":"pit-trial","trial_index":240,"time_elapsed":1214275,"internal_node_id":"0.0-212.0","task_version":"battery-v0.2-trt"},{"rune":"M","rune_set":"bacs1","hex":"#3366ff99","correct":32,"choice":32,"rt":506.4499999862164,"accuracy":1,"outcome":"+1","keys":[2006.529999896884],"total_keys":1,"block":2,"trial":205,"stimulus":8,"robot":1,"valence":"win","action":"go","sham":1,"trial_type":"pit-trial","trial_index":241,"time_elapsed":1217485,"internal_node_id":"0.0-213.0","task_version":"battery-v0.2-trt"},{"rune":"K","rune_set":"bacs1","hex":"#3366ff99","correct":-1,"choice":32,"rt":649.3100000079721,"accuracy":0,"outcome":"+1","keys":[2149.809999973513],"total_keys":1,"block":2,"trial":206,"stimulus":5,"robot":2,"valence":"win","action":"no-go","sham":0,"trial_type":"pit-trial","trial_index":242,"time_elapsed":1220838,"internal_node_id":"0.0-214.0","task_version":"battery-v0.2-trt"},{"rune":"U","rune_set":"bacs1","hex":"#f73b6a7A","correct":-1,"choice":-1,"rt":-1,"accuracy":1,"outcome":"-10","keys":[],"total_keys":0,"block":2,"trial":207,"stimulus":7,"robot":4,"valence":"lose","action":"no-go","sham":1,"trial_type":"pit-trial","trial_index":243,"time_elapsed":1224844,"internal_node_id":"0.0-215.0","task_version":"battery-v0.2-trt"},{"rune":"P","rune_set":"bacs1","hex":"#f73b6a7A","correct":32,"choice":32,"rt":606.4649999607354,"accuracy":1,"outcome":"-1","keys":[2108.0049999291077],"total_keys":1,"block":2,"trial":208,"stimulus":9,"robot":3,"valence":"lose","action":"go","sham":0,"trial_type":"pit-trial","trial_index":244,"time_elapsed":1228157,"internal_node_id":"0.0-216.0","task_version":"battery-v0.2-trt"},{"rune":"P","rune_set":"bacs1","hex":"#f73b6a7A","correct":32,"choice":32,"rt":501.3399999588728,"accuracy":1,"outcome":"-1","keys":[2002.7850000187755],"total_keys":1,"block":2,"trial":209,"stimulus":9,"robot":3,"valence":"lose","action":"go","sham":0,"trial_type":"pit-trial","trial_index":245,"time_elapsed":1231362,"internal_node_id":"0.0-217.0","task_version":"battery-v0.2-trt"},{"rune":"M","rune_set":"bacs1","hex":"#3366ff99","correct":32,"choice":-1,"rt":-1,"accuracy":0,"outcome":"+1","keys":[3433.644999982789],"total_keys":1,"block":2,"trial":210,"stimulus":8,"robot":1,"valence":"win","action":"go","sham":0,"trial_type":"pit-trial","trial_index":246,"time_elapsed":1235366,"internal_node_id":"0.0-218.0","task_version":"battery-v0.2-trt"},{"rune":"H","rune_set":"bacs1","hex":"#f73b6a7A","correct":32,"choice":32,"rt":688.1900000153109,"accuracy":1,"outcome":"-1","keys":[2188.605000032112],"total_keys":1,"block":2,"trial":211,"stimulus":10,"robot":3,"valence":"lose","action":"go","sham":0,"trial_type":"pit-trial","trial_index":247,"time_elapsed":1238757,"internal_node_id":"0.0-219.0","task_version":"battery-v0.2-trt"},{"rune":"Y","rune_set":"bacs1","hex":"#3366ff99","correct":-1,"choice":-1,"rt":-1,"accuracy":1,"outcome":"+10","keys":[],"total_keys":0,"block":2,"trial":212,"stimulus":11,"robot":2,"valence":"win","action":"no-go","sham":0,"trial_type":"pit-trial","trial_index":248,"time_elapsed":1242762,"internal_node_id":"0.0-220.0","task_version":"battery-v0.2-trt"},{"rune":"H","rune_set":"bacs1","hex":"#f73b6a7A","correct":32,"choice":32,"rt":763.3750000968575,"accuracy":1,"outcome":"-1","keys":[2263.954999973066],"total_keys":1,"block":2,"trial":213,"stimulus":10,"robot":3,"valence":"lose","action":"go","sham":0,"trial_type":"pit-trial","trial_index":249,"time_elapsed":1246231,"internal_node_id":"0.0-221.0","task_version":"battery-v0.2-trt"},{"rune":"Y","rune_set":"bacs1","hex":"#3366ff99","correct":-1,"choice":32,"rt":604.8599999630824,"accuracy":0,"outcome":"+1","keys":[2105.130000039935],"total_keys":1,"block":2,"trial":214,"stimulus":11,"robot":2,"valence":"win","action":"no-go","sham":0,"trial_type":"pit-trial","trial_index":250,"time_elapsed":1249538,"internal_node_id":"0.0-222.0","task_version":"battery-v0.2-trt"},{"rune":"P","rune_set":"bacs1","hex":"#f73b6a7A","correct":32,"choice":32,"rt":690.0949999690056,"accuracy":1,"outcome":"-1","keys":[2190.9349999623373],"total_keys":1,"block":2,"trial":215,"stimulus":9,"robot":3,"valence":"lose","action":"go","sham":0,"trial_type":"pit-trial","trial_index":251,"time_elapsed":1252931,"internal_node_id":"0.0-223.0","task_version":"battery-v0.2-trt"},{"rune":"M","rune_set":"bacs1","hex":"#3366ff99","correct":32,"choice":-1,"rt":-1,"accuracy":0,"outcome":"+1","keys":[3292.1750000678003],"total_keys":1,"block":2,"trial":216,"stimulus":8,"robot":1,"valence":"win","action":"go","sham":0,"trial_type":"pit-trial","trial_index":252,"time_elapsed":1256937,"internal_node_id":"0.0-224.0","task_version":"battery-v0.2-trt"},{"rune":"H","rune_set":"bacs1","hex":"#f73b6a7A","correct":32,"choice":32,"rt":730.4549999535084,"accuracy":1,"outcome":"-1","keys":[2231.3549999380484],"total_keys":1,"block":2,"trial":217,"stimulus":10,"robot":3,"valence":"lose","action":"go","sham":0,"trial_type":"pit-trial","trial_index":253,"time_elapsed":1260371,"internal_node_id":"0.0-225.0","task_version":"battery-v0.2-trt"},{"rune":"Y","rune_set":"bacs1","hex":"#3366ff99","correct":-1,"choice":-1,"rt":-1,"accuracy":1,"outcome":"+1","keys":[3389.4800000125542],"total_keys":1,"block":2,"trial":218,"stimulus":11,"robot":2,"valence":"win","action":"no-go","sham":1,"trial_type":"pit-trial","trial_index":254,"time_elapsed":1264375,"internal_node_id":"0.0-226.0","task_version":"battery-v0.2-trt"},{"rune":"M","rune_set":"bacs1","hex":"#3366ff99","correct":32,"choice":-1,"rt":-1,"accuracy":0,"outcome":"+1","keys":[2824.3999999249354],"total_keys":1,"block":2,"trial":219,"stimulus":8,"robot":1,"valence":"win","action":"go","sham":0,"trial_type":"pit-trial","trial_index":255,"time_elapsed":1268379,"internal_node_id":"0.0-227.0","task_version":"battery-v0.2-trt"},{"rune":"P","rune_set":"bacs1","hex":"#f73b6a7A","correct":32,"choice":32,"rt":671.0099999327213,"accuracy":1,"outcome":"-1","keys":[2171.989999944344],"total_keys":1,"block":2,"trial":220,"stimulus":9,"robot":3,"valence":"lose","action":"go","sham":0,"trial_type":"pit-trial","trial_index":256,"time_elapsed":1271755,"internal_node_id":"0.0-228.0","task_version":"battery-v0.2-trt"},{"rune":"Y","rune_set":"bacs1","hex":"#3366ff99","correct":-1,"choice":-1,"rt":-1,"accuracy":1,"outcome":"+10","keys":[],"total_keys":0,"block":2,"trial":221,"stimulus":11,"robot":2,"valence":"win","action":"no-go","sham":0,"trial_type":"pit-trial","trial_index":257,"time_elapsed":1275758,"internal_node_id":"0.0-229.0","task_version":"battery-v0.2-trt"},{"rune":"M","rune_set":"bacs1","hex":"#3366ff99","correct":32,"choice":-1,"rt":-1,"accuracy":0,"outcome":"+1","keys":[3307.539999950677],"total_keys":1,"block":2,"trial":222,"stimulus":8,"robot":1,"valence":"win","action":"go","sham":0,"trial_type":"pit-trial","trial_index":258,"time_elapsed":1279762,"internal_node_id":"0.0-230.0","task_version":"battery-v0.2-trt"},{"rune":"H","rune_set":"bacs1","hex":"#f73b6a7A","correct":32,"choice":32,"rt":694.8199999751523,"accuracy":1,"outcome":"-1","keys":[2195.9550000028685],"total_keys":1,"block":2,"trial":223,"stimulus":10,"robot":3,"valence":"lose","action":"go","sham":0,"trial_type":"pit-trial","trial_index":259,"time_elapsed":1283163,"internal_node_id":"0.0-231.0","task_version":"battery-v0.2-trt"},{"rune":"P","rune_set":"bacs1","hex":"#f73b6a7A","correct":32,"choice":32,"rt":615.4500000411645,"accuracy":1,"outcome":"-1","keys":[2116.60499998834],"total_keys":1,"block":2,"trial":224,"stimulus":9,"robot":3,"valence":"lose","action":"go","sham":0,"trial_type":"pit-trial","trial_index":260,"time_elapsed":1286483,"internal_node_id":"0.0-232.0","task_version":"battery-v0.2-trt"},{"rune":"H","rune_set":"bacs1","hex":"#f73b6a7A","correct":32,"choice":32,"rt":625.8499999530613,"accuracy":1,"outcome":"-1","keys":[2126.204999978654],"total_keys":1,"block":2,"trial":225,"stimulus":10,"robot":3,"valence":"lose","action":"go","sham":0,"trial_type":"pit-trial","trial_index":261,"time_elapsed":1289812,"internal_node_id":"0.0-233.0","task_version":"battery-v0.2-trt"},{"rune":"M","rune_set":"bacs1","hex":"#3366ff99","correct":32,"choice":-1,"rt":-1,"accuracy":0,"outcome":"+1","keys":[3291.9000000692904],"total_keys":1,"block":2,"trial":226,"stimulus":8,"robot":1,"valence":"win","action":"go","sham":0,"trial_type":"pit-trial","trial_index":262,"time_elapsed":1293816,"internal_node_id":"0.0-234.0","task_version":"battery-v0.2-trt"},{"rune":"Y","rune_set":"bacs1","hex":"#3366ff99","correct":-1,"choice":-1,"rt":-1,"accuracy":1,"outcome":"+10","keys":[],"total_keys":0,"block":2,"trial":227,"stimulus":11,"robot":2,"valence":"win","action":"no-go","sham":0,"trial_type":"pit-trial","trial_index":263,"time_elapsed":1297819,"internal_node_id":"0.0-235.0","task_version":"battery-v0.2-trt"},{"rune":"P","rune_set":"bacs1","hex":"#f73b6a7A","correct":32,"choice":32,"rt":734.2749999370426,"accuracy":1,"outcome":"-10","keys":[2235.714999958873],"total_keys":1,"block":2,"trial":228,"stimulus":9,"robot":3,"valence":"lose","action":"go","sham":1,"trial_type":"pit-trial","trial_index":264,"time_elapsed":1301258,"internal_node_id":"0.0-236.0","task_version":"battery-v0.2-trt"},{"rune":"Y","rune_set":"bacs1","hex":"#3366ff99","correct":-1,"choice":-1,"rt":-1,"accuracy":1,"outcome":"+10","keys":[],"total_keys":0,"block":2,"trial":229,"stimulus":11,"robot":2,"valence":"win","action":"no-go","sham":0,"trial_type":"pit-trial","trial_index":265,"time_elapsed":1305262,"internal_node_id":"0.0-237.0","task_version":"battery-v0.2-trt"},{"rune":"P","rune_set":"bacs1","hex":"#f73b6a7A","correct":32,"choice":32,"rt":630.9250000631437,"accuracy":1,"outcome":"-1","keys":[2131.459999945946],"total_keys":1,"block":2,"trial":230,"stimulus":9,"robot":3,"valence":"lose","action":"go","sham":0,"trial_type":"pit-trial","trial_index":266,"time_elapsed":1308596,"internal_node_id":"0.0-238.0","task_version":"battery-v0.2-trt"},{"rune":"M","rune_set":"bacs1","hex":"#3366ff99","correct":32,"choice":-1,"rt":-1,"accuracy":0,"outcome":"+1","keys":[3396.530000027269],"total_keys":1,"block":2,"trial":231,"stimulus":8,"robot":1,"valence":"win","action":"go","sham":0,"trial_type":"pit-trial","trial_index":267,"time_elapsed":1312600,"internal_node_id":"0.0-239.0","task_version":"battery-v0.2-trt"},{"rune":"H","rune_set":"bacs1","hex":"#f73b6a7A","correct":32,"choice":32,"rt":594.8100000387058,"accuracy":1,"outcome":"-1","keys":[2095.134999952279],"total_keys":1,"block":2,"trial":232,"stimulus":10,"robot":3,"valence":"lose","action":"go","sham":0,"trial_type":"pit-trial","trial_index":268,"time_elapsed":1315898,"internal_node_id":"0.0-240.0","task_version":"battery-v0.2-trt"},{"rune":"H","rune_set":"bacs1","hex":"#f73b6a7A","correct":32,"choice":32,"rt":456.1899999389425,"accuracy":1,"outcome":"-1","keys":[1957.215000060387],"total_keys":1,"block":2,"trial":233,"stimulus":10,"robot":3,"valence":"lose","action":"go","sham":0,"trial_type":"pit-trial","trial_index":269,"time_elapsed":1319058,"internal_node_id":"0.0-241.0","task_version":"battery-v0.2-trt"},{"rune":"M","rune_set":"bacs1","hex":"#3366ff99","correct":32,"choice":32,"rt":384.57500003278255,"accuracy":1,"outcome":"+10","keys":[1885.5200000107288],"total_keys":1,"block":2,"trial":234,"stimulus":8,"robot":1,"valence":"win","ac