[{"view_history":"[{\"page_index\":0,\"viewing_time\":2442.8900000057183}]","rt":2443.2099999976344,"trial_type":"instructions","trial_index":0,"time_elapsed":2453,"internal_node_id":"0.0-0.0","task_version":"battery-v0.2-trt"},{"slider_type":"valence","raw_loc":500,"loc":0.5,"trial_type":"affective-slider","trial_index":1,"time_elapsed":11287,"internal_node_id":"0.0-1.0","task_version":"battery-v0.2-trt"},{"responses":{"Q07":"0","Q02":"0","Q01":"0","Q05":"0","Q08":"0","Q03":"0","Q04":"0","Q06":"0"},"rt":15897.434999991674,"item_order":[6,1,0,4,7,2,3,5],"radio_events":[4591.825000010431,4600.590000016382,7087.570000003325,8039.144999987911,8386.870000016643,10181.355000007898,10644.999999989523,11754.820000001928,12556.559999997262],"key_events":[],"mouse_events":[3670.784999994794,4591.825000010431,4600.590000016382,5167.249999998603,5754.6800000127405,7087.570000003325,8039.144999987911,8386.870000016643,8906.864999997197,9471.084999997402,10181.355000007898,10644.999999989523,11340.774999989662,11754.820000001928,12556.559999997262,14898.235000000568,15893.91000001342],"straightlining":1,"zigzagging":0,"survey":"gad7","trial_type":"survey-template","trial_index":2,"time_elapsed":27193,"internal_node_id":"0.0-2.0","task_version":"battery-v0.2-trt","infrequency":0},{"responses":{"Q03":"0","Q05":"0","Q01":"0","Q02":"0","Q08":"3","Q07":"0","Q04":"0","Q06":"0"},"rt":16852.820000000065,"item_order":[2,4,0,1,7,6,3,5],"radio_events":[3718.6100000108127,4244.1300000064075,5743.300000001909,6287.695000006352,7567.290000006324,8863.5850000137,10363.595000002533,15275.404999993043,15678.175000008196],"key_events":[],"mouse_events":[2316.965000005439,2666.5199999988545,3031.199999997625,3314.795000012964,3718.6100000108127,4244.1300000064075,4683.415000006789,5184.720000019297,5743.300000001909,6287.695000006352,6785.724999994272,7243.000000016764,7567.290000006324,8334.765000006882,8863.5850000137,10363.595000002533,13480.435000004945,14131.80000000284,14776.815000019269,15275.404999993043,15678.175000008196,16849.520000017947],"straightlining":0.875,"zigzagging":0.2857142857142857,"survey":"dass_d","trial_type":"survey-template","trial_index":3,"time_elapsed":44052,"internal_node_id":"0.0-3.0","task_version":"battery-v0.2-trt","infrequency":0.5},{"responses":{"Q07":"2","Q12":"2","Q11":"2","Q08":"2","Q06":"3","Q09":"2","Q10":"2","Q01":"2","Q13":"0","Q03":"0","Q04":"1","Q02":"1","Q05":"2"},"rt":186131.82499998948,"item_order":[6,11,10,7,5,8,9,0,12,2,3,1,4],"radio_events":[23317.125000001397,32457.779999997,36615.64499998349,37097.46499999892,41414.154999976745,43709.0549999848,113155.66999997827,116424.87499999697,117840.11999997892,120066.90499998513,154499.0299999772,155582.41499998257,164564.33500000276,184511.3699999929],"key_events":[],"mouse_events":[1105.4349999758415,23317.125000001397,28023.49999998114,29704.33999999659,31108.30999998143,32457.779999997,34363.094999978784,36615.64499998349,37097.46499999892,37682.15499998769,40307.219999987865,41414.154999976745,42215.73499997612,43709.0549999848,55764.86499997554,108461.20499999961,110353.2899999991,111324.71999997506,113155.66999997827,114532.57499999017,115351.80499998387,116424.87499999697,117840.11999997892,119004.64499997906,120066.90499998513,121098.8799999759,152445.41999997455,153579.68499997514,154499.0299999772,155582.41499998257,157281.38000000035,161368.7149999896,163533.40999997454,164564.33500000276,165788.6549999821,180142.8349999769,183642.18499997514,184511.3699999929,186130.16999998945],"straightlining":0.6153846153846154,"zigzagging":0.3333333333333333,"survey":"bisbas","trial_type":"survey-template","trial_index":4,"time_elapsed":230192,"internal_node_id":"0.0-4.0","task_version":"battery-v0.2-trt","infrequency":0},{"value":[0.5,2.4903846153846154,0.6190476190476191],"trial_type":"call-function","trial_index":5,"time_elapsed":230196,"internal_node_id":"0.0-5.0","task_version":"battery-v0.2-trt"},{"view_history":"[{\"page_index\":0,\"viewing_time\":7331.659999996191},{\"page_index\":1,\"viewing_time\":6756.549999990966},{\"page_index\":2,\"viewing_time\":4410.824999999022},{\"page_index\":3,\"viewing_time\":40403.94000001834},{\"page_index\":4,\"viewing_time\":2924.024999985704},{\"page_index\":5,\"viewing_time\":5119.819999992615},{\"page_index\":6,\"viewing_time\":4876.695000013569},{\"page_index\":7,\"viewing_time\":4714.509999990696},{\"page_index\":8,\"viewing_time\":8622.340000001714},{\"page_index\":9,\"viewing_time\":7554.009999992559}]","rt":92715.1699999813,"trial_type":"pit-instructions","trial_index":6,"time_elapsed":322916,"internal_node_id":"0.0-6.0-0.0","task_version":"battery-v0.2-trt"},{"rune":"1","rune_set":"elianto","hex":"#3366ff99","correct":32,"choice":32,"rt":409.58500001579523,"accuracy":1,"outcome":"+10","keys":[1910.5100000160746],"total_keys":1,"block":0,"practice":1,"trial_type":"pit-trial","trial_index":7,"time_elapsed":326030,"internal_node_id":"0.0-6.0-1.0-0.0","task_version":"battery-v0.2-trt"},{"rune":"1","rune_set":"elianto","hex":"#3366ff99","correct":32,"choice":32,"rt":336.53500000946224,"accuracy":1,"outcome":"+10","keys":[1836.8649999902118],"total_keys":1,"block":0,"practice":1,"trial_type":"pit-trial","trial_index":8,"time_elapsed":329071,"internal_node_id":"0.0-6.0-1.1-0.1","task_version":"battery-v0.2-trt"},{"rune":"1","rune_set":"elianto","hex":"#3366ff99","correct":32,"choice":32,"rt":679.1049999883398,"accuracy":1,"outcome":"+10","keys":[2179.8450000060257],"total_keys":1,"block":0,"practice":1,"trial_type":"pit-trial","trial_index":9,"time_elapsed":332456,"internal_node_id":"0.0-6.0-1.2-0.2","task_version":"battery-v0.2-trt"},{"rune":"1","rune_set":"elianto","hex":"#3366ff99","correct":32,"choice":32,"rt":512.5849999894854,"accuracy":1,"outcome":"+10","keys":[2013.3349999960046],"total_keys":1,"block":0,"practice":1,"trial_type":"pit-trial","trial_index":10,"time_elapsed":335677,"internal_node_id":"0.0-6.0-1.3-0.3","task_version":"battery-v0.2-trt"},{"trial_type":"call-function","trial_index":11,"time_elapsed":335681,"internal_node_id":"0.0-6.0-2.0","task_version":"battery-v0.2-trt"},{"view_history":"[{\"page_index\":0,\"viewing_time\":7130.279999983031},{\"page_index\":1,\"viewing_time\":3682.4300000153016}]","rt":10813.119999977062,"trial_type":"pit-instructions","trial_index":12,"time_elapsed":346496,"internal_node_id":"0.0-6.0-3.0","task_version":"battery-v0.2-trt"},{"rune":"2","rune_set":"elianto","hex":"#3366ff99","correct":-1,"choice":32,"rt":31.940000015310943,"accuracy":0,"outcome":"+1","keys":[1532.999999995809],"total_keys":1,"block":0,"practice":2,"trial_type":"pit-trial","trial_index":13,"time_elapsed":349232,"internal_node_id":"0.0-6.0-4.0-0.0","task_version":"battery-v0.2-trt"},{"rune":"2","rune_set":"elianto","hex":"#3366ff99","correct":-1,"choice":32,"rt":910.3000000177417,"accuracy":0,"outcome":"+1","keys":[1426.145000004908,2411.0550000041258],"total_keys":2,"block":0,"practice":2,"trial_type":"pit-trial","trial_index":14,"time_elapsed":352850,"internal_node_id":"0.0-6.0-4.1-0.1","task_version":"battery-v0.2-trt"},{"rune":"2","rune_set":"elianto","hex":"#3366ff99","correct":-1,"choice":32,"rt":612.6100000110455,"accuracy":0,"outcome":"+1","keys":[2114.1399999905843],"total_keys":1,"block":0,"practice":2,"trial_type":"pit-trial","trial_index":15,"time_elapsed":356172,"internal_node_id":"0.0-6.0-4.2-0.2","task_version":"battery-v0.2-trt"},{"rune":"2","rune_set":"elianto","hex":"#3366ff99","correct":-1,"choice":32,"rt":703.0899999954272,"accuracy":0,"outcome":"+1","keys":[2204.284999985248],"total_keys":1,"block":0,"practice":2,"trial_type":"pit-trial","trial_index":16,"time_elapsed":359582,"internal_node_id":"0.0-6.0-4.3-0.3","task_version":"battery-v0.2-trt"},{"rune":"2","rune_set":"elianto","hex":"#3366ff99","correct":-1,"choice":-1,"rt":-1,"accuracy":1,"outcome":"+10","keys":[],"total_keys":0,"block":0,"practice":2,"trial_type":"pit-trial","trial_index":17,"time_elapsed":363589,"internal_node_id":"0.0-6.0-4.4-0.4","task_version":"battery-v0.2-trt"},{"rune":"2","rune_set":"elianto","hex":"#3366ff99","correct":-1,"choice":-1,"rt":-1,"accuracy":1,"outcome":"+10","keys":[],"total_keys":0,"block":0,"practice":2,"trial_type":"pit-trial","trial_index":18,"time_elapsed":367596,"internal_node_id":"0.0-6.0-4.5-0.5","task_version":"battery-v0.2-trt"},{"rune":"2","rune_set":"elianto","hex":"#3366ff99","correct":-1,"choice":-1,"rt":-1,"accuracy":1,"outcome":"+10","keys":[],"total_keys":0,"block":0,"practice":2,"trial_type":"pit-trial","trial_index":19,"time_elapsed":371600,"internal_node_id":"0.0-6.0-4.6-0.6","task_version":"battery-v0.2-trt"},{"trial_type":"call-function","trial_index":20,"time_elapsed":371601,"internal_node_id":"0.0-6.0-5.0","task_version":"battery-v0.2-trt"},{"view_history":"[{\"page_index\":0,\"viewing_time\":18774.989999976242},{\"page_index\":1,\"viewing_time\":2598.58499999973}]","rt":21373.989999992773,"trial_type":"pit-instructions","trial_index":21,"time_elapsed":392976,"internal_node_id":"0.0-6.0-6.0","task_version":"battery-v0.2-trt"},{"rune":"3","rune_set":"elianto","hex":"#f73b6a7A","correct":-1,"choice":32,"rt":374.0399999951478,"accuracy":0,"outcome":"-10","keys":[1874.1999999911059],"total_keys":1,"block":0,"practice":3,"trial_type":"pit-trial","trial_index":22,"time_elapsed":396053,"internal_node_id":"0.0-6.0-7.0-0.0","task_version":"battery-v0.2-trt"},{"rune":"3","rune_set":"elianto","hex":"#f73b6a7A","correct":-1,"choice":-1,"rt":-1,"accuracy":1,"outcome":"-1","keys":[],"total_keys":0,"block":0,"practice":3,"trial_type":"pit-trial","trial_index":23,"time_elapsed":400058,"internal_node_id":"0.0-6.0-7.1-0.1","task_version":"battery-v0.2-trt"},{"rune":"3","rune_set":"elianto","hex":"#f73b6a7A","correct":-1,"choice":-1,"rt":-1,"accuracy":1,"outcome":"-1","keys":[],"total_keys":0,"block":0,"practice":3,"trial_type":"pit-trial","trial_index":24,"time_elapsed":404064,"internal_node_id":"0.0-6.0-7.2-0.2","task_version":"battery-v0.2-trt"},{"rune":"3","rune_set":"elianto","hex":"#f73b6a7A","correct":-1,"choice":-1,"rt":-1,"accuracy":1,"outcome":"-1","keys":[],"total_keys":0,"block":0,"practice":3,"trial_type":"pit-trial","trial_index":25,"time_elapsed":408068,"internal_node_id":"0.0-6.0-7.3-0.3","task_version":"battery-v0.2-trt"},{"trial_type":"call-function","trial_index":26,"time_elapsed":408070,"internal_node_id":"0.0-6.0-8.0","task_version":"battery-v0.2-trt"},{"view_history":"[{\"page_index\":0,\"viewing_time\":4451.7849999829195},{\"page_index\":1,\"viewing_time\":950.604999990901}]","rt":5402.759999997215,"trial_type":"pit-instructions","trial_index":27,"time_elapsed":413474,"internal_node_id":"0.0-6.0-9.0","task_version":"battery-v0.2-trt"},{"rune":"4","rune_set":"elianto","hex":"#f73b6a7A","correct":32,"choice":32,"rt":409.50000000884756,"accuracy":1,"outcome":"-1","keys":[1910.3400000021793],"total_keys":1,"block":0,"practice":4,"trial_type":"pit-trial","trial_index":28,"time_elapsed":416588,"internal_node_id":"0.0-6.0-10.0-0.0","task_version":"battery-v0.2-trt"},{"rune":"4","rune_set":"elianto","hex":"#f73b6a7A","correct":32,"choice":32,"rt":540.9649999928661,"accuracy":1,"outcome":"-1","keys":[1439.8499999952037,2041.7899999883957],"total_keys":2,"block":0,"practice":4,"trial_type":"pit-trial","trial_index":29,"time_elapsed":419833,"internal_node_id":"0.0-6.0-10.1-0.1","task_version":"battery-v0.2-trt"},{"rune":"4","rune_set":"elianto","hex":"#f73b6a7A","correct":32,"choice":32,"rt":544.8150000011083,"accuracy":1,"outcome":"-1","keys":[2046.5800000238232],"total_keys":1,"block":0,"practice":4,"trial_type":"pit-trial","trial_index":30,"time_elapsed":423085,"internal_node_id":"0.0-6.0-10.2-0.2","task_version":"battery-v0.2-trt"},{"rune":"4","rune_set":"elianto","hex":"#f73b6a7A","correct":32,"choice":32,"rt":199.24000001628883,"accuracy":1,"outcome":"-1","keys":[1700.7149999844842],"total_keys":1,"block":0,"practice":4,"trial_type":"pit-trial","trial_index":31,"time_elapsed":425990,"internal_node_id":"0.0-6.0-10.3-0.3","task_version":"battery-v0.2-trt"},{"trial_type":"call-function","trial_index":32,"time_elapsed":425991,"internal_node_id":"0.0-6.0-11.0","task_version":"battery-v0.2-trt"},{"view_history":"[{\"page_index\":0,\"viewing_time\":2390.125000005355},{\"page_index\":1,\"viewing_time\":1325.3100000147242},{\"page_index\":2,\"viewing_time\":5431.159999978263},{\"page_index\":3,\"viewing_time\":2013.0650000064634},{\"page_index\":4,\"viewing_time\":1567.0099999988452},{\"page_index\":5,\"viewing_time\":889.9550000205636}]","rt":13617.04500002088,"trial_type":"pit-instructions","trial_index":33,"time_elapsed":439608,"internal_node_id":"0.0-6.0-12.0","task_version":"battery-v0.2-trt"},{"responses":["Press SPACE","+10","-1","True","True"],"num_errors":0,"rt":18202.504999993835,"trial_type":"pit-comprehension","trial_index":34,"time_elapsed":457814,"internal_node_id":"0.0-6.0-13.0","task_version":"battery-v0.2-trt"},{"view_history":"[{\"page_index\":0,\"viewing_time\":2876.0699999984354},{\"page_index\":1,\"viewing_time\":2862.685000000056}]","rt":5739.159999997355,"trial_type":"pit-instructions","trial_index":35,"time_elapsed":463556,"internal_node_id":"0.0-7.0","task_version":"battery-v0.2-trt"},{"rune":"G","rune_set":"elianto","hex":"#3366ff99","correct":32,"choice":32,"rt":149.2349999898579,"accuracy":1,"outcome":"+10","keys":[1650.9099999966566],"total_keys":1,"block":1,"trial":1,"stimulus":3,"robot":1,"valence":"win","action":"go","sham":0,"trial_type":"pit-trial","trial_index":36,"time_elapsed":466413,"internal_node_id":"0.0-8.0","task_version":"battery-v0.2-trt"},{"rune":"A","rune_set":"elianto","hex":"#f73b6a7A","correct":-1,"choice":32,"rt":892.3800000047777,"accuracy":0,"outcome":"-10","keys":[2394.1650000051595],"total_keys":1,"block":1,"trial":2,"stimulus":2,"robot":4,"valence":"lose","action":"no-go","sham":0,"trial_type":"pit-trial","trial_index":37,"time_elapsed":470013,"internal_node_id":"0.0-9.0","task_version":"battery-v0.2-trt"},{"rune":"L","rune_set":"elianto","hex":"#3366ff99","correct":32,"choice":32,"rt":578.6200000147801,"accuracy":1,"outcome":"+1","keys":[2079.6100000152364],"total_keys":1,"block":1,"trial":3,"stimulus":1,"robot":1,"valence":"win","action":"go","sham":1,"trial_type":"pit-trial","trial_index":38,"time_elapsed":473296,"internal_node_id":"0.0-10.0","task_version":"battery-v0.2-trt"},{"rune":"U","rune_set":"elianto","hex":"#3366ff99","correct":-1,"choice":32,"rt":772.2300000023097,"accuracy":0,"outcome":"+10","keys":[2273.5699999902863],"total_keys":1,"block":1,"trial":4,"stimulus":0,"robot":2,"valence":"win","action":"no-go","sham":1,"trial_type":"pit-trial","trial_index":39,"time_elapsed":476781,"internal_node_id":"0.0-11.0","task_version":"battery-v0.2-trt"},{"rune":"U","rune_set":"elianto","hex":"#3366ff99","correct":-1,"choice":32,"rt":616.9300000183284,"accuracy":0,"outcome":"+1","keys":[2117.705000011483],"total_keys":1,"block":1,"trial":5,"stimulus":0,"robot":2,"valence":"win","action":"no-go","sham":0,"trial_type":"pit-trial","trial_index":40,"time_elapsed":480104,"internal_node_id":"0.0-12.0","task_version":"battery-v0.2-trt"},{"rune":"G","rune_set":"elianto","hex":"#3366ff99","correct":32,"choice":32,"rt":538.395000010496,"accuracy":1,"outcome":"+10","keys":[2038.7200000113808],"total_keys":1,"block":1,"trial":6,"stimulus":3,"robot":1,"valence":"win","action":"go","sham":0,"trial_type":"pit-trial","trial_index":41,"time_elapsed":483348,"internal_node_id":"0.0-13.0","task_version":"battery-v0.2-trt"},{"rune":"A","rune_set":"elianto","hex":"#f73b6a7A","correct":-1,"choice":-1,"rt":-1,"accuracy":1,"outcome":"-1","keys":[],"total_keys":0,"block":1,"trial":7,"stimulus":2,"robot":4,"valence":"lose","action":"no-go","sham":0,"trial_type":"pit-trial","trial_index":42,"time_elapsed":487356,"internal_node_id":"0.0-14.0","task_version":"battery-v0.2-trt"},{"rune":"L","rune_set":"elianto","hex":"#3366ff99","correct":32,"choice":32,"rt":575.1849999942351,"accuracy":1,"outcome":"+10","keys":[2076.2199999880977],"total_keys":1,"block":1,"trial":8,"stimulus":1,"robot":1,"valence":"win","action":"go","sham":0,"trial_type":"pit-trial","trial_index":43,"time_elapsed":490637,"internal_node_id":"0.0-15.0","task_version":"battery-v0.2-trt"},{"rune":"A","rune_set":"elianto","hex":"#f73b6a7A","correct":-1,"choice":-1,"rt":-1,"accuracy":1,"outcome":"-1","keys":[],"total_keys":0,"block":1,"trial":9,"stimulus":2,"robot":4,"valence":"lose","action":"no-go","sham":0,"trial_type":"pit-trial","trial_index":44,"time_elapsed":494643,"internal_node_id":"0.0-16.0","task_version":"battery-v0.2-trt"},{"rune":"G","rune_set":"elianto","hex":"#3366ff99","correct":32,"choice":32,"rt":594.0200000186451,"accuracy":1,"outcome":"+10","keys":[2094.0349999873433],"total_keys":1,"block":1,"trial":10,"stimulus":3,"robot":1,"valence":"win","action":"go","sham":0,"trial_type":"pit-trial","trial_index":45,"time_elapsed":497941,"internal_node_id":"0.0-17.0","task_version":"battery-v0.2-trt"},{"rune":"L","rune_set":"elianto","hex":"#3366ff99","correct":32,"choice":32,"rt":476.859999995213,"accuracy":1,"outcome":"+10","keys":[1977.1049999981187],"total_keys":1,"block":1,"trial":11,"stimulus":1,"robot":1,"valence":"win","action":"go","sham":0,"trial_type":"pit-trial","trial_index":46,"time_elapsed":501123,"internal_node_id":"0.0-18.0","task_version":"battery-v0.2-trt"},{"rune":"U","rune_set":"elianto","hex":"#3366ff99","correct":-1,"choice":-1,"rt":-1,"accuracy":1,"outcome":"+10","keys":[],"total_keys":0,"block":1,"trial":12,"stimulus":0,"robot":2,"valence":"win","action":"no-go","sham":0,"trial_type":"pit-trial","trial_index":47,"time_elapsed":505128,"internal_node_id":"0.0-19.0","task_version":"battery-v0.2-trt"},{"rune":"L","rune_set":"elianto","hex":"#3366ff99","correct":32,"choice":32,"rt":450.1149999850895,"accuracy":1,"outcome":"+10","keys":[1951.0100000188686],"total_keys":1,"block":1,"trial":13,"stimulus":1,"robot":1,"valence":"win","action":"go","sham":0,"trial_type":"pit-trial","trial_index":48,"time_elapsed":508286,"internal_node_id":"0.0-20.0","task_version":"battery-v0.2-trt"},{"rune":"U","rune_set":"elianto","hex":"#3366ff99","correct":-1,"choice":-1,"rt":-1,"accuracy":1,"outcome":"+10","keys":[],"total_keys":0,"block":1,"trial":14,"stimulus":0,"robot":2,"valence":"win","action":"no-go","sham":0,"trial_type":"pit-trial","trial_index":49,"time_elapsed":512290,"internal_node_id":"0.0-21.0","task_version":"battery-v0.2-trt"},{"rune":"G","rune_set":"elianto","hex":"#3366ff99","correct":32,"choice":32,"rt":537.2999999963213,"accuracy":1,"outcome":"+10","keys":[2038.6299999954645],"total_keys":1,"block":1,"trial":15,"stimulus":3,"robot":1,"valence":"win","action":"go","sham":0,"trial_type":"pit-trial","trial_index":50,"time_elapsed":515533,"internal_node_id":"0.0-22.0","task_version":"battery-v0.2-trt"},{"rune":"A","rune_set":"elianto","hex":"#f73b6a7A","correct":-1,"choice":-1,"rt":-1,"accuracy":1,"outcome":"-1","keys":[],"total_keys":0,"block":1,"trial":16,"stimulus":2,"robot":4,"valence":"lose","action":"no-go","sham":0,"trial_type":"pit-trial","trial_index":51,"time_elapsed":519540,"internal_node_id":"0.0-23.0","task_version":"battery-v0.2-trt"},{"rune":"A","rune_set":"elianto","hex":"#f73b6a7A","correct":-1,"choice":-1,"rt":-1,"accuracy":1,"outcome":"-1","keys":[],"total_keys":0,"block":1,"trial":17,"stimulus":2,"robot":4,"valence":"lose","action":"no-go","sham":0,"trial_type":"pit-trial","trial_index":52,"time_elapsed":523550,"internal_node_id":"0.0-24.0","task_version":"battery-v0.2-trt"},{"rune":"U","rune_set":"elianto","hex":"#3366ff99","correct":-1,"choice":32,"rt":713.8700000068638,"accuracy":0,"outcome":"+1","keys":[2214.2000000167172],"total_keys":1,"block":1,"trial":18,"stimulus":0,"robot":2,"valence":"win","action":"no-go","sham":0,"trial_type":"pit-trial","trial_index":53,"time_elapsed":526967,"internal_node_id":"0.0-25.0","task_version":"battery-v0.2-trt"},{"rune":"L","rune_set":"elianto","hex":"#3366ff99","correct":32,"choice":-1,"rt":-1,"accuracy":0,"outcome":"+10","keys":[],"total_keys":0,"block":1,"trial":19,"stimulus":1,"robot":1,"valence":"win","action":"go","sham":1,"trial_type":"pit-trial","trial_index":54,"time_elapsed":530970,"internal_node_id":"0.0-26.0","task_version":"battery-v0.2-trt"},{"rune":"G","rune_set":"elianto","hex":"#3366ff99","correct":32,"choice":32,"rt":799.1600000241306,"accuracy":1,"outcome":"+10","keys":[2300.2700000070035],"total_keys":1,"block":1,"trial":20,"stimulus":3,"robot":1,"valence":"win","action":"go","sham":0,"trial_type":"pit-trial","trial_index":55,"time_elapsed":534473,"internal_node_id":"0.0-27.0","task_version":"battery-v0.2-trt"},{"rune":"U","rune_set":"elianto","hex":"#3366ff99","correct":-1,"choice":-1,"rt":-1,"accuracy":1,"outcome":"+10","keys":[],"total_keys":0,"block":1,"trial":21,"stimulus":0,"robot":2,"valence":"win","action":"no-go","sham":0,"trial_type":"pit-trial","trial_index":56,"time_elapsed":538478,"internal_node_id":"0.0-28.0","task_version":"battery-v0.2-trt"},{"rune":"G","rune_set":"elianto","hex":"#3366ff99","correct":32,"choice":32,"rt":397.84500002861023,"accuracy":1,"outcome":"+10","keys":[1899.5500000019092],"total_keys":1,"block":1,"trial":22,"stimulus":3,"robot":1,"valence":"win","action":"go","sham":0,"trial_type":"pit-trial","trial_index":57,"time_elapsed":541581,"internal_node_id":"0.0-29.0","task_version":"battery-v0.2-trt"},{"rune":"L","rune_set":"elianto","hex":"#3366ff99","correct":32,"choice":32,"rt":438.59500001417473,"accuracy":1,"outcome":"+1","keys":[1939.5650000078604],"total_keys":1,"block":1,"trial":23,"stimulus":1,"robot":1,"valence":"win","action":"go","sham":1,"trial_type":"pit-trial","trial_index":58,"time_elapsed":544727,"internal_node_id":"0.0-30.0","task_version":"battery-v0.2-trt"},{"rune":"A","rune_set":"elianto","hex":"#f73b6a7A","correct":-1,"choice":-1,"rt":-1,"accuracy":1,"outcome":"-10","keys":[],"total_keys":0,"block":1,"trial":24,"stimulus":2,"robot":4,"valence":"lose","action":"no-go","sham":1,"trial_type":"pit-trial","trial_index":59,"time_elapsed":548734,"internal_node_id":"0.0-31.0","task_version":"battery-v0.2-trt"},{"rune":"L","rune_set":"elianto","hex":"#3366ff99","correct":32,"choice":32,"rt":490.1499999978114,"accuracy":1,"outcome":"+10","keys":[1990.8550000109244],"total_keys":1,"block":1,"trial":25,"stimulus":1,"robot":1,"valence":"win","action":"go","sham":0,"trial_type":"pit-trial","trial_index":60,"time_elapsed":551930,"internal_node_id":"0.0-32.0","task_version":"battery-v0.2-trt"},{"rune":"U","rune_set":"elianto","hex":"#3366ff99","correct":-1,"choice":32,"rt":301.2000000162516,"accuracy":0,"outcome":"+1","keys":[1802.0700000051875],"total_keys":1,"block":1,"trial":26,"stimulus":0,"robot":2,"valence":"win","action":"no-go","sham":0,"trial_type":"pit-trial","trial_index":61,"time_elapsed":554936,"internal_node_id":"0.0-33.0","task_version":"battery-v0.2-trt"},{"rune":"A","rune_set":"elianto","hex":"#f73b6a7A","correct":-1,"choice":-1,"rt":-1,"accuracy":1,"outcome":"-1","keys":[],"total_keys":0,"block":1,"trial":27,"stimulus":2,"robot":4,"valence":"lose","action":"no-go","sham":0,"trial_type":"pit-trial","trial_index":62,"time_elapsed":558941,"internal_node_id":"0.0-34.0","task_version":"battery-v0.2-trt"},{"rune":"G","rune_set":"elianto","hex":"#3366ff99","correct":32,"choice":32,"rt":402.6000000012573,"accuracy":1,"outcome":"+1","keys":[1902.8000000107568],"total_keys":1,"block":1,"trial":28,"stimulus":3,"robot":1,"valence":"win","action":"go","sham":1,"trial_type":"pit-trial","trial_index":63,"time_elapsed":562048,"internal_node_id":"0.0-35.0","task_version":"battery-v0.2-trt"},{"rune":"G","rune_set":"elianto","hex":"#3366ff99","correct":32,"choice":32,"rt":436.99499999638647,"accuracy":1,"outcome":"+10","keys":[1938.2449999975506],"total_keys":1,"block":1,"trial":29,"stimulus":3,"robot":1,"valence":"win","action":"go","sham":0,"trial_type":"pit-trial","trial_index":64,"time_elapsed":565192,"internal_node_id":"0.0-36.0","task_version":"battery-v0.2-trt"},{"rune":"A","rune_set":"elianto","hex":"#f73b6a7A","correct":-1,"choice":-1,"rt":-1,"accuracy":1,"outcome":"-1","keys":[],"total_keys":0,"block":1,"trial":30,"stimulus":2,"robot":4,"valence":"lose","action":"no-go","sham":0,"trial_type":"pit-trial","trial_index":65,"time_elapsed":569200,"internal_node_id":"0.0-37.0","task_version":"battery-v0.2-trt"},{"rune":"U","rune_set":"elianto","hex":"#3366ff99","correct":-1,"choice":32,"rt":518.6049999902025,"accuracy":0,"outcome":"+10","keys":[2018.9549999777228],"total_keys":1,"block":1,"trial":31,"stimulus":0,"robot":2,"valence":"win","action":"no-go","sham":1,"trial_type":"pit-trial","trial_index":66,"time_elapsed":572425,"internal_node_id":"0.0-38.0","task_version":"battery-v0.2-trt"},{"rune":"L","rune_set":"elianto","hex":"#3366ff99","correct":32,"choice":-1,"rt":-1,"accuracy":0,"outcome":"+1","keys":[2905.8399999921676],"total_keys":1,"block":1,"trial":32,"stimulus":1,"robot":1,"valence":"win","action":"go","sham":0,"trial_type":"pit-trial","trial_index":67,"time_elapsed":576431,"internal_node_id":"0.0-39.0","task_version":"battery-v0.2-trt"},{"rune":"G","rune_set":"elianto","hex":"#3366ff99","correct":32,"choice":32,"rt":500.9049999935087,"accuracy":1,"outcome":"+10","keys":[2001.4400000218302],"total_keys":1,"block":1,"trial":33,"stimulus":3,"robot":1,"valence":"win","action":"go","sham":0,"trial_type":"pit-trial","trial_index":68,"time_elapsed":579636,"internal_node_id":"0.0-40.0","task_version":"battery-v0.2-trt"},{"rune":"P","rune_set":"elianto","hex":"#3366ff99","correct":32,"choice":32,"rt":842.1500000113156,"accuracy":1,"outcome":"+1","keys":[2342.849999986356],"total_keys":1,"block":1,"trial":34,"stimulus":4,"robot":1,"valence":"win","action":"go","sham":1,"trial_type":"pit-trial","trial_index":69,"time_elapsed":583185,"internal_node_id":"0.0-41.0","task_version":"battery-v0.2-trt"},{"rune":"A","rune_set":"elianto","hex":"#f73b6a7A","correct":-1,"choice":-1,"rt":-1,"accuracy":1,"outcome":"-1","keys":[],"total_keys":0,"block":1,"trial":35,"stimulus":2,"robot":4,"valence":"lose","action":"no-go","sham":0,"trial_type":"pit-trial","trial_index":70,"time_elapsed":587192,"internal_node_id":"0.0-42.0","task_version":"battery-v0.2-trt"},{"rune":"U","rune_set":"elianto","hex":"#3366ff99","correct":-1,"choice":32,"rt":671.3549999985844,"accuracy":0,"outcome":"+1","keys":[2171.614999999292],"total_keys":1,"block":1,"trial":36,"stimulus":0,"robot":2,"valence":"win","action":"no-go","sham":0,"trial_type":"pit-trial","trial_index":71,"time_elapsed":590568,"internal_node_id":"0.0-43.0","task_version":"battery-v0.2-trt"},{"rune":"P","rune_set":"elianto","hex":"#3366ff99","correct":32,"choice":32,"rt":619.7350000147708,"accuracy":1,"outcome":"+10","keys":[2121.914999996079],"total_keys":1,"block":1,"trial":37,"stimulus":4,"robot":1,"valence":"win","action":"go","sham":0,"trial_type":"pit-trial","trial_index":72,"time_elapsed":593895,"internal_node_id":"0.0-44.0","task_version":"battery-v0.2-trt"},{"rune":"A","rune_set":"elianto","hex":"#f73b6a7A","correct":-1,"choice":32,"rt":1047.4999999860302,"accuracy":0,"outcome":"-1","keys":[2547.9599999962375],"total_keys":1,"block":1,"trial":38,"stimulus":2,"robot":4,"valence":"lose","action":"no-go","sham":1,"trial_type":"pit-trial","trial_index":73,"time_elapsed":597646,"internal_node_id":"0.0-45.0","task_version":"battery-v0.2-trt"},{"rune":"U","rune_set":"elianto","hex":"#3366ff99","correct":-1,"choice":32,"rt":513.4649999963585,"accuracy":0,"outcome":"+1","keys":[2013.8300000107847],"total_keys":1,"block":1,"trial":39,"stimulus":0,"robot":2,"valence":"win","action":"no-go","sham":0,"trial_type":"pit-trial","trial_index":74,"time_elapsed":600866,"internal_node_id":"0.0-46.0","task_version":"battery-v0.2-trt"},{"rune":"G","rune_set":"elianto","hex":"#3366ff99","correct":32,"choice":32,"rt":138.06000002659857,"accuracy":1,"outcome":"+10","keys":[1639.709999988554],"total_keys":1,"block":1,"trial":40,"stimulus":3,"robot":1,"valence":"win","action":"go","sham":0,"trial_type":"pit-trial","trial_index":75,"time_elapsed":603709,"internal_node_id":"0.0-47.0","task_version":"battery-v0.2-trt"},{"rune":"W","rune_set":"elianto","hex":"#f73b6a7A","correct":-1,"choice":32,"rt":223.22499999427237,"accuracy":0,"outcome":"-1","keys":[1724.675000004936],"total_keys":1,"block":1,"trial":41,"stimulus":6,"robot":4,"valence":"lose","action":"no-go","sham":1,"trial_type":"pit-trial","trial_index":76,"time_elapsed":606637,"internal_node_id":"0.0-48.0","task_version":"battery-v0.2-trt"},{"rune":"U","rune_set":"elianto","hex":"#3366ff99","correct":-1,"choice":32,"rt":420.7099999766797,"accuracy":0,"outcome":"+1","keys":[1920.944999990752],"total_keys":1,"block":1,"trial":42,"stimulus":0,"robot":2,"valence":"win","action":"no-go","sham":0,"trial_type":"pit-trial","trial_index":77,"time_elapsed":609761,"internal_node_id":"0.0-49.0","task_version":"battery-v0.2-trt"},{"rune":"P","rune_set":"elianto","hex":"#3366ff99","correct":32,"choice":32,"rt":380.5399999837391,"accuracy":1,"outcome":"+10","keys":[1880.78000000678],"total_keys":1,"block":1,"trial":43,"stimulus":4,"robot":1,"valence":"win","action":"go","sham":0,"trial_type":"pit-trial","trial_index":78,"time_elapsed":612845,"internal_node_id":"0.0-50.0","task_version":"battery-v0.2-trt"},{"rune":"S","rune_set":"elianto","hex":"#f73b6a7A","correct":32,"choice":32,"rt":633.4700000006706,"accuracy":1,"outcome":"-10","keys":[2133.7950000015553],"total_keys":1,"block":1,"trial":44,"stimulus":5,"robot":3,"valence":"lose","action":"go","sham":1,"trial_type":"pit-trial","trial_index":79,"time_elapsed":616182,"internal_node_id":"0.0-51.0","task_version":"battery-v0.2-trt"},{"rune":"P","rune_set":"elianto","hex":"#3366ff99","correct":32,"choice":32,"rt":583.1550000002608,"accuracy":1,"outcome":"+1","keys":[2084.3199999944773],"total_keys":1,"block":1,"trial":45,"stimulus":4,"robot":1,"valence":"win","action":"go","sham":1,"trial_type":"pit-trial","trial_index":80,"time_elapsed":619471,"internal_node_id":"0.0-52.0","task_version":"battery-v0.2-trt"},{"rune":"S","rune_set":"elianto","hex":"#f73b6a7A","correct":32,"choice":32,"rt":751.510000001872,"accuracy":1,"outcome":"-1","keys":[2252.390000008745],"total_keys":1,"block":1,"trial":46,"stimulus":5,"robot":3,"valence":"lose","action":"go","sham":0,"trial_type":"pit-trial","trial_index":81,"time_elapsed":622927,"internal_node_id":"0.0-53.0","task_version":"battery-v0.2-trt"},{"rune":"W","rune_set":"elianto","hex":"#f73b6a7A","correct":-1,"choice":32,"rt":1163.9549999963492,"accuracy":0,"outcome":"-10","keys":[2664.6249999757856],"total_keys":1,"block":1,"trial":47,"stimulus":6,"robot":4,"valence":"lose","action":"no-go","sham":0,"trial_type":"pit-trial","trial_index":82,"time_elapsed":626795,"internal_node_id":"0.0-54.0","task_version":"battery-v0.2-trt"},{"rune":"U","rune_set":"elianto","hex":"#3366ff99","correct":-1,"choice":32,"rt":937.2399999992922,"accuracy":0,"outcome":"+1","keys":[2438.5450000118],"total_keys":1,"block":1,"trial":48,"stimulus":0,"robot":2,"valence":"win","action":"no-go","sham":0,"trial_type":"pit-trial","trial_index":83,"time_elapsed":630440,"internal_node_id":"0.0-55.0","task_version":"battery-v0.2-trt"},{"rune":"S","rune_set":"elianto","hex":"#f73b6a7A","correct":32,"choice":-1,"rt":-1,"accuracy":0,"outcome":"-10","keys":[],"total_keys":0,"block":1,"trial":49,"stimulus":5,"robot":3,"valence":"lose","action":"go","sham":0,"trial_type":"pit-trial","trial_index":84,"time_elapsed":634447,"internal_node_id":"0.0-56.0","task_version":"battery-v0.2-trt"},{"rune":"E","rune_set":"elianto","hex":"#3366ff99","correct":-1,"choice":32,"rt":852.9549999802839,"accuracy":0,"outcome":"+1","keys":[2354.025000007823],"total_keys":1,"block":1,"trial":50,"stimulus":7,"robot":2,"valence":"win","action":"no-go","sham":0,"trial_type":"pit-trial","trial_index":85,"time_elapsed":638005,"internal_node_id":"0.0-57.0","task_version":"battery-v0.2-trt"},{"rune":"W","rune_set":"elianto","hex":"#f73b6a7A","correct":-1,"choice":32,"rt":1061.0100000048988,"accuracy":0,"outcome":"-10","keys":[2561.0499999893364],"total_keys":1,"block":1,"trial":51,"stimulus":6,"robot":4,"valence":"lose","action":"no-go","sham":0,"trial_type":"pit-trial","trial_index":86,"time_elapsed":641770,"internal_node_id":"0.0-58.0","task_version":"battery-v0.2-trt"},{"rune":"P","rune_set":"elianto","hex":"#3366ff99","correct":32,"choice":32,"rt":514.3300000054296,"accuracy":1,"outcome":"+10","keys":[2015.0549999962095],"total_keys":1,"block":1,"trial":52,"stimulus":4,"robot":1,"valence":"win","action":"go","sham":0,"trial_type":"pit-trial","trial_index":87,"time_elapsed":644989,"internal_node_id":"0.0-59.0","task_version":"battery-v0.2-trt"},{"rune":"S","rune_set":"elianto","hex":"#f73b6a7A","correct":32,"choice":32,"rt":1185.2400000207126,"accuracy":1,"outcome":"-1","keys":[2687.7950000052806],"total_keys":1,"block":1,"trial":53,"stimulus":5,"robot":3,"valence":"lose","action":"go","sham":0,"trial_type":"pit-trial","trial_index":88,"time_elapsed":648880,"internal_node_id":"0.0-60.0","task_version":"battery-v0.2-trt"},{"rune":"W","rune_set":"elianto","hex":"#f73b6a7A","correct":-1,"choice":-1,"rt":-1,"accuracy":1,"outcome":"-10","keys":[2981.0749999887776],"total_keys":1,"block":1,"trial":54,"stimulus":6,"robot":4,"valence":"lose","action":"no-go","sham":1,"trial_type":"pit-trial","trial_index":89,"time_elapsed":652884,"internal_node_id":"0.0-61.0","task_version":"battery-v0.2-trt"},{"rune":"P","rune_set":"elianto","hex":"#3366ff99","correct":32,"choice":32,"rt":591.1949999863282,"accuracy":1,"outcome":"+1","keys":[2092.3499999917112],"total_keys":1,"block":1,"trial":55,"stimulus":4,"robot":1,"valence":"win","action":"go","sham":1,"trial_type":"pit-trial","trial_index":90,"time_elapsed":656180,"internal_node_id":"0.0-62.0","task_version":"battery-v0.2-trt"},{"rune":"E","rune_set":"elianto","hex":"#3366ff99","correct":-1,"choice":32,"rt":302.54999999306165,"accuracy":0,"outcome":"+1","keys":[1802.960000000894],"total_keys":1,"block":1,"trial":56,"stimulus":7,"robot":2,"valence":"win","action":"no-go","sham":0,"trial_type":"pit-trial","trial_index":91,"time_elapsed":659189,"internal_node_id":"0.0-63.0","task_version":"battery-v0.2-trt"},{"rune":"P","rune_set":"elianto","hex":"#3366ff99","correct":32,"choice":32,"rt":433.9400000171736,"accuracy":1,"outcome":"+10","keys":[1934.6450000011828],"total_keys":1,"block":1,"trial":57,"stimulus":4,"robot":1,"valence":"win","action":"go","sham":0,"trial_type":"pit-trial","trial_index":92,"time_elapsed":662331,"internal_node_id":"0.0-64.0","task_version":"battery-v0.2-trt"},{"rune":"W","rune_set":"elianto","hex":"#f73b6a7A","correct":-1,"choice":-1,"rt":-1,"accuracy":1,"outcome":"-1","keys":[],"total_keys":0,"block":1,"trial":58,"stimulus":6,"robot":4,"valence":"lose","action":"no-go","sham":0,"trial_type":"pit-trial","trial_index":93,"time_elapsed":666343,"internal_node_id":"0.0-65.0","task_version":"battery-v0.2-trt"},{"rune":"S","rune_set":"elianto","hex":"#f73b6a7A","correct":32,"choice":32,"rt":874.9299999908544,"accuracy":1,"outcome":"-1","keys":[2375.4099999787286],"total_keys":1,"block":1,"trial":59,"stimulus":5,"robot":3,"valence":"lose","action":"go","sham":0,"trial_type":"pit-trial","trial_index":94,"time_elapsed":669929,"internal_node_id":"0.0-66.0","task_version":"battery-v0.2-trt"},{"rune":"E","rune_set":"elianto","hex":"#3366ff99","correct":-1,"choice":32,"rt":575.2999999967869,"accuracy":0,"outcome":"+1","keys":[2076.375000004191],"total_keys":1,"block":1,"trial":60,"stimulus":7,"robot":2,"valence":"win","action":"no-go","sham":0,"trial_type":"pit-trial","trial_index":95,"time_elapsed":673210,"internal_node_id":"0.0-67.0","task_version":"battery-v0.2-trt"},{"rune":"E","rune_set":"elianto","hex":"#3366ff99","correct":-1,"choice":32,"rt":443.5499999963213,"accuracy":0,"outcome":"+1","keys":[1944.7299999883398],"total_keys":1,"block":1,"trial":61,"stimulus":7,"robot":2,"valence":"win","action":"no-go","sham":0,"trial_type":"pit-trial","trial_index":96,"time_elapsed":676358,"internal_node_id":"0.0-68.0","task_version":"battery-v0.2-trt"},{"rune":"S","rune_set":"elianto","hex":"#f73b6a7A","correct":32,"choice":32,"rt":982.6950000133365,"accuracy":1,"outcome":"-1","keys":[2484.4799999846146],"total_keys":1,"block":1,"trial":62,"stimulus":5,"robot":3,"valence":"lose","action":"go","sham":0,"trial_type":"pit-trial","trial_index":97,"time_elapsed":680047,"internal_node_id":"0.0-69.0","task_version":"battery-v0.2-trt"},{"rune":"W","rune_set":"elianto","hex":"#f73b6a7A","correct":-1,"choice":-1,"rt":-1,"accuracy":1,"outcome":"-1","keys":[],"total_keys":0,"block":1,"trial":63,"stimulus":6,"robot":4,"valence":"lose","action":"no-go","sham":0,"trial_type":"pit-trial","trial_index":98,"time_elapsed":684051,"internal_node_id":"0.0-70.0","task_version":"battery-v0.2-trt"},{"rune":"P","rune_set":"elianto","hex":"#3366ff99","correct":32,"choice":32,"rt":1167.490000021644,"accuracy":1,"outcome":"+1","keys":[2667.974999989383],"total_keys":1,"block":1,"trial":64,"stimulus":4,"robot":1,"valence":"win","action":"go","sham":1,"trial_type":"pit-trial","trial_index":99,"time_elapsed":687924,"internal_node_id":"0.0-71.0","task_version":"battery-v0.2-trt"},{"rune":"W","rune_set":"elianto","hex":"#f73b6a7A","correct":-1,"choice":-1,"rt":-1,"accuracy":1,"outcome":"-10","keys":[],"total_keys":0,"block":1,"trial":65,"stimulus":6,"robot":4,"valence":"lose","action":"no-go","sham":1,"trial_type":"pit-trial","trial_index":100,"time_elapsed":691931,"internal_node_id":"0.0-72.0","task_version":"battery-v0.2-trt"},{"rune":"P","rune_set":"elianto","hex":"#3366ff99","correct":32,"choice":32,"rt":529.7499999869615,"accuracy":1,"outcome":"+10","keys":[2031.4800000051036],"total_keys":1,"block":1,"trial":66,"stimulus":4,"robot":1,"valence":"win","action":"go","sham":0,"trial_type":"pit-trial","trial_index":101,"time_elapsed":695167,"internal_node_id":"0.0-73.0","task_version":"battery-v0.2-trt"},{"rune":"E","rune_set":"elianto","hex":"#3366ff99","correct":-1,"choice":32,"rt":1008.5399999807123,"accuracy":0,"outcome":"+1","keys":[2509.6300000150222],"total_keys":1,"block":1,"trial":67,"stimulus":7,"robot":2,"valence":"win","action":"no-go","sham":0,"trial_type":"pit-trial","trial_index":102,"time_elapsed":698882,"internal_node_id":"0.0-74.0","task_version":"battery-v0.2-trt"},{"rune":"S","rune_set":"elianto","hex":"#f73b6a7A","correct":32,"choice":32,"rt":684.899999992922,"accuracy":1,"outcome":"-1","keys":[2186.4549999882],"total_keys":1,"block":1,"trial":68,"stimulus":5,"robot":3,"valence":"lose","action":"go","sham":0,"trial_type":"pit-trial","trial_index":103,"time_elapsed":702271,"internal_node_id":"0.0-75.0","task_version":"battery-v0.2-trt"},{"rune":"E","rune_set":"elianto","hex":"#3366ff99","correct":-1,"choice":32,"rt":466.9199999771081,"accuracy":0,"outcome":"+10","keys":[1967.7650000085123],"total_keys":1,"block":1,"trial":69,"stimulus":7,"robot":2,"valence":"win","action":"no-go","sham":1,"trial_type":"pit-trial","trial_index":104,"time_elapsed":705443,"internal_node_id":"0.0-76.0","task_version":"battery-v0.2-trt"},{"rune":"W","rune_set":"elianto","hex":"#f73b6a7A","correct":-1,"choice":32,"rt":337.5549999764189,"accuracy":0,"outcome":"-10","keys":[1838.0600000091363],"total_keys":1,"block":1,"trial":70,"stimulus":6,"robot":4,"valence":"lose","action":"no-go","sham":0,"trial_type":"pit-trial","trial_index":105,"time_elapsed":708487,"internal_node_id":"0.0-77.0","task_version":"battery-v0.2-trt"},{"rune":"S","rune_set":"elianto","hex":"#f73b6a7A","correct":32,"choice":32,"rt":146.6599999985192,"accuracy":1,"outcome":"-10","keys":[1647.1099999907892],"total_keys":1,"block":1,"trial":71,"stimulus":5,"robot":3,"valence":"lose","action":"go","sham":1,"trial_type":"pit-trial","trial_index":106,"time_elapsed":711340,"internal_node_id":"0.0-78.0","task_version":"battery-v0.2-trt"},{"rune":"P","rune_set":"elianto","hex":"#3366ff99","correct":32,"choice":32,"rt":437.6300000003539,"accuracy":1,"outcome":"+10","keys":[1938.239999988582],"total_keys":1,"block":1,"trial":72,"stimulus":4,"robot":1,"valence":"win","action":"go","sham":0,"trial_type":"pit-trial","trial_index":107,"time_elapsed":714485,"internal_node_id":"0.0-79.0","task_version":"battery-v0.2-trt"},{"rune":"W","rune_set":"elianto","hex":"#f73b6a7A","correct":-1,"choice":32,"rt":624.3899999826681,"accuracy":0,"outcome":"-1","keys":[2125.2349999849685],"total_keys":1,"block":1,"trial":73,"stimulus":6,"robot":4,"valence":"lose","action":"no-go","sham":1,"trial_type":"pit-trial","trial_index":108,"time_elapsed":717815,"internal_node_id":"0.0-80.0","task_version":"battery-v0.2-trt"},{"rune":"K","rune_set":"elianto","hex":"#f73b6a7A","correct":32,"choice":32,"rt":665.9199999994598,"accuracy":1,"outcome":"-1","keys":[2166.989999997895],"total_keys":1,"block":1,"trial":74,"stimulus":8,"robot":3,"valence":"lose","action":"go","sham":0,"trial_type":"pit-trial","trial_index":109,"time_elapsed":721185,"internal_node_id":"0.0-81.0","task_version":"battery-v0.2-trt"},{"rune":"P","rune_set":"elianto","hex":"#3366ff99","correct":32,"choice":32,"rt":481.3999999896623,"accuracy":1,"outcome":"+10","keys":[1982.5549999950454],"total_keys":1,"block":1,"trial":75,"stimulus":4,"robot":1,"valence":"win","action":"go","sham":0,"trial_type":"pit-trial","trial_index":110,"time_elapsed":724372,"internal_node_id":"0.0-82.0","task_version":"battery-v0.2-trt"},{"rune":"E","rune_set":"elianto","hex":"#3366ff99","correct":-1,"choice":32,"rt":376.5549999952782,"accuracy":0,"outcome":"+1","keys":[1878.3750000002328],"total_keys":1,"block":1,"trial":76,"stimulus":7,"robot":2,"valence":"win","action":"no-go","sham":0,"trial_type":"pit-trial","trial_index":111,"time_elapsed":727457,"internal_node_id":"0.0-83.0","task_version":"battery-v0.2-trt"},{"rune":"K","rune_set":"elianto","hex":"#f73b6a7A","correct":32,"choice":32,"rt":661.6400000057183,"accuracy":1,"outcome":"-1","keys":[2162.060000002384],"total_keys":1,"block":1,"trial":77,"stimulus":8,"robot":3,"valence":"lose","action":"go","sham":0,"trial_type":"pit-trial","trial_index":112,"time_elapsed":730826,"internal_node_id":"0.0-84.0","task_version":"battery-v0.2-trt"},{"rune":"E","rune_set":"elianto","hex":"#3366ff99","correct":-1,"choice":32,"rt":345.64499999396503,"accuracy":0,"outcome":"+1","keys":[1846.2600000202656],"total_keys":1,"block":1,"trial":78,"stimulus":7,"robot":2,"valence":"win","action":"no-go","sham":0,"trial_type":"pit-trial","trial_index":113,"time_elapsed":733878,"internal_node_id":"0.0-85.0","task_version":"battery-v0.2-trt"},{"rune":"P","rune_set":"elianto","hex":"#3366ff99","correct":32,"choice":32,"rt":414.51500001130626,"accuracy":1,"outcome":"+10","keys":[1915.19500000868],"total_keys":1,"block":1,"trial":79,"stimulus":4,"robot":1,"valence":"win","action":"go","sham":0,"trial_type":"pit-trial","trial_index":114,"time_elapsed":736996,"internal_node_id":"0.0-86.0","task_version":"battery-v0.2-trt"},{"rune":"W","rune_set":"elianto","hex":"#f73b6a7A","correct":-1,"choice":32,"rt":504.15999998222105,"accuracy":0,"outcome":"-1","keys":[2004.6150000125635],"total_keys":1,"block":1,"trial":80,"stimulus":6,"robot":4,"valence":"lose","action":"no-go","sham":1,"trial_type":"pit-trial","trial_index":115,"time_elapsed":740205,"internal_node_id":"0.0-87.0","task_version":"battery-v0.2-trt"},{"rune":"W","rune_set":"elianto","hex":"#f73b6a7A","correct":-1,"choice":32,"rt":1261.274999997113,"accuracy":0,"outcome":"-10","keys":[2763.169999991078],"total_keys":1,"block":1,"trial":81,"stimulus":6,"robot":4,"valence":"lose","action":"no-go","sham":0,"trial_type":"pit-trial","trial_index":116,"time_elapsed":744174,"internal_node_id":"0.0-88.0","task_version":"battery-v0.2-trt"},{"rune":"K","rune_set":"elianto","hex":"#f73b6a7A","correct":32,"choice":32,"rt":905.0250000145752,"accuracy":1,"outcome":"-1","keys":[2405.5150000203867],"total_keys":1,"block":1,"trial":82,"stimulus":8,"robot":3,"valence":"lose","action":"go","sham":0,"trial_type":"pit-trial","trial_index":117,"time_elapsed":747784,"internal_node_id":"0.0-89.0","task_version":"battery-v0.2-trt"},{"rune":"E","rune_set":"elianto","hex":"#3366ff99","correct":-1,"choice":32,"rt":1133.4199999982957,"accuracy":0,"outcome":"+1","keys":[2633.594999992056],"total_keys":1,"block":1,"trial":83,"stimulus":7,"robot":2,"valence":"win","action":"no-go","sham":0,"trial_type":"pit-trial","trial_index":118,"time_elapsed":751621,"internal_node_id":"0.0-90.0","task_version":"battery-v0.2-trt"},{"rune":"D","rune_set":"elianto","hex":"#f73b6a7A","correct":32,"choice":-1,"rt":-1,"accuracy":0,"outcome":"-1","keys":[],"total_keys":0,"block":1,"trial":84,"stimulus":9,"robot":3,"valence":"lose","action":"go","sham":1,"trial_type":"pit-trial","trial_index":119,"time_elapsed":755626,"internal_node_id":"0.0-91.0","task_version":"battery-v0.2-trt"},{"rune":"W","rune_set":"elianto","hex":"#f73b6a7A","correct":-1,"choice":-1,"rt":-1,"accuracy":1,"outcome":"-1","keys":[2833.4699999832083],"total_keys":1,"block":1,"trial":85,"stimulus":6,"robot":4,"valence":"lose","action":"no-go","sham":0,"trial_type":"pit-trial","trial_index":120,"time_elapsed":759631,"internal_node_id":"0.0-92.0","task_version":"battery-v0.2-trt"},{"rune":"K","rune_set":"elianto","hex":"#f73b6a7A","correct":32,"choice":32,"rt":666.2200000137091,"accuracy":1,"outcome":"-1","keys":[2166.590000008],"total_keys":1,"block":1,"trial":86,"stimulus":8,"robot":3,"valence":"lose","action":"go","sham":0,"trial_type":"pit-trial","trial_index":121,"time_elapsed":763003,"internal_node_id":"0.0-93.0","task_version":"battery-v0.2-trt"},{"rune":"E","rune_set":"elianto","hex":"#3366ff99","correct":-1,"choice":32,"rt":507.5399999914225,"accuracy":0,"outcome":"+1","keys":[2008.7150000035763],"total_keys":1,"block":1,"trial":87,"stimulus":7,"robot":2,"valence":"win","action":"no-go","sham":0,"trial_type":"pit-trial","trial_index":122,"time_elapsed":766215,"internal_node_id":"0.0-94.0","task_version":"battery-v0.2-trt"},{"rune":"D","rune_set":"elianto","hex":"#f73b6a7A","correct":32,"choice":-1,"rt":-1,"accuracy":0,"outcome":"-10","keys":[],"total_keys":0,"block":1,"trial":88,"stimulus":9,"robot":3,"valence":"lose","action":"go","sham":0,"trial_type":"pit-trial","trial_index":123,"time_elapsed":770223,"internal_node_id":"0.0-95.0","task_version":"battery-v0.2-trt"},{"rune":"J","rune_set":"elianto","hex":"#f73b6a7A","correct":-1,"choice":32,"rt":686.8450000183657,"accuracy":0,"outcome":"-10","keys":[2187.680000002729],"total_keys":1,"block":1,"trial":89,"stimulus":10,"robot":4,"valence":"lose","action":"no-go","sham":0,"trial_type":"pit-trial","trial_index":124,"time_elapsed":773617,"internal_node_id":"0.0-96.0","task_version":"battery-v0.2-trt"},{"rune":"V","rune_set":"elianto","hex":"#3366ff99","correct":-1,"choice":32,"rt":757.3850000044331,"accuracy":0,"outcome":"+1","keys":[2258.850000012899],"total_keys":1,"block":1,"trial":90,"stimulus":11,"robot":2,"valence":"win","action":"no-go","sham":0,"trial_type":"pit-trial","trial_index":125,"time_elapsed":777081,"internal_node_id":"0.0-97.0","task_version":"battery-v0.2-trt"},{"rune":"D","rune_set":"elianto","hex":"#f73b6a7A","correct":32,"choice":-1,"rt":-1,"accuracy":0,"outcome":"-1","keys":[],"total_keys":0,"block":1,"trial":91,"stimulus":9,"robot":3,"valence":"lose","action":"go","sham":1,"trial_type":"pit-trial","trial_index":126,"time_elapsed":781086,"internal_node_id":"0.0-98.0","task_version":"battery-v0.2-trt"},{"rune":"K","rune_set":"elianto","hex":"#f73b6a7A","correct":32,"choice":32,"rt":752.0849999855272,"accuracy":1,"outcome":"-1","keys":[2252.1149999811314],"total_keys":1,"block":1,"trial":92,"stimulus":8,"robot":3,"valence":"lose","action":"go","sham":0,"trial_type":"pit-trial","trial_index":127,"time_elapsed":784542,"internal_node_id":"0.0-99.0","task_version":"battery-v0.2-trt"},{"rune":"K","rune_set":"elianto","hex":"#f73b6a7A","correct":32,"choice":-1,"rt":-1,"accuracy":0,"outcome":"-10","keys":[],"total_keys":0,"block":1,"trial":93,"stimulus":8,"robot":3,"valence":"lose","action":"go","sham":0,"trial_type":"pit-trial","trial_index":128,"time_elapsed":788547,"internal_node_id":"0.0-100.0","task_version":"battery-v0.2-trt"},{"rune":"J","rune_set":"elianto","hex":"#f73b6a7A","correct":-1,"choice":32,"rt":609.0049999766052,"accuracy":0,"outcome":"-10","keys":[2109.4649999868125],"total_keys":1,"block":1,"trial":94,"stimulus":10,"robot":4,"valence":"lose","action":"no-go","sham":0,"trial_type":"pit-trial","trial_index":129,"time_elapsed":791861,"internal_node_id":"0.0-101.0","task_version":"battery-v0.2-trt"},{"rune":"D","rune_set":"elianto","hex":"#f73b6a7A","correct":32,"choice":32,"rt":602.630000008503,"accuracy":1,"outcome":"-1","keys":[2103.004999982659],"total_keys":1,"block":1,"trial":95,"stimulus":9,"robot":3,"valence":"lose","action":"go","sham":0,"trial_type":"pit-trial","trial_index":130,"time_elapsed":795168,"internal_node_id":"0.0-102.0","task_version":"battery-v0.2-trt"},{"rune":"V","rune_set":"elianto","hex":"#3366ff99","correct":-1,"choice":32,"rt":823.7450000015087,"accuracy":0,"outcome":"+1","keys":[2325.024999998277],"total_keys":1,"block":1,"trial":96,"stimulus":11,"robot":2,"valence":"win","action":"no-go","sham":0,"trial_type":"pit-trial","trial_index":131,"time_elapsed":798700,"internal_node_id":"0.0-103.0","task_version":"battery-v0.2-trt"},{"rune":"K","rune_set":"elianto","hex":"#f73b6a7A","correct":32,"choice":-1,"rt":-1,"accuracy":0,"outcome":"-10","keys":[2820.9549999737646],"total_keys":1,"block":1,"trial":97,"stimulus":8,"robot":3,"valence":"lose","action":"go","sham":0,"trial_type":"pit-trial","trial_index":132,"time_elapsed":802705,"internal_node_id":"0.0-104.0","task_version":"battery-v0.2-trt"},{"rune":"J","rune_set":"elianto","hex":"#f73b6a7A","correct":-1,"choice":32,"rt":690.870000020368,"accuracy":0,"outcome":"-10","keys":[2191.2500000034925],"total_keys":1,"block":1,"trial":98,"stimulus":10,"robot":4,"valence":"lose","action":"no-go","sham":0,"trial_type":"pit-trial","trial_index":133,"time_elapsed":806100,"internal_node_id":"0.0-105.0","task_version":"battery-v0.2-trt"},{"rune":"D","rune_set":"elianto","hex":"#f73b6a7A","correct":32,"choice":-1,"rt":-1,"accuracy":0,"outcome":"-10","keys":[],"total_keys":0,"block":1,"trial":99,"stimulus":9,"robot":3,"valence":"lose","action":"go","sham":0,"trial_type":"pit-trial","trial_index":134,"time_elapsed":810104,"internal_node_id":"0.0-106.0","task_version":"battery-v0.2-trt"},{"rune":"V","rune_set":"elianto","hex":"#3366ff99","correct":-1,"choice":32,"rt":377.0949999743607,"accuracy":0,"outcome":"+1","keys":[1877.8450000099838],"total_keys":1,"block":1,"trial":100,"stimulus":11,"robot":2,"valence":"win","action":"no-go","sham":0,"trial_type":"pit-trial","trial_index":135,"time_elapsed":813185,"internal_node_id":"0.0-107.0","task_version":"battery-v0.2-trt"},{"rune":"D","rune_set":"elianto","hex":"#f73b6a7A","correct":32,"choice":32,"rt":427.15500001213513,"accuracy":1,"outcome":"-1","keys":[1927.6599999866448],"total_keys":1,"block":1,"trial":101,"stimulus":9,"robot":3,"valence":"lose","action":"go","sham":0,"trial_type":"pit-trial","trial_index":136,"time_elapsed":816319,"internal_node_id":"0.0-108.0","task_version":"battery-v0.2-trt"},{"rune":"V","rune_set":"elianto","hex":"#3366ff99","correct":-1,"choice":32,"rt":359.79499999666587,"accuracy":0,"outcome":"+1","keys":[1860.3450000227895],"total_keys":1,"block":1,"trial":102,"stimulus":11,"robot":2,"valence":"win","action":"no-go","sham":0,"trial_type":"pit-trial","trial_index":137,"time_elapsed":819387,"internal_node_id":"0.0-109.0","task_version":"battery-v0.2-trt"},{"rune":"J","rune_set":"elianto","hex":"#f73b6a7A","correct":-1,"choice":-1,"rt":-1,"accuracy":1,"outcome":"-1","keys":[],"total_keys":0,"block":1,"trial":103,"stimulus":10,"robot":4,"valence":"lose","action":"no-go","sham":0,"trial_type":"pit-trial","trial_index":138,"time_elapsed":823392,"internal_node_id":"0.0-110.0","task_version":"battery-v0.2-trt"},{"rune":"K","rune_set":"elianto","hex":"#f73b6a7A","correct":32,"choice":32,"rt":463.1599999847822,"accuracy":1,"outcome":"-10","keys":[1963.595000008354],"total_keys":1,"block":1,"trial":104,"stimulus":8,"robot":3,"valence":"lose","action":"go","sham":1,"trial_type":"pit-trial","trial_index":139,"time_elapsed":826561,"internal_node_id":"0.0-111.0","task_version":"battery-v0.2-trt"},{"rune":"D","rune_set":"elianto","hex":"#f73b6a7A","correct":32,"choice":32,"rt":461.81999999680556,"accuracy":1,"outcome":"-1","keys":[1961.9949999905657],"total_keys":1,"block":1,"trial":105,"stimulus":9,"robot":3,"valence":"lose","action":"go","sham":0,"trial_type":"pit-trial","trial_index":140,"time_elapsed":829727,"internal_node_id":"0.0-112.0","task_version":"battery-v0.2-trt"},{"rune":"V","rune_set":"elianto","hex":"#3366ff99","correct":-1,"choice":32,"rt":1030.2099999971688,"accuracy":0,"outcome":"+1","keys":[2530.8599999989383],"total_keys":1,"block":1,"trial":106,"stimulus":11,"robot":2,"valence":"win","action":"no-go","sham":0,"trial_type":"pit-trial","trial_index":141,"time_elapsed":833463,"internal_node_id":"0.0-113.0","task_version":"battery-v0.2-trt"},{"rune":"J","rune_set":"elianto","hex":"#f73b6a7A","correct":-1,"choice":32,"rt":1088.3800000010524,"accuracy":0,"outcome":"-10","keys":[2589.319999999134],"total_keys":1,"block":1,"trial":107,"stimulus":10,"robot":4,"valence":"lose","action":"no-go","sham":0,"trial_type":"pit-trial","trial_index":142,"time_elapsed":837258,"internal_node_id":"0.0-114.0","task_version":"battery-v0.2-trt"},{"rune":"K","rune_set":"elianto","hex":"#f73b6a7A","correct":32,"choice":32,"rt":702.1150000218768,"accuracy":1,"outcome":"-1","keys":[2202.4249999958556],"total_keys":1,"block":1,"trial":108,"stimulus":8,"robot":3,"valence":"lose","action":"go","sham":0,"trial_type":"pit-trial","trial_index":143,"time_elapsed":840666,"internal_node_id":"0.0-115.0","task_version":"battery-v0.2-trt"},{"rune":"K","rune_set":"elianto","hex":"#f73b6a7A","correct":32,"choice":32,"rt":201.9950000103563,"accuracy":1,"outcome":"-1","keys":[1702.8700000082608],"total_keys":1,"block":1,"trial":109,"stimulus":8,"robot":3,"valence":"lose","action":"go","sham":0,"trial_type":"pit-trial","trial_index":144,"time_elapsed":843575,"internal_node_id":"0.0-116.0","task_version":"battery-v0.2-trt"},{"rune":"J","rune_set":"elianto","hex":"#f73b6a7A","correct":-1,"choice":32,"rt":925.8949999930337,"accuracy":0,"outcome":"-10","keys":[2426.7650000110734],"total_keys":1,"block":1,"trial":110,"stimulus":10,"robot":4,"valence":"lose","action":"no-go","sham":0,"trial_type":"pit-trial","trial_index":145,"time_elapsed":847208,"internal_node_id":"0.0-117.0","task_version":"battery-v0.2-trt"},{"rune":"V","rune_set":"elianto","hex":"#3366ff99","correct":-1,"choice":32,"rt":887.9350000061095,"accuracy":0,"outcome":"+1","keys":[2388.570000010077],"total_keys":1,"block":1,"trial":111,"stimulus":11,"robot":2,"valence":"win","action":"no-go","sham":0,"trial_type":"pit-trial","trial_index":146,"time_elapsed":850802,"internal_node_id":"0.0-118.0","task_version":"battery-v0.2-trt"},{"rune":"D","rune_set":"elianto","hex":"#f73b6a7A","correct":32,"choice":32,"rt":745.6750000128523,"accuracy":1,"outcome":"-1","keys":[2246.1049999983516],"total_keys":1,"block":1,"trial":112,"stimulus":9,"robot":3,"valence":"lose","action":"go","sham":0,"trial_type":"pit-trial","trial_index":147,"time_elapsed":854251,"internal_node_id":"0.0-119.0","task_version":"battery-v0.2-trt"},{"rune":"K","rune_set":"elianto","hex":"#f73b6a7A","correct":32,"choice":32,"rt":598.7949999980628,"accuracy":1,"outcome":"-1","keys":[2099.8900000122376],"total_keys":1,"block":1,"trial":113,"stimulus":8,"robot":3,"valence":"lose","action":"go","sham":0,"trial_type":"pit-trial","trial_index":148,"time_elapsed":857556,"internal_node_id":"0.0-120.0","task_version":"battery-v0.2-trt"},{"rune":"J","rune_set":"elianto","hex":"#f73b6a7A","correct":-1,"choice":-1,"rt":-1,"accuracy":1,"outcome":"-1","keys":[],"total_keys":0,"block":1,"trial":114,"stimulus":10,"robot":4,"valence":"lose","action":"no-go","sham":0,"trial_type":"pit-trial","trial_index":149,"time_elapsed":861561,"internal_node_id":"0.0-121.0","task_version":"battery-v0.2-trt"},{"rune":"V","rune_set":"elianto","hex":"#3366ff99","correct":-1,"choice":-1,"rt":-1,"accuracy":1,"outcome":"+1","keys":[],"total_keys":0,"block":1,"trial":115,"stimulus":11,"robot":2,"valence":"win","action":"no-go","sham":1,"trial_type":"pit-trial","trial_index":150,"time_elapsed":865566,"internal_node_id":"0.0-122.0","task_version":"battery-v0.2-trt"},{"rune":"D","rune_set":"elianto","hex":"#f73b6a7A","correct":32,"choice":32,"rt":685.864999977639,"accuracy":1,"outcome":"-10","keys":[2185.910000000149],"total_keys":1,"block":1,"trial":116,"stimulus":9,"robot":3,"valence":"lose","action":"go","sham":1,"trial_type":"pit-trial","trial_index":151,"time_elapsed":868955,"internal_node_id":"0.0-123.0","task_version":"battery-v0.2-trt"},{"rune":"V","rune_set":"elianto","hex":"#3366ff99","correct":-1,"choice":32,"rt":155.47500000684522,"accuracy":0,"outcome":"+1","keys":[1656.2549999798648],"total_keys":1,"block":1,"trial":117,"stimulus":11,"robot":2,"valence":"win","action":"no-go","sham":0,"trial_type":"pit-trial","trial_index":152,"time_elapsed":871817,"internal_node_id":"0.0-124.0","task_version":"battery-v0.2-trt"},{"rune":"D","rune_set":"elianto","hex":"#f73b6a7A","correct":32,"choice":32,"rt":1001.4399999927264,"accuracy":1,"outcome":"-1","keys":[2501.829999993788],"total_keys":1,"block":1,"trial":118,"stimulus":9,"robot":3,"valence":"lose","action":"go","sham":0,"trial_type":"pit-trial","trial_index":153,"time_elapsed":875525,"internal_node_id":"0.0-125.0","task_version":"battery-v0.2-trt"},{"rune":"J","rune_set":"elianto","hex":"#f73b6a7A","correct":-1,"choice":-1,"rt":-1,"accuracy":1,"outcome":"-1","keys":[],"total_keys":0,"block":1,"trial":119,"stimulus":10,"robot":4,"valence":"lose","action":"no-go","sham":0,"trial_type":"pit-trial","trial_index":154,"time_elapsed":879530,"internal_node_id":"0.0-126.0","task_version":"battery-v0.2-trt"},{"rune":"K","rune_set":"elianto","hex":"#f73b6a7A","correct":32,"choice":32,"rt":677.3600000014994,"accuracy":1,"outcome":"-1","keys":[2177.399999985937],"total_keys":1,"block":1,"trial":120,"stimulus":8,"robot":3,"valence":"lose","action":"go","sham":0,"trial_type":"pit-trial","trial_index":155,"time_elapsed":882913,"internal_node_id":"0.0-127.0","task_version":"battery-v0.2-trt"},{"view_history":"[{\"page_index\":0,\"viewing_time\":125054.78499998571},{\"page_index\":1,\"viewing_time\":8249.510000023292}]","rt":133304.7249999945,"trial_type":"pit-instructions","trial_index":156,"time_elapsed":1016219,"internal_node_id":"0.0-128.0","task_version":"battery-v0.2-trt"},{"rune":"X","rune_set":"elianto","hex":"#3366ff99","correct":-1,"choice":32,"rt":745.230000000447,"accuracy":0,"outcome":"+10","keys":[2245.0299999909475],"total_keys":1,"block":2,"trial":121,"stimulus":3,"robot":2,"valence":"win","action":"no-go","sham":1,"trial_type":"pit-trial","trial_index":157,"time_elapsed":1019670,"internal_node_id":"0.0-129.0","task_version":"battery-v0.2-trt"},{"rune":"N","rune_set":"elianto","hex":"#f73b6a7A","correct":-1,"choice":32,"rt":576.614999998128,"accuracy":0,"outcome":"-10","keys":[2077.1650000242516],"total_keys":1,"block":2,"trial":122,"stimulus":1,"robot":4,"valence":"lose","action":"no-go","sham":0,"trial_type":"pit-trial","trial_index":158,"time_elapsed":1022951,"internal_node_id":"0.0-130.0","task_version":"battery-v0.2-trt"},{"rune":"Q","rune_set":"elianto","hex":"#f73b6a7A","correct":-1,"choice":32,"rt":762.9099999903701,"accuracy":0,"outcome":"-1","keys":[2263.1950000068173],"total_keys":1,"block":2,"trial":123,"stimulus":0,"robot":4,"valence":"lose","action":"no-go","sham":1,"trial_type":"pit-trial","trial_index":159,"time_elapsed":1026417,"internal_node_id":"0.0-131.0","task_version":"battery-v0.2-trt"},{"rune":"F","rune_set":"elianto","hex":"#3366ff99","correct":32,"choice":32,"rt":518.9249999821186,"accuracy":1,"outcome":"+10","keys":[2019.1549999872223],"total_keys":1,"block":2,"trial":124,"stimulus":2,"robot":1,"valence":"win","action":"go","sham":0,"trial_type":"pit-trial","trial_index":160,"time_elapsed":1029639,"internal_node_id":"0.0-132.0","task_version":"battery-v0.2-trt"},{"rune":"Q","rune_set":"elianto","hex":"#f73b6a7A","correct":-1,"choice":-1,"rt":-1,"accuracy":1,"outcome":"-1","keys":[],"total_keys":0,"block":2,"trial":125,"stimulus":0,"robot":4,"valence":"lose","action":"no-go","sham":0,"trial_type":"pit-trial","trial_index":161,"time_elapsed":1033645,"internal_node_id":"0.0-133.0","task_version":"battery-v0.2-trt"},{"rune":"N","rune_set":"elianto","hex":"#f73b6a7A","correct":-1,"choice":-1,"rt":-1,"accuracy":1,"outcome":"-1","keys":[2803.2900000107475],"total_keys":1,"block":2,"trial":126,"stimulus":1,"robot":4,"valence":"lose","action":"no-go","sham":0,"trial_type":"pit-trial","trial_index":162,"time_elapsed":1037651,"internal_node_id":"0.0-134.0","task_version":"battery-v0.2-trt"},{"rune":"X","rune_set":"elianto","hex":"#3366ff99","correct":-1,"choice":32,"rt":511.8899999943096,"accuracy":0,"outcome":"+1","keys":[2012.6500000187661],"total_keys":1,"block":2,"trial":127,"stimulus":3,"robot":2,"valence":"win","action":"no-go","sham":0,"trial_type":"pit-trial","trial_index":163,"time_elapsed":1040869,"internal_node_id":"0.0-135.0","task_version":"battery-v0.2-trt"},{"rune":"F","rune_set":"elianto","hex":"#3366ff99","correct":32,"choice":32,"rt":556.509999994887,"accuracy":1,"outcome":"+10","keys":[2056.8999999959487],"total_keys":1,"block":2,"trial":128,"stimulus":2,"robot":1,"valence":"win","action":"go","sham":0,"trial_type":"pit-trial","trial_index":164,"time_elapsed":1044131,"internal_node_id":"0.0-136.0","task_version":"battery-v0.2-trt"},{"rune":"F","rune_set":"elianto","hex":"#3366ff99","correct":32,"choice":32,"rt":319.1299999889452,"accuracy":1,"outcome":"+10","keys":[1820.4050000058487],"total_keys":1,"block":2,"trial":129,"stimulus":2,"robot":1,"valence":"win","action":"go","sham":0,"trial_type":"pit-trial","trial_index":165,"time_elapsed":1047156,"internal_node_id":"0.0-137.0","task_version":"battery-v0.2-trt"},{"rune":"Q","rune_set":"elianto","hex":"#f73b6a7A","correct":-1,"choice":32,"rt":154.47999999742024,"accuracy":0,"outcome":"-10","keys":[1655.6599999894388],"total_keys":1,"block":2,"trial":130,"stimulus":0,"robot":4,"valence":"lose","action":"no-go","sham":0,"trial_type":"pit-trial","trial_index":166,"time_elapsed":1050017,"internal_node_id":"0.0-138.0","task_version":"battery-v0.2-trt"},{"rune":"X","rune_set":"elianto","hex":"#3366ff99","correct":-1,"choice":32,"rt":378.26999998651445,"accuracy":0,"outcome":"+1","keys":[1878.7750000192318],"total_keys":1,"block":2,"trial":131,"stimulus":3,"robot":2,"valence":"win","action":"no-go","sham":0,"trial_type":"pit-trial","trial_index":167,"time_elapsed":1053100,"internal_node_id":"0.0-139.0","task_version":"battery-v0.2-trt"},{"rune":"N","rune_set":"elianto","hex":"#f73b6a7A","correct":-1,"choice":32,"rt":788.5900000110269,"accuracy":0,"outcome":"-10","keys":[2289.019999996526],"total_keys":1,"block":2,"trial":132,"stimulus":1,"robot":4,"valence":"lose","action":"no-go","sham":0,"trial_type":"pit-trial","trial_index":168,"time_elapsed":1056592,"internal_node_id":"0.0-140.0","task_version":"battery-v0.2-trt"},{"rune":"X","rune_set":"elianto","hex":"#3366ff99","correct":-1,"choice":32,"rt":410.94499998143874,"accuracy":0,"outcome":"+1","keys":[1912.769999995362],"total_keys":1,"block":2,"trial":133,"stimulus":3,"robot":2,"valence":"win","action":"no-go","sham":0,"trial_type":"pit-trial","trial_index":169,"time_elapsed":1059712,"internal_node_id":"0.0-141.0","task_version":"battery-v0.2-trt"},{"rune":"F","rune_set":"elianto","hex":"#3366ff99","correct":32,"choice":32,"rt":538.3049999945797,"accuracy":1,"outcome":"+10","keys":[2040.0399999925867],"total_keys":1,"block":2,"trial":134,"stimulus":2,"robot":1,"valence":"win","action":"go","sham":0,"trial_type":"pit-trial","trial_index":170,"time_elapsed":1062957,"internal_node_id":"0.0-142.0","task_version":"battery-v0.2-trt"},{"rune":"Q","rune_set":"elianto","hex":"#f73b6a7A","correct":-1,"choice":-1,"rt":-1,"accuracy":1,"outcome":"-1","keys":[],"total_keys":0,"block":2,"trial":135,"stimulus":0,"robot":4,"valence":"lose","action":"no-go","sham":0,"trial_type":"pit-trial","trial_index":171,"time_elapsed":1066961,"internal_node_id":"0.0-143.0","task_version":"battery-v0.2-trt"},{"rune":"N","rune_set":"elianto","hex":"#f73b6a7A","correct":-1,"choice":32,"rt":628.4749999758787,"accuracy":0,"outcome":"-1","keys":[2129.3149999983143],"total_keys":1,"block":2,"trial":136,"stimulus":1,"robot":4,"valence":"lose","action":"no-go","sham":1,"trial_type":"pit-trial","trial_index":172,"time_elapsed":1070293,"internal_node_id":"0.0-144.0","task_version":"battery-v0.2-trt"},{"rune":"F","rune_set":"elianto","hex":"#3366ff99","correct":32,"choice":32,"rt":556.8600000115111,"accuracy":1,"outcome":"+10","keys":[2057.230000005802],"total_keys":1,"block":2,"trial":137,"stimulus":2,"robot":1,"valence":"win","action":"go","sham":0,"trial_type":"pit-trial","trial_index":173,"time_elapsed":1073554,"internal_node_id":"0.0-145.0","task_version":"battery-v0.2-trt"},{"rune":"Q","rune_set":"elianto","hex":"#f73b6a7A","correct":-1,"choice":-1,"rt":-1,"accuracy":1,"outcome":"-10","keys":[],"total_keys":0,"block":2,"trial":138,"stimulus":0,"robot":4,"valence":"lose","action":"no-go","sham":1,"trial_type":"pit-trial","trial_index":174,"time_elapsed":1077561,"internal_node_id":"0.0-146.0","task_version":"battery-v0.2-trt"},{"rune":"X","rune_set":"elianto","hex":"#3366ff99","correct":-1,"choice":32,"rt":342.0849999820348,"accuracy":0,"outcome":"+1","keys":[1842.4899999808986],"total_keys":1,"block":2,"trial":139,"stimulus":3,"robot":2,"valence":"win","action":"no-go","sham":0,"trial_type":"pit-trial","trial_index":175,"time_elapsed":1080607,"internal_node_id":"0.0-147.0","task_version":"battery-v0.2-trt"},{"rune":"N","rune_set":"elianto","hex":"#f73b6a7A","correct":-1,"choice":32,"rt":717.8550000244286,"accuracy":0,"outcome":"-10","keys":[2218.7899999844376],"total_keys":1,"block":2,"trial":140,"stimulus":1,"robot":4,"valence":"lose","action":"no-go","sham":0,"trial_type":"pit-trial","trial_index":176,"time_elapsed":1084032,"internal_node_id":"0.0-148.0","task_version":"battery-v0.2-trt"},{"rune":"F","rune_set":"elianto","hex":"#3366ff99","correct":32,"choice":32,"rt":383.6099999898579,"accuracy":1,"outcome":"+10","keys":[1884.8799999977928],"total_keys":1,"block":2,"trial":141,"stimulus":2,"robot":1,"valence":"win","action":"go","sham":0,"trial_type":"pit-trial","trial_index":177,"time_elapsed":1087120,"internal_node_id":"0.0-149.0","task_version":"battery-v0.2-trt"},{"rune":"N","rune_set":"elianto","hex":"#f73b6a7A","correct":-1,"choice":-1,"rt":-1,"accuracy":1,"outcome":"-1","keys":[],"total_keys":0,"block":2,"trial":142,"stimulus":1,"robot":4,"valence":"lose","action":"no-go","sham":0,"trial_type":"pit-trial","trial_index":178,"time_elapsed":1091127,"internal_node_id":"0.0-150.0","task_version":"battery-v0.2-trt"},{"rune":"X","rune_set":"elianto","hex":"#3366ff99","correct":-1,"choice":32,"rt":39.09499998553656,"accuracy":0,"outcome":"+1","keys":[1540.4050000070129],"total_keys":1,"block":2,"trial":143,"stimulus":3,"robot":2,"valence":"win","action":"no-go","sham":0,"trial_type":"pit-trial","trial_index":179,"time_elapsed":1093871,"internal_node_id":"0.0-151.0","task_version":"battery-v0.2-trt"},{"rune":"Q","rune_set":"elianto","hex":"#f73b6a7A","correct":-1,"choice":-1,"rt":-1,"accuracy":1,"outcome":"-1","keys":[],"total_keys":0,"block":2,"trial":144,"stimulus":0,"robot":4,"valence":"lose","action":"no-go","sham":0,"trial_type":"pit-trial","trial_index":180,"time_elapsed":1097879,"internal_node_id":"0.0-152.0","task_version":"battery-v0.2-trt"},{"rune":"Q","rune_set":"elianto","hex":"#f73b6a7A","correct":-1,"choice":32,"rt":627.6249999937136,"accuracy":0,"outcome":"-10","keys":[2128.070000006119],"total_keys":1,"block":2,"trial":145,"stimulus":0,"robot":4,"valence":"lose","action":"no-go","sham":0,"trial_type":"pit-trial","trial_index":181,"time_elapsed":1101213,"internal_node_id":"0.0-153.0","task_version":"battery-v0.2-trt"},{"rune":"F","rune_set":"elianto","hex":"#3366ff99","correct":32,"choice":32,"rt":582.2249999910127,"accuracy":1,"outcome":"+10","keys":[2082.5199999962933],"total_keys":1,"block":2,"trial":146,"stimulus":2,"robot":1,"valence":"win","action":"go","sham":0,"trial_type":"pit-trial","trial_index":182,"time_elapsed":1104503,"internal_node_id":"0.0-154.0","task_version":"battery-v0.2-trt"},{"rune":"N","rune_set":"elianto","hex":"#f73b6a7A","correct":-1,"choice":32,"rt":710.0749999808613,"accuracy":0,"outcome":"-10","keys":[2211.2149999884423],"total_keys":1,"block":2,"trial":147,"stimulus":1,"robot":4,"valence":"lose","action":"no-go","sham":0,"trial_type":"pit-trial","trial_index":183,"time_elapsed":1107927,"internal_node_id":"0.0-155.0","task_version":"battery-v0.2-trt"},{"rune":"X","rune_set":"elianto","hex":"#3366ff99","correct":-1,"choice":32,"rt":351.7500000016298,"accuracy":0,"outcome":"+1","keys":[1852.1699999982957],"total_keys":1,"block":2,"trial":148,"stimulus":3,"robot":2,"valence":"win","action":"no-go","sham":0,"trial_type":"pit-trial","trial_index":184,"time_elapsed":1110984,"internal_node_id":"0.0-156.0","task_version":"battery-v0.2-trt"},{"rune":"X","rune_set":"elianto","hex":"#3366ff99","correct":-1,"choice":-1,"rt":-1,"accuracy":1,"outcome":"+10","keys":[],"total_keys":0,"block":2,"trial":149,"stimulus":3,"robot":2,"valence":"win","action":"no-go","sham":0,"trial_type":"pit-trial","trial_index":185,"time_elapsed":1114988,"internal_node_id":"0.0-157.0","task_version":"battery-v0.2-trt"},{"rune":"F","rune_set":"elianto","hex":"#3366ff99","correct":32,"choice":32,"rt":484.5800000184681,"accuracy":1,"outcome":"+10","keys":[1984.9349999858532],"total_keys":1,"block":2,"trial":150,"stimulus":2,"robot":1,"valence":"win","action":"go","sham":0,"trial_type":"pit-trial","trial_index":186,"time_elapsed":1118177,"internal_node_id":"0.0-158.0","task_version":"battery-v0.2-trt"},{"rune":"N","rune_set":"elianto","hex":"#f73b6a7A","correct":-1,"choice":-1,"rt":-1,"accuracy":1,"outcome":"-1","keys":[2813.945000001695],"total_keys":1,"block":2,"trial":151,"stimulus":1,"robot":4,"valence":"lose","action":"no-go","sham":0,"trial_type":"pit-trial","trial_index":187,"time_elapsed":1122184,"internal_node_id":"0.0-159.0","task_version":"battery-v0.2-trt"},{"rune":"Q","rune_set":"elianto","hex":"#f73b6a7A","correct":-1,"choice":32,"rt":1192.06000000122,"accuracy":0,"outcome":"-10","keys":[2692.2150000173133],"total_keys":1,"block":2,"trial":152,"stimulus":0,"robot":4,"valence":"lose","action":"no-go","sham":0,"trial_type":"pit-trial","trial_index":188,"time_elapsed":1126080,"internal_node_id":"0.0-160.0","task_version":"battery-v0.2-trt"},{"rune":"X","rune_set":"elianto","hex":"#3366ff99","correct":-1,"choice":32,"rt":641.4149999909569,"accuracy":0,"outcome":"+1","keys":[2142.330000002403],"total_keys":1,"block":2,"trial":153,"stimulus":3,"robot":2,"valence":"win","action":"no-go","sham":0,"trial_type":"pit-trial","trial_index":189,"time_elapsed":1129426,"internal_node_id":"0.0-161.0","task_version":"battery-v0.2-trt"},{"rune":"F","rune_set":"elianto","hex":"#3366ff99","correct":32,"choice":32,"rt":754.0750000043772,"accuracy":1,"outcome":"+1","keys":[2254.2800000228453],"total_keys":1,"block":2,"trial":154,"stimulus":2,"robot":1,"valence":"win","action":"go","sham":1,"trial_type":"pit-trial","trial_index":190,"time_elapsed":1132885,"internal_node_id":"0.0-162.0","task_version":"battery-v0.2-trt"},{"rune":"T","rune_set":"elianto","hex":"#f73b6a7A","correct":32,"choice":32,"rt":840.9099999989849,"accuracy":1,"outcome":"-1","keys":[2342.7650000085123],"total_keys":1,"block":2,"trial":155,"stimulus":4,"robot":3,"valence":"lose","action":"go","sham":0,"trial_type":"pit-trial","trial_index":191,"time_elapsed":1136435,"internal_node_id":"0.0-163.0","task_version":"battery-v0.2-trt"},{"rune":"Q","rune_set":"elianto","hex":"#f73b6a7A","correct":-1,"choice":32,"rt":864.0599999926053,"accuracy":0,"outcome":"-10","keys":[2364.370000024792],"total_keys":1,"block":2,"trial":156,"stimulus":0,"robot":4,"valence":"lose","action":"no-go","sham":0,"trial_type":"pit-trial","trial_index":192,"time_elapsed":1140003,"internal_node_id":"0.0-164.0","task_version":"battery-v0.2-trt"},{"rune":"X","rune_set":"elianto","hex":"#3366ff99","correct":-1,"choice":-1,"rt":-1,"accuracy":1,"outcome":"+10","keys":[],"total_keys":0,"block":2,"trial":157,"stimulus":3,"robot":2,"valence":"win","action":"no-go","sham":0,"trial_type":"pit-trial","trial_index":193,"time_elapsed":1144008,"internal_node_id":"0.0-165.0","task_version":"battery-v0.2-trt"},{"rune":"F","rune_set":"elianto","hex":"#3366ff99","correct":32,"choice":32,"rt":653.470000019297,"accuracy":1,"outcome":"+1","keys":[2153.5149999835994],"total_keys":1,"block":2,"trial":158,"stimulus":2,"robot":1,"valence":"win","action":"go","sham":1,"trial_type":"pit-trial","trial_index":194,"time_elapsed":1147366,"internal_node_id":"0.0-166.0","task_version":"battery-v0.2-trt"},{"rune":"Q","rune_set":"elianto","hex":"#f73b6a7A","correct":-1,"choice":-1,"rt":-1,"accuracy":1,"outcome":"-1","keys":[],"total_keys":0,"block":2,"trial":159,"stimulus":0,"robot":4,"valence":"lose","action":"no-go","sham":0,"trial_type":"pit-trial","trial_index":195,"time_elapsed":1151373,"internal_node_id":"0.0-167.0","task_version":"battery-v0.2-trt"},{"rune":"T","rune_set":"elianto","hex":"#f73b6a7A","correct":32,"choice":32,"rt":1252.279999986058,"accuracy":1,"outcome":"-1","keys":[2752.999999996973],"total_keys":1,"block":2,"trial":160,"stimulus":4,"robot":3,"valence":"lose","action":"go","sham":0,"trial_type":"pit-trial","trial_index":196,"time_elapsed":1155332,"internal_node_id":"0.0-168.0","task_version":"battery-v0.2-trt"},{"rune":"Q","rune_set":"elianto","hex":"#f73b6a7A","correct":-1,"choice":-1,"rt":-1,"accuracy":1,"outcome":"-1","keys":[],"total_keys":0,"block":2,"trial":161,"stimulus":0,"robot":4,"valence":"lose","action":"no-go","sham":0,"trial_type":"pit-trial","trial_index":197,"time_elapsed":1159335,"internal_node_id":"0.0-169.0","task_version":"battery-v0.2-trt"},{"rune":"B","rune_set":"elianto","hex":"#3366ff99","correct":-1,"choice":32,"rt":697.4000000045635,"accuracy":0,"outcome":"+1","keys":[2198.899999988498],"total_keys":1,"block":2,"trial":162,"stimulus":5,"robot":2,"valence":"win","action":"no-go","sham":0,"trial_type":"pit-trial","trial_index":198,"time_elapsed":1162737,"internal_node_id":"0.0-170.0","task_version":"battery-v0.2-trt"},{"rune":"C","rune_set":"elianto","hex":"#3366ff99","correct":32,"choice":32,"rt":1155.510000011418,"accuracy":1,"outcome":"+10","keys":[2656.0199999948964],"total_keys":1,"block":2,"trial":163,"stimulus":6,"robot":1,"valence":"win","action":"go","sham":0,"trial_type":"pit-trial","trial_index":199,"time_elapsed":1166599,"internal_node_id":"0.0-171.0","task_version":"battery-v0.2-trt"},{"rune":"T","rune_set":"elianto","hex":"#f73b6a7A","correct":32,"choice":-1,"rt":-1,"accuracy":0,"outcome":"-10","keys":[],"total_keys":0,"block":2,"trial":164,"stimulus":4,"robot":3,"valence":"lose","action":"go","sham":0,"trial_type":"pit-trial","trial_index":200,"time_elapsed":1170607,"internal_node_id":"0.0-172.0","task_version":"battery-v0.2-trt"},{"rune":"Q","rune_set":"elianto","hex":"#f73b6a7A","correct":-1,"choice":-1,"rt":-1,"accuracy":1,"outcome":"-10","keys":[],"total_keys":0,"block":2,"trial":165,"stimulus":0,"robot":4,"valence":"lose","action":"no-go","sham":1,"trial_type":"pit-trial","trial_index":201,"time_elapsed":1174615,"internal_node_id":"0.0-173.0","task_version":"battery-v0.2-trt"},{"rune":"T","rune_set":"elianto","hex":"#f73b6a7A","correct":32,"choice":32,"rt":539.1999999992549,"accuracy":1,"outcome":"-10","keys":[2040.8799999859184],"total_keys":1,"block":2,"trial":166,"stimulus":4,"robot":3,"valence":"lose","action":"go","sham":1,"trial_type":"pit-trial","trial_index":202,"time_elapsed":1177861,"internal_node_id":"0.0-174.0","task_version":"battery-v0.2-trt"},{"rune":"C","rune_set":"elianto","hex":"#3366ff99","correct":32,"choice":32,"rt":669.0349999989849,"accuracy":1,"outcome":"+10","keys":[2169.900000008056],"total_keys":1,"block":2,"trial":167,"stimulus":6,"robot":1,"valence":"win","action":"go","sham":0,"trial_type":"pit-trial","trial_index":203,"time_elapsed":1181236,"internal_node_id":"0.0-175.0","task_version":"battery-v0.2-trt"},{"rune":"B","rune_set":"elianto","hex":"#3366ff99","correct":-1,"choice":32,"rt":900.0799999921583,"accuracy":0,"outcome":"+1","keys":[2400.584999995772],"total_keys":1,"block":2,"trial":168,"stimulus":5,"robot":2,"valence":"win","action":"no-go","sham":0,"trial_type":"pit-trial","trial_index":204,"time_elapsed":1184843,"internal_node_id":"0.0-176.0","task_version":"battery-v0.2-trt"},{"rune":"T","rune_set":"elianto","hex":"#f73b6a7A","correct":32,"choice":32,"rt":915.099999983795,"accuracy":1,"outcome":"-10","keys":[2415.659999998752],"total_keys":1,"block":2,"trial":169,"stimulus":4,"robot":3,"valence":"lose","action":"go","sham":1,"trial_type":"pit-trial","trial_index":205,"time_elapsed":1188464,"internal_node_id":"0.0-177.0","task_version":"battery-v0.2-trt"},{"rune":"C","rune_set":"elianto","hex":"#3366ff99","correct":32,"choice":-1,"rt":-1,"accuracy":0,"outcome":"+1","keys":[2898.394999996526],"total_keys":1,"block":2,"trial":170,"stimulus":6,"robot":1,"valence":"win","action":"go","sham":0,"trial_type":"pit-trial","trial_index":206,"time_elapsed":1192469,"internal_node_id":"0.0-178.0","task_version":"battery-v0.2-trt"},{"rune":"B","rune_set":"elianto","hex":"#3366ff99","correct":-1,"choice":32,"rt":608.60499998671,"accuracy":0,"outcome":"+10","keys":[2109.6200000029057],"total_keys":1,"block":2,"trial":171,"stimulus":5,"robot":2,"valence":"win","action":"no-go","sham":1,"trial_type":"pit-trial","trial_index":207,"time_elapsed":1195784,"internal_node_id":"0.0-179.0","task_version":"battery-v0.2-trt"},{"rune":"Z","rune_set":"elianto","hex":"#f73b6a7A","correct":-1,"choice":32,"rt":850.0599999970291,"accuracy":0,"outcome":"-10","keys":[2350.449999998091],"total_keys":1,"block":2,"trial":172,"stimulus":7,"robot":4,"valence":"lose","action":"no-go","sham":0,"trial_type":"pit-trial","trial_index":208,"time_elapsed":1199339,"internal_node_id":"0.0-180.0","task_version":"battery-v0.2-trt"},{"rune":"Z","rune_set":"elianto","hex":"#f73b6a7A","correct":-1,"choice":32,"rt":666.0799999954179,"accuracy":0,"outcome":"-10","keys":[2167.874999984633],"total_keys":1,"block":2,"trial":173,"stimulus":7,"robot":4,"valence":"lose","action":"no-go","sham":0,"trial_type":"pit-trial","trial_index":209,"time_elapsed":1202711,"internal_node_id":"0.0-181.0","task_version":"battery-v0.2-trt"},{"rune":"B","rune_set":"elianto","hex":"#3366ff99","correct":-1,"choice":32,"rt":460.0800000189338,"accuracy":0,"outcome":"+1","keys":[1960.094999987632],"total_keys":1,"block":2,"trial":174,"stimulus":5,"robot":2,"valence":"win","action":"no-go","sham":0,"trial_type":"pit-trial","trial_index":210,"time_elapsed":1205875,"internal_node_id":"0.0-182.0","task_version":"battery-v0.2-trt"},{"rune":"T","rune_set":"elianto","hex":"#f73b6a7A","correct":32,"choice":-1,"rt":-1,"accuracy":0,"outcome":"-10","keys":[],"total_keys":0,"block":2,"trial":175,"stimulus":4,"robot":3,"valence":"lose","action":"go","sham":0,"trial_type":"pit-trial","trial_index":211,"time_elapsed":1209881,"internal_node_id":"0.0-183.0","task_version":"battery-v0.2-trt"},{"rune":"C","rune_set":"elianto","hex":"#3366ff99","correct":32,"choice":32,"rt":621.0699999937788,"accuracy":1,"outcome":"+10","keys":[2122.0200000097975],"total_keys":1,"block":2,"trial":176,"stimulus":6,"robot":1,"valence":"win","action":"go","sham":0,"trial_type":"pit-trial","trial_index":212,"time_elapsed":1213207,"internal_node_id":"0.0-184.0","task_version":"battery-v0.2-trt"},{"rune":"B","rune_set":"elianto","hex":"#3366ff99","correct":-1,"choice":32,"rt":512.3949999979232,"accuracy":0,"outcome":"+1","keys":[2013.3700000005774],"total_keys":1,"block":2,"trial":177,"stimulus":5,"robot":2,"valence":"win","action":"no-go","sham":0,"trial_type":"pit-trial","trial_index":213,"time_elapsed":1216424,"internal_node_id":"0.0-185.0","task_version":"battery-v0.2-trt"},{"rune":"Z","rune_set":"elianto","hex":"#f73b6a7A","correct":-1,"choice":32,"rt":1027.9049999953713,"accuracy":0,"outcome":"-10","keys":[2529.340000008233],"total_keys":1,"block":2,"trial":178,"stimulus":7,"robot":4,"valence":"lose","action":"no-go","sham":0,"trial_type":"pit-trial","trial_index":214,"time_elapsed":1220157,"internal_node_id":"0.0-186.0","task_version":"battery-v0.2-trt"},{"rune":"T","rune_set":"elianto","hex":"#f73b6a7A","correct":32,"choice":-1,"rt":-1,"accuracy":0,"outcome":"-10","keys":[2816.9050000142306],"total_keys":1,"block":2,"trial":179,"stimulus":4,"robot":3,"valence":"lose","action":"go","sham":0,"trial_type":"pit-trial","trial_index":215,"time_elapsed":1224160,"internal_node_id":"0.0-187.0","task_version":"battery-v0.2-trt"},{"rune":"C","rune_set":"elianto","hex":"#3366ff99","correct":32,"choice":32,"rt":1148.1799999892246,"accuracy":1,"outcome":"+10","keys":[2650.1050000078976],"total_keys":1,"block":2,"trial":180,"stimulus":6,"robot":1,"valence":"win","action":"go","sham":0,"trial_type":"pit-trial","trial_index":216,"time_elapsed":1228013,"internal_node_id":"0.0-188.0","task_version":"battery-v0.2-trt"},{"rune":"C","rune_set":"elianto","hex":"#3366ff99","correct":32,"choice":32,"rt":653.2899999874644,"accuracy":1,"outcome":"+10","keys":[2153.3000000054017],"total_keys":1,"block":2,"trial":181,"stimulus":6,"robot":1,"valence":"win","action":"go","sham":0,"trial_type":"pit-trial","trial_index":217,"time_elapsed":1231369,"internal_node_id":"0.0-189.0","task_version":"battery-v0.2-trt"},{"rune":"T","rune_set":"elianto","hex":"#f73b6a7A","correct":32,"choice":-1,"rt":-1,"accuracy":0,"outcome":"-10","keys":[3091.0749999748077],"total_keys":1,"block":2,"trial":182,"stimulus":4,"robot":3,"valence":"lose","action":"go","sham":0,"trial_type":"pit-trial","trial_index":218,"time_elapsed":1235377,"internal_node_id":"0.0-190.0","task_version":"battery-v0.2-trt"},{"rune":"Z","rune_set":"elianto","hex":"#f73b6a7A","correct":-1,"choice":-1,"rt":-1,"accuracy":1,"outcome":"-1","keys":[],"total_keys":0,"block":2,"trial":183,"stimulus":7,"robot":4,"valence":"lose","action":"no-go","sham":0,"trial_type":"pit-trial","trial_index":219,"time_elapsed":1239384,"internal_node_id":"0.0-191.0","task_version":"battery-v0.2-trt"},{"rune":"B","rune_set":"elianto","hex":"#3366ff99","correct":-1,"choice":32,"rt":120.07499998435378,"accuracy":0,"outcome":"+1","keys":[1621.1650000186637],"total_keys":1,"block":2,"trial":184,"stimulus":5,"robot":2,"valence":"win","action":"no-go","sham":0,"trial_type":"pit-trial","trial_index":220,"time_elapsed":1242212,"internal_node_id":"0.0-192.0","task_version":"battery-v0.2-trt"},{"rune":"Z","rune_set":"elianto","hex":"#f73b6a7A","correct":-1,"choice":32,"rt":1060.2450000005774,"accuracy":0,"outcome":"-10","keys":[2561.50000001071],"total_keys":1,"block":2,"trial":185,"stimulus":7,"robot":4,"valence":"lose","action":"no-go","sham":0,"trial_type":"pit-trial","trial_index":221,"time_elapsed":1245978,"internal_node_id":"0.0-193.0","task_version":"battery-v0.2-trt"},{"rune":"B","rune_set":"elianto","hex":"#3366ff99","correct":-1,"choice":32,"rt":638.5899999877438,"accuracy":0,"outcome":"+1","keys":[2139.610000012908],"total_keys":1,"block":2,"trial":186,"stimulus":5,"robot":2,"valence":"win","action":"no-go","sham":0,"trial_type":"pit-trial","trial_index":222,"time_elapsed":1249321,"internal_node_id":"0.0-194.0","task_version":"battery-v0.2-trt"},{"rune":"T","rune_set":"elianto","hex":"#f73b6a7A","correct":32,"choice":32,"rt":687.8250000008848,"accuracy":1,"outcome":"-1","keys":[2188.6499999964144],"total_keys":1,"block":2,"trial":187,"stimulus":4,"robot":3,"valence":"lose","action":"go","sham":0,"trial_type":"pit-trial","trial_index":223,"time_elapsed":1252714,"internal_node_id":"0.0-195.0","task_version":"battery-v0.2-trt"},{"rune":"C","rune_set":"elianto","hex":"#3366ff99","correct":32,"choice":32,"rt":249.66000000131316,"accuracy":1,"outcome":"+10","keys":[1750.610000017332],"total_keys":1,"block":2,"trial":188,"stimulus":6,"robot":1,"valence":"win","action":"go","sham":0,"trial_type":"pit-trial","trial_index":224,"time_elapsed":1255671,"internal_node_id":"0.0-196.0","task_version":"battery-v0.2-trt"},{"rune":"T","rune_set":"elianto","hex":"#f73b6a7A","correct":32,"choice":-1,"rt":-1,"accuracy":0,"outcome":"-10","keys":[],"total_keys":0,"block":2,"trial":189,"stimulus":4,"robot":3,"valence":"lose","action":"go","sham":0,"trial_type":"pit-trial","trial_index":225,"time_elapsed":1259677,"internal_node_id":"0.0-197.0","task_version":"battery-v0.2-trt"},{"rune":"C","rune_set":"elianto","hex":"#3366ff99","correct":32,"choice":32,"rt":377.3850000288803,"accuracy":1,"outcome":"+10","keys":[1877.9100000101607],"total_keys":1,"block":2,"trial":190,"stimulus":6,"robot":1,"valence":"win","action":"go","sham":0,"trial_type":"pit-trial","trial_index":226,"time_elapsed":1262759,"internal_node_id":"0.0-198.0","task_version":"battery-v0.2-trt"},{"rune":"Z","rune_set":"elianto","hex":"#f73b6a7A","correct":-1,"choice":32,"rt":1149.234999989858,"accuracy":0,"outcome":"-10","keys":[2650.0900000100955],"total_keys":1,"block":2,"trial":191,"stimulus":7,"robot":4,"valence":"lose","action":"no-go","sham":0,"trial_type":"pit-trial","trial_index":227,"time_elapsed":1266614,"internal_node_id":"0.0-199.0","task_version":"battery-v0.2-trt"},{"rune":"B","rune_set":"elianto","hex":"#3366ff99","correct":-1,"choice":-1,"rt":-1,"accuracy":1,"outcome":"+10","keys":[],"total_keys":0,"block":2,"trial":192,"stimulus":5,"robot":2,"valence":"win","action":"no-go","sham":0,"trial_type":"pit-trial","trial_index":228,"time_elapsed":1270619,"internal_node_id":"0.0-200.0","task_version":"battery-v0.2-trt"},{"rune":"Y","rune_set":"elianto","hex":"#f73b6a7A","correct":32,"choice":-1,"rt":-1,"accuracy":0,"outcome":"-10","keys":[],"total_keys":0,"block":2,"trial":193,"stimulus":9,"robot":3,"valence":"lose","action":"go","sham":0,"trial_type":"pit-trial","trial_index":229,"time_elapsed":1274622,"internal_node_id":"0.0-201.0","task_version":"battery-v0.2-trt"},{"rune":"H","rune_set":"elianto","hex":"#3366ff99","correct":32,"choice":32,"rt":654.6000000089407,"accuracy":1,"outcome":"+10","keys":[2155.605000007199],"total_keys":1,"block":2,"trial":194,"stimulus":8,"robot":1,"valence":"win","action":"go","sham":0,"trial_type":"pit-trial","trial_index":230,"time_elapsed":1277981,"internal_node_id":"0.0-202.0","task_version":"battery-v0.2-trt"},{"rune":"B","rune_set":"elianto","hex":"#3366ff99","correct":-1,"choice":32,"rt":704.3849999899976,"accuracy":0,"outcome":"+1","keys":[2204.8199999844655],"total_keys":1,"block":2,"trial":195,"stimulus":5,"robot":2,"valence":"win","action":"no-go","sham":0,"trial_type":"pit-trial","trial_index":231,"time_elapsed":1281390,"internal_node_id":"0.0-203.0","task_version":"battery-v0.2-trt"},{"rune":"Z","rune_set":"elianto","hex":"#f73b6a7A","correct":-1,"choice":-1,"rt":-1,"accuracy":1,"outcome":"-1","keys":[],"total_keys":0,"block":2,"trial":196,"stimulus":7,"robot":4,"valence":"lose","action":"no-go","sham":0,"trial_type":"pit-trial","trial_index":232,"time_elapsed":1285394,"internal_node_id":"0.0-204.0","task_version":"battery-v0.2-trt"},{"rune":"H","rune_set":"elianto","hex":"#3366ff99","correct":32,"choice":32,"rt":334.83999999589287,"accuracy":1,"outcome":"+1","keys":[1835.4600000020582],"total_keys":1,"block":2,"trial":197,"stimulus":8,"robot":1,"valence":"win","action":"go","sham":1,"trial_type":"pit-trial","trial_index":233,"time_elapsed":1288434,"internal_node_id":"0.0-205.0","task_version":"battery-v0.2-trt"},{"rune":"Y","rune_set":"elianto","hex":"#f73b6a7A","correct":32,"choice":32,"rt":1178.87500001234,"accuracy":1,"outcome":"-1","keys":[2678.879999992205],"total_keys":1,"block":2,"trial":198,"stimulus":9,"robot":3,"valence":"lose","action":"go","sham":0,"trial_type":"pit-trial","trial_index":234,"time_elapsed":1292318,"internal_node_id":"0.0-206.0","task_version":"battery-v0.2-trt"},{"rune":"Z","rune_set":"elianto","hex":"#f73b6a7A","correct":-1,"choice":-1,"rt":-1,"accuracy":1,"outcome":"-10","keys":[],"total_keys":0,"block":2,"trial":199,"stimulus":7,"robot":4,"valence":"lose","action":"no-go","sham":1,"trial_type":"pit-trial","trial_index":235,"time_elapsed":1296323,"internal_node_id":"0.0-207.0","task_version":"battery-v0.2-trt"},{"rune":"B","rune_set":"elianto","hex":"#3366ff99","correct":-1,"choice":32,"rt":361.6850000107661,"accuracy":0,"outcome":"+10","keys":[1861.9699999981094],"total_keys":1,"block":2,"trial":200,"stimulus":5,"robot":2,"valence":"win","action":"no-go","sham":1,"trial_type":"pit-trial","trial_index":236,"time_elapsed":1299390,"internal_node_id":"0.0-208.0","task_version":"battery-v0.2-trt"},{"rune":"H","rune_set":"elianto","hex":"#3366ff99","correct":32,"choice":32,"rt":641.39500001329,"accuracy":1,"outcome":"+1","keys":[2142.1899999841116],"total_keys":1,"block":2,"trial":201,"stimulus":8,"robot":1,"valence":"win","action":"go","sham":1,"trial_type":"pit-trial","trial_index":237,"time_elapsed":1302735,"internal_node_id":"0.0-209.0","task_version":"battery-v0.2-trt"},{"rune":"Z","rune_set":"elianto","hex":"#f73b6a7A","correct":-1,"choice":-1,"rt":-1,"accuracy":1,"outcome":"-10","keys":[],"total_keys":0,"block":2,"trial":202,"stimulus":7,"robot":4,"valence":"lose","action":"no-go","sham":1,"trial_type":"pit-trial","trial_index":238,"time_elapsed":1306739,"internal_node_id":"0.0-210.0","task_version":"battery-v0.2-trt"},{"rune":"B","rune_set":"elianto","hex":"#3366ff99","correct":-1,"choice":32,"rt":386.0500000009779,"accuracy":0,"outcome":"+1","keys":[1886.6550000093412],"total_keys":1,"block":2,"trial":203,"stimulus":5,"robot":2,"valence":"win","action":"no-go","sham":0,"trial_type":"pit-trial","trial_index":239,"time_elapsed":1309832,"internal_node_id":"0.0-211.0","task_version":"battery-v0.2-trt"},{"rune":"Y","rune_set":"elianto","hex":"#f73b6a7A","correct":32,"choice":32,"rt":490.1900000113528,"accuracy":1,"outcome":"-1","keys":[1990.6900000059977],"total_keys":1,"block":2,"trial":204,"stimulus":9,"robot":3,"valence":"lose","action":"go","sham":0,"trial_type":"pit-trial","trial_index":240,"time_elapsed":1313026,"internal_node_id":"0.0-212.0","task_version":"battery-v0.2-trt"},{"rune":"Y","rune_set":"elianto","hex":"#f73b6a7A","correct":32,"choice":32,"rt":333.65499999490567,"accuracy":1,"outcome":"-1","keys":[1834.5850000041537],"total_keys":1,"block":2,"trial":205,"stimulus":9,"robot":3,"valence":"lose","action":"go","sham":0,"trial_type":"pit-trial","trial_index":241,"time_elapsed":1316064,"internal_node_id":"0.0-213.0","task_version":"battery-v0.2-trt"},{"rune":"H","rune_set":"elianto","hex":"#3366ff99","correct":32,"choice":32,"rt":449.0349999978207,"accuracy":1,"outcome":"+10","keys":[1950.329999992391],"total_keys":1,"block":2,"trial":206,"stimulus":8,"robot":1,"valence":"win","action":"go","sham":0,"trial_type":"pit-trial","trial_index":242,"time_elapsed":1319216,"internal_node_id":"0.0-214.0","task_version":"battery-v0.2-trt"},{"rune":"Z","rune_set":"elianto","hex":"#f73b6a7A","correct":-1,"choice":32,"rt":1119.6499999787193,"accuracy":0,"outcome":"-10","keys":[2620.034999999916],"total_keys":1,"block":2,"trial":207,"stimulus":7,"robot":4,"valence":"lose","action":"no-go","sham":0,"trial_type":"pit-trial","trial_index":243,"time_elapsed":1323041,"internal_node_id":"0.0-215.0","task_version":"battery-v0.2-trt"},{"rune":"B","rune_set":"elianto","hex":"#3366ff99","correct":-1,"choice":32,"rt":386.9399999966845,"accuracy":0,"outcome":"+1","keys":[1887.4150000046939],"total_keys":1,"block":2,"trial":208,"stimulus":5,"robot":2,"valence":"win","action":"no-go","sham":0,"trial_type":"pit-trial","trial_index":244,"time_elapsed":1326136,"internal_node_id":"0.0-216.0","task_version":"battery-v0.2-trt"},{"rune":"H","rune_set":"elianto","hex":"#3366ff99","correct":32,"choice":32,"rt":878.7000000011176,"accuracy":1,"outcome":"+10","keys":[2378.999999986263],"total_keys":1,"block":2,"trial":209,"stimulus":8,"robot":1,"valence":"win","action":"go","sham":0,"trial_type":"pit-trial","trial_index":245,"time_elapsed":1329720,"internal_node_id":"0.0-217.0","task_version":"battery-v0.2-trt"},{"rune":"M","rune_set":"elianto","hex":"#3366ff99","correct":-1,"choice":-1,"rt":-1,"accuracy":1,"outcome":"+1","keys":[2818.619999976363],"total_keys":1,"block":2,"trial":210,"stimulus":11,"robot":2,"valence":"win","action":"no-go","sham":1,"trial_type":"pit-trial","trial_index":246,"time_elapsed":1333726,"internal_node_id":"0.0-218.0","task_version":"battery-v0.2-trt"},{"rune":"R","rune_set":"elianto","hex":"#f73b6a7A","correct":32,"choice":32,"rt":627.8849999944214,"accuracy":1,"outcome":"-1","keys":[2128.9899999974295],"total_keys":1,"block":2,"trial":211,"stimulus":10,"robot":3,"valence":"lose","action":"go","sham":0,"trial_type":"pit-trial","trial_index":247,"time_elapsed":1337059,"internal_node_id":"0.0-219.0","task_version":"battery-v0.2-trt"},{"rune":"Y","rune_set":"elianto","hex":"#f73b6a7A","correct":32,"choice":32,"rt":572.9350000037812,"accuracy":1,"outcome":"-10","keys":[2073.2950000092387],"total_keys":1,"block":2,"trial":212,"stimulus":9,"robot":3,"valence":"lose","action":"go","sham":1,"trial_type":"pit-trial","trial_index":248,"time_elapsed":1340337,"internal_node_id":"0.0-220.0","task_version":"battery-v0.2-trt"},{"rune":"H","rune_set":"elianto","hex":"#3366ff99","correct":32,"choice":32,"rt":285.0699999835342,"accuracy":1,"outcome":"+10","keys":[1785.1249999948777],"total_keys":1,"block":2,"trial":213,"stimulus":8,"robot":1,"valence":"win","action":"go","sham":0,"trial_type":"pit-trial","trial_index":249,"time_elapsed":1343329,"internal_node_id":"0.0-221.0","task_version":"battery-v0.2-trt"},{"rune":"Y","rune_set":"elianto","hex":"#f73b6a7A","correct":32,"choice":32,"rt":352.3750000167638,"accuracy":1,"outcome":"-10","keys":[1853.8550000230316],"total_keys":1,"block":2,"trial":214,"stimulus":9,"robot":3,"valence":"lose","action":"go","sham":1,"trial_type":"pit-trial","trial_index":250,"time_elapsed":1346388,"internal_node_id":"0.0-222.0","task_version":"battery-v0.2-trt"},{"rune":"R","rune_set":"elianto","hex":"#f73b6a7A","correct":32,"choice":32,"rt":534.1349999944214,"accuracy":1,"outcome":"-1","keys":[2034.5499999821186],"total_keys":1,"block":2,"trial":215,"stimulus":10,"robot":3,"valence":"lose","action":"go","sham":0,"trial_type":"pit-trial","trial_index":251,"time_elapsed":1349630,"internal_node_id":"0.0-223.0","task_version":"battery-v0.2-trt"},{"rune":"M","rune_set":"elianto","hex":"#3366ff99","correct":-1,"choice":32,"rt":1221.3749999937136,"accuracy":0,"outcome":"+1","keys":[2722.094999975525],"total_keys":1,"block":2,"trial":216,"stimulus":11,"robot":2,"valence":"win","action":"no-go","sham":0,"trial_type":"pit-trial","trial_index":252,"time_elapsed":1353557,"internal_node_id":"0.0-224.0","task_version":"battery-v0.2-trt"},{"rune":"Y","rune_set":"elianto","hex":"#f73b6a7A","correct":32,"choice":32,"rt":233.31499999039806,"accuracy":1,"outcome":"-1","keys":[1734.7049999807496],"total_keys":1,"block":2,"trial":217,"stimulus":9,"robot":3,"valence":"lose","action":"go","sham":0,"trial_type":"pit-trial","trial_index":253,"time_elapsed":1356496,"internal_node_id":"0.0-225.0","task_version":"battery-v0.2-trt"},{"rune":"M","rune_set":"elianto","hex":"#3366ff99","correct":-1,"choice":32,"rt":476.0800000221934,"accuracy":0,"outcome":"+1","keys":[1977.4599999946076],"total_keys":1,"block":2,"trial":218,"stimulus":11,"robot":2,"valence":"win","action":"no-go","sham":0,"trial_type":"pit-trial","trial_index":254,"time_elapsed":1359680,"internal_node_id":"0.0-226.0","task_version":"battery-v0.2-trt"},{"rune":"R","rune_set":"elianto","hex":"#f73b6a7A","correct":32,"choice":32,"rt":986.6599999950267,"accuracy":1,"outcome":"-1","keys":[2487.314999976661],"total_keys":1,"block":2,"trial":219,"stimulus":10,"robot":3,"valence":"lose","action":"go","sham":0,"trial_type":"pit-trial","trial_index":255,"time_elapsed":1363375,"internal_node_id":"0.0-227.0","task_version":"battery-v0.2-trt"},{"rune":"H","rune_set":"elianto","hex":"#3366ff99","correct":32,"choice":32,"rt":431.43500000587665,"accuracy":1,"outcome":"+1","keys":[1932.7349999803118],"total_keys":1,"block":2,"trial":220,"stimulus":8,"robot":1,"valence":"win","action":"go","sham":1,"trial_type":"pit-trial","trial_index":256,"time_elapsed":1366511,"internal_node_id":"0.0-228.0","task_version":"battery-v0.2-trt"},{"rune":"R","rune_set":"elianto","hex":"#f73b6a7A","correct":32,"choice":32,"rt":426.97999998927116,"accuracy":1,"outcome":"-1","keys":[1928.155000001425],"total_keys":1,"block":2,"trial":221,"stimulus":10,"robot":3,"valence":"lose","action":"go","sham":0,"trial_type":"pit-trial","trial_index":257,"time_elapsed":1369643,"internal_node_id":"0.0-229.0","task_version":"battery-v0.2-trt"},{"rune":"Y","rune_set":"elianto","hex":"#f73b6a7A","correct":32,"choice":32,"rt":477.14999999152496,"accuracy":1,"outcome":"-1","keys":[1978.8249999983236],"total_keys":1,"block":2,"trial":222,"stimulus":9,"robot":3,"valence":"lose","action":"go","sham":0,"trial_type":"pit-trial","trial_index":258,"time_elapsed":1372826,"internal_node_id":"0.0-230.0","task_version":"battery-v0.2-trt"},{"rune":"H","rune_set":"elianto","hex":"#3366ff99","correct":32,"choice":32,"rt":181.77500000456348,"accuracy":1,"outcome":"+10","keys":[1683.374999993248],"total_keys":1,"block":2,"trial":223,"stimulus":8,"robot":1,"valence":"win","action":"go","sham":0,"trial_type":"pit-trial","trial_index":259,"time_elapsed":1375714,"internal_node_id":"0.0-231.0","task_version":"battery-v0.2-trt"},{"rune":"M","rune_set":"elianto","hex":"#3366ff99","correct":-1,"choice":32,"rt":195.73000000673346,"accuracy":0,"outcome":"+1","keys":[1196.8049999850336,1696.6449999890756],"total_keys":2,"block":2,"trial":224,"stimulus":11,"robot":2,"valence":"win","action":"no-go","sham":0,"trial_type":"pit-trial","trial_index":260,"time_elapsed":1378616,"internal_node_id":"0.0-232.0","task_version":"battery-v0.2-trt"},{"rune":"H","rune_set":"elianto","hex":"#3366ff99","correct":32,"choice":32,"rt":480.6500000122469,"accuracy":1,"outcome":"+10","keys":[1981.0649999999441],"total_keys":1,"block":2,"trial":225,"stimulus":8,"robot":1,"valence":"win","action":"go","sham":0,"trial_type":"pit-trial","trial_index":261,"time_elapsed":1381805,"internal_node_id":"0.0-233.0","task_version":"battery-v0.2-trt"},{"rune":"Y","rune_set":"elianto","hex":"#f73b6a7A","correct":32,"choice":-1,"rt":-1,"accuracy":0,"outcome":"-1","keys":[],"total_keys":0,"block":2,"trial":226,"stimulus":9,"robot":3,"valence":"lose","action":"go","sham":1,"trial_type":"pit-trial","trial_index":262,"time_elapsed":1385811,"internal_node_id":"0.0-234.0","task_version":"battery-v0.2-trt"},{"rune":"R","rune_set":"elianto","hex":"#f73b6a7A","correct":32,"choice":32,"rt":30.440000002272427,"accuracy":1,"outcome":"-10","keys":[1532.1750000002794],"total_keys":1,"block":2,"trial":227,"stimulus":10,"robot":3,"valence":"lose","action":"go","sham":1,"trial_type":"pit-trial","trial_index":263,"time_elapsed":1388548,"internal_node_id":"0.0-235.0","task_version":"battery-v0.2-trt"},{"rune":"M","rune_set":"elianto","hex":"#3366ff99","correct":-1,"choice":32,"rt":314.58499998552725,"accuracy":0,"outcome":"+1","keys":[1345.130000001518,1815.3549999988172],"total_keys":2,"block":2,"trial":228,"stimulus":11,"robot":2,"valence":"win","action":"no-go","sham":0,"trial_type":"pit-trial","trial_index":264,"time_elapse