[{"view_history":"[{\"page_index\":0,\"viewing_time\":1084.7850001882762}]","rt":1085.0550001487136,"trial_type":"instructions","trial_index":0,"time_elapsed":1090,"internal_node_id":"0.0-0.0","task_version":"battery-v0.2-trt"},{"slider_type":"valence","raw_loc":572,"loc":0.644,"trial_type":"affective-slider","trial_index":1,"time_elapsed":6845,"internal_node_id":"0.0-1.0","task_version":"battery-v0.2-trt"},{"responses":{"Q12":"1","Q02":"2","Q13":"0","Q09":"1","Q08":"2","Q01":"2","Q06":"3","Q05":"3","Q04":"2","Q03":"2","Q10":"2","Q11":"1","Q07":"3"},"rt":16257.259999867529,"item_order":[11,1,12,8,7,0,5,4,3,2,9,10,6],"radio_events":[2010.8950000721961,3104.6750000678003,3741.8750000651926,4138.340000063181,5186.689999885857,5729.8649998847395,6483.319999882951,7189.879999961704,7555.454999906942,7717.260000063106,8082.8249999322,8238.29000000842,8647.899999981746,8938.629999989644,9116.875000065193,9347.889999859035,9666.354999877512,9930.74500001967,10262.824999867007,10629.23499988392,10957.08499988541,11342.130000004545,11688.859999878332,12031.049999874085,12492.159999907017,14269.869999960065,14439.800000051036,14614.665000000969],"key_events":[3104.6750000678003,3741.8750000651926,4138.340000063181,5186.689999885857,5729.8649998847395,6483.319999882951,7189.879999961704,7555.454999906942,7717.260000063106,8082.8249999322,8238.29000000842,8647.899999981746,8938.629999989644,9116.875000065193,9347.889999859035,9666.354999877512,9930.74500001967,10262.824999867007,10629.23499988392,10957.08499988541,11342.130000004545,11688.859999878332,12031.049999874085,12492.159999907017,14269.869999960065,14439.800000051036,14614.665000000969],"mouse_events":[2010.8950000721961,16253.83000005968],"straightlining":0.46153846153846156,"zigzagging":0.5,"survey":"bisbas","trial_type":"survey-template","trial_index":2,"time_elapsed":23106,"internal_node_id":"0.0-2.0","task_version":"battery-v0.2-trt","infrequency":0},{"responses":{"Q01":"0","Q08":"0","Q02":"0","Q07":"0","Q04":"0","Q03":"0","Q06":"0","Q05":"0"},"rt":8801.604999927804,"item_order":[0,7,1,6,3,2,5,4],"radio_events":[2202.620000112802,3218.0250000674278,3976.6500000841916,4089.580000145361,5170.845000073314,5255.499999970198,5535.305000143126,5605.519999982789,5861.440000124276,5908.245000056922,6120.46999996528,6178.2299999613315,6845.209999941289,6911.300000036135,7113.430000143126,7184.529999969527],"key_events":[3218.0250000674278,3976.6500000841916,4089.580000145361,5170.845000073314,5255.499999970198,5535.305000143126,5605.519999982789,5861.440000124276,5908.245000056922,6120.46999996528,6178.2299999613315,6845.209999941289,6911.300000036135,7113.430000143126,7184.529999969527],"mouse_events":[2202.620000112802,8800.594999920577],"straightlining":1,"zigzagging":0,"survey":"gad7","trial_type":"survey-template","trial_index":3,"time_elapsed":31913,"internal_node_id":"0.0-3.0","task_version":"battery-v0.2-trt","infrequency":0},{"responses":{"Q06":"0","Q03":"0","Q04":"0","Q07":"0","Q01":"0","Q08":"3","Q05":"0","Q02":"0"},"rt":8313.154999865219,"item_order":[5,2,3,6,0,7,4,1],"radio_events":[1861.3849999383092,1947.3699999507517,2399.439999833703,2473.3699997887015,2761.5999998524785,2821.464999811724,3079.694999847561,3117.7599998191,3345.624999841675,3415.664999978617,3672.8699998930097,3725.7449999451637,4758.784999838099,4944.714999990538,5121.7749998904765,5736.439999891445,5824.909999966621,6343.604999827221,6408.419999992475],"key_events":[1861.3849999383092,1947.3699999507517,2399.439999833703,2473.3699997887015,2761.5999998524785,2821.464999811724,3079.694999847561,3117.7599998191,3345.624999841675,3415.664999978617,3672.8699998930097,3725.7449999451637,4758.784999838099,4944.714999990538,5121.7749998904765,5736.439999891445,5824.909999966621,6343.604999827221,6408.419999992475],"mouse_events":[714.7899998817593,8311.684999847785],"straightlining":0.875,"zigzagging":0.2857142857142857,"survey":"dass_d","trial_type":"survey-template","trial_index":4,"time_elapsed":40232,"internal_node_id":"0.0-4.0","task_version":"battery-v0.2-trt","infrequency":0.5},{"value":[0.5,2.3365384615384617,0.7857142857142857],"trial_type":"call-function","trial_index":5,"time_elapsed":40235,"internal_node_id":"0.0-5.0","task_version":"battery-v0.2-trt"},{"view_history":"[{\"page_index\":0,\"viewing_time\":12644.120000069961},{\"page_index\":1,\"viewing_time\":1121.0499999579042},{\"page_index\":2,\"viewing_time\":1844.0700001083314},{\"page_index\":3,\"viewing_time\":2514.604999916628},{\"page_index\":4,\"viewing_time\":14762.965000001714},{\"page_index\":5,\"viewing_time\":3746.915000025183},{\"page_index\":6,\"viewing_time\":1372.2049999050796},{\"page_index\":7,\"viewing_time\":14687.614999944344},{\"page_index\":8,\"viewing_time\":1313.255000161007},{\"page_index\":9,\"viewing_time\":1234.554999973625}]","rt":55241.76500015892,"trial_type":"pit-instructions","trial_index":6,"time_elapsed":95480,"internal_node_id":"0.0-6.0-0.0","task_version":"battery-v0.2-trt"},{"rune":"1","rune_set":"elianto","hex":"#3366ff99","correct":32,"choice":32,"rt":814.4499999471009,"accuracy":1,"outcome":"+10","keys":[2315.699999919161],"total_keys":1,"block":0,"practice":1,"trial_type":"pit-trial","trial_index":7,"time_elapsed":99000,"internal_node_id":"0.0-6.0-1.0-0.0","task_version":"battery-v0.2-trt"},{"rune":"1","rune_set":"elianto","hex":"#3366ff99","correct":32,"choice":32,"rt":610.5949999764562,"accuracy":1,"outcome":"+10","keys":[2111.6649999748915],"total_keys":1,"block":0,"practice":1,"trial_type":"pit-trial","trial_index":8,"time_elapsed":102316,"internal_node_id":"0.0-6.0-1.1-0.1","task_version":"battery-v0.2-trt"},{"rune":"1","rune_set":"elianto","hex":"#3366ff99","correct":32,"choice":-1,"rt":-1,"accuracy":0,"outcome":"+1","keys":[3595.2200000174344],"total_keys":1,"block":0,"practice":1,"trial_type":"pit-trial","trial_index":9,"time_elapsed":106321,"internal_node_id":"0.0-6.0-1.2-0.2","task_version":"battery-v0.2-trt"},{"rune":"1","rune_set":"elianto","hex":"#3366ff99","correct":32,"choice":32,"rt":927.2249999921769,"accuracy":1,"outcome":"+10","keys":[2428.444999968633],"total_keys":1,"block":0,"practice":1,"trial_type":"pit-trial","trial_index":10,"time_elapsed":109956,"internal_node_id":"0.0-6.0-1.3-0.3","task_version":"battery-v0.2-trt"},{"rune":"1","rune_set":"elianto","hex":"#3366ff99","correct":32,"choice":-1,"rt":-1,"accuracy":0,"outcome":"+1","keys":[],"total_keys":0,"block":0,"practice":1,"trial_type":"pit-trial","trial_index":11,"time_elapsed":113964,"internal_node_id":"0.0-6.0-1.4-0.4","task_version":"battery-v0.2-trt"},{"rune":"1","rune_set":"elianto","hex":"#3366ff99","correct":32,"choice":32,"rt":582.2699998971075,"accuracy":1,"outcome":"+10","keys":[2083.145000040531],"total_keys":1,"block":0,"practice":1,"trial_type":"pit-trial","trial_index":12,"time_elapsed":117251,"internal_node_id":"0.0-6.0-1.5-0.5","task_version":"battery-v0.2-trt"},{"rune":"1","rune_set":"elianto","hex":"#3366ff99","correct":32,"choice":-1,"rt":-1,"accuracy":0,"outcome":"+1","keys":[],"total_keys":0,"block":0,"practice":1,"trial_type":"pit-trial","trial_index":13,"time_elapsed":121256,"internal_node_id":"0.0-6.0-1.6-0.6","task_version":"battery-v0.2-trt"},{"rune":"1","rune_set":"elianto","hex":"#3366ff99","correct":32,"choice":32,"rt":319.565000012517,"accuracy":1,"outcome":"+10","keys":[1819.9400000739843],"total_keys":1,"block":0,"practice":1,"trial_type":"pit-trial","trial_index":14,"time_elapsed":124281,"internal_node_id":"0.0-6.0-1.7-0.7","task_version":"battery-v0.2-trt"},{"rune":"1","rune_set":"elianto","hex":"#3366ff99","correct":32,"choice":32,"rt":932.4499999638647,"accuracy":1,"outcome":"+10","keys":[2433.449999894947],"total_keys":1,"block":0,"practice":1,"trial_type":"pit-trial","trial_index":15,"time_elapsed":127919,"internal_node_id":"0.0-6.0-1.8-0.8","task_version":"battery-v0.2-trt"},{"rune":"1","rune_set":"elianto","hex":"#3366ff99","correct":32,"choice":32,"rt":655.6850001215935,"accuracy":1,"outcome":"+10","keys":[2156.375000020489],"total_keys":1,"block":0,"practice":1,"trial_type":"pit-trial","trial_index":16,"time_elapsed":131280,"internal_node_id":"0.0-6.0-1.9-0.9","task_version":"battery-v0.2-trt"},{"trial_type":"call-function","trial_index":17,"time_elapsed":131284,"internal_node_id":"0.0-6.0-2.0","task_version":"battery-v0.2-trt"},{"view_history":"[{\"page_index\":0,\"viewing_time\":5728.750000009313},{\"page_index\":1,\"viewing_time\":144.9450000654906}]","rt":5874.034999869764,"trial_type":"pit-instructions","trial_index":18,"time_elapsed":137159,"internal_node_id":"0.0-6.0-3.0","task_version":"battery-v0.2-trt"},{"rune":"2","rune_set":"elianto","hex":"#3366ff99","correct":-1,"choice":-1,"rt":-1,"accuracy":1,"outcome":"+10","keys":[1453.4149998798966],"total_keys":1,"block":0,"practice":2,"trial_type":"pit-trial","trial_index":19,"time_elapsed":141164,"internal_node_id":"0.0-6.0-4.0-0.0","task_version":"battery-v0.2-trt"},{"rune":"2","rune_set":"elianto","hex":"#3366ff99","correct":-1,"choice":-1,"rt":-1,"accuracy":1,"outcome":"+10","keys":[],"total_keys":0,"block":0,"practice":2,"trial_type":"pit-trial","trial_index":20,"time_elapsed":145171,"internal_node_id":"0.0-6.0-4.1-0.1","task_version":"battery-v0.2-trt"},{"rune":"2","rune_set":"elianto","hex":"#3366ff99","correct":-1,"choice":32,"rt":424.08499983139336,"accuracy":0,"outcome":"+1","keys":[1924.7999999206513],"total_keys":1,"block":0,"practice":2,"trial_type":"pit-trial","trial_index":21,"time_elapsed":148301,"internal_node_id":"0.0-6.0-4.2-0.2","task_version":"battery-v0.2-trt"},{"rune":"2","rune_set":"elianto","hex":"#3366ff99","correct":-1,"choice":-1,"rt":-1,"accuracy":1,"outcome":"+10","keys":[],"total_keys":0,"block":0,"practice":2,"trial_type":"pit-trial","trial_index":22,"time_elapsed":152307,"internal_node_id":"0.0-6.0-4.3-0.3","task_version":"battery-v0.2-trt"},{"rune":"2","rune_set":"elianto","hex":"#3366ff99","correct":-1,"choice":-1,"rt":-1,"accuracy":1,"outcome":"+10","keys":[],"total_keys":0,"block":0,"practice":2,"trial_type":"pit-trial","trial_index":23,"time_elapsed":156312,"internal_node_id":"0.0-6.0-4.4-0.4","task_version":"battery-v0.2-trt"},{"rune":"2","rune_set":"elianto","hex":"#3366ff99","correct":-1,"choice":-1,"rt":-1,"accuracy":1,"outcome":"+10","keys":[],"total_keys":0,"block":0,"practice":2,"trial_type":"pit-trial","trial_index":24,"time_elapsed":160319,"internal_node_id":"0.0-6.0-4.5-0.5","task_version":"battery-v0.2-trt"},{"trial_type":"call-function","trial_index":25,"time_elapsed":160324,"internal_node_id":"0.0-6.0-5.0","task_version":"battery-v0.2-trt"},{"view_history":"[{\"page_index\":0,\"viewing_time\":4637.799999909475},{\"page_index\":1,\"viewing_time\":1454.5100000686944}]","rt":6092.854999937117,"trial_type":"pit-instructions","trial_index":26,"time_elapsed":166417,"internal_node_id":"0.0-6.0-6.0","task_version":"battery-v0.2-trt"},{"rune":"3","rune_set":"elianto","hex":"#f73b6a7A","correct":-1,"choice":32,"rt":708.6649998091161,"accuracy":0,"outcome":"-10","keys":[2209.1649998910725],"total_keys":1,"block":0,"practice":3,"trial_type":"pit-trial","trial_index":27,"time_elapsed":169831,"internal_node_id":"0.0-6.0-7.0-0.0","task_version":"battery-v0.2-trt"},{"rune":"3","rune_set":"elianto","hex":"#f73b6a7A","correct":-1,"choice":-1,"rt":-1,"accuracy":1,"outcome":"-1","keys":[],"total_keys":0,"block":0,"practice":3,"trial_type":"pit-trial","trial_index":28,"time_elapsed":173836,"internal_node_id":"0.0-6.0-7.1-0.1","task_version":"battery-v0.2-trt"},{"rune":"3","rune_set":"elianto","hex":"#f73b6a7A","correct":-1,"choice":-1,"rt":-1,"accuracy":1,"outcome":"-1","keys":[],"total_keys":0,"block":0,"practice":3,"trial_type":"pit-trial","trial_index":29,"time_elapsed":177842,"internal_node_id":"0.0-6.0-7.2-0.2","task_version":"battery-v0.2-trt"},{"rune":"3","rune_set":"elianto","hex":"#f73b6a7A","correct":-1,"choice":-1,"rt":-1,"accuracy":1,"outcome":"-1","keys":[],"total_keys":0,"block":0,"practice":3,"trial_type":"pit-trial","trial_index":30,"time_elapsed":181846,"internal_node_id":"0.0-6.0-7.3-0.3","task_version":"battery-v0.2-trt"},{"trial_type":"call-function","trial_index":31,"time_elapsed":181850,"internal_node_id":"0.0-6.0-8.0","task_version":"battery-v0.2-trt"},{"view_history":"[{\"page_index\":0,\"viewing_time\":5131.760000018403},{\"page_index\":1,\"viewing_time\":874.1300001274794}]","rt":6006.229999940842,"trial_type":"pit-instructions","trial_index":32,"time_elapsed":187856,"internal_node_id":"0.0-6.0-9.0","task_version":"battery-v0.2-trt"},{"rune":"4","rune_set":"elianto","hex":"#f73b6a7A","correct":32,"choice":32,"rt":356.83000017888844,"accuracy":1,"outcome":"-1","keys":[1857.3299997951835],"total_keys":1,"block":0,"practice":4,"trial_type":"pit-trial","trial_index":33,"time_elapsed":190919,"internal_node_id":"0.0-6.0-10.0-0.0","task_version":"battery-v0.2-trt"},{"rune":"4","rune_set":"elianto","hex":"#f73b6a7A","correct":32,"choice":32,"rt":181.1100000049919,"accuracy":1,"outcome":"-1","keys":[1681.9150000810623],"total_keys":1,"block":0,"practice":4,"trial_type":"pit-trial","trial_index":34,"time_elapsed":193806,"internal_node_id":"0.0-6.0-10.1-0.1","task_version":"battery-v0.2-trt"},{"rune":"4","rune_set":"elianto","hex":"#f73b6a7A","correct":32,"choice":32,"rt":478.60499983653426,"accuracy":1,"outcome":"-1","keys":[1979.2700000107288],"total_keys":1,"block":0,"practice":4,"trial_type":"pit-trial","trial_index":35,"time_elapsed":196991,"internal_node_id":"0.0-6.0-10.2-0.2","task_version":"battery-v0.2-trt"},{"rune":"4","rune_set":"elianto","hex":"#f73b6a7A","correct":32,"choice":32,"rt":302.7049999218434,"accuracy":1,"outcome":"-1","keys":[1802.8150000609457],"total_keys":1,"block":0,"practice":4,"trial_type":"pit-trial","trial_index":36,"time_elapsed":200718,"internal_node_id":"0.0-6.0-10.3-0.3","task_version":"battery-v0.2-trt"},{"trial_type":"call-function","trial_index":37,"time_elapsed":200723,"internal_node_id":"0.0-6.0-11.0","task_version":"battery-v0.2-trt"},{"view_history":"[{\"page_index\":0,\"viewing_time\":1247.1549999900162},{\"page_index\":1,\"viewing_time\":5218.820000067353},{\"page_index\":2,\"viewing_time\":2914.1949999611825},{\"page_index\":3,\"viewing_time\":2906.6999999340624},{\"page_index\":4,\"viewing_time\":2107.1250000968575},{\"page_index\":5,\"viewing_time\":870.1649999711663}]","rt":15264.539999887347,"trial_type":"pit-instructions","trial_index":38,"time_elapsed":215988,"internal_node_id":"0.0-6.0-12.0","task_version":"battery-v0.2-trt"},{"responses":["Press SPACE","+10","-1","True","True"],"num_errors":0,"rt":12934.129999950528,"trial_type":"pit-comprehension","trial_index":39,"time_elapsed":228928,"internal_node_id":"0.0-6.0-13.0","task_version":"battery-v0.2-trt"},{"view_history":"[{\"page_index\":0,\"viewing_time\":1278.4749998245388},{\"page_index\":1,\"viewing_time\":2348.540000151843}]","rt":3627.600000007078,"trial_type":"pit-instructions","trial_index":40,"time_elapsed":232561,"internal_node_id":"0.0-7.0","task_version":"battery-v0.2-trt"},{"rune":"N","rune_set":"bacs2","hex":"#f73b6a7A","correct":-1,"choice":32,"rt":717.244999948889,"accuracy":0,"outcome":"-10","keys":[2217.6699999254197],"total_keys":1,"block":1,"trial":1,"stimulus":0,"robot":4,"valence":"lose","action":"no-go","sham":0,"trial_type":"pit-trial","trial_index":41,"time_elapsed":235988,"internal_node_id":"0.0-8.0","task_version":"battery-v0.2-trt"},{"rune":"U","rune_set":"bacs2","hex":"#3366ff99","correct":-1,"choice":32,"rt":621.1649999022484,"accuracy":0,"outcome":"+10","keys":[2121.7749998904765],"total_keys":1,"block":1,"trial":2,"stimulus":3,"robot":2,"valence":"win","action":"no-go","sham":1,"trial_type":"pit-trial","trial_index":42,"time_elapsed":239315,"internal_node_id":"0.0-9.0","task_version":"battery-v0.2-trt"},{"rune":"A","rune_set":"bacs2","hex":"#3366ff99","correct":32,"choice":-1,"rt":-1,"accuracy":0,"outcome":"+10","keys":[],"total_keys":0,"block":1,"trial":3,"stimulus":2,"robot":1,"valence":"win","action":"go","sham":1,"trial_type":"pit-trial","trial_index":43,"time_elapsed":243324,"internal_node_id":"0.0-10.0","task_version":"battery-v0.2-trt"},{"rune":"F","rune_set":"bacs2","hex":"#f73b6a7A","correct":-1,"choice":-1,"rt":-1,"accuracy":1,"outcome":"-1","keys":[],"total_keys":0,"block":1,"trial":4,"stimulus":1,"robot":4,"valence":"lose","action":"no-go","sham":0,"trial_type":"pit-trial","trial_index":44,"time_elapsed":247331,"internal_node_id":"0.0-11.0","task_version":"battery-v0.2-trt"},{"rune":"N","rune_set":"bacs2","hex":"#f73b6a7A","correct":-1,"choice":-1,"rt":-1,"accuracy":1,"outcome":"-1","keys":[],"total_keys":0,"block":1,"trial":5,"stimulus":0,"robot":4,"valence":"lose","action":"no-go","sham":0,"trial_type":"pit-trial","trial_index":45,"time_elapsed":251336,"internal_node_id":"0.0-12.0","task_version":"battery-v0.2-trt"},{"rune":"U","rune_set":"bacs2","hex":"#3366ff99","correct":-1,"choice":32,"rt":550.5899998825043,"accuracy":0,"outcome":"+1","keys":[2051.359999924898],"total_keys":1,"block":1,"trial":6,"stimulus":3,"robot":2,"valence":"win","action":"no-go","sham":0,"trial_type":"pit-trial","trial_index":46,"time_elapsed":254593,"internal_node_id":"0.0-13.0","task_version":"battery-v0.2-trt"},{"rune":"F","rune_set":"bacs2","hex":"#f73b6a7A","correct":-1,"choice":32,"rt":542.505000019446,"accuracy":0,"outcome":"-10","keys":[2043.9049999695271],"total_keys":1,"block":1,"trial":7,"stimulus":1,"robot":4,"valence":"lose","action":"no-go","sham":0,"trial_type":"pit-trial","trial_index":47,"time_elapsed":257842,"internal_node_id":"0.0-14.0","task_version":"battery-v0.2-trt"},{"rune":"A","rune_set":"bacs2","hex":"#3366ff99","correct":32,"choice":32,"rt":1255.854999879375,"accuracy":1,"outcome":"+10","keys":[2757.3349999729544],"total_keys":1,"block":1,"trial":8,"stimulus":2,"robot":1,"valence":"win","action":"go","sham":0,"trial_type":"pit-trial","trial_index":48,"time_elapsed":261803,"internal_node_id":"0.0-15.0","task_version":"battery-v0.2-trt"},{"rune":"N","rune_set":"bacs2","hex":"#f73b6a7A","correct":-1,"choice":-1,"rt":-1,"accuracy":1,"outcome":"-10","keys":[],"total_keys":0,"block":1,"trial":9,"stimulus":0,"robot":4,"valence":"lose","action":"no-go","sham":1,"trial_type":"pit-trial","trial_index":49,"time_elapsed":265810,"internal_node_id":"0.0-16.0","task_version":"battery-v0.2-trt"},{"rune":"A","rune_set":"bacs2","hex":"#3366ff99","correct":32,"choice":32,"rt":652.8950000647455,"accuracy":1,"outcome":"+1","keys":[2153.0349999666214],"total_keys":1,"block":1,"trial":10,"stimulus":2,"robot":1,"valence":"win","action":"go","sham":1,"trial_type":"pit-trial","trial_index":50,"time_elapsed":269168,"internal_node_id":"0.0-17.0","task_version":"battery-v0.2-trt"},{"rune":"F","rune_set":"bacs2","hex":"#f73b6a7A","correct":-1,"choice":32,"rt":784.2399999499321,"accuracy":0,"outcome":"-10","keys":[2285.410000011325],"total_keys":1,"block":1,"trial":11,"stimulus":1,"robot":4,"valence":"lose","action":"no-go","sham":0,"trial_type":"pit-trial","trial_index":51,"time_elapsed":272658,"internal_node_id":"0.0-18.0","task_version":"battery-v0.2-trt"},{"rune":"U","rune_set":"bacs2","hex":"#3366ff99","correct":-1,"choice":32,"rt":774.635000154376,"accuracy":0,"outcome":"+10","keys":[2275.7050001528114],"total_keys":1,"block":1,"trial":12,"stimulus":3,"robot":2,"valence":"win","action":"no-go","sham":1,"trial_type":"pit-trial","trial_index":52,"time_elapsed":276139,"internal_node_id":"0.0-19.0","task_version":"battery-v0.2-trt"},{"rune":"A","rune_set":"bacs2","hex":"#3366ff99","correct":32,"choice":-1,"rt":-1,"accuracy":0,"outcome":"+1","keys":[],"total_keys":0,"block":1,"trial":13,"stimulus":2,"robot":1,"valence":"win","action":"go","sham":0,"trial_type":"pit-trial","trial_index":53,"time_elapsed":280145,"internal_node_id":"0.0-20.0","task_version":"battery-v0.2-trt"},{"rune":"N","rune_set":"bacs2","hex":"#f73b6a7A","correct":-1,"choice":32,"rt":812.984999967739,"accuracy":0,"outcome":"-10","keys":[2313.330000033602],"total_keys":1,"block":1,"trial":14,"stimulus":0,"robot":4,"valence":"lose","action":"no-go","sham":0,"trial_type":"pit-trial","trial_index":54,"time_elapsed":283663,"internal_node_id":"0.0-21.0","task_version":"battery-v0.2-trt"},{"rune":"U","rune_set":"bacs2","hex":"#3366ff99","correct":-1,"choice":32,"rt":558.9499999769032,"accuracy":0,"outcome":"+1","keys":[2060.9250001143664],"total_keys":1,"block":1,"trial":15,"stimulus":3,"robot":2,"valence":"win","action":"no-go","sham":0,"trial_type":"pit-trial","trial_index":55,"time_elapsed":286928,"internal_node_id":"0.0-22.0","task_version":"battery-v0.2-trt"},{"rune":"F","rune_set":"bacs2","hex":"#f73b6a7A","correct":-1,"choice":-1,"rt":-1,"accuracy":1,"outcome":"-1","keys":[],"total_keys":0,"block":1,"trial":16,"stimulus":1,"robot":4,"valence":"lose","action":"no-go","sham":0,"trial_type":"pit-trial","trial_index":56,"time_elapsed":290934,"internal_node_id":"0.0-23.0","task_version":"battery-v0.2-trt"},{"rune":"N","rune_set":"bacs2","hex":"#f73b6a7A","correct":-1,"choice":32,"rt":778.8050000090152,"accuracy":0,"outcome":"-10","keys":[2279.2699998244643],"total_keys":1,"block":1,"trial":17,"stimulus":0,"robot":4,"valence":"lose","action":"no-go","sham":0,"trial_type":"pit-trial","trial_index":57,"time_elapsed":294420,"internal_node_id":"0.0-24.0","task_version":"battery-v0.2-trt"},{"rune":"U","rune_set":"bacs2","hex":"#3366ff99","correct":-1,"choice":-1,"rt":-1,"accuracy":1,"outcome":"+10","keys":[],"total_keys":0,"block":1,"trial":18,"stimulus":3,"robot":2,"valence":"win","action":"no-go","sham":0,"trial_type":"pit-trial","trial_index":58,"time_elapsed":298424,"internal_node_id":"0.0-25.0","task_version":"battery-v0.2-trt"},{"rune":"A","rune_set":"bacs2","hex":"#3366ff99","correct":32,"choice":-1,"rt":-1,"accuracy":0,"outcome":"+1","keys":[3134.034999879077],"total_keys":1,"block":1,"trial":19,"stimulus":2,"robot":1,"valence":"win","action":"go","sham":0,"trial_type":"pit-trial","trial_index":59,"time_elapsed":302429,"internal_node_id":"0.0-26.0","task_version":"battery-v0.2-trt"},{"rune":"F","rune_set":"bacs2","hex":"#f73b6a7A","correct":-1,"choice":32,"rt":757.1000000461936,"accuracy":0,"outcome":"-10","keys":[2259.0900000650436],"total_keys":1,"block":1,"trial":20,"stimulus":1,"robot":4,"valence":"lose","action":"no-go","sham":0,"trial_type":"pit-trial","trial_index":60,"time_elapsed":305895,"internal_node_id":"0.0-27.0","task_version":"battery-v0.2-trt"},{"rune":"F","rune_set":"bacs2","hex":"#f73b6a7A","correct":-1,"choice":-1,"rt":-1,"accuracy":1,"outcome":"-10","keys":[],"total_keys":0,"block":1,"trial":21,"stimulus":1,"robot":4,"valence":"lose","action":"no-go","sham":1,"trial_type":"pit-trial","trial_index":61,"time_elapsed":309901,"internal_node_id":"0.0-28.0","task_version":"battery-v0.2-trt"},{"rune":"A","rune_set":"bacs2","hex":"#3366ff99","correct":32,"choice":32,"rt":603.0099999625236,"accuracy":1,"outcome":"+1","keys":[2103.734999895096],"total_keys":1,"block":1,"trial":22,"stimulus":2,"robot":1,"valence":"win","action":"go","sham":1,"trial_type":"pit-trial","trial_index":62,"time_elapsed":313211,"internal_node_id":"0.0-29.0","task_version":"battery-v0.2-trt"},{"rune":"N","rune_set":"bacs2","hex":"#f73b6a7A","correct":-1,"choice":-1,"rt":-1,"accuracy":1,"outcome":"-10","keys":[],"total_keys":0,"block":1,"trial":23,"stimulus":0,"robot":4,"valence":"lose","action":"no-go","sham":1,"trial_type":"pit-trial","trial_index":63,"time_elapsed":317218,"internal_node_id":"0.0-30.0","task_version":"battery-v0.2-trt"},{"rune":"U","rune_set":"bacs2","hex":"#3366ff99","correct":-1,"choice":-1,"rt":-1,"accuracy":1,"outcome":"+10","keys":[],"total_keys":0,"block":1,"trial":24,"stimulus":3,"robot":2,"valence":"win","action":"no-go","sham":0,"trial_type":"pit-trial","trial_index":64,"time_elapsed":321224,"internal_node_id":"0.0-31.0","task_version":"battery-v0.2-trt"},{"rune":"A","rune_set":"bacs2","hex":"#3366ff99","correct":32,"choice":32,"rt":613.7899998575449,"accuracy":1,"outcome":"+1","keys":[2114.5200000610203],"total_keys":1,"block":1,"trial":25,"stimulus":2,"robot":1,"valence":"win","action":"go","sham":1,"trial_type":"pit-trial","trial_index":65,"time_elapsed":324543,"internal_node_id":"0.0-32.0","task_version":"battery-v0.2-trt"},{"rune":"U","rune_set":"bacs2","hex":"#3366ff99","correct":-1,"choice":-1,"rt":-1,"accuracy":1,"outcome":"+1","keys":[],"total_keys":0,"block":1,"trial":26,"stimulus":3,"robot":2,"valence":"win","action":"no-go","sham":1,"trial_type":"pit-trial","trial_index":66,"time_elapsed":328548,"internal_node_id":"0.0-33.0","task_version":"battery-v0.2-trt"},{"rune":"F","rune_set":"bacs2","hex":"#f73b6a7A","correct":-1,"choice":-1,"rt":-1,"accuracy":1,"outcome":"-10","keys":[],"total_keys":0,"block":1,"trial":27,"stimulus":1,"robot":4,"valence":"lose","action":"no-go","sham":1,"trial_type":"pit-trial","trial_index":67,"time_elapsed":332554,"internal_node_id":"0.0-34.0","task_version":"battery-v0.2-trt"},{"rune":"N","rune_set":"bacs2","hex":"#f73b6a7A","correct":-1,"choice":-1,"rt":-1,"accuracy":1,"outcome":"-1","keys":[],"total_keys":0,"block":1,"trial":28,"stimulus":0,"robot":4,"valence":"lose","action":"no-go","sham":0,"trial_type":"pit-trial","trial_index":68,"time_elapsed":336560,"internal_node_id":"0.0-35.0","task_version":"battery-v0.2-trt"},{"rune":"F","rune_set":"bacs2","hex":"#f73b6a7A","correct":-1,"choice":32,"rt":530.1099999342114,"accuracy":0,"outcome":"-1","keys":[2030.4950000718236],"total_keys":1,"block":1,"trial":29,"stimulus":1,"robot":4,"valence":"lose","action":"no-go","sham":1,"trial_type":"pit-trial","trial_index":69,"time_elapsed":339797,"internal_node_id":"0.0-36.0","task_version":"battery-v0.2-trt"},{"rune":"U","rune_set":"bacs2","hex":"#3366ff99","correct":-1,"choice":-1,"rt":-1,"accuracy":1,"outcome":"+10","keys":[],"total_keys":0,"block":1,"trial":30,"stimulus":3,"robot":2,"valence":"win","action":"no-go","sham":0,"trial_type":"pit-trial","trial_index":70,"time_elapsed":343801,"internal_node_id":"0.0-37.0","task_version":"battery-v0.2-trt"},{"rune":"N","rune_set":"bacs2","hex":"#f73b6a7A","correct":-1,"choice":-1,"rt":-1,"accuracy":1,"outcome":"-1","keys":[],"total_keys":0,"block":1,"trial":31,"stimulus":0,"robot":4,"valence":"lose","action":"no-go","sham":0,"trial_type":"pit-trial","trial_index":71,"time_elapsed":347807,"internal_node_id":"0.0-38.0","task_version":"battery-v0.2-trt"},{"rune":"A","rune_set":"bacs2","hex":"#3366ff99","correct":32,"choice":32,"rt":477.82999998889863,"accuracy":1,"outcome":"+10","keys":[1979.8200000077486],"total_keys":1,"block":1,"trial":32,"stimulus":2,"robot":1,"valence":"win","action":"go","sham":0,"trial_type":"pit-trial","trial_index":72,"time_elapsed":350991,"internal_node_id":"0.0-39.0","task_version":"battery-v0.2-trt"},{"rune":"A","rune_set":"bacs2","hex":"#3366ff99","correct":32,"choice":32,"rt":962.1200000401586,"accuracy":1,"outcome":"+10","keys":[2462.2749998234212],"total_keys":1,"block":1,"trial":33,"stimulus":2,"robot":1,"valence":"win","action":"go","sham":0,"trial_type":"pit-trial","trial_index":73,"time_elapsed":354658,"internal_node_id":"0.0-40.0","task_version":"battery-v0.2-trt"},{"rune":"N","rune_set":"bacs2","hex":"#f73b6a7A","correct":-1,"choice":-1,"rt":-1,"accuracy":1,"outcome":"-1","keys":[],"total_keys":0,"block":1,"trial":34,"stimulus":0,"robot":4,"valence":"lose","action":"no-go","sham":0,"trial_type":"pit-trial","trial_index":74,"time_elapsed":358662,"internal_node_id":"0.0-41.0","task_version":"battery-v0.2-trt"},{"rune":"S","rune_set":"bacs2","hex":"#f73b6a7A","correct":32,"choice":-1,"rt":-1,"accuracy":0,"outcome":"-10","keys":[],"total_keys":0,"block":1,"trial":35,"stimulus":4,"robot":3,"valence":"lose","action":"go","sham":0,"trial_type":"pit-trial","trial_index":75,"time_elapsed":362668,"internal_node_id":"0.0-42.0","task_version":"battery-v0.2-trt"},{"rune":"U","rune_set":"bacs2","hex":"#3366ff99","correct":-1,"choice":-1,"rt":-1,"accuracy":1,"outcome":"+10","keys":[],"total_keys":0,"block":1,"trial":36,"stimulus":3,"robot":2,"valence":"win","action":"no-go","sham":0,"trial_type":"pit-trial","trial_index":76,"time_elapsed":366672,"internal_node_id":"0.0-43.0","task_version":"battery-v0.2-trt"},{"rune":"U","rune_set":"bacs2","hex":"#3366ff99","correct":-1,"choice":-1,"rt":-1,"accuracy":1,"outcome":"+1","keys":[],"total_keys":0,"block":1,"trial":37,"stimulus":3,"robot":2,"valence":"win","action":"no-go","sham":1,"trial_type":"pit-trial","trial_index":77,"time_elapsed":370677,"internal_node_id":"0.0-44.0","task_version":"battery-v0.2-trt"},{"rune":"N","rune_set":"bacs2","hex":"#f73b6a7A","correct":-1,"choice":-1,"rt":-1,"accuracy":1,"outcome":"-1","keys":[],"total_keys":0,"block":1,"trial":38,"stimulus":0,"robot":4,"valence":"lose","action":"no-go","sham":0,"trial_type":"pit-trial","trial_index":78,"time_elapsed":374683,"internal_node_id":"0.0-45.0","task_version":"battery-v0.2-trt"},{"rune":"A","rune_set":"bacs2","hex":"#3366ff99","correct":32,"choice":32,"rt":886.9499999564141,"accuracy":1,"outcome":"+10","keys":[2388.560000108555],"total_keys":1,"block":1,"trial":39,"stimulus":2,"robot":1,"valence":"win","action":"go","sham":0,"trial_type":"pit-trial","trial_index":79,"time_elapsed":378276,"internal_node_id":"0.0-46.0","task_version":"battery-v0.2-trt"},{"rune":"S","rune_set":"bacs2","hex":"#f73b6a7A","correct":32,"choice":32,"rt":787.6499998383224,"accuracy":1,"outcome":"-10","keys":[2288.7500000651926],"total_keys":1,"block":1,"trial":40,"stimulus":4,"robot":3,"valence":"lose","action":"go","sham":1,"trial_type":"pit-trial","trial_index":80,"time_elapsed":381769,"internal_node_id":"0.0-47.0","task_version":"battery-v0.2-trt"},{"rune":"S","rune_set":"bacs2","hex":"#f73b6a7A","correct":32,"choice":-1,"rt":-1,"accuracy":0,"outcome":"-10","keys":[],"total_keys":0,"block":1,"trial":41,"stimulus":4,"robot":3,"valence":"lose","action":"go","sham":0,"trial_type":"pit-trial","trial_index":81,"time_elapsed":385773,"internal_node_id":"0.0-48.0","task_version":"battery-v0.2-trt"},{"rune":"N","rune_set":"bacs2","hex":"#f73b6a7A","correct":-1,"choice":-1,"rt":-1,"accuracy":1,"outcome":"-1","keys":[],"total_keys":0,"block":1,"trial":42,"stimulus":0,"robot":4,"valence":"lose","action":"no-go","sham":0,"trial_type":"pit-trial","trial_index":82,"time_elapsed":389780,"internal_node_id":"0.0-49.0","task_version":"battery-v0.2-trt"},{"rune":"P","rune_set":"bacs2","hex":"#3366ff99","correct":32,"choice":32,"rt":835.5199999641627,"accuracy":1,"outcome":"+1","keys":[2336.0250000841916],"total_keys":1,"block":1,"trial":43,"stimulus":6,"robot":1,"valence":"win","action":"go","sham":1,"trial_type":"pit-trial","trial_index":83,"time_elapsed":393322,"internal_node_id":"0.0-50.0","task_version":"battery-v0.2-trt"},{"rune":"L","rune_set":"bacs2","hex":"#3366ff99","correct":-1,"choice":-1,"rt":-1,"accuracy":1,"outcome":"+10","keys":[],"total_keys":0,"block":1,"trial":44,"stimulus":5,"robot":2,"valence":"win","action":"no-go","sham":0,"trial_type":"pit-trial","trial_index":84,"time_elapsed":397327,"internal_node_id":"0.0-51.0","task_version":"battery-v0.2-trt"},{"rune":"S","rune_set":"bacs2","hex":"#f73b6a7A","correct":32,"choice":-1,"rt":-1,"accuracy":0,"outcome":"-1","keys":[],"total_keys":0,"block":1,"trial":45,"stimulus":4,"robot":3,"valence":"lose","action":"go","sham":1,"trial_type":"pit-trial","trial_index":85,"time_elapsed":401332,"internal_node_id":"0.0-52.0","task_version":"battery-v0.2-trt"},{"rune":"L","rune_set":"bacs2","hex":"#3366ff99","correct":-1,"choice":-1,"rt":-1,"accuracy":1,"outcome":"+1","keys":[],"total_keys":0,"block":1,"trial":46,"stimulus":5,"robot":2,"valence":"win","action":"no-go","sham":1,"trial_type":"pit-trial","trial_index":86,"time_elapsed":405338,"internal_node_id":"0.0-53.0","task_version":"battery-v0.2-trt"},{"rune":"N","rune_set":"bacs2","hex":"#f73b6a7A","correct":-1,"choice":-1,"rt":-1,"accuracy":1,"outcome":"-1","keys":[],"total_keys":0,"block":1,"trial":47,"stimulus":0,"robot":4,"valence":"lose","action":"no-go","sham":0,"trial_type":"pit-trial","trial_index":87,"time_elapsed":409344,"internal_node_id":"0.0-54.0","task_version":"battery-v0.2-trt"},{"rune":"P","rune_set":"bacs2","hex":"#3366ff99","correct":32,"choice":32,"rt":805.5249999742955,"accuracy":1,"outcome":"+10","keys":[2306.25499994494],"total_keys":1,"block":1,"trial":48,"stimulus":6,"robot":1,"valence":"win","action":"go","sham":0,"trial_type":"pit-trial","trial_index":88,"time_elapsed":412858,"internal_node_id":"0.0-55.0","task_version":"battery-v0.2-trt"},{"rune":"L","rune_set":"bacs2","hex":"#3366ff99","correct":-1,"choice":-1,"rt":-1,"accuracy":1,"outcome":"+1","keys":[],"total_keys":0,"block":1,"trial":49,"stimulus":5,"robot":2,"valence":"win","action":"no-go","sham":1,"trial_type":"pit-trial","trial_index":89,"time_elapsed":416864,"internal_node_id":"0.0-56.0","task_version":"battery-v0.2-trt"},{"rune":"R","rune_set":"bacs2","hex":"#f73b6a7A","correct":-1,"choice":32,"rt":1229.9899999052286,"accuracy":0,"outcome":"-10","keys":[2730.699999956414],"total_keys":1,"block":1,"trial":50,"stimulus":7,"robot":4,"valence":"lose","action":"no-go","sham":0,"trial_type":"pit-trial","trial_index":90,"time_elapsed":420799,"internal_node_id":"0.0-57.0","task_version":"battery-v0.2-trt"},{"rune":"S","rune_set":"bacs2","hex":"#f73b6a7A","correct":32,"choice":-1,"rt":-1,"accuracy":0,"outcome":"-1","keys":[],"total_keys":0,"block":1,"trial":51,"stimulus":4,"robot":3,"valence":"lose","action":"go","sham":1,"trial_type":"pit-trial","trial_index":91,"time_elapsed":424806,"internal_node_id":"0.0-58.0","task_version":"battery-v0.2-trt"},{"rune":"P","rune_set":"bacs2","hex":"#3366ff99","correct":32,"choice":32,"rt":728.7999999243766,"accuracy":1,"outcome":"+10","keys":[2229.234999977052],"total_keys":1,"block":1,"trial":52,"stimulus":6,"robot":1,"valence":"win","action":"go","sham":0,"trial_type":"pit-trial","trial_index":92,"time_elapsed":428241,"internal_node_id":"0.0-59.0","task_version":"battery-v0.2-trt"},{"rune":"S","rune_set":"bacs2","hex":"#f73b6a7A","correct":32,"choice":-1,"rt":-1,"accuracy":0,"outcome":"-10","keys":[],"total_keys":0,"block":1,"trial":53,"stimulus":4,"robot":3,"valence":"lose","action":"go","sham":0,"trial_type":"pit-trial","trial_index":93,"time_elapsed":432246,"internal_node_id":"0.0-60.0","task_version":"battery-v0.2-trt"},{"rune":"L","rune_set":"bacs2","hex":"#3366ff99","correct":-1,"choice":32,"rt":807.279999833554,"accuracy":0,"outcome":"+1","keys":[2308.9250000193715],"total_keys":1,"block":1,"trial":54,"stimulus":5,"robot":2,"valence":"win","action":"no-go","sham":0,"trial_type":"pit-trial","trial_index":94,"time_elapsed":435759,"internal_node_id":"0.0-61.0","task_version":"battery-v0.2-trt"},{"rune":"P","rune_set":"bacs2","hex":"#3366ff99","correct":32,"choice":-1,"rt":-1,"accuracy":0,"outcome":"+1","keys":[3774.6749999932945],"total_keys":1,"block":1,"trial":55,"stimulus":6,"robot":1,"valence":"win","action":"go","sham":0,"trial_type":"pit-trial","trial_index":95,"time_elapsed":439765,"internal_node_id":"0.0-62.0","task_version":"battery-v0.2-trt"},{"rune":"R","rune_set":"bacs2","hex":"#f73b6a7A","correct":-1,"choice":-1,"rt":-1,"accuracy":1,"outcome":"-1","keys":[],"total_keys":0,"block":1,"trial":56,"stimulus":7,"robot":4,"valence":"lose","action":"no-go","sham":0,"trial_type":"pit-trial","trial_index":96,"time_elapsed":443769,"internal_node_id":"0.0-63.0","task_version":"battery-v0.2-trt"},{"rune":"S","rune_set":"bacs2","hex":"#f73b6a7A","correct":32,"choice":-1,"rt":-1,"accuracy":0,"outcome":"-10","keys":[],"total_keys":0,"block":1,"trial":57,"stimulus":4,"robot":3,"valence":"lose","action":"go","sham":0,"trial_type":"pit-trial","trial_index":97,"time_elapsed":447773,"internal_node_id":"0.0-64.0","task_version":"battery-v0.2-trt"},{"rune":"R","rune_set":"bacs2","hex":"#f73b6a7A","correct":-1,"choice":-1,"rt":-1,"accuracy":1,"outcome":"-1","keys":[],"total_keys":0,"block":1,"trial":58,"stimulus":7,"robot":4,"valence":"lose","action":"no-go","sham":0,"trial_type":"pit-trial","trial_index":98,"time_elapsed":451781,"internal_node_id":"0.0-65.0","task_version":"battery-v0.2-trt"},{"rune":"L","rune_set":"bacs2","hex":"#3366ff99","correct":-1,"choice":-1,"rt":-1,"accuracy":1,"outcome":"+10","keys":[],"total_keys":0,"block":1,"trial":59,"stimulus":5,"robot":2,"valence":"win","action":"no-go","sham":0,"trial_type":"pit-trial","trial_index":99,"time_elapsed":455787,"internal_node_id":"0.0-66.0","task_version":"battery-v0.2-trt"},{"rune":"P","rune_set":"bacs2","hex":"#3366ff99","correct":32,"choice":32,"rt":462.2949999757111,"accuracy":1,"outcome":"+10","keys":[1963.129999814555],"total_keys":1,"block":1,"trial":60,"stimulus":6,"robot":1,"valence":"win","action":"go","sham":0,"trial_type":"pit-trial","trial_index":100,"time_elapsed":458955,"internal_node_id":"0.0-67.0","task_version":"battery-v0.2-trt"},{"rune":"L","rune_set":"bacs2","hex":"#3366ff99","correct":-1,"choice":-1,"rt":-1,"accuracy":1,"outcome":"+10","keys":[],"total_keys":0,"block":1,"trial":61,"stimulus":5,"robot":2,"valence":"win","action":"no-go","sham":0,"trial_type":"pit-trial","trial_index":101,"time_elapsed":462960,"internal_node_id":"0.0-68.0","task_version":"battery-v0.2-trt"},{"rune":"S","rune_set":"bacs2","hex":"#f73b6a7A","correct":32,"choice":-1,"rt":-1,"accuracy":0,"outcome":"-10","keys":[],"total_keys":0,"block":1,"trial":62,"stimulus":4,"robot":3,"valence":"lose","action":"go","sham":0,"trial_type":"pit-trial","trial_index":102,"time_elapsed":466965,"internal_node_id":"0.0-69.0","task_version":"battery-v0.2-trt"},{"rune":"R","rune_set":"bacs2","hex":"#f73b6a7A","correct":-1,"choice":-1,"rt":-1,"accuracy":1,"outcome":"-1","keys":[],"total_keys":0,"block":1,"trial":63,"stimulus":7,"robot":4,"valence":"lose","action":"no-go","sham":0,"trial_type":"pit-trial","trial_index":103,"time_elapsed":470970,"internal_node_id":"0.0-70.0","task_version":"battery-v0.2-trt"},{"rune":"P","rune_set":"bacs2","hex":"#3366ff99","correct":32,"choice":32,"rt":587.5149997882545,"accuracy":1,"outcome":"+10","keys":[2088.5850000195205],"total_keys":1,"block":1,"trial":64,"stimulus":6,"robot":1,"valence":"win","action":"go","sham":0,"trial_type":"pit-trial","trial_index":104,"time_elapsed":474262,"internal_node_id":"0.0-71.0","task_version":"battery-v0.2-trt"},{"rune":"P","rune_set":"bacs2","hex":"#3366ff99","correct":32,"choice":32,"rt":395.06500004790723,"accuracy":1,"outcome":"+1","keys":[1896.354999858886],"total_keys":1,"block":1,"trial":65,"stimulus":6,"robot":1,"valence":"win","action":"go","sham":1,"trial_type":"pit-trial","trial_index":105,"time_elapsed":477363,"internal_node_id":"0.0-72.0","task_version":"battery-v0.2-trt"},{"rune":"S","rune_set":"bacs2","hex":"#f73b6a7A","correct":32,"choice":-1,"rt":-1,"accuracy":0,"outcome":"-10","keys":[],"total_keys":0,"block":1,"trial":66,"stimulus":4,"robot":3,"valence":"lose","action":"go","sham":0,"trial_type":"pit-trial","trial_index":106,"time_elapsed":481369,"internal_node_id":"0.0-73.0","task_version":"battery-v0.2-trt"},{"rune":"L","rune_set":"bacs2","hex":"#3366ff99","correct":-1,"choice":-1,"rt":-1,"accuracy":1,"outcome":"+10","keys":[],"total_keys":0,"block":1,"trial":67,"stimulus":5,"robot":2,"valence":"win","action":"no-go","sham":0,"trial_type":"pit-trial","trial_index":107,"time_elapsed":485376,"internal_node_id":"0.0-74.0","task_version":"battery-v0.2-trt"},{"rune":"R","rune_set":"bacs2","hex":"#f73b6a7A","correct":-1,"choice":-1,"rt":-1,"accuracy":1,"outcome":"-10","keys":[],"total_keys":0,"block":1,"trial":68,"stimulus":7,"robot":4,"valence":"lose","action":"no-go","sham":1,"trial_type":"pit-trial","trial_index":108,"time_elapsed":489385,"internal_node_id":"0.0-75.0","task_version":"battery-v0.2-trt"},{"rune":"P","rune_set":"bacs2","hex":"#3366ff99","correct":32,"choice":32,"rt":397.60500006377697,"accuracy":1,"outcome":"+10","keys":[1899.2550000548363],"total_keys":1,"block":1,"trial":69,"stimulus":6,"robot":1,"valence":"win","action":"go","sham":0,"trial_type":"pit-trial","trial_index":109,"time_elapsed":492490,"internal_node_id":"0.0-76.0","task_version":"battery-v0.2-trt"},{"rune":"R","rune_set":"bacs2","hex":"#f73b6a7A","correct":-1,"choice":-1,"rt":-1,"accuracy":1,"outcome":"-1","keys":[],"total_keys":0,"block":1,"trial":70,"stimulus":7,"robot":4,"valence":"lose","action":"no-go","sham":0,"trial_type":"pit-trial","trial_index":110,"time_elapsed":496495,"internal_node_id":"0.0-77.0","task_version":"battery-v0.2-trt"},{"rune":"S","rune_set":"bacs2","hex":"#f73b6a7A","correct":32,"choice":-1,"rt":-1,"accuracy":0,"outcome":"-10","keys":[],"total_keys":0,"block":1,"trial":71,"stimulus":4,"robot":3,"valence":"lose","action":"go","sham":0,"trial_type":"pit-trial","trial_index":111,"time_elapsed":500503,"internal_node_id":"0.0-78.0","task_version":"battery-v0.2-trt"},{"rune":"L","rune_set":"bacs2","hex":"#3366ff99","correct":-1,"choice":-1,"rt":-1,"accuracy":1,"outcome":"+10","keys":[],"total_keys":0,"block":1,"trial":72,"stimulus":5,"robot":2,"valence":"win","action":"no-go","sham":0,"trial_type":"pit-trial","trial_index":112,"time_elapsed":504508,"internal_node_id":"0.0-79.0","task_version":"battery-v0.2-trt"},{"rune":"R","rune_set":"bacs2","hex":"#f73b6a7A","correct":-1,"choice":-1,"rt":-1,"accuracy":1,"outcome":"-1","keys":[],"total_keys":0,"block":1,"trial":73,"stimulus":7,"robot":4,"valence":"lose","action":"no-go","sham":0,"trial_type":"pit-trial","trial_index":113,"time_elapsed":508514,"internal_node_id":"0.0-80.0","task_version":"battery-v0.2-trt"},{"rune":"L","rune_set":"bacs2","hex":"#3366ff99","correct":-1,"choice":-1,"rt":-1,"accuracy":1,"outcome":"+10","keys":[],"total_keys":0,"block":1,"trial":74,"stimulus":5,"robot":2,"valence":"win","action":"no-go","sham":0,"trial_type":"pit-trial","trial_index":114,"time_elapsed":512518,"internal_node_id":"0.0-81.0","task_version":"battery-v0.2-trt"},{"rune":"V","rune_set":"bacs2","hex":"#3366ff99","correct":32,"choice":-1,"rt":-1,"accuracy":0,"outcome":"+1","keys":[],"total_keys":0,"block":1,"trial":75,"stimulus":8,"robot":1,"valence":"win","action":"go","sham":0,"trial_type":"pit-trial","trial_index":115,"time_elapsed":516525,"internal_node_id":"0.0-82.0","task_version":"battery-v0.2-trt"},{"rune":"K","rune_set":"bacs2","hex":"#f73b6a7A","correct":32,"choice":32,"rt":732.7300000470132,"accuracy":1,"outcome":"-1","keys":[2232.8449999913573],"total_keys":1,"block":1,"trial":76,"stimulus":9,"robot":3,"valence":"lose","action":"go","sham":0,"trial_type":"pit-trial","trial_index":116,"time_elapsed":519964,"internal_node_id":"0.0-83.0","task_version":"battery-v0.2-trt"},{"rune":"L","rune_set":"bacs2","hex":"#3366ff99","correct":-1,"choice":-1,"rt":-1,"accuracy":1,"outcome":"+1","keys":[],"total_keys":0,"block":1,"trial":77,"stimulus":5,"robot":2,"valence":"win","action":"no-go","sham":1,"trial_type":"pit-trial","trial_index":117,"time_elapsed":523969,"internal_node_id":"0.0-84.0","task_version":"battery-v0.2-trt"},{"rune":"R","rune_set":"bacs2","hex":"#f73b6a7A","correct":-1,"choice":-1,"rt":-1,"accuracy":1,"outcome":"-10","keys":[],"total_keys":0,"block":1,"trial":78,"stimulus":7,"robot":4,"valence":"lose","action":"no-go","sham":1,"trial_type":"pit-trial","trial_index":118,"time_elapsed":527975,"internal_node_id":"0.0-85.0","task_version":"battery-v0.2-trt"},{"rune":"V","rune_set":"bacs2","hex":"#3366ff99","correct":32,"choice":32,"rt":704.5149998739362,"accuracy":1,"outcome":"+10","keys":[2205.6249999441206],"total_keys":1,"block":1,"trial":79,"stimulus":8,"robot":1,"valence":"win","action":"go","sham":0,"trial_type":"pit-trial","trial_index":119,"time_elapsed":531385,"internal_node_id":"0.0-86.0","task_version":"battery-v0.2-trt"},{"rune":"K","rune_set":"bacs2","hex":"#f73b6a7A","correct":32,"choice":32,"rt":873.7099999561906,"accuracy":1,"outcome":"-1","keys":[2375],"total_keys":1,"block":1,"trial":80,"stimulus":9,"robot":3,"valence":"lose","action":"go","sham":0,"trial_type":"pit-trial","trial_index":120,"time_elapsed":534964,"internal_node_id":"0.0-87.0","task_version":"battery-v0.2-trt"},{"rune":"K","rune_set":"bacs2","hex":"#f73b6a7A","correct":32,"choice":32,"rt":788.4200001135468,"accuracy":1,"outcome":"-1","keys":[2288.6050001252443],"total_keys":1,"block":1,"trial":81,"stimulus":9,"robot":3,"valence":"lose","action":"go","sham":0,"trial_type":"pit-trial","trial_index":121,"time_elapsed":538457,"internal_node_id":"0.0-88.0","task_version":"battery-v0.2-trt"},{"rune":"V","rune_set":"bacs2","hex":"#3366ff99","correct":32,"choice":32,"rt":618.3249999303371,"accuracy":1,"outcome":"+10","keys":[2119.3200000561774],"total_keys":1,"block":1,"trial":82,"stimulus":8,"robot":1,"valence":"win","action":"go","sham":0,"trial_type":"pit-trial","trial_index":122,"time_elapsed":541781,"internal_node_id":"0.0-89.0","task_version":"battery-v0.2-trt"},{"rune":"R","rune_set":"bacs2","hex":"#f73b6a7A","correct":-1,"choice":-1,"rt":-1,"accuracy":1,"outcome":"-1","keys":[],"total_keys":0,"block":1,"trial":83,"stimulus":7,"robot":4,"valence":"lose","action":"no-go","sham":0,"trial_type":"pit-trial","trial_index":123,"time_elapsed":545786,"internal_node_id":"0.0-90.0","task_version":"battery-v0.2-trt"},{"rune":"L","rune_set":"bacs2","hex":"#3366ff99","correct":-1,"choice":-1,"rt":-1,"accuracy":1,"outcome":"+1","keys":[],"total_keys":0,"block":1,"trial":84,"stimulus":5,"robot":2,"valence":"win","action":"no-go","sham":1,"trial_type":"pit-trial","trial_index":124,"time_elapsed":549791,"internal_node_id":"0.0-91.0","task_version":"battery-v0.2-trt"},{"rune":"L","rune_set":"bacs2","hex":"#3366ff99","correct":-1,"choice":-1,"rt":-1,"accuracy":1,"outcome":"+10","keys":[],"total_keys":0,"block":1,"trial":85,"stimulus":5,"robot":2,"valence":"win","action":"no-go","sham":0,"trial_type":"pit-trial","trial_index":125,"time_elapsed":553796,"internal_node_id":"0.0-92.0","task_version":"battery-v0.2-trt"},{"rune":"V","rune_set":"bacs2","hex":"#3366ff99","correct":32,"choice":32,"rt":692.8650001063943,"accuracy":1,"outcome":"+1","keys":[2193.3599999174476],"total_keys":1,"block":1,"trial":86,"stimulus":8,"robot":1,"valence":"win","action":"go","sham":1,"trial_type":"pit-trial","trial_index":126,"time_elapsed":557194,"internal_node_id":"0.0-93.0","task_version":"battery-v0.2-trt"},{"rune":"R","rune_set":"bacs2","hex":"#f73b6a7A","correct":-1,"choice":-1,"rt":-1,"accuracy":1,"outcome":"-1","keys":[],"total_keys":0,"block":1,"trial":87,"stimulus":7,"robot":4,"valence":"lose","action":"no-go","sham":0,"trial_type":"pit-trial","trial_index":127,"time_elapsed":561199,"internal_node_id":"0.0-94.0","task_version":"battery-v0.2-trt"},{"rune":"K","rune_set":"bacs2","hex":"#f73b6a7A","correct":32,"choice":32,"rt":620.6799999345094,"accuracy":1,"outcome":"-1","keys":[2121.830000076443],"total_keys":1,"block":1,"trial":88,"stimulus":9,"robot":3,"valence":"lose","action":"go","sham":0,"trial_type":"pit-trial","trial_index":128,"time_elapsed":564525,"internal_node_id":"0.0-95.0","task_version":"battery-v0.2-trt"},{"rune":"B","rune_set":"bacs2","hex":"#f73b6a7A","correct":32,"choice":32,"rt":979.0800001937896,"accuracy":1,"outcome":"-1","keys":[2479.7600000165403],"total_keys":1,"block":1,"trial":89,"stimulus":10,"robot":3,"valence":"lose","action":"go","sham":0,"trial_type":"pit-trial","trial_index":129,"time_elapsed":568209,"internal_node_id":"0.0-96.0","task_version":"battery-v0.2-trt"},{"rune":"M","rune_set":"bacs2","hex":"#3366ff99","correct":-1,"choice":-1,"rt":-1,"accuracy":1,"outcome":"+10","keys":[3349.024999886751],"total_keys":1,"block":1,"trial":90,"stimulus":11,"robot":2,"valence":"win","action":"no-go","sham":0,"trial_type":"pit-trial","trial_index":130,"time_elapsed":572216,"internal_node_id":"0.0-97.0","task_version":"battery-v0.2-trt"},{"rune":"K","rune_set":"bacs2","hex":"#f73b6a7A","correct":32,"choice":32,"rt":486.9600001256913,"accuracy":1,"outcome":"-1","keys":[1987.0499998796731],"total_keys":1,"block":1,"trial":91,"stimulus":9,"robot":3,"valence":"lose","action":"go","sham":0,"trial_type":"pit-trial","trial_index":131,"time_elapsed":575407,"internal_node_id":"0.0-98.0","task_version":"battery-v0.2-trt"},{"rune":"V","rune_set":"bacs2","hex":"#3366ff99","correct":32,"choice":32,"rt":609.6999999135733,"accuracy":1,"outcome":"+10","keys":[2109.940000111237],"total_keys":1,"block":1,"trial":92,"stimulus":8,"robot":1,"valence":"win","action":"go","sham":0,"trial_type":"pit-trial","trial_index":132,"time_elapsed":578722,"internal_node_id":"0.0-99.0","task_version":"battery-v0.2-trt"},{"rune":"V","rune_set":"bacs2","hex":"#3366ff99","correct":32,"choice":32,"rt":984.2700001318008,"accuracy":1,"outcome":"+10","keys":[2484.839999815449],"total_keys":1,"block":1,"trial":93,"stimulus":8,"robot":1,"valence":"win","action":"go","sham":0,"trial_type":"pit-trial","trial_index":133,"time_elapsed":582416,"internal_node_id":"0.0-100.0","task_version":"battery-v0.2-trt"},{"rune":"K","rune_set":"bacs2","hex":"#f73b6a7A","correct":32,"choice":32,"rt":522.5749998353422,"accuracy":1,"outcome":"-1","keys":[2023.4499999787658],"total_keys":1,"block":1,"trial":94,"stimulus":9,"robot":3,"valence":"lose","action":"go","sham":0,"trial_type":"pit-trial","trial_index":134,"time_elapsed":585646,"internal_node_id":"0.0-101.0","task_version":"battery-v0.2-trt"},{"rune":"M","rune_set":"bacs2","hex":"#3366ff99","correct":-1,"choice":-1,"rt":-1,"accuracy":1,"outcome":"+10","keys":[],"total_keys":0,"block":1,"trial":95,"stimulus":11,"robot":2,"valence":"win","action":"no-go","sham":0,"trial_type":"pit-trial","trial_index":135,"time_elapsed":589652,"internal_node_id":"0.0-102.0","task_version":"battery-v0.2-trt"},{"rune":"B","rune_set":"bacs2","hex":"#f73b6a7A","correct":32,"choice":32,"rt":741.7949999216944,"accuracy":1,"outcome":"-1","keys":[2241.9300000183284],"total_keys":1,"block":1,"trial":96,"stimulus":10,"robot":3,"valence":"lose","action":"go","sham":0,"trial_type":"pit-trial","trial_index":136,"time_elapsed":593099,"internal_node_id":"0.0-103.0","task_version":"battery-v0.2-trt"},{"rune":"B","rune_set":"bacs2","hex":"#f73b6a7A","correct":32,"choice":32,"rt":636.3200000487268,"accuracy":1,"outcome":"-1","keys":[2136.9449999183416],"total_keys":1,"block":1,"trial":97,"stimulus":10,"robot":3,"valence":"lose","action":"go","sham":0,"trial_type":"pit-trial","trial_index":137,"time_elapsed":596440,"internal_node_id":"0.0-104.0","task_version":"battery-v0.2-trt"},{"rune":"V","rune_set":"bacs2","hex":"#3366ff99","correct":32,"choice":32,"rt":569.1299999598414,"accuracy":1,"outcome":"+10","keys":[2069.469999987632],"total_keys":1,"block":1,"trial":98,"stimulus":8,"robot":1,"valence":"win","action":"go","sham":0,"trial_type":"pit-trial","trial_index":138,"time_elapsed":599714,"internal_node_id":"0.0-105.0","task_version":"battery-v0.2-trt"},{"rune":"M","rune_set":"bacs2","hex":"#3366ff99","correct":-1,"choice":-1,"rt":-1,"accuracy":1,"outcome":"+1","keys":[],"total_keys":0,"block":1,"trial":99,"stimulus":11,"robot":2,"valence":"win","action":"no-go","sham":1,"trial_type":"pit-trial","trial_index":139,"time_elapsed":603719,"internal_node_id":"0.0-106.0","task_version":"battery-v0.2-trt"},{"rune":"K","rune_set":"bacs2","hex":"#f73b6a7A","correct":32,"choice":-1,"rt":-1,"accuracy":0,"outcome":"-1","keys":[2830.240000039339],"total_keys":1,"block":1,"trial":100,"stimulus":9,"robot":3,"valence":"lose","action":"go","sham":1,"trial_type":"pit-trial","trial_index":140,"time_elapsed":607725,"internal_node_id":"0.0-107.0","task_version":"battery-v0.2-trt"},{"rune":"B","rune_set":"bacs2","hex":"#f73b6a7A","correct":32,"choice":32,"rt":651.005000108853,"accuracy":1,"outcome":"-1","keys":[2152.005000039935],"total_keys":1,"block":1,"trial":101,"stimulus":10,"robot":3,"valence":"lose","action":"go","sham":0,"trial_type":"pit-trial","trial_index":141,"time_elapsed":611084,"internal_node_id":"0.0-108.0","task_version":"battery-v0.2-trt"},{"rune":"M","rune_set":"bacs2","hex":"#3366ff99","correct":-1,"choice":32,"rt":869.2900000605732,"accuracy":0,"outcome":"+1","keys":[2369.3949999287724],"total_keys":1,"block":1,"trial":102,"stimulus":11,"robot":2,"valence":"win","action":"no-go","sham":0,"trial_type":"pit-trial","trial_index":142,"time_elapsed":614658,"internal_node_id":"0.0-109.0","task_version":"battery-v0.2-trt"},{"rune":"K","rune_set":"bacs2","hex":"#f73b6a7A","correct":32,"choice":32,"rt":505.0500000361353,"accuracy":1,"outcome":"-1","keys":[2006.8050001282245],"total_keys":1,"block":1,"trial":103,"stimulus":9,"robot":3,"valence":"lose","action":"go","sham":0,"trial_type":"pit-trial","trial_index":143,"time_elapsed":617870,"internal_node_id":"0.0-110.0","task_version":"battery-v0.2-trt"},{"rune":"V","rune_set":"bacs2","hex":"#3366ff99","correct":32,"choice":32,"rt":1033.419999992475,"accuracy":1,"outcome":"+10","keys":[2534.290000097826],"total_keys":1,"block":1,"trial":104,"stimulus":8,"robot":1,"valence":"win","action":"go","sham":0,"trial_type":"pit-trial","trial_index":144,"time_elapsed":621609,"internal_node_id":"0.0-111.0","task_version":"battery-v0.2-trt"},{"rune":"B","rune_set":"bacs2","hex":"#f73b6a7A","correct":32,"choice":32,"rt":613.1499998737127,"accuracy":1,"outcome":"-1","keys":[2113.819999853149],"total_keys":1,"block":1,"trial":105,"stimulus":10,"robot":3,"valence":"lose","action":"go","sham":0,"trial_type":"pit-trial","trial_index":145,"time_elapsed":624928,"internal_node_id":"0.0-112.0","task_version":"battery-v0.2-trt"},{"rune":"V","rune_set":"bacs2","hex":"#3366ff99","correct":32,"choice":32,"rt":485.6749998871237,"accuracy":1,"outcome":"+10","keys":[1986.375000094995],"total_keys":1,"block":1,"trial":106,"stimulus":8,"robot":1,"valence":"win","action":"go","sham":0,"trial_type":"pit-trial","trial_index":146,"time_elapsed":628120,"internal_node_id":"0.0-113.0","task_version":"battery-v0.2-trt"},{"rune":"M","rune_set":"bacs2","hex":"#3366ff99","correct":-1,"choice":-1,"rt":-1,"accuracy":1,"outcome":"+10","keys":[],"total_keys":0,"block":1,"trial":107,"stimulus":11,"robot":2,"valence":"win","action":"no-go","sham":0,"trial_type":"pit-trial","trial_index":147,"time_elapsed":632129,"internal_node_id":"0.0-114.0","task_version":"battery-v0.2-trt"},{"rune":"K","rune_set":"bacs2","hex":"#f73b6a7A","correct":32,"choice":32,"rt":535.2650000713766,"accuracy":1,"outcome":"-10","keys":[2035.4799998458475],"total_keys":1,"block":1,"trial":108,"stimulus":9,"robot":3,"valence":"lose","action":"go","sham":1,"trial_type":"pit-trial","trial_index":148,"time_elapsed":635370,"internal_node_id":"0.0-115.0","task_version":"battery-v0.2-trt"},{"rune":"M","rune_set":"bacs2","hex":"#3366ff99","correct":-1,"choice":-1,"rt":-1,"accuracy":1,"outcome":"+1","keys":[],"total_keys":0,"block":1,"trial":109,"stimulus":11,"robot":2,"valence":"win","action":"no-go","sham":1,"trial_type":"pit-trial","trial_index":149,"time_elapsed":639377,"internal_node_id":"0.0-116.0","task_version":"battery-v0.2-trt"},{"rune":"K","rune_set":"bacs2","hex":"#f73b6a7A","correct":32,"choice":32,"rt":858.3599999547005,"accuracy":1,"outcome":"-1","keys":[2359.3250000849366],"total_keys":1,"block":1,"trial":110,"stimulus":9,"robot":3,"valence":"lose","action":"go","sham":0,"trial_type":"pit-trial","trial_index":150,"time_elapsed":642942,"internal_node_id":"0.0-117.0","task_version":"battery-v0.2-trt"},{"rune":"B","rune_set":"bacs2","hex":"#f73b6a7A","correct":32,"choice":32,"rt":989.3000000156462,"accuracy":1,"outcome":"-10","keys":[2490.5199999921024],"total_keys":1,"block":1,"trial":111,"stimulus":10,"robot":3,"valence":"lose","action":"go","sham":1,"trial_type":"pit-trial","trial_index":151,"time_elapsed":646639,"internal_node_id":"0.0-118.0","task_version":"battery-v0.2-trt"},{"rune":"V","rune_set":"bacs2","hex":"#3366ff99","correct":32,"choice":32,"rt":931.8699999712408,"accuracy":1,"outcome":"+10","keys":[2432.5999999418855],"total_keys":1,"block":1,"trial":112,"stimulus":8,"robot":1,"valence":"win","action":"go","sham":0,"trial_type":"pit-trial","trial_index":152,"time_elapsed":650277,"internal_node_id":"0.0-119.0","task_version":"battery-v0.2-trt"},{"rune":"V","rune_set":"bacs2","hex":"#3366ff99","correct":32,"choice":32,"rt":755.2849999628961,"accuracy":1,"outcome":"+1","keys":[2256.0799999628216],"total_keys":1,"block":1,"trial":113,"stimulus":8,"robot":1,"valence":"win","action":"go","sham":1,"trial_type":"pit-trial","trial_index":153,"time_elapsed":653740,"internal_node_id":"0.0-120.0","task_version":"battery-v0.2-trt"},{"rune":"B","rune_set":"bacs2","hex":"#f73b6a7A","correct":32,"choice":-1,"rt":-1,"accuracy":0,"outcome":"-10","keys":[],"total_keys":0,"block":1,"trial":114,"stimulus":10,"robot":3,"valence":"lose","action":"go","sham":0,"trial_type":"pit-trial","trial_index":154,"time_elapsed":657746,"internal_node_id":"0.0-121.0","task_version":"battery-v0.2-trt"},{"rune":"M","rune_set":"bacs2","hex":"#3366ff99","correct":-1,"choice":-1,"rt":-1,"accuracy":1,"outcome":"+10","keys":[],"total_keys":0,"block":1,"trial":115,"stimulus":11,"robot":2,"valence":"win","action":"no-go","sham":0,"trial_type":"pit-trial","trial_index":155,"time_elapsed":661751,"internal_node_id":"0.0-122.0","task_version":"battery-v0.2-trt"},{"rune":"K","rune_set":"bacs2","hex":"#f73b6a7A","correct":32,"choice":32,"rt":597.4200000055134,"accuracy":1,"outcome":"-10","keys":[2098.7000002060086],"total_keys":1,"block":1,"trial":116,"stimulus":9,"robot":3,"valence":"lose","action":"go","sham":1,"trial_type":"pit-trial","trial_index":156,"time_elapsed":665055,"internal_node_id":"0.0-123.0","task_version":"battery-v0.2-trt"},{"rune":"V","rune_set":"bacs2","hex":"#3366ff99","correct":32,"choice":32,"rt":918.0950000882149,"accuracy":1,"outcome":"+10","keys":[2418.9100000075996],"total_keys":1,"block":1,"trial":117,"stimulus":8,"robot":1,"valence":"win","action":"go","sham":0,"trial_type":"pit-trial","trial_index":157,"time_elapsed":668678,"internal_node_id":"0.0-124.0","task_version":"battery-v0.2-trt"},{"rune":"K","rune_set":"bacs2","hex":"#f73b6a7A","correct":32,"choice":32,"rt":803.9750000461936,"accuracy":1,"outcome":"-1","keys":[2304.759999969974],"total_keys":1,"block":1,"trial":118,"stimulus":9,"robot":3,"valence":"lose","action":"go","sham":0,"trial_type":"pit-trial","trial_index":158,"time_elapsed":672189,"internal_node_id":"0.0-125.0","task_version":"battery-v0.2-trt"},{"rune":"M","rune_set":"bacs2","hex":"#3366ff99","correct":-1,"choice":-1,"rt":-1,"accuracy":1,"outcome":"+10","keys":[],"total_keys":0,"block":1,"trial":119,"stimulus":11,"robot":2,"valence":"win","action":"no-go","sham":0,"trial_type":"pit-trial","trial_index":159,"time_elapsed":676194,"internal_node_id":"0.0-126.0","task_version":"battery-v0.2-trt"},{"rune":"B","rune_set":"bacs2","hex":"#f73b6a7A","correct":32,"choice":32,"rt":729.4950000941753,"accuracy":1,"outcome":"-1","keys":[2230.2500000223517],"total_keys":1,"block":1,"trial":120,"stimulus":10,"robot":3,"valence":"lose","action":"go","sham":0,"trial_type":"pit-trial","trial_index":160,"time_elapsed":679628,"internal_node_id":"0.0-127.0","task_version":"battery-v0.2-trt"},{"view_history":"[{\"page_index\":0,\"viewing_time\":3395.9399999585003},{\"page_index\":1,\"viewing_time\":979.0099998936057}]","rt":4375.3449998330325,"trial_type":"pit-instructions","trial_index":161,"time_elapsed":684010,"internal_node_id":"0.0-128.0","task_version":"battery-v0.2-trt"},{"rune":"Z","rune_set":"bacs2","hex":"#3366ff99","correct":32,"choice":32,"rt":619.5449999067932,"accuracy":1,"outcome":"+10","keys":[2120.464999927208],"total_keys":1,"block":2,"trial":121,"stimulus":3,"robot":1,"valence":"win","action":"go","sham":0,"trial_type":"pit-trial","trial_index":162,"time_elapsed":687338,"internal_node_id":"0.0-129.0","task_version":"battery-v0.2-trt"},{"rune":"X","rune_set":"bacs2","hex":"#f73b6a7A","correct":-1,"choice":-1,"rt":-1,"accuracy":1,"outcome":"-1","keys":[2920.979999937117],"total_keys":1,"block":2,"trial":122,"stimulus":2,"robot":4,"valence":"lose","action":"no-go","sham":0,"trial_type":"pit-trial","trial_index":163,"time_elapsed":691344,"internal_node_id":"0.0-130.0","task_version":"battery-v0.2-trt"},{"rune":"J","rune_set":"bacs2","hex":"#3366ff99","correct":-1,"choice":-1,"rt":-1,"accuracy":1,"outcome":"+10","keys":[],"total_keys":0,"block":2,"trial":123,"stimulus":0,"robot":2,"valence":"win","action":"no-go","sham":0,"trial_type":"pit-trial","trial_index":164,"time_elapsed":695349,"internal_node_id":"0.0-131.0","task_version":"battery-v0.2-trt"},{"rune":"W","rune_set":"bacs2","hex":"#3366ff99","correct":32,"choice":-1,"rt":-1,"accuracy":0,"outcome":"+1","keys":[],"total_keys":0,"block":2,"trial":124,"stimulus":1,"robot":1,"valence":"win","action":"go","sham":0,"trial_type":"pit-trial","trial_index":165,"time_elapsed":699355,"internal_node_id":"0.0-132.0","task_version":"battery-v0.2-trt"},{"rune":"W","rune_set":"bacs2","hex":"#3366ff99","correct":32,"choice":32,"rt":1259.0600000694394,"accuracy":1,"outcome":"+10","keys":[2759.594999952242],"total_keys":1,"block":2,"trial":125,"stimulus":1,"robot":1,"valence":"win","action":"go","sham":0,"trial_type":"pit-trial","trial_index":166,"time_elapsed":703319,"internal_node_id":"0.0-133.0","task_version":"battery-v0.2-trt"},{"rune":"Z","rune_set":"bacs2","hex":"#3366ff99","correct":32,"choice":-1,"rt":-1,"accuracy":0,"outcome":"+1","keys":[2869.1849999595433],"total_keys":1,"block":2,"trial":126,"stimulus":3,"robot":1,"valence":"win","action":"go","sham":0,"trial_type":"pit-trial","trial_index":167,"time_elapsed":707323,"internal_node_id":"0.0-134.0","task_version":"battery-v0.2-trt"},{"rune":"X","rune_set":"bacs2","hex":"#f73b6a7A","correct":-1,"choice":32,"rt":600.4500000271946,"accuracy":0,"outcome":"-10","keys":[2102.225000038743],"total_keys":1,"block":2,"trial":127,"stimulus":2,"robot":4,"valence":"lose","action":"no-go","sham":0,"trial_type":"pit-trial","trial_index":168,"time_elapsed":710633,"internal_node_id":"0.0-135.0","task_version":"battery-v0.2-trt"},{"rune":"J","rune_set":"bacs2","hex":"#3366ff99","correct":-1,"choice":-1,"rt":-1,"accuracy":1,"outcome":"+10","keys":[],"total_keys":0,"block":2,"trial":128,"stimulus":0,"robot":2,"valence":"win","action":"no-go","sham":0,"trial_type":"pit-trial","trial_index":169,"time_elapsed":714638,"internal_node_id":"0.0-136.0","task_version":"battery-v0.2-trt"},{"rune":"X","rune_set":"bacs2","hex":"#f73b6a7A","correct":-1,"choice":-1,"rt":-1,"accuracy":1,"outcome":"-1","keys":[],"total_keys":0,"block":2,"trial":129,"stimulus":2,"robot":4,"valence":"lose","action":"no-go","sham":0,"trial_type":"pit-trial","trial_index":170,"time_elapsed":718645,"internal_node_id":"0.0-137.0","task_version":"battery-v0.2-trt"},{"rune":"Z","rune_set":"bacs2","hex":"#3366ff99","correct":32,"choice":32,"rt":600.414999993518,"accuracy":1,"outcome":"+1","keys":[2101.259999908507],"total_keys":1,"block":2,"trial":130,"stimulus":3,"robot":1,"valence":"win","action":"go","sham":1,"trial_type":"pit-trial","trial_index":171,"time_elapsed":721952,"internal_node_id":"0.0-138.0","task_version":"battery-v0.2-trt"},{"rune":"W","rune_set":"bacs2","hex":"#3366ff99","correct":32,"choice":32,"rt":822.8799998760223,"accuracy":1,"outcome":"+10","keys":[2324.67499980703],"total_keys":1,"block":2,"trial":131,"stimulus":1,"robot":1,"valence":"win","action":"go","sham":0,"trial_type":"pit-trial","trial_index":172,"time_elapsed":725482,"internal_node_id":"0.0-139.0","task_version":"battery-v0.2-trt"},{"rune":"J","rune_set":"bacs2","hex":"#3366ff99","correct":-1,"choice":-1,"rt":-1,"accuracy":1,"outcome":"+10","keys":[],"total_keys":0,"block":2,"trial":132,"stimulus":0,"robot":2,"valence":"win","action":"no-go","sham":0,"trial_type":"pit-trial","trial_index":173,"time_elapsed":729487,"internal_node_id":"0.0-140.0","task_version":"battery-v0.2-trt"},{"rune":"J","rune_set":"bacs2","hex":"#3366ff99","correct":-1,"choice":-1,"rt":-1,"accuracy":1,"outcome":"+10","keys":[],"total_keys":0,"block":2,"trial":133,"stimulus":0,"robot":2,"valence":"win","action":"no-go","sham":0,"trial_type":"pit-trial","trial_index":174,"time_elapsed":733493,"internal_node_id":"0.0-141.0","task_version":"battery-v0.2-trt"},{"rune":"W","rune_set":"bacs2","hex":"#3366ff99","correct":32,"choice":32,"rt":803.6250001750886,"accuracy":1,"outcome":"+10","keys":[2303.8549998309463],"total_keys":1,"block":2,"trial":134,"stimulus":1,"robot":1,"valence":"win","action":"go","sham":0,"trial_type":"pit-trial","trial_index":175,"time_elapsed":737002,"internal_node_id":"0.0-142.0","task_version":"battery-v0.2-trt"},{"rune":"Z","rune_set":"bacs2","hex":"#3366ff99","correct":32,"choice":32,"rt":511.58499997109175,"accuracy":1,"outcome":"+1","keys":[2011.9249999988824],"total_keys":1,"block":2,"trial":135,"stimulus":3,"robot":1,"valence":"win","action":"go","sham":1,"trial_type":"pit-trial","trial_index":176,"time_elapsed":740222,"internal_node_id":"0.0-143.0","task_version":"battery-v0.2-trt"},{"rune":"X","rune_set":"bacs2","hex":"#f73b6a7A","correct":-1,"choice":-1,"rt":-1,"accuracy":1,"outcome":"-10","keys":[],"total_keys":0,"block":2,"trial":136,"stimulus":2,"robot":4,"valence":"lose","action":"no-go","sham":1,"trial_type":"pit-trial","trial_index":177,"time_elapsed":744227,"internal_node_id":"0.0-144.0","task_version":"battery-v0.2-trt"},{"rune":"X","rune_set":"bacs2","hex":"#f73b6a7A","correct":-1,"choice":-1,"rt":-1,"accuracy":1,"outcome":"-10","keys":[3329.989999998361],"total_keys":1,"block":2,"trial":137,"stimulus":2,"robot":4,"valence":"lose","action":"no-go","sham":1,"trial_type":"pit-trial","trial_index":178,"time_elapsed":748232,"internal_node_id":"0.0-145.0","task_version":"battery-v0.2-trt"},{"rune":"Z","rune_set":"bacs2","hex":"#3366ff99","correct":32,"choice":32,"rt":506.38499995693564,"accuracy":1,"outcome":"+10","keys":[2007.3799998499453],"total_keys":1,"block":2,"trial":138,"stimulus":3,"robot":1,"valence":"win","action":"go","sham":0,"trial_type":"pit-trial","trial_index":179,"time_elapsed":751444,"internal_node_id":"0.0-146.0","task_version":"battery-v0.2-trt"},{"rune":"J","rune_set":"bacs2","hex":"#3366ff99","correct":-1,"choice":-1,"rt":-1,"accuracy":1,"outcome":"+10","keys":[],"total_keys":0,"block":2,"trial":139,"stimulus":0,"robot":2,"valence":"win","action":"no-go","sham":0,"trial_type":"pit-trial","trial_index":180,"time_elapsed":755449,"internal_node_id":"0.0-147.0","task_version":"battery-v0.2-trt"},{"rune":"W","rune_set":"bacs2","hex":"#3366ff99","correct":32,"choice":32,"rt":702.324999962002,"accuracy":1,"outcome":"+10","keys":[2202.8049998916686],"total_keys":1,"block":2,"trial":140,"stimulus":1,"robot":1,"valence":"win","action":"go","sham":0,"trial_type":"pit-trial","trial_index":181,"time_elapsed":758856,"internal_node_id":"0.0-148.0","task_version":"battery-v0.2-trt"},{"rune":"Z","rune_set":"bacs2","hex":"#3366ff99","correct":32,"choice":32,"rt":886.9299998041242,"accuracy":1,"outcome":"+1","keys":[2387.074999976903],"total_keys":1,"block":2,"trial":141,"stimulus":3,"robot":1,"valence":"win","action":"go","sham":1,"trial_type":"pit-trial","trial_index":182,"time_elapsed":762448,"internal_node_id":"0.0-149.0","task_version":"battery-v0.2-trt"},{"rune":"X","rune_set":"bacs2","hex":"#f73b6a7A","correct":-1,"choice":32,"rt":672.4600000306964,"accuracy":0,"outcome":"-10","keys":[2173.119999933988],"total_keys":1,"block":2,"trial":142,"stimulus":2,"robot":4,"valence":"lose","action":"no-go","sham":0,"trial_type":"pit-trial","trial_index":183,"time_elapsed":765828,"internal_node_id":"0.0-150.0","task_version":"battery-v0.2-trt"},{"rune":"W","rune_set":"bacs2","hex":"#3366ff99","correct":32,"choice":32,"rt":912.0050000492483,"accuracy":1,"outcome":"+10","keys":[2413.8899999670684],"total_keys":1,"block":2,"trial":143,"stimulus":1,"robot":1,"valence":"win","action":"go","sham":0,"trial_type":"pit-trial","trial_index":184,"time_elapsed":769448,"internal_node_id":"0.0-151.0","task_version":"battery-v0.2-trt"},{"rune":"J","rune_set":"bacs2","hex":"#3366ff99","correct":-1,"choice":32,"rt":1041.6699999477714,"accuracy":0,"outcome":"+1","keys":[2542.36500011757],"total_keys":1,"block":2,"trial":144,"stimulus":0,"robot":2,"valence":"win","action":"no-go","sham":0,"trial_type":"pit-trial","trial_index":185,"time_elapsed":773197,"internal_node_id":"0.0-152.0","task_version":"battery-v0.2-trt"},{"rune":"X","rune_set":"bacs2","hex":"#f73b6a7A","correct":-1,"choice":32,"rt":1241.0699999891222,"accuracy":0,"outcome":"-10","keys":[2742.50499997288],"total_keys":1,"block":2,"trial":145,"stimulus":2,"robot":4,"valence":"lose","action":"no-go","sham":0,"trial_type":"pit-trial","trial_index":186,"time_elapsed":777144,"internal_node_id":"0.0-153.0","task_version":"battery-v0.2-trt"},{"rune":"J","rune_set":"bacs2","hex":"#3366ff99","correct":-1,"choice":-1,"rt":-1,"accuracy":1,"outcome":"+10","keys":[],"total_keys":0,"block":2,"trial":146,"stimulus":0,"robot":2,"valence":"win","action":"no-go","sham":0,"trial_type":"pit-trial","trial_index":187,"time_elapsed":781152,"internal_node_id":"0.0-154.0","task_version":"battery-v0.2-trt"},{"rune":"Z","rune_set":"bacs2","hex":"#3366ff99","correct":32,"choice":-1,"rt":-1,"accuracy":0,"outcome":"+1","keys":[],"total_keys":0,"block":2,"trial":147,"stimulus":3,"robot":1,"valence":"win","action":"go","sham":0,"trial_type":"pit-trial","trial_index":188,"time_elapsed":785158,"internal_node_id":"0.0-155.0","task_version":"battery-v0.2-trt"},{"rune":"W","rune_set":"bacs2","hex":"#3366ff99","correct":32,"choice":32,"rt":912.7950000111014,"accuracy":1,"outcome":"+10","keys":[2414.769999915734],"total_keys":1,"block":2,"trial":148,"stimulus":1,"robot":1,"valence":"win","action":"go","sham":0,"trial_type":"pit-trial","trial_index":189,"time_elapsed":788777,"internal_node_id":"0.0-156.0","task_version":"battery-v0.2-trt"},{"rune":"J","rune_set":"bacs2","hex":"#3366ff99","correct":-1,"choice":-1,"rt":-1,"accuracy":1,"outcome":"+10","keys":[],"total_keys":0,"block":2,"trial":149,"stimulus":0,"robot":2,"valence":"win","action":"no-go","sham":0,"trial_type":"pit-trial","trial_index":190,"time_elapsed":792783,"internal_node_id":"0.0-157.0","task_version":"battery-v0.2-trt"},{"rune":"X","rune_set":"bacs2","hex":"#f73b6a7A","correct":-1,"choice":32,"rt":533.545000012964,"accuracy":0,"outcome":"-10","keys":[2034.2550000641495],"total_keys":1,"block":2,"trial":150,"stimulus":2,"robot":4,"valence":"lose","action":"no-go","sham":0,"trial_type":"pit-trial","trial_index":191,"time_elapsed":796021,"internal_node_id":"0.0-158.0","task_version":"battery-v0.2-trt"},{"rune":"Z","rune_set":"bacs2","hex":"#3366ff99","correct":32,"choice":32,"rt":1133.1650000065565,"accuracy":1,"outcome":"+10","keys":[2633.9699998497963],"total_keys":1,"block":2,"trial":151,"stimulus":3,"robot":1,"valence":"win","action":"go","sham":0,"trial_type":"pit-trial","trial_index":192,"time_elapsed":799859,"internal_node_id":"0.0-159.0","task_version":"battery-v0.2-trt"},{"rune":"W","rune_set":"bacs2","hex":"#3366ff99","correct":32,"choice":32,"rt":1222.8900000918657,"accuracy":1,"outcome":"+1","keys":[2723.2099999673665],"total_keys":1,"block":2,"trial":152,"stimulus":1,"robot":1,"valence":"win","action":"go","sham":1,"trial_type":"pit-trial","trial_index":193,"time_elapsed":803787,"internal_node_id":"0.0-160.0","task_version":"battery-v0.2-trt"},{"rune":"J","rune_set":"bacs2","hex":"#3366ff99","correct":-1,"choice":-1,"rt":-1,"accuracy":1,"outcome":"+10","keys":[],"total_keys":0,"block":2,"trial":153,"stimulus":0,"robot":2,"valence":"win","action":"no-go","sham":0,"trial_type":"pit-trial","trial_index":194,"time_elapsed":807794,"internal_node_id":"0.0-161.0","task_version":"battery-v0.2-trt"},{"rune":"G","rune_set":"bacs2","hex":"#3366ff99","correct":32,"choice":32,"rt":791.6500000283122,"accuracy":1,"outcome":"+10","keys":[2292.189999949187],"total_keys":1,"block":2,"trial":154,"stimulus":4,"robot":1,"valence":"win","action":"go","sham":0,"trial_type":"pit-trial","trial_index":195,"time_elapsed":811292,"internal_node_id":"0.0-162.0","task_version":"battery-v0.2-trt"},{"rune":"X","rune_set":"bacs2","hex":"#f73b6a7A","correct":-1,"choice":32,"rt":770.8199999760836,"accuracy":0,"outcome":"-10","keys":[2271.9550000038],"total_keys":1,"block":2,"trial":155,"stimulus":2,"robot":4,"valence":"lose","action":"no-go","sham":0,"trial_type":"pit-trial","trial_index":196,"time_elapsed":814770,"internal_node_id":"0.0-163.0","task_version":"battery-v0.2-trt"},{"rune":"Z","rune_set":"bacs2","hex":"#3366ff99","correct":32,"choice":32,"rt":447.8849999140948,"accuracy":1,"outcome":"+10","keys":[1948.1999999843538],"total_keys":1,"block":2,"trial":156,"stimulus":3,"robot":1,"valence":"win","action":"go","sham":0,"trial_type":"pit-trial","trial_index":197,"time_elapsed":817926,"internal_node_id":"0.0-164.0","task_version":"battery-v0.2-trt"},{"rune":"X","rune_set":"bacs2","hex":"#f73b6a7A","correct":-1,"choice":-1,"rt":-1,"accuracy":1,"outcome":"-10","keys":[2955.30500006862],"total_keys":1,"block":2,"trial":157,"stimulus":2,"robot":4,"valence":"lose","action":"no-go","sham":1,"trial_type":"pit-trial","trial_index":198,"time_elapsed":821929,"internal_node_id":"0.0-165.0","task_version":"battery-v0.2-trt"},{"rune":"J","rune_set":"bacs2","hex":"#3366ff99","correct":-1,"choice":-1,"rt":-1,"accuracy":1,"outcome":"+10","keys":[],"total_keys":0,"block":2,"trial":158,"stimulus":0,"robot":2,"valence":"win","action":"no-go","sham":0,"trial_type":"pit-trial","trial_index":199,"time_elapsed":825936,"internal_node_id":"0.0-166.0","task_version":"battery-v0.2-trt"},{"rune":"G","rune_set":"bacs2","hex":"#3366ff99","correct":32,"choice":-1,"rt":-1,"accuracy":0,"outcome":"+1","keys":[],"total_keys":0,"block":2,"trial":159,"stimulus":4,"robot":1,"valence":"win","action":"go","sham":0,"trial_type":"pit-trial","trial_index":200,"time_elapsed":829943,"internal_node_id":"0.0-167.0","task_version":"battery-v0.2-trt"},{"rune":"Z","rune_set":"bacs2","hex":"#3366ff99","correct":32,"choice":32,"rt":1240.2550000697374,"accuracy":1,"outcome":"+10","keys":[2740.5799999833107],"total_keys":1,"block":2,"trial":160,"stimulus":3,"robot":1,"valence":"win","action":"go","sham":0,"trial_type":"pit-trial","trial_index":201,"time_elapsed":833888,"internal_node_id":"0.0-168.0","task_version":"battery-v0.2-trt"},{"rune":"C","rune_set":"bacs2","hex":"#f73b6a7A","correct":-1,"choice":32,"rt":731.9049998186529,"accuracy":0,"outcome":"-10","keys":[2232.6249999459833],"total_keys":1,"block":2,"trial":161,"stimulus":6,"robot":4,"valence":"lose","action":"no-go","sham":0,"trial_type":"pit-trial","trial_index":202,"time_elapsed":837325,"internal_node_id":"0.0-169.0","task_version":"battery-v0.2-trt"},{"rune":"G","rune_set":"bacs2","hex":"#3366ff99","correct":32,"choice":-1,"rt":-1,"accuracy":0,"outcome":"+10","keys":[2952.6899999473244],"total_keys":1,"block":2,"trial":162,"stimulus":4,"robot":1,"valence":"win","action":"go","sham":1,"trial_type":"pit-trial","trial_index":203,"time_elapsed":841331,"internal_node_id":"0.0-170.0","task_version":"battery-v0.2-trt"},{"rune":"O","rune_set":"bacs2","hex":"#f73b6a7A","correct":32,"choice":32,"rt":715.5150000471622,"accuracy":1,"outcome":"-1","keys":[2215.695000020787],"total_keys":1,"block":2,"trial":163,"stimulus":5,"robot":3,"valence":"lose","action":"go","sham":0,"trial_type":"pit-trial","trial_index":204,"time_elapsed":844752,"internal_node_id":"0.0-171.0","task_version":"battery-v0.2-trt"},{"rune":"J","rune_set":"bacs2","hex":"#3366ff99","correct":-1,"choice":32,"rt":1116.8249999172986,"accuracy":0,"outcome":"+1","keys":[2616.8850001413375],"total_keys":1,"block":2,"trial":164,"stimulus":0,"robot":2,"valence":"win","action":"no-go","sham":0,"trial_type":"pit-trial","trial_index":205,"time_elapsed":848573,"internal_node_id":"0.0-172.0","task_version":"battery-v0.2-trt"},{"rune":"J","rune_set":"bacs2","hex":"#3366ff99","correct":-1,"choice":-1,"rt":-1,"accuracy":1,"outcome":"+10","keys":[],"total_keys":0,"block":2,"trial":165,"stimulus":0,"robot":2,"valence":"win","action":"no-go","sham":0,"trial_type":"pit-trial","trial_index":206,"time_elapsed":852582,"internal_node_id":"0.0-173.0","task_version":"battery-v0.2-trt"},{"rune":"G","rune_set":"bacs2","hex":"#3366ff99","correct":32,"choice":-1,"rt":-1,"accuracy":0,"outcome":"+1","keys":[],"total_keys":0,"block":2,"trial":166,"stimulus":4,"robot":1,"valence":"win","action":"go","sham":0,"trial_type":"pit-trial","trial_index":207,"time_elapsed":856586,"internal_node_id":"0.0-174.0","task_version":"battery-v0.2-trt"},{"rune":"C","rune_set":"bacs2","hex":"#f73b6a7A","correct":-1,"choice":-1,"rt":-1,"accuracy":1,"outcome":"-1","keys":[],"total_keys":0,"block":2,"trial":167,"stimulus":6,"robot":4,"valence":"lose","action":"no-go","sham":0,"trial_type":"pit-trial","trial_index":208,"time_elapsed":860592,"internal_node_id":"0.0-175.0","task_version":"battery-v0.2-trt"},{"rune":"O","rune_set":"bacs2","hex":"#f73b6a7A","correct":32,"choice":-1,"rt":-1,"accuracy":0,"outcome":"-1","keys":[],"total_keys":0,"block":2,"trial":168,"stimulus":5,"robot":3,"valence":"lose","action":"go","sham":1,"trial_type":"pit-trial","trial_index":209,"time_elapsed":864602,"internal_node_id":"0.0-176.0","task_version":"battery-v0.2-trt"},{"rune":"O","rune_set":"bacs2","hex":"#f73b6a7A","correct":32,"choice":-1,"rt":-1,"accuracy":0,"outcome":"-10","keys":[],"total_keys":0,"block":2,"trial":169,"stimulus":5,"robot":3,"valence":"lose","action":"go","sham":0,"trial_type":"pit-trial","trial_index":210,"time_elapsed":868609,"internal_node_id":"0.0-177.0","task_version":"battery-v0.2-trt"},{"rune":"C","rune_set":"bacs2","hex":"#f73b6a7A","correct":-1,"choice":32,"rt":577.945000026375,"accuracy":0,"outcome":"-10","keys":[2079.7800000291318],"total_keys":1,"block":2,"trial":170,"stimulus":6,"robot":4,"valence":"lose","action":"no-go","sham":0,"trial_type":"pit-trial","trial_index":211,"time_elapsed":871894,"internal_node_id":"0.0-178.0","task_version":"battery-v0.2-trt"},{"rune":"E","rune_set":"bacs2","hex":"#3366ff99","correct":-1,"choice":32,"rt":822.1950000151992,"accuracy":0,"outcome":"+1","keys":[2323.7699999008328],"total_keys":1,"block":2,"trial":171,"stimulus":7,"robot":2,"valence":"win","action":"no-go","sham":0,"trial_type":"pit-trial","trial_index":212,"time_elapsed":875423,"internal_node_id":"0.0-179.0","task_version":"battery-v0.2-trt"},{"rune":"G","rune_set":"bacs2","hex":"#3366ff99","correct":32,"choice":-1,"rt":-1,"accuracy":0,"outcome":"+1","keys":[],"total_keys":0,"block":2,"trial":172,"stimulus":4,"robot":1,"valence":"win","action":"go","sham":0,"trial_type":"pit-trial","trial_index":213,"time_elapsed":879428,"internal_node_id":"0.0-180.0","task_version":"battery-v0.2-trt"},{"rune":"G","rune_set":"bacs2","hex":"#3366ff99","correct":32,"choice":-1,"rt":-1,"accuracy":0,"outcome":"+1","keys":[],"total_keys":0,"block":2,"trial":173,"stimulus":4,"robot":1,"valence":"win","action":"go","sham":0,"trial_type":"pit-trial","trial_index":214,"time_elapsed":883434,"internal_node_id":"0.0-181.0","task_version":"battery-v0.2-trt"},{"rune":"C","rune_set":"bacs2","hex":"#f73b6a7A","correct":-1,"choice":-1,"rt":-1,"accuracy":1,"outcome":"-1","keys":[],"total_keys":0,"block":2,"trial":174,"stimulus":6,"robot":4,"valence":"lose","action":"no-go","sham":0,"trial_type":"pit-trial","trial_index":215,"time_elapsed":887442,"internal_node_id":"0.0-182.0","task_version":"battery-v0.2-trt"},{"rune":"E","rune_set":"bacs2","hex":"#3366ff99","correct":-1,"choice":32,"rt":533.6849999148399,"accuracy":0,"outcome":"+1","keys":[2034.0050000231713],"total_keys":1,"block":2,"trial":175,"stimulus":7,"robot":2,"valence":"win","action":"no-go","sham":0,"trial_type":"pit-trial","trial_index":216,"time_elapsed":890681,"internal_node_id":"0.0-183.0","task_version":"battery-v0.2-trt"},{"rune":"O","rune_set":"bacs2","hex":"#f73b6a7A","correct":32,"choice":-1,"rt":-1,"accuracy":0,"outcome":"-10","keys":[],"total_keys":0,"block":2,"trial":176,"stimulus":5,"robot":3,"valence":"lose","action":"go","sham":0,"trial_type":"pit-trial","trial_index":217,"time_elapsed":894686,"internal_node_id":"0.0-184.0","task_version":"battery-v0.2-trt"},{"rune":"C","rune_set":"bacs2","hex":"#f73b6a7A","correct":-1,"choice":-1,"rt":-1,"accuracy":1,"outcome":"-10","keys":[],"total_keys":0,"block":2,"trial":177,"stimulus":6,"robot":4,"valence":"lose","action":"no-go","sham":1,"trial_type":"pit-trial","trial_index":218,"time_elapsed":898692,"internal_node_id":"0.0-185.0","task_version":"battery-v0.2-trt"},{"rune":"G","rune_set":"bacs2","hex":"#3366ff99","correct":32,"choice":-1,"rt":-1,"accuracy":0,"outcome":"+1","keys":[],"total_keys":0,"block":2,"trial":178,"stimulus":4,"robot":1,"valence":"win","action":"go","sham":0,"trial_type":"pit-trial","trial_index":219,"time_elapsed":902698,"internal_node_id":"0.0-186.0","task_version":"battery-v0.2-trt"},{"rune":"E","rune_set":"bacs2","hex":"#3366ff99","correct":-1,"choice":32,"rt":778.5900000017136,"accuracy":0,"outcome":"+1","keys":[2280.1050001289696],"total_keys":1,"block":2,"trial":179,"stimulus":7,"robot":2,"valence":"win","action":"no-go","sham":0,"trial_type":"pit-trial","trial_index":220,"time_elapsed":906183,"internal_node_id":"0.0-187.0","task_version":"battery-v0.2-trt"},{"rune":"O","rune_set":"bacs2","hex":"#f73b6a7A","correct":32,"choice":-1,"rt":-1,"accuracy":0,"outcome":"-10","keys":[],"total_keys":0,"block":2,"trial":180,"stimulus":5,"robot":3,"valence":"lose","action":"go","sham":0,"trial_type":"pit-trial","trial_index":221,"time_elapsed":910189,"internal_node_id":"0.0-188.0","task_version":"battery-v0.2-trt"},{"rune":"C","rune_set":"bacs2","hex":"#f73b6a7A","correct":-1,"choice":-1,"rt":-1,"accuracy":1,"outcome":"-10","keys":[],"total_keys":0,"block":2,"trial":181,"stimulus":6,"robot":4,"valence":"lose","action":"no-go","sham":1,"trial_type":"pit-trial","trial_index":222,"time_elapsed":914195,"internal_node_id":"0.0-189.0","task_version":"battery-v0.2-trt"},{"rune":"E","rune_set":"bacs2","hex":"#3366ff99","correct":-1,"choice":-1,"rt":-1,"accuracy":1,"outcome":"+10","keys":[],"total_keys":0,"block":2,"trial":182,"stimulus":7,"robot":2,"valence":"win","action":"no-go","sham":0,"trial_type":"pit-trial","trial_index":223,"time_elapsed":918201,"internal_node_id":"0.0-190.0","task_version":"battery-v0.2-trt"},{"rune":"G","rune_set":"bacs2","hex":"#3366ff99","correct":32,"choice":32,"rt":707.9650000669062,"accuracy":1,"outcome":"+10","keys":[2208.569999784231],"total_keys":1,"block":2,"trial":183,"stimulus":4,"robot":1,"valence":"win","action":"go","sham":0,"trial_type":"pit-trial","trial_index":224,"time_elapsed":921614,"internal_node_id":"0.0-191.0","task_version":"battery-v0.2-trt"},{"rune":"O","rune_set":"bacs2","hex":"#f73b6a7A","correct":32,"choice":-1,"rt":-1,"accuracy":0,"outcome":"-10","keys":[],"total_keys":0,"block":2,"trial":184,"stimulus":5,"robot":3,"valence":"lose","action":"go","sham":0,"trial_type":"pit-trial","trial_index":225,"time_elapsed":925621,"internal_node_id":"0.0-192.0","task_version":"battery-v0.2-trt"},{"rune":"O","rune_set":"bacs2","hex":"#f73b6a7A","correct":32,"choice":-1,"rt":-1,"accuracy":0,"outcome":"-10","keys":[],"total_keys":0,"block":2,"trial":185,"stimulus":5,"robot":3,"valence":"lose","action":"go","sham":0,"trial_type":"pit-trial","trial_index":226,"time_elapsed":929626,"internal_node_id":"0.0-193.0","task_version":"battery-v0.2-trt"},{"rune":"C","rune_set":"bacs2","hex":"#f73b6a7A","correct":-1,"choice":-1,"rt":-1,"accuracy":1,"outcome":"-1","keys":[],"total_keys":0,"block":2,"trial":186,"stimulus":6,"robot":4,"valence":"lose","action":"no-go","sham":0,"trial_type":"pit-trial","trial_index":227,"time_elapsed":933633,"internal_node_id":"0.0-194.0","task_version":"battery-v0.2-trt"},{"rune":"G","rune_set":"bacs2","hex":"#3366ff99","correct":32,"choice":-1,"rt":-1,"accuracy":0,"outcome":"+1","keys":[],"total_keys":0,"block":2,"trial":187,"stimulus":4,"robot":1,"valence":"win","action":"go","sham":0,"trial_type":"pit-trial","trial_index":228,"time_elapsed":937638,"internal_node_id":"0.0-195.0","task_version":"battery-v0.2-trt"},{"rune":"E","rune_set":"bacs2","hex":"#3366ff99","correct":-1,"choice":-1,"rt":-1,"accuracy":1,"outcome":"+10","keys":[],"total_keys":0,"block":2,"trial":188,"stimulus":7,"robot":2,"valence":"win","action":"no-go","sham":0,"trial_type":"pit-trial","trial_index":229,"time_elapsed":941645,"internal_node_id":"0.0-196.0","task_version":"battery-v0.2-trt"},{"rune":"G","rune_set":"bacs2","hex":"#3366ff99","correct":32,"choice":-1,"rt":-1,"accuracy":0,"outcome":"+1","keys":[],"total_keys":0,"block":2,"trial":189,"stimulus":4,"robot":1,"valence":"win","action":"go","sham":0,"trial_type":"pit-trial","trial_index":230,"time_elapsed":945650,"internal_node_id":"0.0-197.0","task_version":"battery-v0.2-trt"},{"rune":"C","rune_set":"bacs2","hex":"#f73b6a7A","correct":-1,"choice":-1,"rt":-1,"accuracy":1,"outcome":"-1","keys":[],"total_keys":0,"block":2,"trial":190,"stimulus":6,"robot":4,"valence":"lose","action":"no-go","sham":0,"trial_type":"pit-trial","trial_index":231,"time_elapsed":949656,"internal_node_id":"0.0-198.0","task_version":"battery-v0.2-trt"},{"rune":"E","rune_set":"bacs2","hex":"#3366ff99","correct":-1,"choice":-1,"rt":-1,"accuracy":1,"outcome":"+10","keys":[],"total_keys":0,"block":2,"trial":191,"stimulus":7,"robot":2,"valence":"win","action":"no-go","sham":0,"trial_type":"pit-trial","trial_index":232,"time_elapsed":953662,"internal_node_id":"0.0-199.0","task_version":"battery-v0.2-trt"},{"rune":"O","rune_set":"bacs2","hex":"#f73b6a7A","correct":32,"choice":-1,"rt":-1,"accuracy":0,"outcome":"-1","keys":[],"total_keys":0,"block":2,"trial":192,"stimulus":5,"robot":3,"valence":"lose","action":"go","sham":1,"trial_type":"pit-trial","trial_index":233,"time_elapsed":957668,"internal_node_id":"0.0-200.0","task_version":"battery-v0.2-trt"},{"rune":"H","rune_set":"bacs2","hex":"#f73b6a7A","correct":32,"choice":-1,"rt":-1,"accuracy":0,"outcome":"-10","keys":[],"total_keys":0,"block":2,"trial":193,"stimulus":8,"robot":3,"valence":"lose","action":"go","sham":0,"trial_type":"pit-trial","trial_index":234,"time_elapsed":961677,"internal_node_id":"0.0-201.0","task_version":"battery-v0.2-trt"},{"rune":"E","rune_set":"bacs2","hex":"#3366ff99","correct":-1,"choice":-1,"rt":-1,"accuracy":1,"outcome":"+10","keys":[],"total_keys":0,"block":2,"trial":194,"stimulus":7,"robot":2,"valence":"win","action":"no-go","sham":0,"trial_type":"pit-trial","trial_index":235,"time_elapsed":965682,"internal_node_id":"0.0-202.0","task_version":"battery-v0.2-trt"},{"rune":"C","rune_set":"bacs2","hex":"#f73b6a7A","correct":-1,"choice":-1,"rt":-1,"accuracy":1,"outcome":"-1","keys":[],"total_keys":0,"block":2,"trial":195,"stimulus":6,"robot":4,"valence":"lose","action":"no-go","sham":0,"trial_type":"pit-trial","trial_index":236,"time_elapsed":969688,"internal_node_id":"0.0-203.0","task_version":"battery-v0.2-trt"},{"rune":"G","rune_set":"bacs2","hex":"#3366ff99","correct":32,"choice":32,"rt":968.3449999429286,"accuracy":1,"outcome":"+10","keys":[2468.9650000073016],"total_keys":1,"block":2,"trial":196,"stimulus":4,"robot":1,"valence":"win","action":"go","sham":0,"trial_type":"pit-trial","trial_index":237,"time_elapsed":973361,"internal_node_id":"0.0-204.0","task_version":"battery-v0.2-trt"},{"rune":"C","rune_set":"bacs2","hex":"#f73b6a7A","correct":-1,"choice":-1,"rt":-1,"accuracy":1,"outcome":"-1","keys":[],"total_keys":0,"block":2,"trial":197,"stimulus":6,"robot":4,"valence":"lose","action":"no-go","sham":0,"trial_type":"pit-trial","trial_index":238,"time_elapsed":977366,"internal_node_id":"0.0-205.0","task_version":"battery-v0.2-trt"},{"rune":"H","rune_set":"bacs2","hex":"#f73b6a7A","correct":32,"choice":32,"rt":719.6100000292063,"accuracy":1,"outcome":"-1","keys":[2221.6000000480562],"total_keys":1,"block":2,"trial":198,"stimulus":8,"robot":3,"valence":"lose","action":"go","sham":0,"trial_type":"pit-trial","trial_index":239,"time_elapsed":980792,"internal_node_id":"0.0-206.0","task_version":"battery-v0.2-trt"},{"rune":"E","rune_set":"bacs2","hex":"#3366ff99","correct":-1,"choice":-1,"rt":-1,"accuracy":1,"outcome":"+10","keys":[],"total_keys":0,"block":2,"trial":199,"stimulus":7,"robot":2,"valence":"win","action":"no-go","sham":0,"trial_type":"pit-trial","trial_index":240,"time_elapsed":984800,"internal_node_id":"0.0-207.0","task_version":"battery-v0.2-trt"},{"rune":"G","rune_set":"bacs2","hex":"#3366ff99","correct":32,"choice":-1,"rt":-1,"accuracy":0,"outcome":"+1","keys":[],"total_keys":0,"block":2,"trial":200,"stimulus":4,"robot":1,"valence":"win","action":"go","sham":0,"trial_type":"pit-trial","trial_index":241,"time_elapsed":988805,"internal_node_id":"0.0-208.0","task_version":"battery-v0.2-trt"},{"rune":"C","rune_set":"bacs2","hex":"#f73b6a7A","correct":-1,"choice":-1,"rt":-1,"accuracy":1,"outcome":"-10","keys":[],"total_keys":0,"block":2,"trial":201,"stimulus":6,"robot":4,"valence":"lose","action":"no-go","sham":1,"trial_type":"pit-trial","trial_index":242,"time_elapsed":992812,"internal_node_id":"0.0-209.0","task_version":"battery-v0.2-trt"},{"rune":"E","rune_set":"bacs2","hex":"#3366ff99","correct":-1,"choice":-1,"rt":-1,"accuracy":1,"outcome":"+1","keys":[2895.659999921918],"total_keys":1,"block":2,"trial":202,"stimulus":7,"robot":2,"valence":"win","action":"no-go","sham":1,"trial_type":"pit-trial","trial_index":243,"time_elapsed":996817,"internal_node_id":"0.0-210.0","task_version":"battery-v0.2-trt"},{"rune":"Q","rune_set":"bacs2","hex":"#f73b6a7A","correct":32,"choice":-1,"rt":-1,"accuracy":0,"outcome":"-10","keys":[],"total_keys":0,"block":2,"trial":203,"stimulus":9,"robot":3,"valence":"lose","action":"go","sham":0,"trial_type":"pit-trial","trial_index":244,"time_elapsed":1000822,"internal_node_id":"0.0-211.0","task_version":"battery-v0.2-trt"},{"rune":"H","rune_set":"bacs2","hex":"#f73b6a7A","correct":32,"choice":32,"rt":597.0099999103695,"accuracy":1,"outcome":"-1","keys":[2097.9799998458475],"total_keys":1,"block":2,"trial":204,"stimulus":8,"robot":3,"valence":"lose","action":"go","sham":0,"trial_type":"pit-trial","trial_index":245,"time_elapsed":1004124,"internal_node_id":"0.0-212.0","task_version":"battery-v0.2-trt"},{"rune":"E","rune_set":"bacs2","hex":"#3366ff99","correct":-1,"choice":-1,"rt":-1,"accuracy":1,"outcome":"+1","keys":[],"total_keys":0,"block":2,"trial":205,"stimulus":7,"robot":2,"valence":"win","action":"no-go","sham":1,"trial_type":"pit-trial","trial_index":246,"time_elapsed":1008129,"internal_node_id":"0.0-213.0","task_version":"battery-v0.2-trt"},{"rune":"Q","rune_set":"bacs2","hex":"#f73b6a7A","correct":32,"choice":-1,"rt":-1,"accuracy":0,"outcome":"-10","keys":[],"total_keys":0,"block":2,"trial":206,"stimulus":9,"robot":3,"valence":"lose","action":"go","sham":0,"trial_type":"pit-trial","trial_index":247,"time_elapsed":1012135,"internal_node_id":"0.0-214.0","task_version":"battery-v0.2-trt"},{"rune":"C","rune_set":"bacs2","hex":"#f73b6a7A","correct":-1,"choice":-1,"rt":-1,"accuracy":1,"outcome":"-1","keys":[],"total_keys":0,"block":2,"trial":207,"stimulus":6,"robot":4,"valence":"lose","action":"no-go","sham":0,"trial_type":"pit-trial","trial_index":248,"time_elapsed":1017721,"internal_node_id":"0.0-215.0","task_version":"battery-v0.2-trt"},{"rune":"H","rune_set":"bacs2","hex":"#f73b6a7A","correct":32,"choice":-1,"rt":-1,"accuracy":0,"outcome":"-10","keys":[3280.8550000190735],"total_keys":1,"block":2,"trial":208,"stimulus":8,"robot":3,"valence":"lose","action":"go","sham":0,"trial_type":"pit-trial","trial_index":249,"time_elapsed":1021731,"internal_node_id":"0.0-216.0","task_version":"battery-v0.2-trt"},{"rune":"Y","rune_set":"bacs2","hex":"#3366ff99","correct":-1,"choice":-1,"rt":-1,"accuracy":1,"outcome":"+10","keys":[],"total_keys":0,"block":2,"trial":209,"stimulus":11,"robot":2,"valence":"win","action":"no-go","sham":0,"trial_type":"pit-trial","trial_index":250,"time_elapsed":1025737,"internal_node_id":"0.0-217.0","task_version":"battery-v0.2-trt"},{"rune":"H","rune_set":"bacs2","hex":"#f73b6a7A","correct":32,"choice":32,"rt":515.1450000703335,"accuracy":1,"outcome":"-10","keys":[2015.8249998930842],"total_keys":1,"block":2,"trial":210,"stimulus":8,"robot":3,"valence":"lose","action":"go","sham":1,"trial_type":"pit-trial","trial_index":251,"time_elapsed":1028958,"internal_node_id":"0.0-218.0","task_version":"battery-v0.2-trt"},{"rune":"Q","rune_set":"bacs2","hex":"#f73b6a7A","correct":32,"choice":32,"rt":665.0900000240654,"accuracy":1,"outcome":"-1","keys":[2165.2800000738353],"total_keys":1,"block":2,"trial":211,"stimulus":9,"robot":3,"valence":"lose","action":"go","sham":0,"trial_type":"pit-trial","trial_index":252,"time_elapsed":1032329,"internal_node_id":"0.0-219.0","task_version":"battery-v0.2-trt"},{"rune":"T","rune_set":"bacs2","hex":"#f73b6a7A","correct":-1,"choice":32,"rt":718.9750000834465,"accuracy":0,"outcome":"-10","keys":[2219.414999941364],"total_keys":1,"block":2,"trial":212,"stimulus":10,"robot":4,"valence":"lose","action":"no-go","sham":0,"trial_type":"pit-trial","trial_index":253,"time_elapsed":1035752,"internal_node_id":"0.0-220.0","task_version":"battery-v0.2-trt"},{"rune":"Q","rune_set":"bacs2","hex":"#f73b6a7A","correct":32,"choice":32,"rt":477.7349999640137,"accuracy":1,"outcome":"-10","keys":[1978.4500000532717],"total_keys":1,"block":2,"trial":213,"stimulus":9,"robot":3,"valence":"lose","action":"go","sham":1,"trial_type":"pit-trial","trial_index":254,"time_elapsed":1038935,"internal_node_id":"0.0-221.0","task_version":"battery-v0.2-trt"},{"rune":"Y","rune_set":"bacs2","hex":"#3366ff99","correct":-1,"choice":32,"rt":571.9300000928342,"accuracy":0,"outcome":"+10","keys":[2073.310000123456],"total_keys":1,"block":2,"trial":214,"stimulus":11,"robot":2,"valence":"win","action":"no-go","sham":1,"trial_type":"pit-trial","trial_index":255,"time_elapsed":1042216,"internal_node_id":"0.0-222.0","task_version":"battery-v0.2-trt"},{"rune":"H","rune_set":"bacs2","hex":"#f73b6a7A","correct":32,"choice":-1,"rt":-1,"accuracy":0,"outcome":"-10","keys":[],"total_keys":0,"block":2,"trial":215,"stimulus":8,"robot":3,"valence":"lose","action":"go","sham":0,"trial_type":"pit-trial","trial_index":256,"time_elapsed":1046222,"internal_node_id":"0.0-223.0","task_version":"battery-v0.2-trt"},{"rune":"T","rune_set":"bacs2","hex":"#f73b6a7A","correct":-1,"choice":32,"rt":573.0149999726564,"accuracy":0,"outcome":"-10","keys":[2073.4149999916553],"total_keys":1,"block":2,"trial":216,"stimulus":10,"robot":4,"valence":"lose","action":"no-go","sham":0,"trial_type":"pit-trial","trial_index":257,"time_elapsed":1049502,"internal_node_id":"0.0-224.0","task_version":"battery-v0.2-trt"},{"rune":"T","rune_set":"bacs2","hex":"#f73b6a7A","correct":-1,"choice":-1,"rt":-1,"accuracy":1,"outcome":"-1","keys":[],"total_keys":0,"block":2,"trial":217,"stimulus":10,"robot":4,"valence":"lose","action":"no-go","sham":0,"trial_type":"pit-trial","trial_index":258,"time_elapsed":1053511,"internal_node_id":"0.0-225.0","task_version":"battery-v0.2-trt"},{"rune":"Y","rune_set":"bacs2","hex":"#3366ff99","correct":-1,"choice":32,"rt":847.099999897182,"accuracy":0,"outcome":"+1","keys":[2348.1999998912215],"total_keys":1,"block":2,"trial":218,"stimulus":11,"robot":2,"valence":"win","action":"no-go","sham":0,"trial_type":"pit-trial","trial_index":259,"time_elapsed":1057063,"internal_node_id":"0.0-226.0","task_version":"battery-v0.2-trt"},{"rune":"Q","rune_set":"bacs2","hex":"#f73b6a7A","correct":32,"choice":-1,"rt":-1,"accuracy":0,"outcome":"-10","keys":[2996.240000007674],"total_keys":1,"block":2,"trial":219,"stimulus":9,"robot":3,"valence":"lose","action":"go","sham":0,"trial_type":"pit-trial","trial_index":260,"time_elapsed":1061068,"internal_node_id":"0.0-227.0","task_version":"battery-v0.2-trt"},{"rune":"H","rune_set":"bacs2","hex":"#f73b6a7A","correct":32,"choice":32,"rt":988.0949999205768,"accuracy":1,"outcome":"-1","keys":[2488.8650001958013],"total_keys":1,"block":2,"trial":220,"stimulus":8,"robot":3,"valence":"lose","action":"go","sham":0,"trial_type":"pit-trial","trial_index":261,"time_elapsed":1064763,"internal_node_id":"0.0-228.0","task_version":"battery-v0.2-trt"},{"rune":"Y","rune_set":"bacs2","hex":"#3366ff99","correct":-1,"choice":32,"rt":604.1449999902397,"accuracy":0,"outcome":"+1","keys":[2104.1449999902397],"total_keys":1,"block":2,"trial":221,"stimulus":11,"robot":2,"valence":"win","action":"no-go","sham":0,"trial_type":"pit-trial","trial_index":262,"time_elapsed":1068073,"internal_node_id":"0.0-229.0","task_version":"battery-v0.2-trt"},{"rune":"H","rune_set":"bacs2","hex":"#f73b6a7A","correct":32,"choice":32,"rt":666.2449999712408,"accuracy":1,"outcome":"-10","keys":[2172.9549998417497],"total_keys":1,"block":2,"trial":222,"stimulus":8,"robot":3,"valence":"lose","action":"go","sham":1,"trial_type":"pit-trial","trial_index":263,"time_elapsed":1071451,"internal_node_id":"0.0-230.0","task_version":"battery-v0.2-trt"},{"rune":"T","rune_set":"bacs2","hex":"#f73b6a7A","correct":-1,"choice":-1,"rt":-1,"accuracy":1,"outcome":"-1","keys":[],"total_keys":0,"block":2,"trial":223,"stimulus":10,"robot":4,"valence":"lose","action":"no-go","sham":0,"trial_type":"pit-trial","trial_index":264,"time_elapsed":1075457,"internal_node_id":"0.0-231.0","task_version":"battery-v0.2-trt"},{"rune":"Q","rune_set":"bacs2","hex":"#f73b6a7A","correct":32,"choice":32,"rt":1175.3299999982119,"accuracy":1,"outcome":"-1","keys":[2677.200000034645],"total_keys":1,"block":2,"trial":224,"stimulus":9,"robot":3,"valence":"lose","action":"go","sham":0,"trial_type":"pit-trial","trial_index":265,"time_elapsed":1079338,"internal_node_id":"0.0-232.0","task_version":"battery-v0.2-trt"},{"rune":"H","rune_set":"bacs2","hex":"#f73b6a7A","correct":32,"choice":32,"rt":649.2549998220056,"accuracy":1,"outcome":"-1","keys":[2150.4500000737607],"total_keys":1,"block":2,"trial":225,"stimulus":8,"robot":3,"valence":"lose","action":"go","sham":0,"trial_type":"pit-trial","trial_index":266,"time_elapsed":1082697,"internal_node_id":"0.0-233.0","task_version":"battery-v0.2-trt"},{"rune":"T","rune_set":"bacs2","hex":"#f73b6a7A","correct":-1,"choice":-1,"rt":-1,"accuracy":1,"outcome":"-1","keys":[],"total_keys":0,"block":2,"trial":226,"stimulus":10,"robot":4,"valence":"lose","action":"no-go","sham":0,"trial_type":"pit-trial","trial_index":267,"time_elapsed":1086704,"internal_node_id":"0.0-234.0","task_version":"battery-v0.2-trt"},{"rune":"Y","rune_set":"bacs2","hex":"#3366ff99","correct":-1,"choice":-1,"rt":-1,"accuracy":1,"outcome":"+10","keys":[],"total_keys":0,"block":2,"trial":227,"stimulus":11,"robot":2,"valence":"win","action":"no-go","sham":0,"trial_type":"pit-trial","trial_index":268,"time_elapsed":1090710,"internal_node_id":"0.0-235.0","task_version":"battery-v0.2-trt"},{"rune":"Q","rune_set":"bacs2","hex":"#f73b6a7A","correct":32,"choice":-1,"rt":-1,"accuracy":0,"outcome":"-10","keys":[2864.659999962896],"total_keys":1,"block":2,"trial":228,"stimulus":9,"robot":3,"valence":"lose","action":"go","sham":0,"trial_type":"pit-trial","trial_index":269,"time_elapsed":1094715,"internal_node_id":"0.0-236.0","task_version":"battery-v0.2-trt"},{"rune":"T","rune_set":"bacs2","hex":"#f73b6a7A","correct":-1,"choice":-1,"rt":-1,"accuracy":1,"outcome":"-1","keys":[],"total_keys":0,"block":2,"trial":229,"stimulus":10,"robot":4,"valence":"lose","action":"no-go","sham":0,"trial_type":"pit-trial","trial_index":270,"time_elapsed":1098720,"internal_node_id":"0.0-237.0","task_version":"battery-v0.2-trt"},{"rune":"Q","rune_set":"bacs2","hex":"#f73b6a7A","correct":32,"choice":-1,"rt":-1,"accuracy":0,"outcome":"-10","keys":[2885.3200001176447],"total_keys":1,"block":2,"trial":230,"stimulus":9,"robot":3,"valence":"lose","action":"go","sham":0,"trial_type":"pit-trial","trial_index":271,"time_elapsed":1102727,"internal_node_id":"0.0-238.0","task_version":"battery-v0.2-trt"},{"rune":"Y","rune_set":"bacs2","hex":"#3366ff99","correct":-1,"choice":-1,"rt":-1,"accuracy":1,"outcome":"+1","keys":[],"total_keys":0,"block":2,"trial":231,"stimulus":11,"robot":2,"valence":"win","action":"no-go","sham":1