[{"view_history":"[{\"page_index\":0,\"viewing_time\":1637.7250000368804}]","rt":1638.1349998991936,"trial_type":"instructions","trial_index":0,"time_elapsed":1644,"internal_node_id":"0.0-0.0","task_version":"battery-v0.2-trt"},{"slider_type":"valence","raw_loc":502,"loc":0.504,"trial_type":"affective-slider","trial_index":1,"time_elapsed":5515,"internal_node_id":"0.0-1.0","task_version":"battery-v0.2-trt"},{"responses":{"Q04":"2","Q02":"3","Q06":"1","Q05":"2","Q09":"3","Q11":"1","Q12":"2","Q10":"2","Q07":"1","Q08":"3","Q13":"2","Q03":"1","Q01":"3"},"rt":75939.67999983579,"item_order":[3,1,5,4,8,10,11,9,6,7,12,2,0],"radio_events":[3423.255000030622,17298.12499997206,47159.289999864995,50011.105000041425,51190.794999944046,54003.204999957234,54978.7649998907,69026.82999987155,70307.15000000782,71503.039999865,72736.95499985479,73682.85500002094,75120.02499983646],"key_events":[3423.255000030622,16625.054999953136,17298.12499997206,42925.04999996163,46346.9299999997,47159.289999864995,48057.004999835044,50011.105000041425,51190.794999944046,52479.78499997407,54003.204999957234,54978.7649998907,68073.28999997117,69026.82999987155,70307.15000000782,71503.039999865,72736.95499985479,73682.85500002094,75120.02499983646,75939.15500002913],"mouse_events":[],"straightlining":0.38461538461538464,"zigzagging":0.5833333333333334,"survey":"bisbas","trial_type":"survey-template","trial_index":2,"time_elapsed":81460,"internal_node_id":"0.0-2.0","task_version":"battery-v0.2-trt","infrequency":1},{"responses":{"Q04":"2","Q08":"3","Q07":"1","Q03":"2","Q02":"3","Q01":"1","Q05":"2","Q06":"2"},"rt":16159.00499979034,"item_order":[3,7,6,2,1,0,4,5],"radio_events":[6792.709999950603,7682.869999902323,9416.834999807179,10987.124999985099,13112.67999978736,14160.12499993667,14800.799999851733,15346.579999895766],"key_events":[4722.439999924973,5402.520000003278,6792.709999950603,7682.869999902323,8987.009999807924,9416.834999807179,10237.770000007004,10987.124999985099,13112.67999978736,14160.12499993667,14800.799999851733,15346.579999895766,16158.909999998286],"mouse_events":[],"straightlining":0.5,"zigzagging":0.5714285714285714,"survey":"dass_d","trial_type":"survey-template","trial_index":3,"time_elapsed":97623,"internal_node_id":"0.0-3.0","task_version":"battery-v0.2-trt","infrequency":0.5},{"responses":{"Q06":"2","Q05":"3","Q07":"1","Q01":"2","Q04":"3","Q08":"0","Q03":"2","Q02":"2"},"rt":22121.52999988757,"item_order":[5,4,6,0,3,7,2,1],"radio_events":[5081.329999957234,6269.640000071377,7777.465000050142,8667.350000003353,9777.340000029653,15863.529999973252,17885.35499991849,19027.149999979883,21331.40500006266],"key_events":[5081.329999957234,6269.640000071377,7777.465000050142,8667.350000003353,9777.340000029653,11941.725000040606,15863.529999973252,17885.35499991849,19027.149999979883,19699.490000028163,21331.40500006266,22121.455000014976],"mouse_events":[],"straightlining":0.5,"zigzagging":0.5714285714285714,"survey":"gad7","trial_type":"survey-template","trial_index":4,"time_elapsed":119749,"internal_node_id":"0.0-4.0","task_version":"battery-v0.2-trt","infrequency":0},{"value":[1.5,1.3846153846153846,1.726190476190476],"trial_type":"call-function","trial_index":5,"time_elapsed":119753,"internal_node_id":"0.0-5.0","task_version":"battery-v0.2-trt"},{"view_history":"[{\"page_index\":0,\"viewing_time\":2147.395000094548},{\"page_index\":1,\"viewing_time\":1545.559999998659},{\"page_index\":2,\"viewing_time\":5951.7949998844415},{\"page_index\":3,\"viewing_time\":15758.06500017643},{\"page_index\":4,\"viewing_time\":3220.1149999164045},{\"page_index\":5,\"viewing_time\":1834.0350000653416},{\"page_index\":6,\"viewing_time\":2585.884999949485},{\"page_index\":7,\"viewing_time\":5679.929999867454},{\"page_index\":8,\"viewing_time\":4258.125000167638},{\"page_index\":9,\"viewing_time\":3046.0399999283254}]","rt":46027.48000016436,"trial_type":"pit-instructions","trial_index":6,"time_elapsed":165784,"internal_node_id":"0.0-6.0-0.0","task_version":"battery-v0.2-trt"},{"rune":"1","rune_set":"elianto","hex":"#3366ff99","correct":32,"choice":-1,"rt":-1,"accuracy":0,"outcome":"+1","keys":[],"total_keys":0,"block":0,"practice":1,"trial_type":"pit-trial","trial_index":7,"time_elapsed":169792,"internal_node_id":"0.0-6.0-1.0-0.0","task_version":"battery-v0.2-trt"},{"rune":"1","rune_set":"elianto","hex":"#3366ff99","correct":32,"choice":-1,"rt":-1,"accuracy":0,"outcome":"+1","keys":[],"total_keys":0,"block":0,"practice":1,"trial_type":"pit-trial","trial_index":8,"time_elapsed":173799,"internal_node_id":"0.0-6.0-1.1-0.1","task_version":"battery-v0.2-trt"},{"rune":"1","rune_set":"elianto","hex":"#3366ff99","correct":32,"choice":-1,"rt":-1,"accuracy":0,"outcome":"+1","keys":[],"total_keys":0,"block":0,"practice":1,"trial_type":"pit-trial","trial_index":9,"time_elapsed":177805,"internal_node_id":"0.0-6.0-1.2-0.2","task_version":"battery-v0.2-trt"},{"rune":"1","rune_set":"elianto","hex":"#3366ff99","correct":32,"choice":-1,"rt":-1,"accuracy":0,"outcome":"+1","keys":[],"total_keys":0,"block":0,"practice":1,"trial_type":"pit-trial","trial_index":10,"time_elapsed":181809,"internal_node_id":"0.0-6.0-1.3-0.3","task_version":"battery-v0.2-trt"},{"rune":"1","rune_set":"elianto","hex":"#3366ff99","correct":32,"choice":32,"rt":966.0499999299645,"accuracy":1,"outcome":"+10","keys":[2467.7049999590963],"total_keys":1,"block":0,"practice":1,"trial_type":"pit-trial","trial_index":11,"time_elapsed":185480,"internal_node_id":"0.0-6.0-1.4-0.4","task_version":"battery-v0.2-trt"},{"rune":"1","rune_set":"elianto","hex":"#3366ff99","correct":32,"choice":32,"rt":379.50000003911555,"accuracy":1,"outcome":"+10","keys":[1880.379999987781],"total_keys":1,"block":0,"practice":1,"trial_type":"pit-trial","trial_index":12,"time_elapsed":188564,"internal_node_id":"0.0-6.0-1.5-0.5","task_version":"battery-v0.2-trt"},{"rune":"1","rune_set":"elianto","hex":"#3366ff99","correct":32,"choice":32,"rt":654.7000000718981,"accuracy":1,"outcome":"+10","keys":[1283.8800000026822,2155.6950001977384],"total_keys":2,"block":0,"practice":1,"trial_type":"pit-trial","trial_index":13,"time_elapsed":191923,"internal_node_id":"0.0-6.0-1.6-0.6","task_version":"battery-v0.2-trt"},{"trial_type":"call-function","trial_index":14,"time_elapsed":191924,"internal_node_id":"0.0-6.0-2.0","task_version":"battery-v0.2-trt"},{"view_history":"[{\"page_index\":0,\"viewing_time\":6264.369999989867},{\"page_index\":1,\"viewing_time\":2867.8749999962747}]","rt":9132.93999992311,"trial_type":"pit-instructions","trial_index":15,"time_elapsed":201059,"internal_node_id":"0.0-6.0-3.0","task_version":"battery-v0.2-trt"},{"rune":"2","rune_set":"elianto","hex":"#3366ff99","correct":-1,"choice":-1,"rt":-1,"accuracy":1,"outcome":"+10","keys":[],"total_keys":0,"block":0,"practice":2,"trial_type":"pit-trial","trial_index":16,"time_elapsed":205065,"internal_node_id":"0.0-6.0-4.0-0.0","task_version":"battery-v0.2-trt"},{"rune":"2","rune_set":"elianto","hex":"#3366ff99","correct":-1,"choice":-1,"rt":-1,"accuracy":1,"outcome":"+10","keys":[],"total_keys":0,"block":0,"practice":2,"trial_type":"pit-trial","trial_index":17,"time_elapsed":209070,"internal_node_id":"0.0-6.0-4.1-0.1","task_version":"battery-v0.2-trt"},{"rune":"2","rune_set":"elianto","hex":"#3366ff99","correct":-1,"choice":-1,"rt":-1,"accuracy":1,"outcome":"+10","keys":[],"total_keys":0,"block":0,"practice":2,"trial_type":"pit-trial","trial_index":18,"time_elapsed":213073,"internal_node_id":"0.0-6.0-4.2-0.2","task_version":"battery-v0.2-trt"},{"rune":"2","rune_set":"elianto","hex":"#3366ff99","correct":-1,"choice":-1,"rt":-1,"accuracy":1,"outcome":"+10","keys":[],"total_keys":0,"block":0,"practice":2,"trial_type":"pit-trial","trial_index":19,"time_elapsed":217077,"internal_node_id":"0.0-6.0-4.3-0.3","task_version":"battery-v0.2-trt"},{"trial_type":"call-function","trial_index":20,"time_elapsed":217078,"internal_node_id":"0.0-6.0-5.0","task_version":"battery-v0.2-trt"},{"view_history":"[{\"page_index\":0,\"viewing_time\":9415.039999876171},{\"page_index\":1,\"viewing_time\":2476.2300001457334}]","rt":11893.324999837205,"trial_type":"pit-instructions","trial_index":21,"time_elapsed":228972,"internal_node_id":"0.0-6.0-6.0","task_version":"battery-v0.2-trt"},{"rune":"3","rune_set":"elianto","hex":"#f73b6a7A","correct":-1,"choice":32,"rt":1082.1599999908358,"accuracy":0,"outcome":"-10","keys":[2583.3100001327693],"total_keys":1,"block":0,"practice":3,"trial_type":"pit-trial","trial_index":22,"time_elapsed":232762,"internal_node_id":"0.0-6.0-7.0-0.0","task_version":"battery-v0.2-trt"},{"rune":"3","rune_set":"elianto","hex":"#f73b6a7A","correct":-1,"choice":-1,"rt":-1,"accuracy":1,"outcome":"-1","keys":[],"total_keys":0,"block":0,"practice":3,"trial_type":"pit-trial","trial_index":23,"time_elapsed":236765,"internal_node_id":"0.0-6.0-7.1-0.1","task_version":"battery-v0.2-trt"},{"rune":"3","rune_set":"elianto","hex":"#f73b6a7A","correct":-1,"choice":-1,"rt":-1,"accuracy":1,"outcome":"-1","keys":[],"total_keys":0,"block":0,"practice":3,"trial_type":"pit-trial","trial_index":24,"time_elapsed":240769,"internal_node_id":"0.0-6.0-7.2-0.2","task_version":"battery-v0.2-trt"},{"rune":"3","rune_set":"elianto","hex":"#f73b6a7A","correct":-1,"choice":-1,"rt":-1,"accuracy":1,"outcome":"-1","keys":[],"total_keys":0,"block":0,"practice":3,"trial_type":"pit-trial","trial_index":25,"time_elapsed":244774,"internal_node_id":"0.0-6.0-7.3-0.3","task_version":"battery-v0.2-trt"},{"trial_type":"call-function","trial_index":26,"time_elapsed":244775,"internal_node_id":"0.0-6.0-8.0","task_version":"battery-v0.2-trt"},{"view_history":"[{\"page_index\":0,\"viewing_time\":1688.164999941364},{\"page_index\":1,\"viewing_time\":1772.1250001341105}]","rt":3460.8249999582767,"trial_type":"pit-instructions","trial_index":27,"time_elapsed":248236,"internal_node_id":"0.0-6.0-9.0","task_version":"battery-v0.2-trt"},{"rune":"4","rune_set":"elianto","hex":"#f73b6a7A","correct":32,"choice":32,"rt":462.9600001499057,"accuracy":1,"outcome":"-1","keys":[1963.6699999682605],"total_keys":1,"block":0,"practice":4,"trial_type":"pit-trial","trial_index":28,"time_elapsed":251403,"internal_node_id":"0.0-6.0-10.0-0.0","task_version":"battery-v0.2-trt"},{"rune":"4","rune_set":"elianto","hex":"#f73b6a7A","correct":32,"choice":32,"rt":292.24999994039536,"accuracy":1,"outcome":"-1","keys":[1793.650000123307],"total_keys":1,"block":0,"practice":4,"trial_type":"pit-trial","trial_index":29,"time_elapsed":254399,"internal_node_id":"0.0-6.0-10.1-0.1","task_version":"battery-v0.2-trt"},{"rune":"4","rune_set":"elianto","hex":"#f73b6a7A","correct":32,"choice":32,"rt":280.2099999971688,"accuracy":1,"outcome":"-1","keys":[1781.0100000351667],"total_keys":1,"block":0,"practice":4,"trial_type":"pit-trial","trial_index":30,"time_elapsed":257384,"internal_node_id":"0.0-6.0-10.2-0.2","task_version":"battery-v0.2-trt"},{"rune":"4","rune_set":"elianto","hex":"#f73b6a7A","correct":32,"choice":32,"rt":222.97500004060566,"accuracy":1,"outcome":"-1","keys":[1724.6900000609457],"total_keys":1,"block":0,"practice":4,"trial_type":"pit-trial","trial_index":31,"time_elapsed":260311,"internal_node_id":"0.0-6.0-10.3-0.3","task_version":"battery-v0.2-trt"},{"trial_type":"call-function","trial_index":32,"time_elapsed":260312,"internal_node_id":"0.0-6.0-11.0","task_version":"battery-v0.2-trt"},{"view_history":"[{\"page_index\":0,\"viewing_time\":1399.3899999186397},{\"page_index\":1,\"viewing_time\":3748.3200000133365},{\"page_index\":2,\"viewing_time\":4743.565000128001},{\"page_index\":3,\"viewing_time\":951.9449998624623},{\"page_index\":4,\"viewing_time\":1296.1950001772493},{\"page_index\":5,\"viewing_time\":687.9600000102073}]","rt":12827.945000026375,"trial_type":"pit-instructions","trial_index":33,"time_elapsed":273141,"internal_node_id":"0.0-6.0-12.0","task_version":"battery-v0.2-trt"},{"responses":["Press SPACE","+10","-1","True","True"],"num_errors":0,"rt":18153.340000193566,"trial_type":"pit-comprehension","trial_index":34,"time_elapsed":291301,"internal_node_id":"0.0-6.0-13.0","task_version":"battery-v0.2-trt"},{"view_history":"[{\"page_index\":0,\"viewing_time\":1796.4149999897927},{\"page_index\":1,\"viewing_time\":1741.9400000944734}]","rt":3538.840000052005,"trial_type":"pit-instructions","trial_index":35,"time_elapsed":294843,"internal_node_id":"0.0-7.0","task_version":"battery-v0.2-trt"},{"rune":"Q","rune_set":"elianto","hex":"#f73b6a7A","correct":-1,"choice":32,"rt":617.8699999582022,"accuracy":0,"outcome":"-1","keys":[2118.8799999654293],"total_keys":1,"block":1,"trial":1,"stimulus":0,"robot":4,"valence":"lose","action":"no-go","sham":1,"trial_type":"pit-trial","trial_index":36,"time_elapsed":298166,"internal_node_id":"0.0-8.0","task_version":"battery-v0.2-trt"},{"rune":"X","rune_set":"elianto","hex":"#3366ff99","correct":-1,"choice":-1,"rt":-1,"accuracy":1,"outcome":"+10","keys":[],"total_keys":0,"block":1,"trial":2,"stimulus":3,"robot":2,"valence":"win","action":"no-go","sham":0,"trial_type":"pit-trial","trial_index":37,"time_elapsed":302175,"internal_node_id":"0.0-9.0","task_version":"battery-v0.2-trt"},{"rune":"N","rune_set":"elianto","hex":"#f73b6a7A","correct":-1,"choice":-1,"rt":-1,"accuracy":1,"outcome":"-1","keys":[2971.5750000905246],"total_keys":1,"block":1,"trial":3,"stimulus":1,"robot":4,"valence":"lose","action":"no-go","sham":0,"trial_type":"pit-trial","trial_index":38,"time_elapsed":306180,"internal_node_id":"0.0-10.0","task_version":"battery-v0.2-trt"},{"rune":"F","rune_set":"elianto","hex":"#3366ff99","correct":32,"choice":32,"rt":621.3599999900907,"accuracy":1,"outcome":"+10","keys":[2122.019999893382],"total_keys":1,"block":1,"trial":4,"stimulus":2,"robot":1,"valence":"win","action":"go","sham":0,"trial_type":"pit-trial","trial_index":39,"time_elapsed":309506,"internal_node_id":"0.0-11.0","task_version":"battery-v0.2-trt"},{"rune":"N","rune_set":"elianto","hex":"#f73b6a7A","correct":-1,"choice":-1,"rt":-1,"accuracy":1,"outcome":"-1","keys":[],"total_keys":0,"block":1,"trial":5,"stimulus":1,"robot":4,"valence":"lose","action":"no-go","sham":0,"trial_type":"pit-trial","trial_index":40,"time_elapsed":313511,"internal_node_id":"0.0-12.0","task_version":"battery-v0.2-trt"},{"rune":"F","rune_set":"elianto","hex":"#3366ff99","correct":32,"choice":32,"rt":662.0950000360608,"accuracy":1,"outcome":"+1","keys":[2163.6350001208484],"total_keys":1,"block":1,"trial":6,"stimulus":2,"robot":1,"valence":"win","action":"go","sham":1,"trial_type":"pit-trial","trial_index":41,"time_elapsed":316879,"internal_node_id":"0.0-13.0","task_version":"battery-v0.2-trt"},{"rune":"X","rune_set":"elianto","hex":"#3366ff99","correct":-1,"choice":32,"rt":495.2100000809878,"accuracy":0,"outcome":"+1","keys":[1996.4000000618398],"total_keys":1,"block":1,"trial":7,"stimulus":3,"robot":2,"valence":"win","action":"no-go","sham":0,"trial_type":"pit-trial","trial_index":42,"time_elapsed":320085,"internal_node_id":"0.0-14.0","task_version":"battery-v0.2-trt"},{"rune":"Q","rune_set":"elianto","hex":"#f73b6a7A","correct":-1,"choice":32,"rt":478.26500004157424,"accuracy":0,"outcome":"-10","keys":[1978.51000004448],"total_keys":1,"block":1,"trial":8,"stimulus":0,"robot":4,"valence":"lose","action":"no-go","sham":0,"trial_type":"pit-trial","trial_index":43,"time_elapsed":323267,"internal_node_id":"0.0-15.0","task_version":"battery-v0.2-trt"},{"rune":"F","rune_set":"elianto","hex":"#3366ff99","correct":32,"choice":-1,"rt":-1,"accuracy":0,"outcome":"+1","keys":[],"total_keys":0,"block":1,"trial":9,"stimulus":2,"robot":1,"valence":"win","action":"go","sham":0,"trial_type":"pit-trial","trial_index":44,"time_elapsed":327272,"internal_node_id":"0.0-16.0","task_version":"battery-v0.2-trt"},{"rune":"Q","rune_set":"elianto","hex":"#f73b6a7A","correct":-1,"choice":32,"rt":526.2800001073629,"accuracy":0,"outcome":"-10","keys":[2027.724999934435],"total_keys":1,"block":1,"trial":10,"stimulus":0,"robot":4,"valence":"lose","action":"no-go","sham":0,"trial_type":"pit-trial","trial_index":45,"time_elapsed":330502,"internal_node_id":"0.0-17.0","task_version":"battery-v0.2-trt"},{"rune":"N","rune_set":"elianto","hex":"#f73b6a7A","correct":-1,"choice":32,"rt":352.9250000137836,"accuracy":0,"outcome":"-10","keys":[1852.9900000430644],"total_keys":1,"block":1,"trial":11,"stimulus":1,"robot":4,"valence":"lose","action":"no-go","sham":0,"trial_type":"pit-trial","trial_index":46,"time_elapsed":333559,"internal_node_id":"0.0-18.0","task_version":"battery-v0.2-trt"},{"rune":"X","rune_set":"elianto","hex":"#3366ff99","correct":-1,"choice":32,"rt":347.73000003769994,"accuracy":0,"outcome":"+1","keys":[1848.2749999966472],"total_keys":1,"block":1,"trial":12,"stimulus":3,"robot":2,"valence":"win","action":"no-go","sham":0,"trial_type":"pit-trial","trial_index":47,"time_elapsed":336614,"internal_node_id":"0.0-19.0","task_version":"battery-v0.2-trt"},{"rune":"Q","rune_set":"elianto","hex":"#f73b6a7A","correct":-1,"choice":-1,"rt":-1,"accuracy":1,"outcome":"-1","keys":[],"total_keys":0,"block":1,"trial":13,"stimulus":0,"robot":4,"valence":"lose","action":"no-go","sham":0,"trial_type":"pit-trial","trial_index":48,"time_elapsed":340620,"internal_node_id":"0.0-20.0","task_version":"battery-v0.2-trt"},{"rune":"N","rune_set":"elianto","hex":"#f73b6a7A","correct":-1,"choice":-1,"rt":-1,"accuracy":1,"outcome":"-1","keys":[3175.4900000523776],"total_keys":1,"block":1,"trial":14,"stimulus":1,"robot":4,"valence":"lose","action":"no-go","sham":0,"trial_type":"pit-trial","trial_index":49,"time_elapsed":344623,"internal_node_id":"0.0-21.0","task_version":"battery-v0.2-trt"},{"rune":"F","rune_set":"elianto","hex":"#3366ff99","correct":32,"choice":32,"rt":391.4600000716746,"accuracy":1,"outcome":"+10","keys":[1891.8099999427795],"total_keys":1,"block":1,"trial":15,"stimulus":2,"robot":1,"valence":"win","action":"go","sham":0,"trial_type":"pit-trial","trial_index":50,"time_elapsed":347719,"internal_node_id":"0.0-22.0","task_version":"battery-v0.2-trt"},{"rune":"X","rune_set":"elianto","hex":"#3366ff99","correct":-1,"choice":-1,"rt":-1,"accuracy":1,"outcome":"+1","keys":[],"total_keys":0,"block":1,"trial":16,"stimulus":3,"robot":2,"valence":"win","action":"no-go","sham":1,"trial_type":"pit-trial","trial_index":51,"time_elapsed":351730,"internal_node_id":"0.0-23.0","task_version":"battery-v0.2-trt"},{"rune":"F","rune_set":"elianto","hex":"#3366ff99","correct":32,"choice":32,"rt":424.9800001271069,"accuracy":1,"outcome":"+10","keys":[1926.4500001445413],"total_keys":1,"block":1,"trial":17,"stimulus":2,"robot":1,"valence":"win","action":"go","sham":0,"trial_type":"pit-trial","trial_index":52,"time_elapsed":354860,"internal_node_id":"0.0-24.0","task_version":"battery-v0.2-trt"},{"rune":"Q","rune_set":"elianto","hex":"#f73b6a7A","correct":-1,"choice":-1,"rt":-1,"accuracy":1,"outcome":"-10","keys":[],"total_keys":0,"block":1,"trial":18,"stimulus":0,"robot":4,"valence":"lose","action":"no-go","sham":1,"trial_type":"pit-trial","trial_index":53,"time_elapsed":358866,"internal_node_id":"0.0-25.0","task_version":"battery-v0.2-trt"},{"rune":"N","rune_set":"elianto","hex":"#f73b6a7A","correct":-1,"choice":-1,"rt":-1,"accuracy":1,"outcome":"-10","keys":[2997.359999921173],"total_keys":1,"block":1,"trial":19,"stimulus":1,"robot":4,"valence":"lose","action":"no-go","sham":1,"trial_type":"pit-trial","trial_index":54,"time_elapsed":362872,"internal_node_id":"0.0-26.0","task_version":"battery-v0.2-trt"},{"rune":"X","rune_set":"elianto","hex":"#3366ff99","correct":-1,"choice":32,"rt":879.2149999644607,"accuracy":0,"outcome":"+1","keys":[2380.149999866262],"total_keys":1,"block":1,"trial":20,"stimulus":3,"robot":2,"valence":"win","action":"no-go","sham":0,"trial_type":"pit-trial","trial_index":55,"time_elapsed":366457,"internal_node_id":"0.0-27.0","task_version":"battery-v0.2-trt"},{"rune":"F","rune_set":"elianto","hex":"#3366ff99","correct":32,"choice":32,"rt":908.5949999280274,"accuracy":1,"outcome":"+10","keys":[2409.874999895692],"total_keys":1,"block":1,"trial":21,"stimulus":2,"robot":1,"valence":"win","action":"go","sham":0,"trial_type":"pit-trial","trial_index":56,"time_elapsed":370071,"internal_node_id":"0.0-28.0","task_version":"battery-v0.2-trt"},{"rune":"Q","rune_set":"elianto","hex":"#f73b6a7A","correct":-1,"choice":32,"rt":702.7900000102818,"accuracy":0,"outcome":"-10","keys":[2203.6800000350922],"total_keys":1,"block":1,"trial":22,"stimulus":0,"robot":4,"valence":"lose","action":"no-go","sham":0,"trial_type":"pit-trial","trial_index":57,"time_elapsed":373478,"internal_node_id":"0.0-29.0","task_version":"battery-v0.2-trt"},{"rune":"N","rune_set":"elianto","hex":"#f73b6a7A","correct":-1,"choice":32,"rt":634.3449999112636,"accuracy":0,"outcome":"-10","keys":[2135.1550000254065],"total_keys":1,"block":1,"trial":23,"stimulus":1,"robot":4,"valence":"lose","action":"no-go","sham":0,"trial_type":"pit-trial","trial_index":58,"time_elapsed":376820,"internal_node_id":"0.0-30.0","task_version":"battery-v0.2-trt"},{"rune":"X","rune_set":"elianto","hex":"#3366ff99","correct":-1,"choice":32,"rt":378.01000010222197,"accuracy":0,"outcome":"+10","keys":[1879.8500001430511],"total_keys":1,"block":1,"trial":24,"stimulus":3,"robot":2,"valence":"win","action":"no-go","sham":1,"trial_type":"pit-trial","trial_index":59,"time_elapsed":379903,"internal_node_id":"0.0-31.0","task_version":"battery-v0.2-trt"},{"rune":"X","rune_set":"elianto","hex":"#3366ff99","correct":-1,"choice":32,"rt":719.6899999398738,"accuracy":0,"outcome":"+1","keys":[2220.329999923706],"total_keys":1,"block":1,"trial":25,"stimulus":3,"robot":2,"valence":"win","action":"no-go","sham":0,"trial_type":"pit-trial","trial_index":60,"time_elapsed":383327,"internal_node_id":"0.0-32.0","task_version":"battery-v0.2-trt"},{"rune":"Q","rune_set":"elianto","hex":"#f73b6a7A","correct":-1,"choice":32,"rt":403.5999998450279,"accuracy":0,"outcome":"-10","keys":[1904.6000000089407],"total_keys":1,"block":1,"trial":26,"stimulus":0,"robot":4,"valence":"lose","action":"no-go","sham":0,"trial_type":"pit-trial","trial_index":61,"time_elapsed":386434,"internal_node_id":"0.0-33.0","task_version":"battery-v0.2-trt"},{"rune":"F","rune_set":"elianto","hex":"#3366ff99","correct":32,"choice":32,"rt":492.47499997727573,"accuracy":1,"outcome":"+10","keys":[1993.0249999742955],"total_keys":1,"block":1,"trial":27,"stimulus":2,"robot":1,"valence":"win","action":"go","sham":0,"trial_type":"pit-trial","trial_index":62,"time_elapsed":389632,"internal_node_id":"0.0-34.0","task_version":"battery-v0.2-trt"},{"rune":"N","rune_set":"elianto","hex":"#f73b6a7A","correct":-1,"choice":32,"rt":554.1449999436736,"accuracy":0,"outcome":"-10","keys":[2055.0700000021607],"total_keys":1,"block":1,"trial":28,"stimulus":1,"robot":4,"valence":"lose","action":"no-go","sham":0,"trial_type":"pit-trial","trial_index":63,"time_elapsed":392891,"internal_node_id":"0.0-35.0","task_version":"battery-v0.2-trt"},{"rune":"F","rune_set":"elianto","hex":"#3366ff99","correct":32,"choice":32,"rt":849.3050001561642,"accuracy":1,"outcome":"+1","keys":[2350.7149999495596],"total_keys":1,"block":1,"trial":29,"stimulus":2,"robot":1,"valence":"win","action":"go","sham":1,"trial_type":"pit-trial","trial_index":64,"time_elapsed":396446,"internal_node_id":"0.0-36.0","task_version":"battery-v0.2-trt"},{"rune":"X","rune_set":"elianto","hex":"#3366ff99","correct":-1,"choice":-1,"rt":-1,"accuracy":1,"outcome":"+1","keys":[1188.6750000994653],"total_keys":1,"block":1,"trial":30,"stimulus":3,"robot":2,"valence":"win","action":"no-go","sham":1,"trial_type":"pit-trial","trial_index":65,"time_elapsed":400466,"internal_node_id":"0.0-37.0","task_version":"battery-v0.2-trt"},{"rune":"N","rune_set":"elianto","hex":"#f73b6a7A","correct":-1,"choice":-1,"rt":-1,"accuracy":1,"outcome":"-1","keys":[112.87999991327524,3848.8949998281896],"total_keys":2,"block":1,"trial":31,"stimulus":1,"robot":4,"valence":"lose","action":"no-go","sham":0,"trial_type":"pit-trial","trial_index":66,"time_elapsed":404470,"internal_node_id":"0.0-38.0","task_version":"battery-v0.2-trt"},{"rune":"Q","rune_set":"elianto","hex":"#f73b6a7A","correct":-1,"choice":32,"rt":352.3750000167638,"accuracy":0,"outcome":"-1","keys":[653.2550000119954,1320.8849998191,1853.015000000596],"total_keys":3,"block":1,"trial":32,"stimulus":0,"robot":4,"valence":"lose","action":"no-go","sham":1,"trial_type":"pit-trial","trial_index":67,"time_elapsed":407526,"internal_node_id":"0.0-39.0","task_version":"battery-v0.2-trt"},{"rune":"T","rune_set":"elianto","hex":"#f73b6a7A","correct":32,"choice":-1,"rt":-1,"accuracy":0,"outcome":"-1","keys":[3191.6950000450015],"total_keys":1,"block":1,"trial":33,"stimulus":4,"robot":3,"valence":"lose","action":"go","sham":1,"trial_type":"pit-trial","trial_index":68,"time_elapsed":411534,"internal_node_id":"0.0-40.0","task_version":"battery-v0.2-trt"},{"rune":"Q","rune_set":"elianto","hex":"#f73b6a7A","correct":-1,"choice":32,"rt":1217.0449998229742,"accuracy":0,"outcome":"-1","keys":[2717.4399998039007],"total_keys":1,"block":1,"trial":34,"stimulus":0,"robot":4,"valence":"lose","action":"no-go","sham":1,"trial_type":"pit-trial","trial_index":69,"time_elapsed":415454,"internal_node_id":"0.0-41.0","task_version":"battery-v0.2-trt"},{"rune":"F","rune_set":"elianto","hex":"#3366ff99","correct":32,"choice":32,"rt":747.8049998171628,"accuracy":1,"outcome":"+1","keys":[2248.219999950379],"total_keys":1,"block":1,"trial":35,"stimulus":2,"robot":1,"valence":"win","action":"go","sham":1,"trial_type":"pit-trial","trial_index":70,"time_elapsed":418906,"internal_node_id":"0.0-42.0","task_version":"battery-v0.2-trt"},{"rune":"X","rune_set":"elianto","hex":"#3366ff99","correct":-1,"choice":32,"rt":376.44500005990267,"accuracy":0,"outcome":"+1","keys":[1877.1700002253056],"total_keys":1,"block":1,"trial":36,"stimulus":3,"robot":2,"valence":"win","action":"no-go","sham":0,"trial_type":"pit-trial","trial_index":71,"time_elapsed":421986,"internal_node_id":"0.0-43.0","task_version":"battery-v0.2-trt"},{"rune":"F","rune_set":"elianto","hex":"#3366ff99","correct":32,"choice":-1,"rt":-1,"accuracy":0,"outcome":"+10","keys":[],"total_keys":0,"block":1,"trial":37,"stimulus":2,"robot":1,"valence":"win","action":"go","sham":1,"trial_type":"pit-trial","trial_index":72,"time_elapsed":425991,"internal_node_id":"0.0-44.0","task_version":"battery-v0.2-trt"},{"rune":"T","rune_set":"elianto","hex":"#f73b6a7A","correct":32,"choice":32,"rt":860.3650000877678,"accuracy":1,"outcome":"-1","keys":[2360.7600000686944],"total_keys":1,"block":1,"trial":38,"stimulus":4,"robot":3,"valence":"lose","action":"go","sham":0,"trial_type":"pit-trial","trial_index":73,"time_elapsed":429555,"internal_node_id":"0.0-45.0","task_version":"battery-v0.2-trt"},{"rune":"Q","rune_set":"elianto","hex":"#f73b6a7A","correct":-1,"choice":-1,"rt":-1,"accuracy":1,"outcome":"-1","keys":[],"total_keys":0,"block":1,"trial":39,"stimulus":0,"robot":4,"valence":"lose","action":"no-go","sham":0,"trial_type":"pit-trial","trial_index":74,"time_elapsed":433564,"internal_node_id":"0.0-46.0","task_version":"battery-v0.2-trt"},{"rune":"X","rune_set":"elianto","hex":"#3366ff99","correct":-1,"choice":32,"rt":1057.9049999359995,"accuracy":0,"outcome":"+1","keys":[2559.2199999373406],"total_keys":1,"block":1,"trial":40,"stimulus":3,"robot":2,"valence":"win","action":"no-go","sham":0,"trial_type":"pit-trial","trial_index":75,"time_elapsed":437327,"internal_node_id":"0.0-47.0","task_version":"battery-v0.2-trt"},{"rune":"C","rune_set":"elianto","hex":"#3366ff99","correct":32,"choice":-1,"rt":-1,"accuracy":0,"outcome":"+1","keys":[2868.305000010878],"total_keys":1,"block":1,"trial":41,"stimulus":6,"robot":1,"valence":"win","action":"go","sham":0,"trial_type":"pit-trial","trial_index":76,"time_elapsed":441334,"internal_node_id":"0.0-48.0","task_version":"battery-v0.2-trt"},{"rune":"T","rune_set":"elianto","hex":"#f73b6a7A","correct":32,"choice":-1,"rt":-1,"accuracy":0,"outcome":"-10","keys":[3965.4699999373406],"total_keys":1,"block":1,"trial":42,"stimulus":4,"robot":3,"valence":"lose","action":"go","sham":0,"trial_type":"pit-trial","trial_index":77,"time_elapsed":445338,"internal_node_id":"0.0-49.0","task_version":"battery-v0.2-trt"},{"rune":"Q","rune_set":"elianto","hex":"#f73b6a7A","correct":-1,"choice":32,"rt":298.149999929592,"accuracy":0,"outcome":"-10","keys":[1798.464999999851],"total_keys":1,"block":1,"trial":43,"stimulus":0,"robot":4,"valence":"lose","action":"no-go","sham":0,"trial_type":"pit-trial","trial_index":78,"time_elapsed":448340,"internal_node_id":"0.0-50.0","task_version":"battery-v0.2-trt"},{"rune":"B","rune_set":"elianto","hex":"#3366ff99","correct":-1,"choice":32,"rt":616.3250000681728,"accuracy":0,"outcome":"+1","keys":[2117.134999949485],"total_keys":1,"block":1,"trial":44,"stimulus":5,"robot":2,"valence":"win","action":"no-go","sham":0,"trial_type":"pit-trial","trial_index":79,"time_elapsed":451661,"internal_node_id":"0.0-51.0","task_version":"battery-v0.2-trt"},{"rune":"Q","rune_set":"elianto","hex":"#f73b6a7A","correct":-1,"choice":-1,"rt":-1,"accuracy":1,"outcome":"-10","keys":[],"total_keys":0,"block":1,"trial":45,"stimulus":0,"robot":4,"valence":"lose","action":"no-go","sham":1,"trial_type":"pit-trial","trial_index":80,"time_elapsed":455664,"internal_node_id":"0.0-52.0","task_version":"battery-v0.2-trt"},{"rune":"B","rune_set":"elianto","hex":"#3366ff99","correct":-1,"choice":32,"rt":342.9449999239296,"accuracy":0,"outcome":"+1","keys":[1843.2099998462945],"total_keys":1,"block":1,"trial":46,"stimulus":5,"robot":2,"valence":"win","action":"no-go","sham":0,"trial_type":"pit-trial","trial_index":81,"time_elapsed":458712,"internal_node_id":"0.0-53.0","task_version":"battery-v0.2-trt"},{"rune":"T","rune_set":"elianto","hex":"#f73b6a7A","correct":32,"choice":32,"rt":390.82000008784235,"accuracy":1,"outcome":"-1","keys":[1891.6500001214445],"total_keys":1,"block":1,"trial":47,"stimulus":4,"robot":3,"valence":"lose","action":"go","sham":0,"trial_type":"pit-trial","trial_index":82,"time_elapsed":461807,"internal_node_id":"0.0-54.0","task_version":"battery-v0.2-trt"},{"rune":"C","rune_set":"elianto","hex":"#3366ff99","correct":32,"choice":32,"rt":318.5550000052899,"accuracy":1,"outcome":"+10","keys":[1819.7550000622869],"total_keys":1,"block":1,"trial":48,"stimulus":6,"robot":1,"valence":"win","action":"go","sham":0,"trial_type":"pit-trial","trial_index":83,"time_elapsed":464831,"internal_node_id":"0.0-55.0","task_version":"battery-v0.2-trt"},{"rune":"B","rune_set":"elianto","hex":"#3366ff99","correct":-1,"choice":32,"rt":304.40500006079674,"accuracy":0,"outcome":"+10","keys":[1804.8950000666082],"total_keys":1,"block":1,"trial":49,"stimulus":5,"robot":2,"valence":"win","action":"no-go","sham":1,"trial_type":"pit-trial","trial_index":84,"time_elapsed":467839,"internal_node_id":"0.0-56.0","task_version":"battery-v0.2-trt"},{"rune":"C","rune_set":"elianto","hex":"#3366ff99","correct":32,"choice":32,"rt":391.9999999925494,"accuracy":1,"outcome":"+10","keys":[1892.0750000979751],"total_keys":1,"block":1,"trial":50,"stimulus":6,"robot":1,"valence":"win","action":"go","sham":0,"trial_type":"pit-trial","trial_index":85,"time_elapsed":470937,"internal_node_id":"0.0-57.0","task_version":"battery-v0.2-trt"},{"rune":"T","rune_set":"elianto","hex":"#f73b6a7A","correct":32,"choice":32,"rt":602.1150001324713,"accuracy":1,"outcome":"-1","keys":[2102.9250000137836],"total_keys":1,"block":1,"trial":51,"stimulus":4,"robot":3,"valence":"lose","action":"go","sham":0,"trial_type":"pit-trial","trial_index":86,"time_elapsed":474242,"internal_node_id":"0.0-58.0","task_version":"battery-v0.2-trt"},{"rune":"Z","rune_set":"elianto","hex":"#f73b6a7A","correct":-1,"choice":-1,"rt":-1,"accuracy":1,"outcome":"-1","keys":[],"total_keys":0,"block":1,"trial":52,"stimulus":7,"robot":4,"valence":"lose","action":"no-go","sham":0,"trial_type":"pit-trial","trial_index":87,"time_elapsed":478247,"internal_node_id":"0.0-59.0","task_version":"battery-v0.2-trt"},{"rune":"B","rune_set":"elianto","hex":"#3366ff99","correct":-1,"choice":32,"rt":548.5449999105185,"accuracy":0,"outcome":"+1","keys":[2048.7949999514967],"total_keys":1,"block":1,"trial":53,"stimulus":5,"robot":2,"valence":"win","action":"no-go","sham":0,"trial_type":"pit-trial","trial_index":88,"time_elapsed":481499,"internal_node_id":"0.0-60.0","task_version":"battery-v0.2-trt"},{"rune":"Z","rune_set":"elianto","hex":"#f73b6a7A","correct":-1,"choice":32,"rt":1115.9850000403821,"accuracy":0,"outcome":"-10","keys":[2616.7200000490993],"total_keys":1,"block":1,"trial":54,"stimulus":7,"robot":4,"valence":"lose","action":"no-go","sham":0,"trial_type":"pit-trial","trial_index":89,"time_elapsed":485319,"internal_node_id":"0.0-61.0","task_version":"battery-v0.2-trt"},{"rune":"C","rune_set":"elianto","hex":"#3366ff99","correct":32,"choice":32,"rt":867.6300002261996,"accuracy":1,"outcome":"+10","keys":[2367.860000114888],"total_keys":1,"block":1,"trial":55,"stimulus":6,"robot":1,"valence":"win","action":"go","sham":0,"trial_type":"pit-trial","trial_index":90,"time_elapsed":488890,"internal_node_id":"0.0-62.0","task_version":"battery-v0.2-trt"},{"rune":"T","rune_set":"elianto","hex":"#f73b6a7A","correct":32,"choice":-1,"rt":-1,"accuracy":0,"outcome":"-10","keys":[],"total_keys":0,"block":1,"trial":56,"stimulus":4,"robot":3,"valence":"lose","action":"go","sham":0,"trial_type":"pit-trial","trial_index":91,"time_elapsed":492894,"internal_node_id":"0.0-63.0","task_version":"battery-v0.2-trt"},{"rune":"B","rune_set":"elianto","hex":"#3366ff99","correct":-1,"choice":32,"rt":425.26000016368926,"accuracy":0,"outcome":"+1","keys":[1925.7300000172108],"total_keys":1,"block":1,"trial":57,"stimulus":5,"robot":2,"valence":"win","action":"no-go","sham":0,"trial_type":"pit-trial","trial_index":92,"time_elapsed":496023,"internal_node_id":"0.0-64.0","task_version":"battery-v0.2-trt"},{"rune":"C","rune_set":"elianto","hex":"#3366ff99","correct":32,"choice":-1,"rt":-1,"accuracy":0,"outcome":"+1","keys":[],"total_keys":0,"block":1,"trial":58,"stimulus":6,"robot":1,"valence":"win","action":"go","sham":0,"trial_type":"pit-trial","trial_index":93,"time_elapsed":500027,"internal_node_id":"0.0-65.0","task_version":"battery-v0.2-trt"},{"rune":"Z","rune_set":"elianto","hex":"#f73b6a7A","correct":-1,"choice":-1,"rt":-1,"accuracy":1,"outcome":"-1","keys":[],"total_keys":0,"block":1,"trial":59,"stimulus":7,"robot":4,"valence":"lose","action":"no-go","sham":0,"trial_type":"pit-trial","trial_index":94,"time_elapsed":504031,"internal_node_id":"0.0-66.0","task_version":"battery-v0.2-trt"},{"rune":"T","rune_set":"elianto","hex":"#f73b6a7A","correct":32,"choice":-1,"rt":-1,"accuracy":0,"outcome":"-10","keys":[],"total_keys":0,"block":1,"trial":60,"stimulus":4,"robot":3,"valence":"lose","action":"go","sham":0,"trial_type":"pit-trial","trial_index":95,"time_elapsed":508037,"internal_node_id":"0.0-67.0","task_version":"battery-v0.2-trt"},{"rune":"C","rune_set":"elianto","hex":"#3366ff99","correct":32,"choice":32,"rt":565.2150001842529,"accuracy":1,"outcome":"+10","keys":[2065.7800000626594],"total_keys":1,"block":1,"trial":61,"stimulus":6,"robot":1,"valence":"win","action":"go","sham":0,"trial_type":"pit-trial","trial_index":96,"time_elapsed":511306,"internal_node_id":"0.0-68.0","task_version":"battery-v0.2-trt"},{"rune":"T","rune_set":"elianto","hex":"#f73b6a7A","correct":32,"choice":32,"rt":544.5850000251085,"accuracy":1,"outcome":"-1","keys":[2045.3449999913573],"total_keys":1,"block":1,"trial":62,"stimulus":4,"robot":3,"valence":"lose","action":"go","sham":0,"trial_type":"pit-trial","trial_index":97,"time_elapsed":514555,"internal_node_id":"0.0-69.0","task_version":"battery-v0.2-trt"},{"rune":"Z","rune_set":"elianto","hex":"#f73b6a7A","correct":-1,"choice":32,"rt":481.02000006474555,"accuracy":0,"outcome":"-10","keys":[1981.1800001189113],"total_keys":1,"block":1,"trial":63,"stimulus":7,"robot":4,"valence":"lose","action":"no-go","sham":0,"trial_type":"pit-trial","trial_index":98,"time_elapsed":517739,"internal_node_id":"0.0-70.0","task_version":"battery-v0.2-trt"},{"rune":"B","rune_set":"elianto","hex":"#3366ff99","correct":-1,"choice":32,"rt":327.8749999590218,"accuracy":0,"outcome":"+1","keys":[1828.7400000263005],"total_keys":1,"block":1,"trial":64,"stimulus":5,"robot":2,"valence":"win","action":"no-go","sham":0,"trial_type":"pit-trial","trial_index":99,"time_elapsed":520771,"internal_node_id":"0.0-71.0","task_version":"battery-v0.2-trt"},{"rune":"C","rune_set":"elianto","hex":"#3366ff99","correct":32,"choice":32,"rt":380.11000002734363,"accuracy":1,"outcome":"+1","keys":[1880.6149999145418,2352.560000028461],"total_keys":2,"block":1,"trial":65,"stimulus":6,"robot":1,"valence":"win","action":"go","sham":1,"trial_type":"pit-trial","trial_index":100,"time_elapsed":523856,"internal_node_id":"0.0-72.0","task_version":"battery-v0.2-trt"},{"rune":"T","rune_set":"elianto","hex":"#f73b6a7A","correct":32,"choice":32,"rt":406.46500000730157,"accuracy":1,"outcome":"-1","keys":[1907.0949999149889],"total_keys":1,"block":1,"trial":66,"stimulus":4,"robot":3,"valence":"lose","action":"go","sham":0,"trial_type":"pit-trial","trial_index":101,"time_elapsed":526967,"internal_node_id":"0.0-73.0","task_version":"battery-v0.2-trt"},{"rune":"Z","rune_set":"elianto","hex":"#f73b6a7A","correct":-1,"choice":32,"rt":202.03499984927475,"accuracy":0,"outcome":"-10","keys":[1703.6250000819564],"total_keys":1,"block":1,"trial":67,"stimulus":7,"robot":4,"valence":"lose","action":"no-go","sham":0,"trial_type":"pit-trial","trial_index":102,"time_elapsed":529877,"internal_node_id":"0.0-74.0","task_version":"battery-v0.2-trt"},{"rune":"B","rune_set":"elianto","hex":"#3366ff99","correct":-1,"choice":32,"rt":285.0699999835342,"accuracy":0,"outcome":"+1","keys":[1786.9599999394268],"total_keys":1,"block":1,"trial":68,"stimulus":5,"robot":2,"valence":"win","action":"no-go","sham":0,"trial_type":"pit-trial","trial_index":103,"time_elapsed":532866,"internal_node_id":"0.0-75.0","task_version":"battery-v0.2-trt"},{"rune":"Z","rune_set":"elianto","hex":"#f73b6a7A","correct":-1,"choice":32,"rt":92.40500000305474,"accuracy":0,"outcome":"-10","keys":[1593.3350000996143],"total_keys":1,"block":1,"trial":69,"stimulus":7,"robot":4,"valence":"lose","action":"no-go","sham":0,"trial_type":"pit-trial","trial_index":104,"time_elapsed":535662,"internal_node_id":"0.0-76.0","task_version":"battery-v0.2-trt"},{"rune":"B","rune_set":"elianto","hex":"#3366ff99","correct":-1,"choice":32,"rt":1146.5900000184774,"accuracy":0,"outcome":"+1","keys":[860.5150000657886,2648.604999994859],"total_keys":2,"block":1,"trial":70,"stimulus":5,"robot":2,"valence":"win","action":"no-go","sham":0,"trial_type":"pit-trial","trial_index":105,"time_elapsed":539514,"internal_node_id":"0.0-77.0","task_version":"battery-v0.2-trt"},{"rune":"T","rune_set":"elianto","hex":"#f73b6a7A","correct":32,"choice":32,"rt":344.6299999486655,"accuracy":1,"outcome":"-1","keys":[1845.350000075996],"total_keys":1,"block":1,"trial":71,"stimulus":4,"robot":3,"valence":"lose","action":"go","sham":0,"trial_type":"pit-trial","trial_index":106,"time_elapsed":542562,"internal_node_id":"0.0-78.0","task_version":"battery-v0.2-trt"},{"rune":"C","rune_set":"elianto","hex":"#3366ff99","correct":32,"choice":32,"rt":97.20499999821186,"accuracy":1,"outcome":"+10","keys":[1597.79499983415],"total_keys":1,"block":1,"trial":72,"stimulus":6,"robot":1,"valence":"win","action":"go","sham":0,"trial_type":"pit-trial","trial_index":107,"time_elapsed":545363,"internal_node_id":"0.0-79.0","task_version":"battery-v0.2-trt"},{"rune":"Z","rune_set":"elianto","hex":"#f73b6a7A","correct":-1,"choice":32,"rt":1113.7500000186265,"accuracy":0,"outcome":"-10","keys":[2614.324999973178],"total_keys":1,"block":1,"trial":73,"stimulus":7,"robot":4,"valence":"lose","action":"no-go","sham":0,"trial_type":"pit-trial","trial_index":108,"time_elapsed":549179,"internal_node_id":"0.0-80.0","task_version":"battery-v0.2-trt"},{"rune":"B","rune_set":"elianto","hex":"#3366ff99","correct":-1,"choice":32,"rt":282.51000004820526,"accuracy":0,"outcome":"+1","keys":[1783.670000033453],"total_keys":1,"block":1,"trial":74,"stimulus":5,"robot":2,"valence":"win","action":"no-go","sham":0,"trial_type":"pit-trial","trial_index":109,"time_elapsed":552166,"internal_node_id":"0.0-81.0","task_version":"battery-v0.2-trt"},{"rune":"H","rune_set":"elianto","hex":"#3366ff99","correct":32,"choice":32,"rt":261.36500015854836,"accuracy":1,"outcome":"+10","keys":[1761.7599999066442],"total_keys":1,"block":1,"trial":75,"stimulus":8,"robot":1,"valence":"win","action":"go","sham":0,"trial_type":"pit-trial","trial_index":110,"time_elapsed":555130,"internal_node_id":"0.0-82.0","task_version":"battery-v0.2-trt"},{"rune":"Y","rune_set":"elianto","hex":"#f73b6a7A","correct":32,"choice":32,"rt":220.31000000424683,"accuracy":1,"outcome":"-1","keys":[1721.2199999485165],"total_keys":1,"block":1,"trial":76,"stimulus":9,"robot":3,"valence":"lose","action":"go","sham":0,"trial_type":"pit-trial","trial_index":111,"time_elapsed":558054,"internal_node_id":"0.0-83.0","task_version":"battery-v0.2-trt"},{"rune":"B","rune_set":"elianto","hex":"#3366ff99","correct":-1,"choice":32,"rt":243.99000010453165,"accuracy":0,"outcome":"+1","keys":[716.9799997936934,1241.2749999202788,1745.534999994561],"total_keys":3,"block":1,"trial":77,"stimulus":5,"robot":2,"valence":"win","action":"no-go","sham":0,"trial_type":"pit-trial","trial_index":112,"time_elapsed":561003,"internal_node_id":"0.0-84.0","task_version":"battery-v0.2-trt"},{"rune":"Y","rune_set":"elianto","hex":"#f73b6a7A","correct":32,"choice":32,"rt":191.83999998494983,"accuracy":1,"outcome":"-1","keys":[1693.3200000785291],"total_keys":1,"block":1,"trial":78,"stimulus":9,"robot":3,"valence":"lose","action":"go","sham":0,"trial_type":"pit-trial","trial_index":113,"time_elapsed":563898,"internal_node_id":"0.0-85.0","task_version":"battery-v0.2-trt"},{"rune":"Z","rune_set":"elianto","hex":"#f73b6a7A","correct":-1,"choice":32,"rt":312.73000012151897,"accuracy":0,"outcome":"-10","keys":[1224.9100001063198,1814.2500000540167],"total_keys":2,"block":1,"trial":79,"stimulus":7,"robot":4,"valence":"lose","action":"no-go","sham":0,"trial_type":"pit-trial","trial_index":114,"time_elapsed":566915,"internal_node_id":"0.0-86.0","task_version":"battery-v0.2-trt"},{"rune":"H","rune_set":"elianto","hex":"#3366ff99","correct":32,"choice":32,"rt":380.52499992772937,"accuracy":1,"outcome":"+10","keys":[1881.0600000433624],"total_keys":1,"block":1,"trial":80,"stimulus":8,"robot":1,"valence":"win","action":"go","sham":0,"trial_type":"pit-trial","trial_index":115,"time_elapsed":569999,"internal_node_id":"0.0-87.0","task_version":"battery-v0.2-trt"},{"rune":"Y","rune_set":"elianto","hex":"#f73b6a7A","correct":32,"choice":32,"rt":8.079999824985862,"accuracy":1,"outcome":"-1","keys":[1508.9849999640137],"total_keys":1,"block":1,"trial":81,"stimulus":9,"robot":3,"valence":"lose","action":"go","sham":0,"trial_type":"pit-trial","trial_index":116,"time_elapsed":572711,"internal_node_id":"0.0-88.0","task_version":"battery-v0.2-trt"},{"rune":"H","rune_set":"elianto","hex":"#3366ff99","correct":32,"choice":32,"rt":320.27000002563,"accuracy":1,"outcome":"+10","keys":[1820.5250001046807],"total_keys":1,"block":1,"trial":82,"stimulus":8,"robot":1,"valence":"win","action":"go","sham":0,"trial_type":"pit-trial","trial_index":117,"time_elapsed":575735,"internal_node_id":"0.0-89.0","task_version":"battery-v0.2-trt"},{"rune":"Z","rune_set":"elianto","hex":"#f73b6a7A","correct":-1,"choice":32,"rt":235.73500011116266,"accuracy":0,"outcome":"-10","keys":[1736.8400001432747],"total_keys":1,"block":1,"trial":83,"stimulus":7,"robot":4,"valence":"lose","action":"no-go","sham":0,"trial_type":"pit-trial","trial_index":118,"time_elapsed":578674,"internal_node_id":"0.0-90.0","task_version":"battery-v0.2-trt"},{"rune":"B","rune_set":"elianto","hex":"#3366ff99","correct":-1,"choice":32,"rt":284.50499987229705,"accuracy":0,"outcome":"+1","keys":[441.215000115335,1041.8200001586229,1413.9000000432134,1785.5700000654906],"total_keys":4,"block":1,"trial":84,"stimulus":5,"robot":2,"valence":"win","action":"no-go","sham":0,"trial_type":"pit-trial","trial_index":119,"time_elapsed":581663,"internal_node_id":"0.0-91.0","task_version":"battery-v0.2-trt"},{"rune":"Y","rune_set":"elianto","hex":"#f73b6a7A","correct":32,"choice":32,"rt":302.52000014297664,"accuracy":1,"outcome":"-10","keys":[1803.7950000725687],"total_keys":1,"block":1,"trial":85,"stimulus":9,"robot":3,"valence":"lose","action":"go","sham":1,"trial_type":"pit-trial","trial_index":120,"time_elapsed":584670,"internal_node_id":"0.0-92.0","task_version":"battery-v0.2-trt"},{"rune":"B","rune_set":"elianto","hex":"#3366ff99","correct":-1,"choice":32,"rt":357.25999996066093,"accuracy":0,"outcome":"+10","keys":[1858.4149999078363],"total_keys":1,"block":1,"trial":86,"stimulus":5,"robot":2,"valence":"win","action":"no-go","sham":1,"trial_type":"pit-trial","trial_index":121,"time_elapsed":587732,"internal_node_id":"0.0-93.0","task_version":"battery-v0.2-trt"},{"rune":"Z","rune_set":"elianto","hex":"#f73b6a7A","correct":-1,"choice":32,"rt":162.8050000872463,"accuracy":0,"outcome":"-1","keys":[1663.704999955371],"total_keys":1,"block":1,"trial":87,"stimulus":7,"robot":4,"valence":"lose","action":"no-go","sham":1,"trial_type":"pit-trial","trial_index":122,"time_elapsed":590602,"internal_node_id":"0.0-94.0","task_version":"battery-v0.2-trt"},{"rune":"H","rune_set":"elianto","hex":"#3366ff99","correct":32,"choice":32,"rt":703.3500000834465,"accuracy":1,"outcome":"+10","keys":[2203.830000013113],"total_keys":1,"block":1,"trial":88,"stimulus":8,"robot":1,"valence":"win","action":"go","sham":0,"trial_type":"pit-trial","trial_index":123,"time_elapsed":594010,"internal_node_id":"0.0-95.0","task_version":"battery-v0.2-trt"},{"rune":"R","rune_set":"elianto","hex":"#f73b6a7A","correct":32,"choice":32,"rt":1117.6150001119822,"accuracy":1,"outcome":"-1","keys":[2619.1150001250207],"total_keys":1,"block":1,"trial":89,"stimulus":10,"robot":3,"valence":"lose","action":"go","sham":0,"trial_type":"pit-trial","trial_index":124,"time_elapsed":597833,"internal_node_id":"0.0-96.0","task_version":"battery-v0.2-trt"},{"rune":"M","rune_set":"elianto","hex":"#3366ff99","correct":-1,"choice":32,"rt":200.8749998640269,"accuracy":0,"outcome":"+1","keys":[1701.2899999972433],"total_keys":1,"block":1,"trial":90,"stimulus":11,"robot":2,"valence":"win","action":"no-go","sham":0,"trial_type":"pit-trial","trial_index":125,"time_elapsed":600738,"internal_node_id":"0.0-97.0","task_version":"battery-v0.2-trt"},{"rune":"Y","rune_set":"elianto","hex":"#f73b6a7A","correct":32,"choice":32,"rt":109.1099998448044,"accuracy":1,"outcome":"-1","keys":[1611.3400000613183],"total_keys":1,"block":1,"trial":91,"stimulus":9,"robot":3,"valence":"lose","action":"go","sham":0,"trial_type":"pit-trial","trial_index":126,"time_elapsed":603555,"internal_node_id":"0.0-98.0","task_version":"battery-v0.2-trt"},{"rune":"H","rune_set":"elianto","hex":"#3366ff99","correct":32,"choice":32,"rt":376.3950001448393,"accuracy":1,"outcome":"+10","keys":[1877.0099999383092],"total_keys":1,"block":1,"trial":92,"stimulus":8,"robot":1,"valence":"win","action":"go","sham":0,"trial_type":"pit-trial","trial_index":127,"time_elapsed":606639,"internal_node_id":"0.0-99.0","task_version":"battery-v0.2-trt"},{"rune":"Y","rune_set":"elianto","hex":"#f73b6a7A","correct":32,"choice":32,"rt":367.9400000255555,"accuracy":1,"outcome":"-1","keys":[1869.2000000737607],"total_keys":1,"block":1,"trial":93,"stimulus":9,"robot":3,"valence":"lose","action":"go","sham":0,"trial_type":"pit-trial","trial_index":128,"time_elapsed":609712,"internal_node_id":"0.0-100.0","task_version":"battery-v0.2-trt"},{"rune":"R","rune_set":"elianto","hex":"#f73b6a7A","correct":32,"choice":32,"rt":214.79999995790422,"accuracy":1,"outcome":"-1","keys":[1716.0400000866503],"total_keys":1,"block":1,"trial":94,"stimulus":10,"robot":3,"valence":"lose","action":"go","sham":0,"trial_type":"pit-trial","trial_index":129,"time_elapsed":612630,"internal_node_id":"0.0-101.0","task_version":"battery-v0.2-trt"},{"rune":"H","rune_set":"elianto","hex":"#3366ff99","correct":32,"choice":32,"rt":420.4700000118464,"accuracy":1,"outcome":"+10","keys":[1921.1999999824911],"total_keys":1,"block":1,"trial":95,"stimulus":8,"robot":1,"valence":"win","action":"go","sham":0,"trial_type":"pit-trial","trial_index":130,"time_elapsed":615754,"internal_node_id":"0.0-102.0","task_version":"battery-v0.2-trt"},{"rune":"M","rune_set":"elianto","hex":"#3366ff99","correct":-1,"choice":32,"rt":316.1400000099093,"accuracy":0,"outcome":"+1","keys":[1817.2550001181662],"total_keys":1,"block":1,"trial":96,"stimulus":11,"robot":2,"valence":"win","action":"no-go","sham":0,"trial_type":"pit-trial","trial_index":131,"time_elapsed":618775,"internal_node_id":"0.0-103.0","task_version":"battery-v0.2-trt"},{"rune":"M","rune_set":"elianto","hex":"#3366ff99","correct":-1,"choice":32,"rt":238.43000014312565,"accuracy":0,"outcome":"+10","keys":[1739.6100000478327],"total_keys":1,"block":1,"trial":97,"stimulus":11,"robot":2,"valence":"win","action":"no-go","sham":1,"trial_type":"pit-trial","trial_index":132,"time_elapsed":621719,"internal_node_id":"0.0-104.0","task_version":"battery-v0.2-trt"},{"rune":"R","rune_set":"elianto","hex":"#f73b6a7A","correct":32,"choice":32,"rt":239.77500014007092,"accuracy":1,"outcome":"-1","keys":[1740.9749999642372],"total_keys":1,"block":1,"trial":98,"stimulus":10,"robot":3,"valence":"lose","action":"go","sham":0,"trial_type":"pit-trial","trial_index":133,"time_elapsed":624662,"internal_node_id":"0.0-105.0","task_version":"battery-v0.2-trt"},{"rune":"H","rune_set":"elianto","hex":"#3366ff99","correct":32,"choice":32,"rt":468.72499980963767,"accuracy":1,"outcome":"+10","keys":[1969.8499999940395],"total_keys":1,"block":1,"trial":99,"stimulus":8,"robot":1,"valence":"win","action":"go","sham":0,"trial_type":"pit-trial","trial_index":134,"time_elapsed":627835,"internal_node_id":"0.0-106.0","task_version":"battery-v0.2-trt"},{"rune":"Y","rune_set":"elianto","hex":"#f73b6a7A","correct":32,"choice":32,"rt":217.79499994590878,"accuracy":1,"outcome":"-1","keys":[1719.7699998505414],"total_keys":1,"block":1,"trial":100,"stimulus":9,"robot":3,"valence":"lose","action":"go","sham":0,"trial_type":"pit-trial","trial_index":135,"time_elapsed":630759,"internal_node_id":"0.0-107.0","task_version":"battery-v0.2-trt"},{"rune":"Y","rune_set":"elianto","hex":"#f73b6a7A","correct":32,"choice":32,"rt":799.7850000392646,"accuracy":1,"outcome":"-1","keys":[2301.644999999553],"total_keys":1,"block":1,"trial":101,"stimulus":9,"robot":3,"valence":"lose","action":"go","sham":0,"trial_type":"pit-trial","trial_index":136,"time_elapsed":634263,"internal_node_id":"0.0-108.0","task_version":"battery-v0.2-trt"},{"rune":"R","rune_set":"elianto","hex":"#f73b6a7A","correct":32,"choice":32,"rt":420.92000017873943,"accuracy":1,"outcome":"-1","keys":[1922.7699998300523],"total_keys":1,"block":1,"trial":102,"stimulus":10,"robot":3,"valence":"lose","action":"go","sham":0,"trial_type":"pit-trial","trial_index":137,"time_elapsed":637390,"internal_node_id":"0.0-109.0","task_version":"battery-v0.2-trt"},{"rune":"M","rune_set":"elianto","hex":"#3366ff99","correct":-1,"choice":32,"rt":522.2699998412281,"accuracy":0,"outcome":"+10","keys":[2023.47999997437],"total_keys":1,"block":1,"trial":103,"stimulus":11,"robot":2,"valence":"win","action":"no-go","sham":1,"trial_type":"pit-trial","trial_index":138,"time_elapsed":640617,"internal_node_id":"0.0-110.0","task_version":"battery-v0.2-trt"},{"rune":"H","rune_set":"elianto","hex":"#3366ff99","correct":32,"choice":32,"rt":301.244999980554,"accuracy":1,"outcome":"+10","keys":[1802.2699998691678],"total_keys":1,"block":1,"trial":104,"stimulus":8,"robot":1,"valence":"win","action":"go","sham":0,"trial_type":"pit-trial","trial_index":139,"time_elapsed":643623,"internal_node_id":"0.0-111.0","task_version":"battery-v0.2-trt"},{"rune":"H","rune_set":"elianto","hex":"#3366ff99","correct":32,"choice":32,"rt":259.13999998010695,"accuracy":1,"outcome":"+10","keys":[1760.2150000166148],"total_keys":1,"block":1,"trial":105,"stimulus":8,"robot":1,"valence":"win","action":"go","sham":0,"trial_type":"pit-trial","trial_index":140,"time_elapsed":646587,"internal_node_id":"0.0-112.0","task_version":"battery-v0.2-trt"},{"rune":"Y","rune_set":"elianto","hex":"#f73b6a7A","correct":32,"choice":32,"rt":257.08999997004867,"accuracy":1,"outcome":"-1","keys":[1757.7100000344217],"total_keys":1,"block":1,"trial":106,"stimulus":9,"robot":3,"valence":"lose","action":"go","sham":0,"trial_type":"pit-trial","trial_index":141,"time_elapsed":649549,"internal_node_id":"0.0-113.0","task_version":"battery-v0.2-trt"},{"rune":"M","rune_set":"elianto","hex":"#3366ff99","correct":-1,"choice":32,"rt":365.75000011362135,"accuracy":0,"outcome":"+1","keys":[1866.78500007838],"total_keys":1,"block":1,"trial":107,"stimulus":11,"robot":2,"valence":"win","action":"no-go","sham":0,"trial_type":"pit-trial","trial_index":142,"time_elapsed":652618,"internal_node_id":"0.0-114.0","task_version":"battery-v0.2-trt"},{"rune":"R","rune_set":"elianto","hex":"#f73b6a7A","correct":32,"choice":32,"rt":525.9000000078231,"accuracy":1,"outcome":"-1","keys":[2026.744999922812],"total_keys":1,"block":1,"trial":108,"stimulus":10,"robot":3,"valence":"lose","action":"go","sham":0,"trial_type":"pit-trial","trial_index":143,"time_elapsed":655848,"internal_node_id":"0.0-115.0","task_version":"battery-v0.2-trt"},{"rune":"H","rune_set":"elianto","hex":"#3366ff99","correct":32,"choice":32,"rt":1187.4850001186132,"accuracy":1,"outcome":"+10","keys":[2687.794999917969],"total_keys":1,"block":1,"trial":109,"stimulus":8,"robot":1,"valence":"win","action":"go","sham":0,"trial_type":"pit-trial","trial_index":144,"time_elapsed":659739,"internal_node_id":"0.0-116.0","task_version":"battery-v0.2-trt"},{"rune":"Y","rune_set":"elianto","hex":"#f73b6a7A","correct":32,"choice":32,"rt":331.9500000216067,"accuracy":1,"outcome":"-1","keys":[1833.0099999438971],"total_keys":1,"block":1,"trial":110,"stimulus":9,"robot":3,"valence":"lose","action":"go","sham":0,"trial_type":"pit-trial","trial_index":145,"time_elapsed":662776,"internal_node_id":"0.0-117.0","task_version":"battery-v0.2-trt"},{"rune":"M","rune_set":"elianto","hex":"#3366ff99","correct":-1,"choice":32,"rt":278.38000003248453,"accuracy":0,"outcome":"+1","keys":[1779.670000076294],"total_keys":1,"block":1,"trial":111,"stimulus":11,"robot":2,"valence":"win","action":"no-go","sham":0,"trial_type":"pit-trial","trial_index":146,"time_elapsed":665759,"internal_node_id":"0.0-118.0","task_version":"battery-v0.2-trt"},{"rune":"R","rune_set":"elianto","hex":"#f73b6a7A","correct":32,"choice":-1,"rt":-1,"accuracy":0,"outcome":"-10","keys":[889.0200001187623,1300.420000217855],"total_keys":2,"block":1,"trial":112,"stimulus":10,"robot":3,"valence":"lose","action":"go","sham":0,"trial_type":"pit-trial","trial_index":147,"time_elapsed":669764,"internal_node_id":"0.0-119.0","task_version":"battery-v0.2-trt"},{"rune":"H","rune_set":"elianto","hex":"#3366ff99","correct":32,"choice":32,"rt":287.77999989688396,"accuracy":1,"outcome":"+10","keys":[1788.0700000096112],"total_keys":1,"block":1,"trial":113,"stimulus":8,"robot":1,"valence":"win","action":"go","sham":0,"trial_type":"pit-trial","trial_index":148,"time_elapsed":672754,"internal_node_id":"0.0-120.0","task_version":"battery-v0.2-trt"},{"rune":"M","rune_set":"elianto","hex":"#3366ff99","correct":-1,"choice":32,"rt":431.80999998003244,"accuracy":0,"outcome":"+1","keys":[1933.7899999227375],"total_keys":1,"block":1,"trial":114,"stimulus":11,"robot":2,"valence":"win","action":"no-go","sham":0,"trial_type":"pit-trial","trial_index":149,"time_elapsed":675890,"internal_node_id":"0.0-121.0","task_version":"battery-v0.2-trt"},{"rune":"R","rune_set":"elianto","hex":"#f73b6a7A","correct":32,"choice":32,"rt":300.0700001139194,"accuracy":1,"outcome":"-1","keys":[1801.5900000464171],"total_keys":1,"block":1,"trial":115,"stimulus":10,"robot":3,"valence":"lose","action":"go","sham":0,"trial_type":"pit-trial","trial_index":150,"time_elapsed":678895,"internal_node_id":"0.0-122.0","task_version":"battery-v0.2-trt"},{"rune":"Y","rune_set":"elianto","hex":"#f73b6a7A","correct":32,"choice":32,"rt":532.0949999149889,"accuracy":1,"outcome":"-1","keys":[1489.365000044927,2032.2799999266863],"total_keys":2,"block":1,"trial":116,"stimulus":9,"robot":3,"valence":"lose","action":"go","sham":0,"trial_type":"pit-trial","trial_index":151,"time_elapsed":682130,"internal_node_id":"0.0-123.0","task_version":"battery-v0.2-trt"},{"rune":"R","rune_set":"elianto","hex":"#f73b6a7A","correct":32,"choice":32,"rt":545.0699999928474,"accuracy":1,"outcome":"-1","keys":[2045.3449999913573],"total_keys":1,"block":1,"trial":117,"stimulus":10,"robot":3,"valence":"lose","action":"go","sham":0,"trial_type":"pit-trial","trial_index":152,"time_elapsed":685379,"internal_node_id":"0.0-124.0","task_version":"battery-v0.2-trt"},{"rune":"H","rune_set":"elianto","hex":"#3366ff99","correct":32,"choice":32,"rt":282.6999998651445,"accuracy":1,"outcome":"+10","keys":[1784.1300000436604],"total_keys":1,"block":1,"trial":118,"stimulus":8,"robot":1,"valence":"win","action":"go","sham":0,"trial_type":"pit-trial","trial_index":153,"time_elapsed":688368,"internal_node_id":"0.0-125.0","task_version":"battery-v0.2-trt"},{"rune":"M","rune_set":"elianto","hex":"#3366ff99","correct":-1,"choice":32,"rt":247.18500021845102,"accuracy":0,"outcome":"+1","keys":[1747.8350000455976],"total_keys":1,"block":1,"trial":119,"stimulus":11,"robot":2,"valence":"win","action":"no-go","sham":0,"trial_type":"pit-trial","trial_index":154,"time_elapsed":691318,"internal_node_id":"0.0-126.0","task_version":"battery-v0.2-trt"},{"rune":"Y","rune_set":"elianto","hex":"#f73b6a7A","correct":32,"choice":-1,"rt":-1,"accuracy":0,"outcome":"-10","keys":[3885.255000088364],"total_keys":1,"block":1,"trial":120,"stimulus":9,"robot":3,"valence":"lose","action":"go","sham":0,"trial_type":"pit-trial","trial_index":155,"time_elapsed":695323,"internal_node_id":"0.0-127.0","task_version":"battery-v0.2-trt"},{"view_history":"[{\"page_index\":0,\"viewing_time\":131482.79999988154},{\"page_index\":1,\"viewing_time\":4593.420000048354}]","rt":136077.22499989904,"trial_type":"pit-instructions","trial_index":156,"time_elapsed":831402,"internal_node_id":"0.0-128.0","task_version":"battery-v0.2-trt"},{"rune":"K","rune_set":"elianto","hex":"#3366ff99","correct":32,"choice":32,"rt":702.78500020504,"accuracy":1,"outcome":"+10","keys":[2203.3849998842925],"total_keys":1,"block":2,"trial":121,"stimulus":3,"robot":1,"valence":"win","action":"go","sham":0,"trial_type":"pit-trial","trial_index":157,"time_elapsed":834811,"internal_node_id":"0.0-129.0","task_version":"battery-v0.2-trt"},{"rune":"D","rune_set":"elianto","hex":"#f73b6a7A","correct":-1,"choice":32,"rt":441.7950001079589,"accuracy":0,"outcome":"-10","keys":[1942.0950000640005],"total_keys":1,"block":2,"trial":122,"stimulus":2,"robot":4,"valence":"lose","action":"no-go","sham":0,"trial_type":"pit-trial","trial_index":158,"time_elapsed":837956,"internal_node_id":"0.0-130.0","task_version":"battery-v0.2-trt"},{"rune":"V","rune_set":"elianto","hex":"#3366ff99","correct":-1,"choice":32,"rt":345.65500007010996,"accuracy":0,"outcome":"+1","keys":[1846.8400000128895],"total_keys":1,"block":2,"trial":123,"stimulus":0,"robot":2,"valence":"win","action":"no-go","sham":0,"trial_type":"pit-trial","trial_index":159,"time_elapsed":841013,"internal_node_id":"0.0-131.0","task_version":"battery-v0.2-trt"},{"rune":"J","rune_set":"elianto","hex":"#3366ff99","correct":32,"choice":32,"rt":1040.4049998614937,"accuracy":1,"outcome":"+10","keys":[2540.894999867305],"total_keys":1,"block":2,"trial":124,"stimulus":1,"robot":1,"valence":"win","action":"go","sham":0,"trial_type":"pit-trial","trial_index":160,"time_elapsed":844759,"internal_node_id":"0.0-132.0","task_version":"battery-v0.2-trt"},{"rune":"D","rune_set":"elianto","hex":"#f73b6a7A","correct":-1,"choice":-1,"rt":-1,"accuracy":1,"outcome":"-1","keys":[2924.210000084713],"total_keys":1,"block":2,"trial":125,"stimulus":2,"robot":4,"valence":"lose","action":"no-go","sham":0,"trial_type":"pit-trial","trial_index":161,"time_elapsed":848763,"internal_node_id":"0.0-133.0","task_version":"battery-v0.2-trt"},{"rune":"J","rune_set":"elianto","hex":"#3366ff99","correct":32,"choice":32,"rt":269.0900000743568,"accuracy":1,"outcome":"+10","keys":[1769.1450000274926],"total_keys":1,"block":2,"trial":126,"stimulus":1,"robot":1,"valence":"win","action":"go","sham":0,"trial_type":"pit-trial","trial_index":162,"time_elapsed":851734,"internal_node_id":"0.0-134.0","task_version":"battery-v0.2-trt"},{"rune":"V","rune_set":"elianto","hex":"#3366ff99","correct":-1,"choice":32,"rt":532.2849999647588,"accuracy":0,"outcome":"+1","keys":[2033.3849999587983],"total_keys":1,"block":2,"trial":127,"stimulus":0,"robot":2,"valence":"win","action":"no-go","sham":0,"trial_type":"pit-trial","trial_index":163,"time_elapsed":854971,"internal_node_id":"0.0-135.0","task_version":"battery-v0.2-trt"},{"rune":"K","rune_set":"elianto","hex":"#3366ff99","correct":32,"choice":-1,"rt":-1,"accuracy":0,"outcome":"+10","keys":[],"total_keys":0,"block":2,"trial":128,"stimulus":3,"robot":1,"valence":"win","action":"go","sham":1,"trial_type":"pit-trial","trial_index":164,"time_elapsed":858979,"internal_node_id":"0.0-136.0","task_version":"battery-v0.2-trt"},{"rune":"V","rune_set":"elianto","hex":"#3366ff99","correct":-1,"choice":32,"rt":330.74999996460974,"accuracy":0,"outcome":"+1","keys":[147.80499995686114,1831.705000018701],"total_keys":2,"block":2,"trial":129,"stimulus":0,"robot":2,"valence":"win","action":"no-go","sham":0,"trial_type":"pit-trial","trial_index":165,"time_elapsed":862015,"internal_node_id":"0.0-137.0","task_version":"battery-v0.2-trt"},{"rune":"K","rune_set":"elianto","hex":"#3366ff99","correct":32,"choice":-1,"rt":-1,"accuracy":0,"outcome":"+1","keys":[2942.049999954179],"total_keys":1,"block":2,"trial":130,"stimulus":3,"robot":1,"valence":"win","action":"go","sham":0,"trial_type":"pit-trial","trial_index":166,"time_elapsed":866019,"internal_node_id":"0.0-138.0","task_version":"battery-v0.2-trt"},{"rune":"J","rune_set":"elianto","hex":"#3366ff99","correct":32,"choice":32,"rt":584.4099998939782,"accuracy":1,"outcome":"+10","keys":[2084.7300000023097],"total_keys":1,"block":2,"trial":131,"stimulus":1,"robot":1,"valence":"win","action":"go","sham":0,"trial_type":"pit-trial","trial_index":167,"time_elapsed":869306,"internal_node_id":"0.0-139.0","task_version":"battery-v0.2-trt"},{"rune":"D","rune_set":"elianto","hex":"#f73b6a7A","correct":-1,"choice":-1,"rt":-1,"accuracy":1,"outcome":"-1","keys":[],"total_keys":0,"block":2,"trial":132,"stimulus":2,"robot":4,"valence":"lose","action":"no-go","sham":0,"trial_type":"pit-trial","trial_index":168,"time_elapsed":873311,"internal_node_id":"0.0-140.0","task_version":"battery-v0.2-trt"},{"rune":"V","rune_set":"elianto","hex":"#3366ff99","correct":-1,"choice":32,"rt":370.1949999667704,"accuracy":0,"outcome":"+1","keys":[262.0249998290092,1871.6349999886006],"total_keys":2,"block":2,"trial":133,"stimulus":0,"robot":2,"valence":"win","action":"no-go","sham":0,"trial_type":"pit-trial","trial_index":169,"time_elapsed":876387,"internal_node_id":"0.0-141.0","task_version":"battery-v0.2-trt"},{"rune":"J","rune_set":"elianto","hex":"#3366ff99","correct":32,"choice":32,"rt":512.6200001686811,"accuracy":1,"outcome":"+10","keys":[2012.9449998494238],"total_keys":1,"block":2,"trial":134,"stimulus":1,"robot":1,"valence":"win","action":"go","sham":0,"trial_type":"pit-trial","trial_index":170,"time_elapsed":879603,"internal_node_id":"0.0-142.0","task_version":"battery-v0.2-trt"},{"rune":"K","rune_set":"elianto","hex":"#3366ff99","correct":32,"choice":32,"rt":859.1799999121577,"accuracy":1,"outcome":"+10","keys":[2360.110000008717],"total_keys":1,"block":2,"trial":135,"stimulus":3,"robot":1,"valence":"win","action":"go","sham":0,"trial_type":"pit-trial","trial_index":171,"time_elapsed":883167,"internal_node_id":"0.0-143.0","task_version":"battery-v0.2-trt"},{"rune":"D","rune_set":"elianto","hex":"#f73b6a7A","correct":-1,"choice":32,"rt":183.25999984517694,"accuracy":0,"outcome":"-10","keys":[1684.364999877289],"total_keys":1,"block":2,"trial":136,"stimulus":2,"robot":4,"valence":"lose","action":"no-go","sham":0,"trial_type":"pit-trial","trial_index":172,"time_elapsed":886053,"internal_node_id":"0.0-144.0","task_version":"battery-v0.2-trt"},{"rune":"J","rune_set":"elianto","hex":"#3366ff99","correct":32,"choice":32,"rt":301.7550001386553,"accuracy":1,"outcome":"+10","keys":[1049.4500000495464,1801.8300000112504],"total_keys":2,"block":2,"trial":137,"stimulus":1,"robot":1,"valence":"win","action":"go","sham":0,"trial_type":"pit-trial","trial_index":173,"time_elapsed":889057,"internal_node_id":"0.0-145.0","task_version":"battery-v0.2-trt"},{"rune":"D","rune_set":"elianto","hex":"#f73b6a7A","correct":-1,"choice":-1,"rt":-1,"accuracy":1,"outcome":"-1","keys":[1441.1799998488277,3261.244999943301],"total_keys":2,"block":2,"trial":138,"stimulus":2,"robot":4,"valence":"lose","action":"no-go","sham":0,"trial_type":"pit-trial","trial_index":174,"time_elapsed":893066,"internal_node_id":"0.0-146.0","task_version":"battery-v0.2-trt"},{"rune":"V","rune_set":"elianto","hex":"#3366ff99","correct":-1,"choice":32,"rt":772.4450000096112,"accuracy":0,"outcome":"+1","keys":[2273.100000107661],"total_keys":1,"block":2,"trial":139,"stimulus":0,"robot":2,"valence":"win","action":"no-go","sham":0,"trial_type":"pit-trial","trial_index":175,"time_elapsed":896542,"internal_node_id":"0.0-147.0","task_version":"battery-v0.2-trt"},{"rune":"K","rune_set":"elianto","hex":"#3366ff99","correct":32,"choice":32,"rt":1052.1899999585003,"accuracy":1,"outcome":"+1","keys":[2552.820000099018],"total_keys":1,"block":2,"trial":140,"stimulus":3,"robot":1,"valence":"win","action":"go","sham":1,"trial_type":"pit-trial","trial_index":176,"time_elapsed":900298,"internal_node_id":"0.0-148.0","task_version":"battery-v0.2-trt"},{"rune":"D","rune_set":"elianto","hex":"#f73b6a7A","correct":-1,"choice":32,"rt":430.7750000152737,"accuracy":0,"outcome":"-10","keys":[884.3349998351187,1932.6249998994172],"total_keys":2,"block":2,"trial":141,"stimulus":2,"robot":4,"valence":"lose","action":"no-go","sham":0,"trial_type":"pit-trial","trial_index":177,"time_elapsed":903434,"internal_node_id":"0.0-149.0","task_version":"battery-v0.2-trt"},{"rune":"K","rune_set":"elianto","hex":"#3366ff99","correct":32,"choice":32,"rt":412.1550000272691,"accuracy":1,"outcome":"+10","keys":[1912.7500001341105],"total_keys":1,"block":2,"trial":142,"stimulus":3,"robot":1,"valence":"win","action":"go","sham":0,"trial_type":"pit-trial","trial_index":178,"time_elapsed":906550,"internal_node_id":"0.0-150.0","task_version":"battery-v0.2-trt"},{"rune":"V","rune_set":"elianto","hex":"#3366ff99","correct":-1,"choice":32,"rt":1047.810000134632,"accuracy":0,"outcome":"+1","keys":[2548.984999768436],"total_keys":1,"block":2,"trial":143,"stimulus":0,"robot":2,"valence":"win","action":"no-go","sham":0,"trial_type":"pit-trial","trial_index":179,"time_elapsed":910303,"internal_node_id":"0.0-151.0","task_version":"battery-v0.2-trt"},{"rune":"J","rune_set":"elianto","hex":"#3366ff99","correct":32,"choice":32,"rt":290.3350000269711,"accuracy":1,"outcome":"+10","keys":[1791.7400000151247],"total_keys":1,"block":2,"trial":144,"stimulus":1,"robot":1,"valence":"win","action":"go","sham":0,"trial_type":"pit-trial","trial_index":180,"time_elapsed":913298,"internal_node_id":"0.0-152.0","task_version":"battery-v0.2-trt"},{"rune":"D","rune_set":"elianto","hex":"#f73b6a7A","correct":-1,"choice":32,"rt":794.4799999240786,"accuracy":0,"outcome":"-10","keys":[2296.190000139177],"total_keys":1,"block":2,"trial":145,"stimulus":2,"robot":4,"valence":"lose","action":"no-go","sham":0,"trial_type":"pit-trial","trial_index":181,"time_elapsed":916798,"internal_node_id":"0.0-153.0","task_version":"battery-v0.2-trt"},{"rune":"V","rune_set":"elianto","hex":"#3366ff99","correct":-1,"choice":32,"rt":323.89999995939434,"accuracy":0,"outcome":"+1","keys":[1825.5449999123812],"total_keys":1,"block":2,"trial":146,"stimulus":0,"robot":2,"valence":"win","action":"no-go","sham":0,"trial_type":"pit-trial","trial_index":182,"time_elapsed":919827,"internal_node_id":"0.0-154.0","task_version":"battery-v0.2-trt"},{"rune":"J","rune_set":"elianto","hex":"#3366ff99","correct":32,"choice":32,"rt":566.1150000523776,"accuracy":1,"outcome":"+10","keys":[2067.090000025928],"total_keys":1,"block":2,"trial":147,"stimulus":1,"robot":1,"valence":"win","action":"go","sham":0,"trial_type":"pit-trial","trial_index":183,"time_elapsed":923098,"internal_node_id":"0.0-155.0","task_version":"battery-v0.2-trt"},{"rune":"K","rune_set":"elianto","hex":"#3366ff99","correct":32,"choice":32,"rt":407.26500004529953,"accuracy":1,"outcome":"+10","keys":[1908.7250002194196],"total_keys":1,"block":2,"trial":148,"stimulus":3,"robot":1,"valence":"win","action":"go","sham":0,"trial_type":"pit-trial","trial_index":184,"time_elapsed":926211,"internal_node_id":"0.0-156.0","task_version":"battery-v0.2-trt"},{"rune":"K","rune_set":"elianto","hex":"#3366ff99","correct":32,"choice":32,"rt":387.360000051558,"accuracy":1,"outcome":"+10","keys":[1887.9899999592453],"total_keys":1,"block":2,"trial":149,"stimulus":3,"robot":1,"valence":"win","action":"go","sham":0,"trial_type":"pit-trial","trial_index":185,"time_elapsed":929304,"internal_node_id":"0.0-157.0","task_version":"battery-v0.2-trt"},{"rune":"J","rune_set":"elianto","hex":"#3366ff99","correct":32,"choice":32,"rt":218.180000083521,"accuracy":1,"outcome":"+10","keys":[1718.3749999385327],"total_keys":1,"block":2,"trial":150,"stimulus":1,"robot":1,"valence":"win","action":"go","sham":0,"trial_type":"pit-trial","trial_index":186,"time_elapsed":932227,"internal_node_id":"0.0-158.0","task_version":"battery-v0.2-trt"},{"rune":"V","rune_set":"elianto","hex":"#3366ff99","correct":-1,"choice":-1,"rt":-1,"accuracy":1,"outcome":"+10","keys":[1372.050000121817],"total_keys":1,"block":2,"trial":151,"stimulus":0,"robot":2,"valence":"win","action":"no-go","sham":0,"trial_type":"pit-trial","trial_index":187,"time_elapsed":936232,"internal_node_id":"0.0-159.0","task_version":"battery-v0.2-trt"},{"rune":"D","rune_set":"elianto","hex":"#f73b6a7A","correct":-1,"choice":-1,"rt":-1,"accuracy":1,"outcome":"-1","keys":[2941.639999859035],"total_keys":1,"block":2,"trial":152,"stimulus":2,"robot":4,"valence":"lose","action":"no-go","sham":0,"trial_type":"pit-trial","trial_index":188,"time_elapsed":940236,"internal_node_id":"0.0-160.0","task_version":"battery-v0.2-trt"},{"rune":"K","rune_set":"elianto","hex":"#3366ff99","correct":32,"choice":-1,"rt":-1,"accuracy":0,"outcome":"+1","keys":[1465.5649999622256],"total_keys":1,"block":2,"trial":153,"stimulus":3,"robot":1,"valence":"win","action":"go","sham":0,"trial_type":"pit-trial","trial_index":189,"time_elapsed":944240,"internal_node_id":"0.0-161.0","task_version":"battery-v0.2-trt"},{"rune":"V","rune_set":"elianto","hex":"#3366ff99","correct":-1,"choice":32,"rt":1201.7800000030547,"accuracy":0,"outcome":"+10","keys":[1150.815000059083,2702.95500010252],"total_keys":2,"block":2,"trial":154,"stimulus":0,"robot":2,"valence":"win","action":"no-go","sham":1,"trial_type":"pit-trial","trial_index":190,"time_elapsed":948147,"internal_node_id":"0.0-162.0","task_version":"battery-v0.2-trt"},{"rune":"D","rune_set":"elianto","hex":"#f73b6a7A","correct":-1,"choice":-1,"rt":-1,"accuracy":1,"outcome":"-10","keys":[251.56000000424683],"total_keys":1,"block":2,"trial":155,"stimulus":2,"robot":4,"valence":"lose","action":"no-go","sham":1,"trial_type":"pit-trial","trial_index":191,"time_elapsed":952152,"internal_node_id":"0.0-163.0","task_version":"battery-v0.2-trt"},{"rune":"E","rune_set":"elianto","hex":"#3366ff99","correct":32,"choice":-1,"rt":-1,"accuracy":0,"outcome":"+1","keys":[751.0749998036772,3151.2549999170005],"total_keys":2,"block":2,"trial":156,"stimulus":4,"robot":1,"valence":"win","action":"go","sham":0,"trial_type":"pit-trial","trial_index":192,"time_elapsed":956157,"internal_node_id":"0.0-164.0","task_version":"battery-v0.2-trt"},{"rune":"V","rune_set":"elianto","hex":"#3366ff99","correct":-1,"choice":32,"rt":256.6449998412281,"accuracy":0,"outcome":"+1","keys":[1758.1799998879433],"total_keys":1,"block":2,"trial":157,"stimulus":0,"robot":2,"valence":"win","action":"no-go","sham":0,"trial_type":"pit-trial","trial_index":193,"time_elapsed":959118,"internal_node_id":"0.0-165.0","task_version":"battery-v0.2-trt"},{"rune":"E","rune_set":"elianto","hex":"#3366ff99","correct":32,"choice":-1,"rt":-1,"accuracy":0,"outcome":"+1","keys":[],"total_keys":0,"block":2,"trial":158,"stimulus":4,"robot":1,"valence":"win","action":"go","sham":0,"trial_type":"pit-trial","trial_index":194,"time_elapsed":963123,"internal_node_id":"0.0-166.0","task_version":"battery-v0.2-trt"},{"rune":"D","rune_set":"elianto","hex":"#f73b6a7A","correct":-1,"choice":32,"rt":202.07000011578202,"accuracy":0,"outcome":"-1","keys":[1703.4599999897182],"total_keys":1,"block":2,"trial":159,"stimulus":2,"robot":4,"valence":"lose","action":"no-go","sham":1,"trial_type":"pit-trial","trial_index":195,"time_elapsed":966031,"internal_node_id":"0.0-167.0","task_version":"battery-v0.2-trt"},{"rune":"K","rune_set":"elianto","hex":"#3366ff99","correct":32,"choice":32,"rt":722.5099999923259,"accuracy":1,"outcome":"+10","keys":[2224.004999967292],"total_keys":1,"block":2,"trial":160,"stimulus":3,"robot":1,"valence":"win","action":"go","sham":0,"trial_type":"pit-trial","trial_index":196,"time_elapsed":969459,"internal_node_id":"0.0-168.0","task_version":"battery-v0.2-trt"},{"rune":"W","rune_set":"elianto","hex":"#f73b6a7A","correct":32,"choice":32,"rt":819.2100001033396,"accuracy":1,"outcome":"-1","keys":[2319.680000189692],"total_keys":1,"block":2,"trial":161,"stimulus":5,"robot":3,"valence":"lose","action":"go","sham":0,"trial_type":"pit-trial","trial_index":197,"time_elapsed":972983,"internal_node_id":"0.0-169.0","task_version":"battery-v0.2-trt"},{"rune":"S","rune_set":"elianto","hex":"#f73b6a7A","correct":-1,"choice":32,"rt":1249.0900000557303,"accuracy":0,"outcome":"-10","keys":[2749.4350001215935],"total_keys":1,"block":2,"trial":162,"stimulus":6,"robot":4,"valence":"lose","action":"no-go","sham":0,"trial_type":"pit-trial","trial_index":198,"time_elapsed":976935,"internal_node_id":"0.0-170.0","task_version":"battery-v0.2-trt"},{"rune":"E","rune_set":"elianto","hex":"#3366ff99","correct":32,"choice":-1,"rt":-1,"accuracy":0,"outcome":"+1","keys":[3427.820000099018],"total_keys":1,"block":2,"trial":163,"stimulus":4,"robot":1,"valence":"win","action":"go","sham":0,"trial_type":"pit-trial","trial_index":199,"time_elapsed":980940,"internal_node_id":"0.0-171.0","task_version":"battery-v0.2-trt"},{"rune":"V","rune_set":"elianto","hex":"#3366ff99","correct":-1,"choice":-1,"rt":-1,"accuracy":1,"outcome":"+10","keys":[3299.9850001651794],"total_keys":1,"block":2,"trial":164,"stimulus":0,"robot":2,"valence":"win","action":"no-go","sham":0,"trial_type":"pit-trial","trial_index":200,"time_elapsed":984944,"internal_node_id":"0.0-172.0","task_version":"battery-v0.2-trt"},{"rune":"W","rune_set":"elianto","hex":"#f73b6a7A","correct":32,"choice":-1,"rt":-1,"accuracy":0,"outcome":"-10","keys":[3346.210000105202],"total_keys":1,"block":2,"trial":165,"stimulus":5,"robot":3,"valence":"lose","action":"go","sham":0,"trial_type":"pit-trial","trial_index":201,"time_elapsed":988949,"internal_node_id":"0.0-173.0","task_version":"battery-v0.2-trt"},{"rune":"E","rune_set":"elianto","hex":"#3366ff99","correct":32,"choice":32,"rt":932.5449999887496,"accuracy":1,"outcome":"+10","keys":[2434.1249999124557],"total_keys":1,"block":2,"trial":166,"stimulus":4,"robot":1,"valence":"win","action":"go","sham":0,"trial_type":"pit-trial","trial_index":202,"time_elapsed":992586,"internal_node_id":"0.0-174.0","task_version":"battery-v0.2-trt"},{"rune":"S","rune_set":"elianto","hex":"#f73b6a7A","correct":-1,"choice":32,"rt":197.09499995224178,"accuracy":0,"outcome":"-10","keys":[1698.5649999696761],"total_keys":1,"block":2,"trial":167,"stimulus":6,"robot":4,"valence":"lose","action":"no-go","sham":0,"trial_type":"pit-trial","trial_index":203,"time_elapsed":995489,"internal_node_id":"0.0-175.0","task_version":"battery-v0.2-trt"},{"rune":"V","rune_set":"elianto","hex":"#3366ff99","correct":-1,"choice":32,"rt":1201.1049999855459,"accuracy":0,"outcome":"+10","keys":[2702.1500000264496],"total_keys":1,"block":2,"trial":168,"stimulus":0,"robot":2,"valence":"win","action":"no-go","sham":1,"trial_type":"pit-trial","trial_index":204,"time_elapsed":999394,"internal_node_id":"0.0-176.0","task_version":"battery-v0.2-trt"},{"rune":"S","rune_set":"elianto","hex":"#f73b6a7A","correct":-1,"choice":-1,"rt":-1,"accuracy":1,"outcome":"-1","keys":[1001.1700000613928,3955.460000084713],"total_keys":2,"block":2,"trial":169,"stimulus":6,"robot":4,"valence":"lose","action":"no-go","sham":0,"trial_type":"pit-trial","trial_index":205,"time_elapsed":1003398,"internal_node_id":"0.0-177.0","task_version":"battery-v0.2-trt"},{"rune":"E","rune_set":"elianto","hex":"#3366ff99","correct":32,"choice":-1,"rt":-1,"accuracy":0,"outcome":"+1","keys":[3412.6250001136214],"total_keys":1,"block":2,"trial":170,"stimulus":4,"robot":1,"valence":"win","action":"go","sham":0,"trial_type":"pit-trial","trial_index":206,"time_elapsed":1007404,"internal_node_id":"0.0-178.0","task_version":"battery-v0.2-trt"},{"rune":"W","rune_set":"elianto","hex":"#f73b6a7A","correct":32,"choice":-1,"rt":-1,"accuracy":0,"outcome":"-10","keys":[2943.5600000433624],"total_keys":1,"block":2,"trial":171,"stimulus":5,"robot":3,"valence":"lose","action":"go","sham":0,"trial_type":"pit-trial","trial_index":207,"time_elapsed":1011408,"internal_node_id":"0.0-179.0","task_version":"battery-v0.2-trt"},{"rune":"P","rune_set":"elianto","hex":"#3366ff99","correct":-1,"choice":-1,"rt":-1,"accuracy":1,"outcome":"+10","keys":[],"total_keys":0,"block":2,"trial":172,"stimulus":7,"robot":2,"valence":"win","action":"no-go","sham":0,"trial_type":"pit-trial","trial_index":208,"time_elapsed":1015412,"internal_node_id":"0.0-180.0","task_version":"battery-v0.2-trt"},{"rune":"S","rune_set":"elianto","hex":"#f73b6a7A","correct":-1,"choice":32,"rt":510.39499999023974,"accuracy":0,"outcome":"-10","keys":[1187.4149998184294,2011.2850000150502],"total_keys":2,"block":2,"trial":173,"stimulus":6,"robot":4,"valence":"lose","action":"no-go","sham":0,"trial_type":"pit-trial","trial_index":209,"time_elapsed":1018627,"internal_node_id":"0.0-181.0","task_version":"battery-v0.2-trt"},{"rune":"E","rune_set":"elianto","hex":"#3366ff99","correct":32,"choice":32,"rt":552.9750001151115,"accuracy":1,"outcome":"+10","keys":[2053.305000066757],"total_keys":1,"block":2,"trial":174,"stimulus":4,"robot":1,"valence":"win","action":"go","sham":0,"trial_type":"pit-trial","trial_index":210,"time_elapsed":1021884,"internal_node_id":"0.0-182.0","task_version":"battery-v0.2-trt"},{"rune":"W","rune_set":"elianto","hex":"#f73b6a7A","correct":32,"choice":32,"rt":267.03500002622604,"accuracy":1,"outcome":"-1","keys":[1768.0750000290573],"total_keys":1,"block":2,"trial":175,"stimulus":5,"robot":3,"valence":"lose","action":"go","sham":0,"trial_type":"pit-trial","trial_index":211,"time_elapsed":1024855,"internal_node_id":"0.0-183.0","task_version":"battery-v0.2-trt"},{"rune":"P","rune_set":"elianto","hex":"#3366ff99","correct":-1,"choice":32,"rt":482.92000009678304,"accuracy":0,"outcome":"+10","keys":[213.86500005610287,1984.8800001200289],"total_keys":2,"block":2,"trial":176,"stimulus":7,"robot":2,"valence":"win","action":"no-go","sham":1,"trial_type":"pit-trial","trial_index":212,"time_elapsed":1028045,"internal_node_id":"0.0-184.0","task_version":"battery-v0.2-trt"},{"rune":"W","rune_set":"elianto","hex":"#f73b6a7A","correct":32,"choice":32,"rt":457.73499994538724,"accuracy":1,"outcome":"-1","keys":[1958.2900002133101],"total_keys":1,"block":2,"trial":177,"stimulus":5,"robot":3,"valence":"lose","action":"go","sham":0,"trial_type":"pit-trial","trial_index":213,"time_elapsed":1031208,"internal_node_id":"0.0-185.0","task_version":"battery-v0.2-trt"},{"rune":"P","rune_set":"elianto","hex":"#3366ff99","correct":-1,"choice":32,"rt":218.34000013768673,"accuracy":0,"outcome":"+1","keys":[1719.7549999691546],"total_keys":1,"block":2,"trial":178,"stimulus":7,"robot":2,"valence":"win","action":"no-go","sham":0,"trial_type":"pit-trial","trial_index":214,"time_elapsed":1034132,"internal_node_id":"0.0-186.0","task_version":"battery-v0.2-trt"},{"rune":"E","rune_set":"elianto","hex":"#3366ff99","correct":32,"choice":32,"rt":366.78000004030764,"accuracy":1,"outcome":"+10","keys":[1867.6100000739098],"total_keys":1,"block":2,"trial":179,"stimulus":4,"robot":1,"valence":"win","action":"go","sham":0,"trial_type":"pit-trial","trial_index":215,"time_elapsed":1037202,"internal_node_id":"0.0-187.0","task_version":"battery-v0.2-trt"},{"rune":"S","rune_set":"elianto","hex":"#f73b6a7A","correct":-1,"choice":32,"rt":293.3499999344349,"accuracy":0,"outcome":"-1","keys":[1794.4900000002235],"total_keys":1,"block":2,"trial":180,"stimulus":6,"robot":4,"valence":"lose","action":"no-go","sham":1,"trial_type":"pit-trial","trial_index":216,"time_elapsed":1040200,"internal_node_id":"0.0-188.0","task_version":"battery-v0.2-trt"},{"rune":"P","rune_set":"elianto","hex":"#3366ff99","correct":-1,"choice":32,"rt":350.1200000755489,"accuracy":0,"outcome":"+1","keys":[1851.3650000095367],"total_keys":1,"block":2,"trial":181,"stimulus":7,"robot":2,"valence":"win","action":"no-go","sham":0,"trial_type":"pit-trial","trial_index":217,"time_elapsed":1043255,"internal_node_id":"0.0-189.0","task_version":"battery-v0.2-trt"},{"rune":"W","rune_set":"elianto","hex":"#f73b6a7A","correct":32,"choice":32,"rt":1067.8850000258535,"accuracy":1,"outcome":"-1","keys":[281.03499999269843,2568.8000000081956],"total_keys":2,"block":2,"trial":182,"stimulus":5,"robot":3,"valence":"lose","action":"go","sham":0,"trial_type":"pit-trial","trial_index":218,"time_elapsed":1047027,"internal_node_id":"0.0-190.0","task_version":"battery-v0.2-trt"},{"rune":"E","rune_set":"elianto","hex":"#3366ff99","correct":32,"choice":32,"rt":451.0650001466274,"accuracy":1,"outcome":"+10","keys":[1284.965000115335,1953.0050000175834],"total_keys":2,"block":2,"trial":183,"stimulus":4,"robot":1,"valence":"win","action":"go","sham":0,"trial_type":"pit-trial","trial_index":219,"time_elapsed":1050184,"internal_node_id":"0.0-191.0","task_version":"battery-v0.2-trt"},{"rune":"S","rune_set":"elianto","hex":"#f73b6a7A","correct":-1,"choice":32,"rt":377.66500003635883,"accuracy":0,"outcome":"-10","keys":[1879.5000000391155],"total_keys":1,"block":2,"trial":184,"stimulus":6,"robot":4,"valence":"lose","action":"no-go","sham":0,"trial_type":"pit-trial","trial_index":220,"time_elapsed":1053267,"internal_node_id":"0.0-192.0","task_version":"battery-v0.2-trt"},{"rune":"S","rune_set":"elianto","hex":"#f73b6a7A","correct":-1,"choice":32,"rt":47.80999990180135,"accuracy":0,"outcome":"-10","keys":[1548.5799999441952],"total_keys":1,"block":2,"trial":185,"stimulus":6,"robot":4,"valence":"lose","action":"no-go","sham":0,"trial_type":"pit-trial","trial_index":221,"time_elapsed":1056019,"internal_node_id":"0.0-193.0","task_version":"battery-v0.2-trt"},{"rune":"E","rune_set":"elianto","hex":"#3366ff99","correct":32,"choice":-1,"rt":-1,"accuracy":0,"outcome":"+10","keys":[3876.864999998361],"total_keys":1,"block":2,"trial":186,"stimulus":4,"robot":1,"valence":"win","action":"go","sham":1,"trial_type":"pit-trial","trial_index":222,"time_elapsed":1060022,"internal_node_id":"0.0-194.0","task_version":"battery-v0.2-trt"},{"rune":"P","rune_set":"elianto","hex":"#3366ff99","correct":-1,"choice":32,"rt":896.2600000668317,"accuracy":0,"outcome":"+1","keys":[2397.3799999803305],"total_keys":1,"block":2,"trial":187,"stimulus":7,"robot":2,"valence":"win","action":"no-go","sham":0,"trial_type":"pit-trial","trial_index":223,"time_elapsed":1063624,"internal_node_id":"0.0-195.0","task_version":"battery-v0.2-trt"},{"rune":"W","rune_set":"elianto","hex":"#f73b6a7A","correct":32,"choice":32,"rt":649.4199999142438,"accuracy":1,"outcome":"-1","keys":[2150.9350000414997],"total_keys":1,"block":2,"trial":188,"stimulus":5,"robot":3,"valence":"lose","action":"go","sham":0,"trial_type":"pit-trial","trial_index":224,"time_elapsed":1066978,"internal_node_id":"0.0-196.0","task_version":"battery-v0.2-trt"},{"rune":"S","rune_set":"elianto","hex":"#f73b6a7A","correct":-1,"choice":32,"rt":460.86500003002584,"accuracy":0,"outcome":"-10","keys":[1961.6650000680238],"total_keys":1,"block":2,"trial":189,"stimulus":6,"robot":4,"valence":"lose","action":"no-go","sham":0,"trial_type":"pit-trial","trial_index":225,"time_elapsed":1070143,"internal_node_id":"0.0-197.0","task_version":"battery-v0.2-trt"},{"rune":"E","rune_set":"elianto","hex":"#3366ff99","correct":32,"choice":32,"rt":459.6049999818206,"accuracy":1,"outcome":"+10","keys":[1961.5350000094622],"total_keys":1,"block":2,"trial":190,"stimulus":4,"robot":1,"valence":"win","action":"go","sham":0,"trial_type":"pit-trial","trial_index":226,"time_elapsed":1073308,"internal_node_id":"0.0-198.0","task_version":"battery-v0.2-trt"},{"rune":"P","rune_set":"elianto","hex":"#3366ff99","correct":-1,"choice":32,"rt":414.2700000666082,"accuracy":0,"outcome":"+1","keys":[1915.7149998936802],"total_keys":1,"block":2,"trial":191,"stimulus":7,"robot":2,"valence":"win","action":"no-go","sham":0,"trial_type":"pit-trial","trial_index":227,"time_elapsed":1076427,"internal_node_id":"0.0-199.0","task_version":"battery-v0.2-trt"},{"rune":"W","rune_set":"elianto","hex":"#f73b6a7A","correct":32,"choice":32,"rt":494.2900000605732,"accuracy":1,"outcome":"-1","keys":[1994.5000000298023],"total_keys":1,"block":2,"trial":192,"stimulus":5,"robot":3,"valence":"lose","action":"go","sham":0,"trial_type":"pit-trial","trial_index":228,"time_elapsed":1079624,"internal_node_id":"0.0-200.0","task_version":"battery-v0.2-trt"},{"rune":"P","rune_set":"elianto","hex":"#3366ff99","correct":-1,"choice":32,"rt":603.9650000166148,"accuracy":0,"outcome":"+1","keys":[2105.6100002024323],"total_keys":1,"block":2,"trial":193,"stimulus":7,"robot":2,"valence":"win","action":"no-go","sham":0,"trial_type":"pit-trial","trial_index":229,"time_elapsed":1082933,"internal_node_id":"0.0-201.0","task_version":"battery-v0.2-trt"},{"rune":"E","rune_set":"elianto","hex":"#3366ff99","correct":32,"choice":32,"rt":340.0999999139458,"accuracy":1,"outcome":"+1","keys":[1841.4700001012534],"total_keys":1,"block":2,"trial":194,"stimulus":4,"robot":1,"valence":"win","action":"go","sham":1,"trial_type":"pit-trial","trial_index":230,"time_elapsed":1085978,"internal_node_id":"0.0-202.0","task_version":"battery-v0.2-trt"},{"rune":"S","rune_set":"elianto","hex":"#f73b6a7A","correct":-1,"choice":32,"rt":244.64499996975064,"accuracy":0,"outcome":"-1","keys":[1745.3150001820177],"total_keys":1,"block":2,"trial":195,"stimulus":6,"robot":4,"valence":"lose","action":"no-go","sham":1,"trial_type":"pit-trial","trial_index":231,"time_elapsed":1088931,"internal_node_id":"0.0-203.0","task_version":"battery-v0.2-trt"},{"rune":"G","rune_set":"elianto","hex":"#f73b6a7A","correct":32,"choice":32,"rt":980.8699998538941,"accuracy":1,"outcome":"-1","keys":[2481.8400000222027],"total_keys":1,"block":2,"trial":196,"stimulus":8,"robot":3,"valence":"lose","action":"go","sham":0,"trial_type":"pit-trial","trial_index":232,"time_elapsed":1092618,"internal_node_id":"0.0-204.0","task_version":"battery-v0.2-trt"},{"rune":"G","rune_set":"elianto","hex":"#f73b6a7A","correct":32,"choice":-1,"rt":-1,"accuracy":0,"outcome":"-10","keys":[3187.174999853596],"total_keys":1,"block":2,"trial":197,"stimulus":8,"robot":3,"valence":"lose","action":"go","sham":0,"trial_type":"pit-trial","trial_index":233,"time_elapsed":1096625,"internal_node_id":"0.0-205.0","task_version":"battery-v0.2-trt"},{"rune":"S","rune_set":"elianto","hex":"#f73b6a7A","correct":-1,"choice":32,"rt":1267.1250000130385,"accuracy":0,"outcome":"-1","keys":[2768.690000055358],"total_keys":1,"block":2,"trial":198,"stimulus":6,"robot":4,"valence":"lose","action":"no-go","sham":1,"trial_type":"pit-trial","trial_index":234,"time_elapsed":1100598,"internal_node_id":"0.0-206.0","task_version":"battery-v0.2-trt"},{"rune":"E","rune_set":"elianto","hex":"#3366ff99","correct":32,"choice":-1,"rt":-1,"accuracy":0,"outcome":"+1","keys":[3792.9750001057982],"total_keys":1,"block":2,"trial":199,"stimulus":4,"robot":1,"valence":"win","action":"go","sham":0,"trial_type":"pit-trial","trial_index":235,"time_elapsed":1104602,"internal_node_id":"0.0-207.0","task_version":"battery-v0.2-trt"},{"rune":"P","rune_set":"elianto","hex":"#3366ff99","correct":-1,"choice":32,"rt":236.37000005692244,"accuracy":0,"outcome":"+1","keys":[1737.650000024587],"total_keys":1,"block":2,"trial":200,"stimulus":7,"robot":2,"valence":"win","action":"no-go","sham":0,"trial_type":"pit-trial","trial_index":236,"time_elapsed":1107543,"internal_node_id":"0.0-208.0","task_version":"battery-v0.2-trt"},{"rune":"P","rune_set":"elianto","hex":"#3366ff99","correct":-1,"choice":32,"rt":646.2850000243634,"accuracy":0,"outcome":"+1","keys":[2147.510000038892],"total_keys":1,"block":2,"trial":201,"stimulus":7,"robot":2,"valence":"win","action":"no-go","sham":0,"trial_type":"pit-trial","trial_index":237,"time_elapsed":1110894,"internal_node_id":"0.0-209.0","task_version":"battery-v0.2-trt"},{"rune":"G","rune_set":"elianto","hex":"#f73b6a7A","correct":32,"choice":32,"rt":1076.1700000148267,"accuracy":1,"outcome":"-1","keys":[2577.335000038147],"total_keys":1,"block":2,"trial":202,"stimulus":8,"robot":3,"valence":"lose","action":"go","sham":0,"trial_type":"pit-trial","trial_index":238,"time_elapsed":1114676,"internal_node_id":"0.0-210.0","task_version":"battery-v0.2-trt"},{"rune":"A","rune_set":"elianto","hex":"#f73b6a7A","correct":32,"choice":32,"rt":545.4800000879914,"accuracy":1,"outcome":"-1","keys":[2046.834999928251],"total_keys":1,"block":2,"trial":203,"stimulus":9,"robot":3,"valence":"lose","action":"go","sham":0,"trial_type":"pit-trial","trial_index":239,"time_elapsed":1117926,"internal_node_id":"0.0-211.0","task_version":"battery-v0.2-trt"},{"rune":"S","rune_set":"elianto","hex":"#f73b6a7A","correct":-1,"choice":32,"rt":1074.8449999373406,"accuracy":0,"outcome":"-10","keys":[2576.300000073388],"total_keys":1,"block":2,"trial":204,"stimulus":6,"robot":4,"valence":"lose","action":"no-go","sham":0,"trial_type":"pit-trial","trial_index":240,"time_elapsed":1121706,"internal_node_id":"0.0-212.0","task_version":"battery-v0.2-trt"},{"rune":"P","rune_set":"elianto","hex":"#3366ff99","correct":-1,"choice":32,"rt":194.97000006958842,"accuracy":0,"outcome":"+1","keys":[1696.2049999274313],"total_keys":1,"block":2,"trial":205,"stimulus":7,"robot":2,"valence":"win","action":"no-go","sham":0,"trial_type":"pit-trial","trial_index":241,"time_elapsed":1124606,"internal_node_id":"0.0-213.0","task_version":"battery-v0.2-trt"},{"rune":"A","rune_set":"elianto","hex":"#f73b6a7A","correct":32,"choice":32,"rt":236.53500014916062,"accuracy":1,"outcome":"-1","keys":[1738.3300000801682],"total_keys":1,"block":2,"trial":206,"stimulus":9,"robot":3,"valence":"lose","action":"go","sham":0,"trial_type":"pit-trial","trial_index":242,"time_elapsed":1127547,"internal_node_id":"0.0-214.0","task_version":"battery-v0.2-trt"},{"rune":"S","rune_set":"elianto","hex":"#f73b6a7A","correct":-1,"choice":32,"rt":688.2149998564273,"accuracy":0,"outcome":"-10","keys":[2189.7899999748915],"total_keys":1,"block":2,"trial":207,"stimulus":6,"robot":4,"valence":"lose","action":"no-go","sham":0,"trial_type":"pit-trial","trial_index":243,"time_elapsed":1130940,"internal_node_id":"0.0-215.0","task_version":"battery-v0.2-trt"},{"rune":"G","rune_set":"elianto","hex":"#f73b6a7A","correct":32,"choice":32,"rt":354.3699998408556,"accuracy":1,"outcome":"-10","keys":[1854.7700000926852],"total_keys":1,"block":2,"trial":208,"stimulus":8,"robot":3,"valence":"lose","action":"go","sham":1,"trial_type":"pit-trial","trial_index":244,"time_elapsed":1133998,"internal_node_id":"0.0-216.0","task_version":"battery-v0.2-trt"},{"rune":"U","rune_set":"elianto","hex":"#3366ff99","correct":-1,"choice":-1,"rt":-1,"accuracy":1,"outcome":"+10","keys":[3333.2599999848753],"total_keys":1,"block":2,"trial":209,"stimulus":11,"robot":2,"valence":"win","action":"no-go","sham":0,"trial_type":"pit-trial","trial_index":245,"time_elapsed":1138003,"internal_node_id":"0.0-217.0","task_version":"battery-v0.2-trt"},{"rune":"L","rune_set":"elianto","hex":"#f73b6a7A","correct":-1,"choice":32,"rt":235.7450001873076,"accuracy":0,"outcome":"-10","keys":[1737.0400000363588],"total_keys":1,"block":2,"trial":210,"stimulus":10,"robot":4,"valence":"lose","action":"no-go","sham":0,"trial_type":"pit-trial","trial_index":246,"time_elapsed":1140943,"internal_node_id":"0.0-218.0","task_version":"battery-v0.2-trt"},{"rune":"A","rune_set":"elianto","hex":"#f73b6a7A","correct":32,"choice":32,"rt":255.00499992631376,"accuracy":1,"outcome":"-1","keys":[1756.5750000067055],"total_keys":1,"block":2,"trial":211,"stimulus":9,"robot":3,"valence":"lose","action":"go","sham":0,"trial_type":"pit-trial","trial_index":247,"time_elapsed":1143902,"internal_node_id":"0.0-219.0","task_version":"battery-v0.2-trt"},{"rune":"G","rune_set":"elianto","hex":"#f73b6a7A","correct":32,"choice":-1,"rt":-1,"accuracy":0,"outcome":"-10","keys":[],"total_keys":0,"block":2,"trial":212,"stimulus":8,"robot":3,"valence":"lose","action":"go","sham":0,"trial_type":"pit-trial","trial_index":248,"time_elapsed":1147909,"internal_node_id":"0.0-220.0","task_version":"battery-v0.2-trt"},{"rune":"A","rune_set":"elianto","hex":"#f73b6a7A","correct":32,"choice":32,"rt":43.880000011995435,"accuracy":1,"outcome":"-1","keys":[1544.9000000953674],"total_keys":1,"block":2,"trial":213,"stimulus":9,"robot":3,"valence":"lose","action":"go","sham":0,"trial_type":"pit-trial","trial_index":249,"time_elapsed":1150659,"internal_node_id":"0.0-221.0","task_version":"battery-v0.2-trt"},{"rune":"L","rune_set":"elianto","hex":"#f73b6a7A","correct":-1,"choice":-1,"rt":-1,"accuracy":1,"outcome":"-1","keys":[],"total_keys":0,"block":2,"trial":214,"stimulus":10,"robot":4,"valence":"lose","action":"no-go","sham":0,"trial_type":"pit-trial","trial_index":250,"time_elapsed":1154665,"internal_node_id":"0.0-222.0","task_version":"battery-v0.2-trt"},{"rune":"G","rune_set":"elianto","hex":"#f73b6a7A","correct":32,"choice":32,"rt":654.25999998115,"accuracy":1,"outcome":"-1","keys":[1500.7199998944998,2155.100000090897],"total_keys":2,"block":2,"trial":215,"stimulus":8,"robot":3,"valence":"lose","action":"go","sham":0,"trial_type":"pit-trial","trial_index":251,"time_elapsed":1158025,"internal_node_id":"0.0-223.0","task_version":"battery-v0.2-trt"},{"rune":"U","rune_set":"elianto","hex":"#3366ff99","correct":-1,"choice":32,"rt":288.789999904111,"accuracy":0,"outcome":"+1","keys":[1790.1949998922646],"total_keys":1,"block":2,"trial":216,"stimulus":11,"robot":2,"valence":"win","action":"no-go","sham":0,"trial_type":"pit-trial","trial_index":252,"time_elapsed":1161021,"internal_node_id":"0.0-224.0","task_version":"battery-v0.2-trt"},{"rune":"A","rune_set":"elianto","hex":"#f73b6a7A","correct":32,"choice":-1,"rt":-1,"accuracy":0,"outcome":"-10","keys":[3273.934999946505],"total_keys":1,"block":2,"trial":217,"stimulus":9,"robot":3,"valence":"lose","action":"go","sham":0,"trial_type":"pit-trial","trial_index":253,"time_elapsed":1165025,"internal_node_id":"0.0-225.0","task_version":"battery-v0.2-trt"},{"rune":"G","rune_set":"elianto","hex":"#f73b6a7A","correct":32,"choice":32,"rt":205.6100000627339,"accuracy":1,"outcome":"-1","keys":[1706.8700001109391],"total_keys":1,"block":2,"trial":218,"stimulus":8,"robot":3,"valence":"lose","action":"go","sham":0,"trial_type":"pit-trial","trial_index":254,"time_elapsed":1167935,"internal_node_id":"0.0-226.0","task_version":"battery-v0.2-trt"},{"rune":"L","rune_set":"elianto","hex":"#f73b6a7A","correct":-1,"choice":32,"rt":713.8450001366436,"accuracy":0,"outcome":"-1","keys":[2215.269999811426],"total_keys":1,"block":2,"trial":219,"stimulus":10,"robot":4,"valence":"lose","action":"no-go","sham":1,"trial_type":"pit-trial","trial_index":255,"time_elapsed":1171354,"internal_node_id":"0.0-227.0","task_version":"battery-v0.2-trt"},{"rune":"U","rune_set":"elianto","hex":"#3366ff99","correct":-1,"choice":32,"rt":304.44000009447336,"accuracy":0,"outcome":"+1","keys":[1805.6950001046062],"total_keys":1,"block":2,"trial":220,"stimulus":11,"robot":2,"valence":"win","action":"no-go","sham":0,"trial_type":"pit-trial","trial_index":256,"time_elapsed":1174361,"internal_node_id":"0.0-228.0","task_version":"battery-v0.2-trt"},{"rune":"L","rune_set":"elianto","hex":"#f73b6a7A","correct":-1,"choice":32,"rt":367.9400000255555,"accuracy":0,"outcome":"-10","keys":[1869.2250000312924],"total_keys":1,"block":2,"trial":221,"stimulus":10,"robot":4,"valence":"lose","action":"no-go","sham":0,"trial_type":"pit-trial","trial_index":257,"time_elapsed":1177435,"internal_node_id":"0.0-229.0","task_version":"battery-v0.2-trt"},{"rune":"U","rune_set":"elianto","hex":"#3366ff99","correct":-1,"choice":32,"rt":978.2300000078976,"accuracy":0,"outcome":"+10","keys":[2479.975000023842],"total_keys":1,"block":2,"trial":222,"stimulus":11,"robot":2,"valence":"win","action":"no-go","sham":1,"trial_type":"pit-trial","trial_index":258,"time_elapsed":1181119,"internal_node_id":"0.0-230.0","task_version":"battery-v0.2-trt"},{"rune":"A","rune_set":"elianto","hex":"#f73b6a7A","correct":32,"choice":32,"rt":750.7699998095632,"accuracy":1,"outcome":"-10","keys":[2251.1299999896437],"total_keys":1,"block":2,"trial":223,"stimulus":9,"robot":3,"valence":"lose","action":"go","sham":1,"trial_type":"pit-trial","trial_index":259,"time_elapsed":1184575,"internal_node_id":"0.0-231.0","task_version":"battery-v0.2-trt"},{"rune":"G","rune_set":"elianto","hex":"#f73b6a7A","correct":32,"choice":32,"rt":300.2599999308586,"accuracy":1,"outcome":"-1","keys":[1800.5099999718368],"total_keys":1,"block":2,"trial":224,"stimulus":8,"robot":3,"valence":"lose","action":"go","sham":0,"trial_type":"pit-trial","trial_index":260,"time_elapsed":1187578,"internal_node_id":"0.0-232.0","task_version":"battery-v0.2-trt"},{"rune":"G","rune_set":"elianto","hex":"#f73b6a7A","correct":32,"choice":32,"rt":300.13500014320016,"accuracy":1,"outcome":"-1","keys":[1800.5550000816584],"total_keys":1,"block":2,"trial":225,"stimulus":8,"robot":3,"valence":"lose","action":"go","sham":0,"trial_type":"pit-trial","trial_index":261,"time_elapsed":1190584,"internal_node_id":"0.0-233.0","task_version":"battery-v0.2-trt"},{"rune":"U","rune_set":"elianto","hex":"#3366ff99","correct":-1,"choice":-1,"rt":-1,"accuracy":1,"outcome":"+10","keys":[],"total_keys":0,"block":2,"trial":226,"stimulus":11,"robot":2,"valence":"win","action":"no-go","sham":0,"trial_type":"pit-trial","trial_index":262,"time_elapsed":1194592,"internal_node_id":"0.0-234.0","task_version":"battery-v0.2-trt"},{"rune":"L","rune_set":"elianto","hex":"#f73b6a7A","correct":-1,"choice":-1,"rt":-1,"accuracy":1,"outcome":"-1","keys":[],"total_keys":0,"block":2,"trial":227,"stimulus":10,"robot":4,"valence":"lose","action":"no-go","sham":0,"trial_type":"pit-trial","trial_index":263,"time_elapsed":1198598,"internal_node_id":"0.0-235.0","task_version":"battery-v0.2-trt"},{"rune":"A","rune_set":"elianto","hex":"#f73b6a7A","correct":32,"choice":-1,"rt":-1,"accuracy":0,"outcome":"-10","keys":[3336.820000084117],"total_keys":1,"block":2,"trial":228,"stimulus":9,"robot":3,"valence":"lose","action":"go