[{"view_history":"[{\"page_index\":0,\"viewing_time\":4326.205000048503}]","rt":4327.275000046939,"trial_type":"instructions","trial_index":0,"time_elapsed":4340,"internal_node_id":"0.0-0.0","task_version":"battery-v0.2-trt"},{"slider_type":"valence","raw_loc":691,"loc":0.882,"trial_type":"affective-slider","trial_index":1,"time_elapsed":8192,"internal_node_id":"0.0-1.0","task_version":"battery-v0.2-trt"},{"responses":{"Q03":"0","Q02":"0","Q05":"0","Q04":"0","Q07":"0","Q06":"0","Q08":"0","Q01":"0"},"rt":13154.314999934286,"item_order":[2,1,4,3,6,5,7,0],"radio_events":[2553.4200000111014,3911.3499999511987,5142.664999933913,7197.025000117719,8203.745000064373,9479.805000126362,10879.995000083,12319.305000128224],"key_events":[],"mouse_events":[2553.4200000111014,3911.3499999511987,5142.664999933913,7197.025000117719,8203.745000064373,9479.805000126362,10052.614999935031,10879.995000083,12319.305000128224,13153.94000010565],"straightlining":1,"zigzagging":0,"survey":"dass_d","trial_type":"survey-template","trial_index":2,"time_elapsed":21355,"internal_node_id":"0.0-2.0","task_version":"battery-v0.2-trt","infrequency":1},{"responses":{"Q05":"0","Q01":"0","Q06":"0","Q04":"0","Q08":"0","Q03":"0","Q07":"0","Q02":"0"},"rt":23082.524999976158,"item_order":[4,0,5,3,7,2,6,1],"radio_events":[2576.759999850765,3338.4399998467416,4008.0949999392033,4573.295000009239,6107.764999847859,19848.539999919012,20682.48499999754,21824.160000076517],"key_events":[],"mouse_events":[2576.759999850765,3338.4399998467416,4008.0949999392033,4573.295000009239,6107.764999847859,17292.170000029728,18140.399999916553,19347.954999888316,19848.539999919012,20682.48499999754,21824.160000076517,23082.429999951273],"straightlining":1,"zigzagging":0,"survey":"gad7","trial_type":"survey-template","trial_index":3,"time_elapsed":44441,"internal_node_id":"0.0-3.0","task_version":"battery-v0.2-trt","infrequency":0},{"responses":{"Q12":"2","Q13":"0","Q08":"2","Q06":"2","Q10":"2","Q09":"2","Q05":"2","Q02":"2","Q04":"2","Q03":"2","Q11":"2","Q01":"2","Q07":"2"},"rt":51868.31500008702,"item_order":[11,12,7,5,9,8,4,1,3,2,10,0,6],"radio_events":[5127.570000011474,7219.57499999553,8723.775000078604,11658.000000054017,12870.370000135154,14867.280000122264,17221.510000061244,34152.260000118986,36933.84000007063,37823.7149999477,48845.61499999836,49767.60000013746,50773.51500000805],"key_events":[],"mouse_events":[3102.1249999757856,5127.570000011474,7219.57499999553,8723.775000078604,9940.755000105128,11658.000000054017,12870.370000135154,13657.33000007458,14867.280000122264,16779.710000148043,17221.510000061244,32723.570000147447,34152.260000118986,35069.245000137016,35950.92500001192,36933.84000007063,37823.7149999477,47940.30000013299,48845.61499999836,49767.60000013746,50773.51500000805,51868.20499994792],"straightlining":0.9230769230769231,"zigzagging":0,"survey":"bisbas","trial_type":"survey-template","trial_index":4,"time_elapsed":96314,"internal_node_id":"0.0-4.0","task_version":"battery-v0.2-trt","infrequency":0},{"value":[1,2.9230769230769234,0],"trial_type":"call-function","trial_index":5,"time_elapsed":96318,"internal_node_id":"0.0-5.0","task_version":"battery-v0.2-trt"},{"view_history":"[{\"page_index\":0,\"viewing_time\":1887.6950000412762},{\"page_index\":1,\"viewing_time\":2604.9450000282377},{\"page_index\":2,\"viewing_time\":4682.014999911189},{\"page_index\":3,\"viewing_time\":3382.3450000490993},{\"page_index\":4,\"viewing_time\":6799.475000007078},{\"page_index\":5,\"viewing_time\":2777.9599998611957},{\"page_index\":6,\"viewing_time\":3412.2950001619756},{\"page_index\":7,\"viewing_time\":5306.269999826327},{\"page_index\":8,\"viewing_time\":5342.5549999810755},{\"page_index\":9,\"viewing_time\":4283.050000201911}]","rt":40479.114999994636,"trial_type":"pit-instructions","trial_index":6,"time_elapsed":136800,"internal_node_id":"0.0-6.0-0.0","task_version":"battery-v0.2-trt"},{"rune":"1","rune_set":"elianto","hex":"#3366ff99","correct":32,"choice":32,"rt":598.604999948293,"accuracy":1,"outcome":"+10","keys":[2099.015000043437],"total_keys":1,"block":0,"practice":1,"trial_type":"pit-trial","trial_index":7,"time_elapsed":140103,"internal_node_id":"0.0-6.0-1.0-0.0","task_version":"battery-v0.2-trt"},{"rune":"1","rune_set":"elianto","hex":"#3366ff99","correct":32,"choice":32,"rt":553.3000000286847,"accuracy":1,"outcome":"+10","keys":[2053.7149999290705],"total_keys":1,"block":0,"practice":1,"trial_type":"pit-trial","trial_index":8,"time_elapsed":143362,"internal_node_id":"0.0-6.0-1.1-0.1","task_version":"battery-v0.2-trt"},{"rune":"1","rune_set":"elianto","hex":"#3366ff99","correct":32,"choice":32,"rt":397.17500004917383,"accuracy":1,"outcome":"+10","keys":[1897.4600001238286],"total_keys":1,"block":0,"practice":1,"trial_type":"pit-trial","trial_index":9,"time_elapsed":146462,"internal_node_id":"0.0-6.0-1.2-0.2","task_version":"battery-v0.2-trt"},{"rune":"1","rune_set":"elianto","hex":"#3366ff99","correct":32,"choice":32,"rt":496.9349999446422,"accuracy":1,"outcome":"+10","keys":[1997.8399998508394],"total_keys":1,"block":0,"practice":1,"trial_type":"pit-trial","trial_index":10,"time_elapsed":149665,"internal_node_id":"0.0-6.0-1.3-0.3","task_version":"battery-v0.2-trt"},{"trial_type":"call-function","trial_index":11,"time_elapsed":149666,"internal_node_id":"0.0-6.0-2.0","task_version":"battery-v0.2-trt"},{"view_history":"[{\"page_index\":0,\"viewing_time\":6120.605000061914},{\"page_index\":1,\"viewing_time\":2934.034999925643}]","rt":9055.145000107586,"trial_type":"pit-instructions","trial_index":12,"time_elapsed":158721,"internal_node_id":"0.0-6.0-3.0","task_version":"battery-v0.2-trt"},{"rune":"2","rune_set":"elianto","hex":"#3366ff99","correct":-1,"choice":32,"rt":418.1749999988824,"accuracy":0,"outcome":"+1","keys":[1919.675000011921],"total_keys":1,"block":0,"practice":2,"trial_type":"pit-trial","trial_index":13,"time_elapsed":161845,"internal_node_id":"0.0-6.0-4.0-0.0","task_version":"battery-v0.2-trt"},{"rune":"2","rune_set":"elianto","hex":"#3366ff99","correct":-1,"choice":32,"rt":317.1900000888854,"accuracy":0,"outcome":"+1","keys":[1817.4699998926371],"total_keys":1,"block":0,"practice":2,"trial_type":"pit-trial","trial_index":14,"time_elapsed":164867,"internal_node_id":"0.0-6.0-4.1-0.1","task_version":"battery-v0.2-trt"},{"rune":"2","rune_set":"elianto","hex":"#3366ff99","correct":-1,"choice":32,"rt":246.06500007212162,"accuracy":0,"outcome":"+1","keys":[1746.4350000955164],"total_keys":1,"block":0,"practice":2,"trial_type":"pit-trial","trial_index":15,"time_elapsed":167817,"internal_node_id":"0.0-6.0-4.2-0.2","task_version":"battery-v0.2-trt"},{"rune":"2","rune_set":"elianto","hex":"#3366ff99","correct":-1,"choice":32,"rt":447.4150000605732,"accuracy":0,"outcome":"+1","keys":[1948.1199998408556],"total_keys":1,"block":0,"practice":2,"trial_type":"pit-trial","trial_index":16,"time_elapsed":170967,"internal_node_id":"0.0-6.0-4.3-0.3","task_version":"battery-v0.2-trt"},{"rune":"2","rune_set":"elianto","hex":"#3366ff99","correct":-1,"choice":32,"rt":420.12999998405576,"accuracy":0,"outcome":"+1","keys":[1921.4500000234693],"total_keys":1,"block":0,"practice":2,"trial_type":"pit-trial","trial_index":17,"time_elapsed":174094,"internal_node_id":"0.0-6.0-4.4-0.4","task_version":"battery-v0.2-trt"},{"rune":"2","rune_set":"elianto","hex":"#3366ff99","correct":-1,"choice":32,"rt":279.73000006750226,"accuracy":0,"outcome":"+1","keys":[1779.850000049919],"total_keys":1,"block":0,"practice":2,"trial_type":"pit-trial","trial_index":18,"time_elapsed":177078,"internal_node_id":"0.0-6.0-4.5-0.5","task_version":"battery-v0.2-trt"},{"rune":"2","rune_set":"elianto","hex":"#3366ff99","correct":-1,"choice":32,"rt":365.08000013418496,"accuracy":0,"outcome":"+1","keys":[1865.23999995552],"total_keys":1,"block":0,"practice":2,"trial_type":"pit-trial","trial_index":19,"time_elapsed":180148,"internal_node_id":"0.0-6.0-4.6-0.6","task_version":"battery-v0.2-trt"},{"rune":"2","rune_set":"elianto","hex":"#3366ff99","correct":-1,"choice":32,"rt":265.4999999795109,"accuracy":0,"outcome":"+1","keys":[1766.3549999706447],"total_keys":1,"block":0,"practice":2,"trial_type":"pit-trial","trial_index":20,"time_elapsed":183119,"internal_node_id":"0.0-6.0-4.7-0.7","task_version":"battery-v0.2-trt"},{"rune":"2","rune_set":"elianto","hex":"#3366ff99","correct":-1,"choice":-1,"rt":-1,"accuracy":1,"outcome":"+10","keys":[],"total_keys":0,"block":0,"practice":2,"trial_type":"pit-trial","trial_index":21,"time_elapsed":187122,"internal_node_id":"0.0-6.0-4.8-0.8","task_version":"battery-v0.2-trt"},{"rune":"2","rune_set":"elianto","hex":"#3366ff99","correct":-1,"choice":-1,"rt":-1,"accuracy":1,"outcome":"+10","keys":[],"total_keys":0,"block":0,"practice":2,"trial_type":"pit-trial","trial_index":22,"time_elapsed":191128,"internal_node_id":"0.0-6.0-4.9-0.9","task_version":"battery-v0.2-trt"},{"rune":"2","rune_set":"elianto","hex":"#3366ff99","correct":-1,"choice":-1,"rt":-1,"accuracy":1,"outcome":"+10","keys":[],"total_keys":0,"block":0,"practice":2,"trial_type":"pit-trial","trial_index":23,"time_elapsed":195134,"internal_node_id":"0.0-6.0-4.10-0.10","task_version":"battery-v0.2-trt"},{"trial_type":"call-function","trial_index":24,"time_elapsed":195135,"internal_node_id":"0.0-6.0-5.0","task_version":"battery-v0.2-trt"},{"view_history":"[{\"page_index\":0,\"viewing_time\":8574.664999963716},{\"page_index\":1,\"viewing_time\":4320.074999937788}]","rt":12895.275000017136,"trial_type":"pit-instructions","trial_index":25,"time_elapsed":208030,"internal_node_id":"0.0-6.0-6.0","task_version":"battery-v0.2-trt"},{"rune":"3","rune_set":"elianto","hex":"#f73b6a7A","correct":-1,"choice":-1,"rt":-1,"accuracy":1,"outcome":"-1","keys":[2967.2700001392514],"total_keys":1,"block":0,"practice":3,"trial_type":"pit-trial","trial_index":26,"time_elapsed":212036,"internal_node_id":"0.0-6.0-7.0-0.0","task_version":"battery-v0.2-trt"},{"rune":"3","rune_set":"elianto","hex":"#f73b6a7A","correct":-1,"choice":32,"rt":355.18000018782914,"accuracy":0,"outcome":"-10","keys":[1855.5550000164658],"total_keys":1,"block":0,"practice":3,"trial_type":"pit-trial","trial_index":27,"time_elapsed":215097,"internal_node_id":"0.0-6.0-7.1-0.1","task_version":"battery-v0.2-trt"},{"rune":"3","rune_set":"elianto","hex":"#f73b6a7A","correct":-1,"choice":-1,"rt":-1,"accuracy":1,"outcome":"-1","keys":[],"total_keys":0,"block":0,"practice":3,"trial_type":"pit-trial","trial_index":28,"time_elapsed":219101,"internal_node_id":"0.0-6.0-7.2-0.2","task_version":"battery-v0.2-trt"},{"rune":"3","rune_set":"elianto","hex":"#f73b6a7A","correct":-1,"choice":-1,"rt":-1,"accuracy":1,"outcome":"-1","keys":[],"total_keys":0,"block":0,"practice":3,"trial_type":"pit-trial","trial_index":29,"time_elapsed":223106,"internal_node_id":"0.0-6.0-7.3-0.3","task_version":"battery-v0.2-trt"},{"rune":"3","rune_set":"elianto","hex":"#f73b6a7A","correct":-1,"choice":-1,"rt":-1,"accuracy":1,"outcome":"-1","keys":[],"total_keys":0,"block":0,"practice":3,"trial_type":"pit-trial","trial_index":30,"time_elapsed":227112,"internal_node_id":"0.0-6.0-7.4-0.4","task_version":"battery-v0.2-trt"},{"trial_type":"call-function","trial_index":31,"time_elapsed":227115,"internal_node_id":"0.0-6.0-8.0","task_version":"battery-v0.2-trt"},{"view_history":"[{\"page_index\":0,\"viewing_time\":5333.344999933615},{\"page_index\":1,\"viewing_time\":1233.7150000967085}]","rt":6567.544999998063,"trial_type":"pit-instructions","trial_index":32,"time_elapsed":233684,"internal_node_id":"0.0-6.0-9.0","task_version":"battery-v0.2-trt"},{"rune":"4","rune_set":"elianto","hex":"#f73b6a7A","correct":32,"choice":32,"rt":732.1350001730025,"accuracy":1,"outcome":"-1","keys":[2232.7099998947233],"total_keys":1,"block":0,"practice":4,"trial_type":"pit-trial","trial_index":33,"time_elapsed":237119,"internal_node_id":"0.0-6.0-10.0-0.0","task_version":"battery-v0.2-trt"},{"rune":"4","rune_set":"elianto","hex":"#f73b6a7A","correct":32,"choice":-1,"rt":-1,"accuracy":0,"outcome":"-10","keys":[],"total_keys":0,"block":0,"practice":4,"trial_type":"pit-trial","trial_index":34,"time_elapsed":241122,"internal_node_id":"0.0-6.0-10.1-0.1","task_version":"battery-v0.2-trt"},{"rune":"4","rune_set":"elianto","hex":"#f73b6a7A","correct":32,"choice":32,"rt":440.07500004954636,"accuracy":1,"outcome":"-1","keys":[1940.7000001519918],"total_keys":1,"block":0,"practice":4,"trial_type":"pit-trial","trial_index":35,"time_elapsed":244269,"internal_node_id":"0.0-6.0-10.2-0.2","task_version":"battery-v0.2-trt"},{"rune":"4","rune_set":"elianto","hex":"#f73b6a7A","correct":32,"choice":32,"rt":349.23000005073845,"accuracy":1,"outcome":"-1","keys":[1849.8649999964982],"total_keys":1,"block":0,"practice":4,"trial_type":"pit-trial","trial_index":36,"time_elapsed":247323,"internal_node_id":"0.0-6.0-10.3-0.3","task_version":"battery-v0.2-trt"},{"rune":"4","rune_set":"elianto","hex":"#f73b6a7A","correct":32,"choice":32,"rt":549.0350001491606,"accuracy":1,"outcome":"-1","keys":[2050.3450001124293],"total_keys":1,"block":0,"practice":4,"trial_type":"pit-trial","trial_index":37,"time_elapsed":250577,"internal_node_id":"0.0-6.0-10.4-0.4","task_version":"battery-v0.2-trt"},{"trial_type":"call-function","trial_index":38,"time_elapsed":250580,"internal_node_id":"0.0-6.0-11.0","task_version":"battery-v0.2-trt"},{"view_history":"[{\"page_index\":0,\"viewing_time\":14071.215000003576},{\"page_index\":1,\"viewing_time\":2649.459999985993},{\"page_index\":2,\"viewing_time\":19628.264999948442},{\"page_index\":3,\"viewing_time\":8582.574999891222},{\"page_index\":4,\"viewing_time\":2266.1350001581013},{\"page_index\":5,\"viewing_time\":1140.9399998374283}]","rt":48339.144999859855,"trial_type":"pit-instructions","trial_index":39,"time_elapsed":298921,"internal_node_id":"0.0-6.0-12.0","task_version":"battery-v0.2-trt"},{"responses":["Press SPACE","+10","-1","True","True"],"num_errors":0,"rt":15406.479999888688,"trial_type":"pit-comprehension","trial_index":40,"time_elapsed":314332,"internal_node_id":"0.0-6.0-13.0","task_version":"battery-v0.2-trt"},{"view_history":"[{\"page_index\":0,\"viewing_time\":1434.550000121817},{\"page_index\":1,\"viewing_time\":10225.834999931976}]","rt":11660.910000093281,"trial_type":"pit-instructions","trial_index":41,"time_elapsed":325996,"internal_node_id":"0.0-7.0","task_version":"battery-v0.2-trt"},{"rune":"F","rune_set":"elianto","hex":"#f73b6a7A","correct":-1,"choice":32,"rt":470.3650001902133,"accuracy":0,"outcome":"-10","keys":[1971.4649999514222],"total_keys":1,"block":1,"trial":1,"stimulus":2,"robot":4,"valence":"lose","action":"no-go","sham":0,"trial_type":"pit-trial","trial_index":42,"time_elapsed":329173,"internal_node_id":"0.0-8.0","task_version":"battery-v0.2-trt"},{"rune":"Q","rune_set":"elianto","hex":"#3366ff99","correct":-1,"choice":32,"rt":310.61000004410744,"accuracy":0,"outcome":"+10","keys":[1811.9850000366569],"total_keys":1,"block":1,"trial":2,"stimulus":0,"robot":2,"valence":"win","action":"no-go","sham":1,"trial_type":"pit-trial","trial_index":43,"time_elapsed":332188,"internal_node_id":"0.0-9.0","task_version":"battery-v0.2-trt"},{"rune":"X","rune_set":"elianto","hex":"#3366ff99","correct":32,"choice":32,"rt":384.1200000606477,"accuracy":1,"outcome":"+10","keys":[1886.0400000121444],"total_keys":1,"block":1,"trial":3,"stimulus":3,"robot":1,"valence":"win","action":"go","sham":0,"trial_type":"pit-trial","trial_index":44,"time_elapsed":335280,"internal_node_id":"0.0-10.0","task_version":"battery-v0.2-trt"},{"rune":"N","rune_set":"elianto","hex":"#3366ff99","correct":32,"choice":32,"rt":477.36000013537705,"accuracy":1,"outcome":"+10","keys":[1978.4850000869483],"total_keys":1,"block":1,"trial":4,"stimulus":1,"robot":1,"valence":"win","action":"go","sham":0,"trial_type":"pit-trial","trial_index":45,"time_elapsed":338463,"internal_node_id":"0.0-11.0","task_version":"battery-v0.2-trt"},{"rune":"Q","rune_set":"elianto","hex":"#3366ff99","correct":-1,"choice":32,"rt":646.0249999072403,"accuracy":0,"outcome":"+1","keys":[2146.2950001005083],"total_keys":1,"block":1,"trial":5,"stimulus":0,"robot":2,"valence":"win","action":"no-go","sham":0,"trial_type":"pit-trial","trial_index":46,"time_elapsed":341814,"internal_node_id":"0.0-12.0","task_version":"battery-v0.2-trt"},{"rune":"F","rune_set":"elianto","hex":"#f73b6a7A","correct":-1,"choice":-1,"rt":-1,"accuracy":1,"outcome":"-1","keys":[],"total_keys":0,"block":1,"trial":6,"stimulus":2,"robot":4,"valence":"lose","action":"no-go","sham":0,"trial_type":"pit-trial","trial_index":47,"time_elapsed":345820,"internal_node_id":"0.0-13.0","task_version":"battery-v0.2-trt"},{"rune":"N","rune_set":"elianto","hex":"#3366ff99","correct":32,"choice":32,"rt":381.5750000067055,"accuracy":1,"outcome":"+10","keys":[1881.739999866113],"total_keys":1,"block":1,"trial":7,"stimulus":1,"robot":1,"valence":"win","action":"go","sham":0,"trial_type":"pit-trial","trial_index":48,"time_elapsed":348906,"internal_node_id":"0.0-14.0","task_version":"battery-v0.2-trt"},{"rune":"X","rune_set":"elianto","hex":"#3366ff99","correct":32,"choice":32,"rt":975.8399999700487,"accuracy":1,"outcome":"+10","keys":[2477.5350000709295],"total_keys":1,"block":1,"trial":8,"stimulus":3,"robot":1,"valence":"win","action":"go","sham":0,"trial_type":"pit-trial","trial_index":49,"time_elapsed":352587,"internal_node_id":"0.0-15.0","task_version":"battery-v0.2-trt"},{"rune":"X","rune_set":"elianto","hex":"#3366ff99","correct":32,"choice":-1,"rt":-1,"accuracy":0,"outcome":"+1","keys":[],"total_keys":0,"block":1,"trial":9,"stimulus":3,"robot":1,"valence":"win","action":"go","sham":0,"trial_type":"pit-trial","trial_index":50,"time_elapsed":356593,"internal_node_id":"0.0-16.0","task_version":"battery-v0.2-trt"},{"rune":"Q","rune_set":"elianto","hex":"#3366ff99","correct":-1,"choice":32,"rt":396.88499993644655,"accuracy":0,"outcome":"+1","keys":[1897.469999967143],"total_keys":1,"block":1,"trial":10,"stimulus":0,"robot":2,"valence":"win","action":"no-go","sham":0,"trial_type":"pit-trial","trial_index":51,"time_elapsed":359697,"internal_node_id":"0.0-17.0","task_version":"battery-v0.2-trt"},{"rune":"N","rune_set":"elianto","hex":"#3366ff99","correct":32,"choice":32,"rt":458.02000002004206,"accuracy":1,"outcome":"+10","keys":[1959.6700000111014],"total_keys":1,"block":1,"trial":11,"stimulus":1,"robot":1,"valence":"win","action":"go","sham":0,"trial_type":"pit-trial","trial_index":52,"time_elapsed":362862,"internal_node_id":"0.0-18.0","task_version":"battery-v0.2-trt"},{"rune":"F","rune_set":"elianto","hex":"#f73b6a7A","correct":-1,"choice":-1,"rt":-1,"accuracy":1,"outcome":"-1","keys":[],"total_keys":0,"block":1,"trial":12,"stimulus":2,"robot":4,"valence":"lose","action":"no-go","sham":0,"trial_type":"pit-trial","trial_index":53,"time_elapsed":366868,"internal_node_id":"0.0-19.0","task_version":"battery-v0.2-trt"},{"rune":"N","rune_set":"elianto","hex":"#3366ff99","correct":32,"choice":32,"rt":368.70999983511865,"accuracy":1,"outcome":"+10","keys":[1868.9949999097735],"total_keys":1,"block":1,"trial":13,"stimulus":1,"robot":1,"valence":"win","action":"go","sham":0,"trial_type":"pit-trial","trial_index":54,"time_elapsed":369942,"internal_node_id":"0.0-20.0","task_version":"battery-v0.2-trt"},{"rune":"Q","rune_set":"elianto","hex":"#3366ff99","correct":-1,"choice":32,"rt":530.0900000147521,"accuracy":0,"outcome":"+10","keys":[2030.6649999693036],"total_keys":1,"block":1,"trial":14,"stimulus":0,"robot":2,"valence":"win","action":"no-go","sham":1,"trial_type":"pit-trial","trial_index":55,"time_elapsed":373176,"internal_node_id":"0.0-21.0","task_version":"battery-v0.2-trt"},{"rune":"F","rune_set":"elianto","hex":"#f73b6a7A","correct":-1,"choice":-1,"rt":-1,"accuracy":1,"outcome":"-1","keys":[],"total_keys":0,"block":1,"trial":15,"stimulus":2,"robot":4,"valence":"lose","action":"no-go","sham":0,"trial_type":"pit-trial","trial_index":56,"time_elapsed":377181,"internal_node_id":"0.0-22.0","task_version":"battery-v0.2-trt"},{"rune":"X","rune_set":"elianto","hex":"#3366ff99","correct":32,"choice":32,"rt":413.21999998763204,"accuracy":1,"outcome":"+10","keys":[1914.0699999406934],"total_keys":1,"block":1,"trial":16,"stimulus":3,"robot":1,"valence":"win","action":"go","sham":0,"trial_type":"pit-trial","trial_index":57,"time_elapsed":380301,"internal_node_id":"0.0-23.0","task_version":"battery-v0.2-trt"},{"rune":"F","rune_set":"elianto","hex":"#f73b6a7A","correct":-1,"choice":-1,"rt":-1,"accuracy":1,"outcome":"-1","keys":[],"total_keys":0,"block":1,"trial":17,"stimulus":2,"robot":4,"valence":"lose","action":"no-go","sham":0,"trial_type":"pit-trial","trial_index":58,"time_elapsed":384307,"internal_node_id":"0.0-24.0","task_version":"battery-v0.2-trt"},{"rune":"X","rune_set":"elianto","hex":"#3366ff99","correct":32,"choice":32,"rt":363.6299998033792,"accuracy":1,"outcome":"+10","keys":[1865.2099999599159],"total_keys":1,"block":1,"trial":18,"stimulus":3,"robot":1,"valence":"win","action":"go","sham":0,"trial_type":"pit-trial","trial_index":59,"time_elapsed":387376,"internal_node_id":"0.0-25.0","task_version":"battery-v0.2-trt"},{"rune":"Q","rune_set":"elianto","hex":"#3366ff99","correct":-1,"choice":32,"rt":735.4900001082569,"accuracy":0,"outcome":"+1","keys":[2235.880000051111],"total_keys":1,"block":1,"trial":19,"stimulus":0,"robot":2,"valence":"win","action":"no-go","sham":0,"trial_type":"pit-trial","trial_index":60,"time_elapsed":390822,"internal_node_id":"0.0-26.0","task_version":"battery-v0.2-trt"},{"rune":"N","rune_set":"elianto","hex":"#3366ff99","correct":32,"choice":32,"rt":441.30500010214746,"accuracy":1,"outcome":"+10","keys":[1942.6550001371652],"total_keys":1,"block":1,"trial":20,"stimulus":1,"robot":1,"valence":"win","action":"go","sham":0,"trial_type":"pit-trial","trial_index":61,"time_elapsed":393970,"internal_node_id":"0.0-27.0","task_version":"battery-v0.2-trt"},{"rune":"F","rune_set":"elianto","hex":"#f73b6a7A","correct":-1,"choice":-1,"rt":-1,"accuracy":1,"outcome":"-1","keys":[],"total_keys":0,"block":1,"trial":21,"stimulus":2,"robot":4,"valence":"lose","action":"no-go","sham":0,"trial_type":"pit-trial","trial_index":62,"time_elapsed":397974,"internal_node_id":"0.0-28.0","task_version":"battery-v0.2-trt"},{"rune":"Q","rune_set":"elianto","hex":"#3366ff99","correct":-1,"choice":32,"rt":630.5649999994785,"accuracy":0,"outcome":"+1","keys":[2130.6949998252094],"total_keys":1,"block":1,"trial":22,"stimulus":0,"robot":2,"valence":"win","action":"no-go","sham":0,"trial_type":"pit-trial","trial_index":63,"time_elapsed":401310,"internal_node_id":"0.0-29.0","task_version":"battery-v0.2-trt"},{"rune":"X","rune_set":"elianto","hex":"#3366ff99","correct":32,"choice":32,"rt":625.0650000292808,"accuracy":1,"outcome":"+10","keys":[2125.709999818355],"total_keys":1,"block":1,"trial":23,"stimulus":3,"robot":1,"valence":"win","action":"go","sham":0,"trial_type":"pit-trial","trial_index":64,"time_elapsed":404642,"internal_node_id":"0.0-30.0","task_version":"battery-v0.2-trt"},{"rune":"N","rune_set":"elianto","hex":"#3366ff99","correct":32,"choice":32,"rt":438.22499993257225,"accuracy":1,"outcome":"+10","keys":[1939.185000024736],"total_keys":1,"block":1,"trial":24,"stimulus":1,"robot":1,"valence":"win","action":"go","sham":0,"trial_type":"pit-trial","trial_index":65,"time_elapsed":407783,"internal_node_id":"0.0-31.0","task_version":"battery-v0.2-trt"},{"rune":"X","rune_set":"elianto","hex":"#3366ff99","correct":32,"choice":32,"rt":1010.2649999316782,"accuracy":1,"outcome":"+10","keys":[2511.2499999813735],"total_keys":1,"block":1,"trial":25,"stimulus":3,"robot":1,"valence":"win","action":"go","sham":0,"trial_type":"pit-trial","trial_index":66,"time_elapsed":411498,"internal_node_id":"0.0-32.0","task_version":"battery-v0.2-trt"},{"rune":"F","rune_set":"elianto","hex":"#f73b6a7A","correct":-1,"choice":-1,"rt":-1,"accuracy":1,"outcome":"-1","keys":[],"total_keys":0,"block":1,"trial":26,"stimulus":2,"robot":4,"valence":"lose","action":"no-go","sham":0,"trial_type":"pit-trial","trial_index":67,"time_elapsed":415501,"internal_node_id":"0.0-33.0","task_version":"battery-v0.2-trt"},{"rune":"N","rune_set":"elianto","hex":"#3366ff99","correct":32,"choice":32,"rt":441.0000001080334,"accuracy":1,"outcome":"+10","keys":[1942.3750001005828],"total_keys":1,"block":1,"trial":27,"stimulus":1,"robot":1,"valence":"win","action":"go","sham":0,"trial_type":"pit-trial","trial_index":68,"time_elapsed":418646,"internal_node_id":"0.0-34.0","task_version":"battery-v0.2-trt"},{"rune":"Q","rune_set":"elianto","hex":"#3366ff99","correct":-1,"choice":32,"rt":662.6800000667572,"accuracy":0,"outcome":"+1","keys":[2164.4350001588464],"total_keys":1,"block":1,"trial":28,"stimulus":0,"robot":2,"valence":"win","action":"no-go","sham":0,"trial_type":"pit-trial","trial_index":69,"time_elapsed":422014,"internal_node_id":"0.0-35.0","task_version":"battery-v0.2-trt"},{"rune":"F","rune_set":"elianto","hex":"#f73b6a7A","correct":-1,"choice":-1,"rt":-1,"accuracy":1,"outcome":"-1","keys":[],"total_keys":0,"block":1,"trial":29,"stimulus":2,"robot":4,"valence":"lose","action":"no-go","sham":0,"trial_type":"pit-trial","trial_index":70,"time_elapsed":426018,"internal_node_id":"0.0-36.0","task_version":"battery-v0.2-trt"},{"rune":"X","rune_set":"elianto","hex":"#3366ff99","correct":32,"choice":32,"rt":588.6650001630187,"accuracy":1,"outcome":"+10","keys":[2089.624999789521],"total_keys":1,"block":1,"trial":30,"stimulus":3,"robot":1,"valence":"win","action":"go","sham":0,"trial_type":"pit-trial","trial_index":71,"time_elapsed":429310,"internal_node_id":"0.0-37.0","task_version":"battery-v0.2-trt"},{"rune":"Q","rune_set":"elianto","hex":"#3366ff99","correct":-1,"choice":-1,"rt":-1,"accuracy":1,"outcome":"+1","keys":[],"total_keys":0,"block":1,"trial":31,"stimulus":0,"robot":2,"valence":"win","action":"no-go","sham":1,"trial_type":"pit-trial","trial_index":72,"time_elapsed":433317,"internal_node_id":"0.0-38.0","task_version":"battery-v0.2-trt"},{"rune":"N","rune_set":"elianto","hex":"#3366ff99","correct":32,"choice":32,"rt":330.4000000935048,"accuracy":1,"outcome":"+10","keys":[1832.2299998253584],"total_keys":1,"block":1,"trial":32,"stimulus":1,"robot":1,"valence":"win","action":"go","sham":0,"trial_type":"pit-trial","trial_index":73,"time_elapsed":436354,"internal_node_id":"0.0-39.0","task_version":"battery-v0.2-trt"},{"rune":"T","rune_set":"elianto","hex":"#3366ff99","correct":32,"choice":32,"rt":596.6200002003461,"accuracy":1,"outcome":"+10","keys":[2096.8599999323487],"total_keys":1,"block":1,"trial":33,"stimulus":4,"robot":1,"valence":"win","action":"go","sham":0,"trial_type":"pit-trial","trial_index":74,"time_elapsed":439654,"internal_node_id":"0.0-40.0","task_version":"battery-v0.2-trt"},{"rune":"X","rune_set":"elianto","hex":"#3366ff99","correct":32,"choice":32,"rt":965.8749999944121,"accuracy":1,"outcome":"+10","keys":[2466.594999888912],"total_keys":1,"block":1,"trial":34,"stimulus":3,"robot":1,"valence":"win","action":"go","sham":0,"trial_type":"pit-trial","trial_index":75,"time_elapsed":443323,"internal_node_id":"0.0-41.0","task_version":"battery-v0.2-trt"},{"rune":"Q","rune_set":"elianto","hex":"#3366ff99","correct":-1,"choice":-1,"rt":-1,"accuracy":1,"outcome":"+10","keys":[],"total_keys":0,"block":1,"trial":35,"stimulus":0,"robot":2,"valence":"win","action":"no-go","sham":0,"trial_type":"pit-trial","trial_index":76,"time_elapsed":447326,"internal_node_id":"0.0-42.0","task_version":"battery-v0.2-trt"},{"rune":"F","rune_set":"elianto","hex":"#f73b6a7A","correct":-1,"choice":-1,"rt":-1,"accuracy":1,"outcome":"-10","keys":[],"total_keys":0,"block":1,"trial":36,"stimulus":2,"robot":4,"valence":"lose","action":"no-go","sham":1,"trial_type":"pit-trial","trial_index":77,"time_elapsed":451330,"internal_node_id":"0.0-43.0","task_version":"battery-v0.2-trt"},{"rune":"F","rune_set":"elianto","hex":"#f73b6a7A","correct":-1,"choice":32,"rt":656.5950000658631,"accuracy":0,"outcome":"-10","keys":[2158.524999860674],"total_keys":1,"block":1,"trial":37,"stimulus":2,"robot":4,"valence":"lose","action":"no-go","sham":0,"trial_type":"pit-trial","trial_index":78,"time_elapsed":454692,"internal_node_id":"0.0-44.0","task_version":"battery-v0.2-trt"},{"rune":"X","rune_set":"elianto","hex":"#3366ff99","correct":32,"choice":32,"rt":340.77499993145466,"accuracy":1,"outcome":"+1","keys":[1840.9650002140552],"total_keys":1,"block":1,"trial":38,"stimulus":3,"robot":1,"valence":"win","action":"go","sham":1,"trial_type":"pit-trial","trial_index":79,"time_elapsed":457736,"internal_node_id":"0.0-45.0","task_version":"battery-v0.2-trt"},{"rune":"T","rune_set":"elianto","hex":"#3366ff99","correct":32,"choice":32,"rt":566.7550000362098,"accuracy":1,"outcome":"+1","keys":[2068.5099998954684],"total_keys":1,"block":1,"trial":39,"stimulus":4,"robot":1,"valence":"win","action":"go","sham":1,"trial_type":"pit-trial","trial_index":80,"time_elapsed":461008,"internal_node_id":"0.0-46.0","task_version":"battery-v0.2-trt"},{"rune":"Q","rune_set":"elianto","hex":"#3366ff99","correct":-1,"choice":-1,"rt":-1,"accuracy":1,"outcome":"+1","keys":[],"total_keys":0,"block":1,"trial":40,"stimulus":0,"robot":2,"valence":"win","action":"no-go","sham":1,"trial_type":"pit-trial","trial_index":81,"time_elapsed":465015,"internal_node_id":"0.0-47.0","task_version":"battery-v0.2-trt"},{"rune":"B","rune_set":"elianto","hex":"#f73b6a7A","correct":32,"choice":32,"rt":905.6599999312311,"accuracy":1,"outcome":"-1","keys":[2406.0049999970943],"total_keys":1,"block":1,"trial":41,"stimulus":5,"robot":3,"valence":"lose","action":"go","sham":0,"trial_type":"pit-trial","trial_index":82,"time_elapsed":468626,"internal_node_id":"0.0-48.0","task_version":"battery-v0.2-trt"},{"rune":"C","rune_set":"elianto","hex":"#f73b6a7A","correct":-1,"choice":32,"rt":603.7200000137091,"accuracy":0,"outcome":"-1","keys":[2107.825000071898],"total_keys":1,"block":1,"trial":42,"stimulus":6,"robot":4,"valence":"lose","action":"no-go","sham":1,"trial_type":"pit-trial","trial_index":83,"time_elapsed":471938,"internal_node_id":"0.0-49.0","task_version":"battery-v0.2-trt"},{"rune":"T","rune_set":"elianto","hex":"#3366ff99","correct":32,"choice":32,"rt":544.7450000792742,"accuracy":1,"outcome":"+1","keys":[2045.1350000221282],"total_keys":1,"block":1,"trial":43,"stimulus":4,"robot":1,"valence":"win","action":"go","sham":1,"trial_type":"pit-trial","trial_index":84,"time_elapsed":475188,"internal_node_id":"0.0-50.0","task_version":"battery-v0.2-trt"},{"rune":"Q","rune_set":"elianto","hex":"#3366ff99","correct":-1,"choice":-1,"rt":-1,"accuracy":1,"outcome":"+10","keys":[],"total_keys":0,"block":1,"trial":44,"stimulus":0,"robot":2,"valence":"win","action":"no-go","sham":0,"trial_type":"pit-trial","trial_index":85,"time_elapsed":479194,"internal_node_id":"0.0-51.0","task_version":"battery-v0.2-trt"},{"rune":"T","rune_set":"elianto","hex":"#3366ff99","correct":32,"choice":32,"rt":449.83999989926815,"accuracy":1,"outcome":"+10","keys":[1951.1649999767542],"total_keys":1,"block":1,"trial":45,"stimulus":4,"robot":1,"valence":"win","action":"go","sham":0,"trial_type":"pit-trial","trial_index":86,"time_elapsed":482350,"internal_node_id":"0.0-52.0","task_version":"battery-v0.2-trt"},{"rune":"C","rune_set":"elianto","hex":"#f73b6a7A","correct":-1,"choice":-1,"rt":-1,"accuracy":1,"outcome":"-1","keys":[],"total_keys":0,"block":1,"trial":46,"stimulus":6,"robot":4,"valence":"lose","action":"no-go","sham":0,"trial_type":"pit-trial","trial_index":87,"time_elapsed":486357,"internal_node_id":"0.0-53.0","task_version":"battery-v0.2-trt"},{"rune":"B","rune_set":"elianto","hex":"#f73b6a7A","correct":32,"choice":32,"rt":741.1299999803305,"accuracy":1,"outcome":"-10","keys":[2241.704999934882],"total_keys":1,"block":1,"trial":47,"stimulus":5,"robot":3,"valence":"lose","action":"go","sham":1,"trial_type":"pit-trial","trial_index":88,"time_elapsed":489801,"internal_node_id":"0.0-54.0","task_version":"battery-v0.2-trt"},{"rune":"Q","rune_set":"elianto","hex":"#3366ff99","correct":-1,"choice":-1,"rt":-1,"accuracy":1,"outcome":"+10","keys":[],"total_keys":0,"block":1,"trial":48,"stimulus":0,"robot":2,"valence":"win","action":"no-go","sham":0,"trial_type":"pit-trial","trial_index":89,"time_elapsed":493807,"internal_node_id":"0.0-55.0","task_version":"battery-v0.2-trt"},{"rune":"T","rune_set":"elianto","hex":"#3366ff99","correct":32,"choice":32,"rt":660.5550001841038,"accuracy":1,"outcome":"+10","keys":[2160.854999907315],"total_keys":1,"block":1,"trial":49,"stimulus":4,"robot":1,"valence":"win","action":"go","sham":0,"trial_type":"pit-trial","trial_index":90,"time_elapsed":497174,"internal_node_id":"0.0-56.0","task_version":"battery-v0.2-trt"},{"rune":"B","rune_set":"elianto","hex":"#f73b6a7A","correct":32,"choice":32,"rt":723.4649998135865,"accuracy":1,"outcome":"-1","keys":[2224.475000053644],"total_keys":1,"block":1,"trial":50,"stimulus":5,"robot":3,"valence":"lose","action":"go","sham":0,"trial_type":"pit-trial","trial_index":91,"time_elapsed":500604,"internal_node_id":"0.0-57.0","task_version":"battery-v0.2-trt"},{"rune":"C","rune_set":"elianto","hex":"#f73b6a7A","correct":-1,"choice":-1,"rt":-1,"accuracy":1,"outcome":"-1","keys":[],"total_keys":0,"block":1,"trial":51,"stimulus":6,"robot":4,"valence":"lose","action":"no-go","sham":0,"trial_type":"pit-trial","trial_index":92,"time_elapsed":504610,"internal_node_id":"0.0-58.0","task_version":"battery-v0.2-trt"},{"rune":"Z","rune_set":"elianto","hex":"#3366ff99","correct":-1,"choice":32,"rt":425.6100000347942,"accuracy":0,"outcome":"+1","keys":[1927.4749998003244],"total_keys":1,"block":1,"trial":52,"stimulus":7,"robot":2,"valence":"win","action":"no-go","sham":0,"trial_type":"pit-trial","trial_index":93,"time_elapsed":507743,"internal_node_id":"0.0-59.0","task_version":"battery-v0.2-trt"},{"rune":"Z","rune_set":"elianto","hex":"#3366ff99","correct":-1,"choice":32,"rt":857.1299999020994,"accuracy":0,"outcome":"+1","keys":[2357.330000028014],"total_keys":1,"block":1,"trial":53,"stimulus":7,"robot":2,"valence":"win","action":"no-go","sham":0,"trial_type":"pit-trial","trial_index":94,"time_elapsed":511303,"internal_node_id":"0.0-60.0","task_version":"battery-v0.2-trt"},{"rune":"B","rune_set":"elianto","hex":"#f73b6a7A","correct":32,"choice":-1,"rt":-1,"accuracy":0,"outcome":"-10","keys":[],"total_keys":0,"block":1,"trial":54,"stimulus":5,"robot":3,"valence":"lose","action":"go","sham":0,"trial_type":"pit-trial","trial_index":95,"time_elapsed":515310,"internal_node_id":"0.0-61.0","task_version":"battery-v0.2-trt"},{"rune":"T","rune_set":"elianto","hex":"#3366ff99","correct":32,"choice":-1,"rt":-1,"accuracy":0,"outcome":"+1","keys":[2838.9200000092387],"total_keys":1,"block":1,"trial":55,"stimulus":4,"robot":1,"valence":"win","action":"go","sham":0,"trial_type":"pit-trial","trial_index":96,"time_elapsed":519313,"internal_node_id":"0.0-62.0","task_version":"battery-v0.2-trt"},{"rune":"C","rune_set":"elianto","hex":"#f73b6a7A","correct":-1,"choice":-1,"rt":-1,"accuracy":1,"outcome":"-1","keys":[],"total_keys":0,"block":1,"trial":56,"stimulus":6,"robot":4,"valence":"lose","action":"no-go","sham":0,"trial_type":"pit-trial","trial_index":97,"time_elapsed":523320,"internal_node_id":"0.0-63.0","task_version":"battery-v0.2-trt"},{"rune":"C","rune_set":"elianto","hex":"#f73b6a7A","correct":-1,"choice":32,"rt":532.5700000394136,"accuracy":0,"outcome":"-1","keys":[2032.619999954477],"total_keys":1,"block":1,"trial":57,"stimulus":6,"robot":4,"valence":"lose","action":"no-go","sham":1,"trial_type":"pit-trial","trial_index":98,"time_elapsed":526558,"internal_node_id":"0.0-64.0","task_version":"battery-v0.2-trt"},{"rune":"B","rune_set":"elianto","hex":"#f73b6a7A","correct":32,"choice":-1,"rt":-1,"accuracy":0,"outcome":"-10","keys":[],"total_keys":0,"block":1,"trial":58,"stimulus":5,"robot":3,"valence":"lose","action":"go","sham":0,"trial_type":"pit-trial","trial_index":99,"time_elapsed":530562,"internal_node_id":"0.0-65.0","task_version":"battery-v0.2-trt"},{"rune":"T","rune_set":"elianto","hex":"#3366ff99","correct":32,"choice":32,"rt":1261.4800001028925,"accuracy":1,"outcome":"+10","keys":[2761.9950000662357],"total_keys":1,"block":1,"trial":59,"stimulus":4,"robot":1,"valence":"win","action":"go","sham":0,"trial_type":"pit-trial","trial_index":100,"time_elapsed":534527,"internal_node_id":"0.0-66.0","task_version":"battery-v0.2-trt"},{"rune":"Z","rune_set":"elianto","hex":"#3366ff99","correct":-1,"choice":32,"rt":809.7000000998378,"accuracy":0,"outcome":"+1","keys":[2311.5149999503046],"total_keys":1,"block":1,"trial":60,"stimulus":7,"robot":2,"valence":"win","action":"no-go","sham":0,"trial_type":"pit-trial","trial_index":101,"time_elapsed":538041,"internal_node_id":"0.0-67.0","task_version":"battery-v0.2-trt"},{"rune":"B","rune_set":"elianto","hex":"#f73b6a7A","correct":32,"choice":-1,"rt":-1,"accuracy":0,"outcome":"-10","keys":[],"total_keys":0,"block":1,"trial":61,"stimulus":5,"robot":3,"valence":"lose","action":"go","sham":0,"trial_type":"pit-trial","trial_index":102,"time_elapsed":542044,"internal_node_id":"0.0-68.0","task_version":"battery-v0.2-trt"},{"rune":"T","rune_set":"elianto","hex":"#3366ff99","correct":32,"choice":32,"rt":322.8599999565631,"accuracy":1,"outcome":"+10","keys":[1823.8699999637902],"total_keys":1,"block":1,"trial":62,"stimulus":4,"robot":1,"valence":"win","action":"go","sham":0,"trial_type":"pit-trial","trial_index":103,"time_elapsed":545070,"internal_node_id":"0.0-69.0","task_version":"battery-v0.2-trt"},{"rune":"C","rune_set":"elianto","hex":"#f73b6a7A","correct":-1,"choice":32,"rt":1253.8300000596792,"accuracy":0,"outcome":"-10","keys":[2755.7999999262393],"total_keys":1,"block":1,"trial":63,"stimulus":6,"robot":4,"valence":"lose","action":"no-go","sham":0,"trial_type":"pit-trial","trial_index":104,"time_elapsed":549028,"internal_node_id":"0.0-70.0","task_version":"battery-v0.2-trt"},{"rune":"Z","rune_set":"elianto","hex":"#3366ff99","correct":-1,"choice":32,"rt":382.1099998895079,"accuracy":0,"outcome":"+1","keys":[1883.9650000445545],"total_keys":1,"block":1,"trial":64,"stimulus":7,"robot":2,"valence":"win","action":"no-go","sham":0,"trial_type":"pit-trial","trial_index":105,"time_elapsed":552117,"internal_node_id":"0.0-71.0","task_version":"battery-v0.2-trt"},{"rune":"C","rune_set":"elianto","hex":"#f73b6a7A","correct":-1,"choice":-1,"rt":-1,"accuracy":1,"outcome":"-10","keys":[],"total_keys":0,"block":1,"trial":65,"stimulus":6,"robot":4,"valence":"lose","action":"no-go","sham":1,"trial_type":"pit-trial","trial_index":106,"time_elapsed":556122,"internal_node_id":"0.0-72.0","task_version":"battery-v0.2-trt"},{"rune":"Z","rune_set":"elianto","hex":"#3366ff99","correct":-1,"choice":32,"rt":493.65500011481345,"accuracy":0,"outcome":"+10","keys":[1994.1949998028576],"total_keys":1,"block":1,"trial":66,"stimulus":7,"robot":2,"valence":"win","action":"no-go","sham":1,"trial_type":"pit-trial","trial_index":107,"time_elapsed":559322,"internal_node_id":"0.0-73.0","task_version":"battery-v0.2-trt"},{"rune":"B","rune_set":"elianto","hex":"#f73b6a7A","correct":32,"choice":32,"rt":522.9849999304861,"accuracy":1,"outcome":"-1","keys":[2024.8849999625236],"total_keys":1,"block":1,"trial":67,"stimulus":5,"robot":3,"valence":"lose","action":"go","sham":0,"trial_type":"pit-trial","trial_index":108,"time_elapsed":562551,"internal_node_id":"0.0-74.0","task_version":"battery-v0.2-trt"},{"rune":"T","rune_set":"elianto","hex":"#3366ff99","correct":32,"choice":32,"rt":334.339999826625,"accuracy":1,"outcome":"+1","keys":[1837.9550001118332],"total_keys":1,"block":1,"trial":68,"stimulus":4,"robot":1,"valence":"win","action":"go","sham":1,"trial_type":"pit-trial","trial_index":109,"time_elapsed":565594,"internal_node_id":"0.0-75.0","task_version":"battery-v0.2-trt"},{"rune":"C","rune_set":"elianto","hex":"#f73b6a7A","correct":-1,"choice":32,"rt":540.345000103116,"accuracy":0,"outcome":"-10","keys":[2040.694999974221],"total_keys":1,"block":1,"trial":69,"stimulus":6,"robot":4,"valence":"lose","action":"no-go","sham":0,"trial_type":"pit-trial","trial_index":110,"time_elapsed":568840,"internal_node_id":"0.0-76.0","task_version":"battery-v0.2-trt"},{"rune":"T","rune_set":"elianto","hex":"#3366ff99","correct":32,"choice":32,"rt":300.81499996595085,"accuracy":1,"outcome":"+1","keys":[1802.7199998032302],"total_keys":1,"block":1,"trial":70,"stimulus":4,"robot":1,"valence":"win","action":"go","sham":1,"trial_type":"pit-trial","trial_index":111,"time_elapsed":571845,"internal_node_id":"0.0-77.0","task_version":"battery-v0.2-trt"},{"rune":"Z","rune_set":"elianto","hex":"#3366ff99","correct":-1,"choice":32,"rt":356.6100001335144,"accuracy":0,"outcome":"+1","keys":[1857.039999915287],"total_keys":1,"block":1,"trial":71,"stimulus":7,"robot":2,"valence":"win","action":"no-go","sham":0,"trial_type":"pit-trial","trial_index":112,"time_elapsed":574907,"internal_node_id":"0.0-78.0","task_version":"battery-v0.2-trt"},{"rune":"B","rune_set":"elianto","hex":"#f73b6a7A","correct":32,"choice":32,"rt":522.6249999832362,"accuracy":1,"outcome":"-1","keys":[2023.7450001295656],"total_keys":1,"block":1,"trial":72,"stimulus":5,"robot":3,"valence":"lose","action":"go","sham":0,"trial_type":"pit-trial","trial_index":113,"time_elapsed":578136,"internal_node_id":"0.0-79.0","task_version":"battery-v0.2-trt"},{"rune":"Z","rune_set":"elianto","hex":"#3366ff99","correct":-1,"choice":32,"rt":529.9349999986589,"accuracy":0,"outcome":"+1","keys":[2030.0999998580664],"total_keys":1,"block":1,"trial":73,"stimulus":7,"robot":2,"valence":"win","action":"no-go","sham":0,"trial_type":"pit-trial","trial_index":114,"time_elapsed":581372,"internal_node_id":"0.0-80.0","task_version":"battery-v0.2-trt"},{"rune":"T","rune_set":"elianto","hex":"#3366ff99","correct":32,"choice":32,"rt":528.120000148192,"accuracy":1,"outcome":"+10","keys":[2028.1599999871105],"total_keys":1,"block":1,"trial":74,"stimulus":4,"robot":1,"valence":"win","action":"go","sham":0,"trial_type":"pit-trial","trial_index":115,"time_elapsed":584605,"internal_node_id":"0.0-81.0","task_version":"battery-v0.2-trt"},{"rune":"H","rune_set":"elianto","hex":"#f73b6a7A","correct":32,"choice":-1,"rt":-1,"accuracy":0,"outcome":"-10","keys":[],"total_keys":0,"block":1,"trial":75,"stimulus":8,"robot":3,"valence":"lose","action":"go","sham":0,"trial_type":"pit-trial","trial_index":116,"time_elapsed":588608,"internal_node_id":"0.0-82.0","task_version":"battery-v0.2-trt"},{"rune":"C","rune_set":"elianto","hex":"#f73b6a7A","correct":-1,"choice":-1,"rt":-1,"accuracy":1,"outcome":"-1","keys":[],"total_keys":0,"block":1,"trial":76,"stimulus":6,"robot":4,"valence":"lose","action":"no-go","sham":0,"trial_type":"pit-trial","trial_index":117,"time_elapsed":592615,"internal_node_id":"0.0-83.0","task_version":"battery-v0.2-trt"},{"rune":"H","rune_set":"elianto","hex":"#f73b6a7A","correct":32,"choice":-1,"rt":-1,"accuracy":0,"outcome":"-10","keys":[],"total_keys":0,"block":1,"trial":77,"stimulus":8,"robot":3,"valence":"lose","action":"go","sham":0,"trial_type":"pit-trial","trial_index":118,"time_elapsed":596619,"internal_node_id":"0.0-84.0","task_version":"battery-v0.2-trt"},{"rune":"Z","rune_set":"elianto","hex":"#3366ff99","correct":-1,"choice":32,"rt":376.9150001462549,"accuracy":0,"outcome":"+10","keys":[1878.4999998752028],"total_keys":1,"block":1,"trial":78,"stimulus":7,"robot":2,"valence":"win","action":"no-go","sham":1,"trial_type":"pit-trial","trial_index":119,"time_elapsed":599699,"internal_node_id":"0.0-85.0","task_version":"battery-v0.2-trt"},{"rune":"T","rune_set":"elianto","hex":"#3366ff99","correct":32,"choice":32,"rt":639.4750000908971,"accuracy":1,"outcome":"+1","keys":[2139.960000058636],"total_keys":1,"block":1,"trial":79,"stimulus":4,"robot":1,"valence":"win","action":"go","sham":1,"trial_type":"pit-trial","trial_index":120,"time_elapsed":603043,"internal_node_id":"0.0-86.0","task_version":"battery-v0.2-trt"},{"rune":"C","rune_set":"elianto","hex":"#f73b6a7A","correct":-1,"choice":32,"rt":513.3400000631809,"accuracy":0,"outcome":"-10","keys":[2013.4749999269843],"total_keys":1,"block":1,"trial":80,"stimulus":6,"robot":4,"valence":"lose","action":"no-go","sham":0,"trial_type":"pit-trial","trial_index":121,"time_elapsed":606260,"internal_node_id":"0.0-87.0","task_version":"battery-v0.2-trt"},{"rune":"Z","rune_set":"elianto","hex":"#3366ff99","correct":-1,"choice":32,"rt":212.10499992594123,"accuracy":0,"outcome":"+1","keys":[1712.6350000035018],"total_keys":1,"block":1,"trial":81,"stimulus":7,"robot":2,"valence":"win","action":"no-go","sham":0,"trial_type":"pit-trial","trial_index":122,"time_elapsed":609176,"internal_node_id":"0.0-88.0","task_version":"battery-v0.2-trt"},{"rune":"Y","rune_set":"elianto","hex":"#f73b6a7A","correct":32,"choice":32,"rt":1197.785000083968,"accuracy":1,"outcome":"-1","keys":[2698.6100000794977],"total_keys":1,"block":1,"trial":82,"stimulus":9,"robot":3,"valence":"lose","action":"go","sham":0,"trial_type":"pit-trial","trial_index":123,"time_elapsed":613080,"internal_node_id":"0.0-89.0","task_version":"battery-v0.2-trt"},{"rune":"H","rune_set":"elianto","hex":"#f73b6a7A","correct":32,"choice":-1,"rt":-1,"accuracy":0,"outcome":"-10","keys":[],"total_keys":0,"block":1,"trial":83,"stimulus":8,"robot":3,"valence":"lose","action":"go","sham":0,"trial_type":"pit-trial","trial_index":124,"time_elapsed":617083,"internal_node_id":"0.0-90.0","task_version":"battery-v0.2-trt"},{"rune":"C","rune_set":"elianto","hex":"#f73b6a7A","correct":-1,"choice":32,"rt":492.06000007689,"accuracy":0,"outcome":"-10","keys":[1994.1300000064075],"total_keys":1,"block":1,"trial":84,"stimulus":6,"robot":4,"valence":"lose","action":"no-go","sham":0,"trial_type":"pit-trial","trial_index":125,"time_elapsed":620279,"internal_node_id":"0.0-91.0","task_version":"battery-v0.2-trt"},{"rune":"Z","rune_set":"elianto","hex":"#3366ff99","correct":-1,"choice":32,"rt":350.0700001604855,"accuracy":0,"outcome":"+1","keys":[1850.2650000154972],"total_keys":1,"block":1,"trial":85,"stimulus":7,"robot":2,"valence":"win","action":"no-go","sham":0,"trial_type":"pit-trial","trial_index":126,"time_elapsed":623332,"internal_node_id":"0.0-92.0","task_version":"battery-v0.2-trt"},{"rune":"C","rune_set":"elianto","hex":"#f73b6a7A","correct":-1,"choice":32,"rt":572.5000000093132,"accuracy":0,"outcome":"-10","keys":[2073.300000047311],"total_keys":1,"block":1,"trial":86,"stimulus":6,"robot":4,"valence":"lose","action":"no-go","sham":0,"trial_type":"pit-trial","trial_index":127,"time_elapsed":626608,"internal_node_id":"0.0-93.0","task_version":"battery-v0.2-trt"},{"rune":"H","rune_set":"elianto","hex":"#f73b6a7A","correct":32,"choice":32,"rt":771.1050000507385,"accuracy":1,"outcome":"-1","keys":[2272.0749999862164],"total_keys":1,"block":1,"trial":87,"stimulus":8,"robot":3,"valence":"lose","action":"go","sham":0,"trial_type":"pit-trial","trial_index":128,"time_elapsed":630083,"internal_node_id":"0.0-94.0","task_version":"battery-v0.2-trt"},{"rune":"Y","rune_set":"elianto","hex":"#f73b6a7A","correct":32,"choice":-1,"rt":-1,"accuracy":0,"outcome":"-1","keys":[],"total_keys":0,"block":1,"trial":88,"stimulus":9,"robot":3,"valence":"lose","action":"go","sham":1,"trial_type":"pit-trial","trial_index":129,"time_elapsed":634087,"internal_node_id":"0.0-95.0","task_version":"battery-v0.2-trt"},{"rune":"H","rune_set":"elianto","hex":"#f73b6a7A","correct":32,"choice":32,"rt":867.8050001617521,"accuracy":1,"outcome":"-10","keys":[2368.365000002086],"total_keys":1,"block":1,"trial":89,"stimulus":8,"robot":3,"valence":"lose","action":"go","sham":1,"trial_type":"pit-trial","trial_index":130,"time_elapsed":637658,"internal_node_id":"0.0-96.0","task_version":"battery-v0.2-trt"},{"rune":"R","rune_set":"elianto","hex":"#f73b6a7A","correct":-1,"choice":32,"rt":760.3449998423457,"accuracy":0,"outcome":"-10","keys":[2261.4700000267476],"total_keys":1,"block":1,"trial":90,"stimulus":10,"robot":4,"valence":"lose","action":"no-go","sham":0,"trial_type":"pit-trial","trial_index":131,"time_elapsed":641123,"internal_node_id":"0.0-97.0","task_version":"battery-v0.2-trt"},{"rune":"Y","rune_set":"elianto","hex":"#f73b6a7A","correct":32,"choice":32,"rt":443.00500000827014,"accuracy":1,"outcome":"-1","keys":[1943.4799998998642],"total_keys":1,"block":1,"trial":91,"stimulus":9,"robot":3,"valence":"lose","action":"go","sham":0,"trial_type":"pit-trial","trial_index":132,"time_elapsed":644272,"internal_node_id":"0.0-98.0","task_version":"battery-v0.2-trt"},{"rune":"M","rune_set":"elianto","hex":"#3366ff99","correct":-1,"choice":32,"rt":382.9350001178682,"accuracy":0,"outcome":"+1","keys":[1884.65499994345],"total_keys":1,"block":1,"trial":92,"stimulus":11,"robot":2,"valence":"win","action":"no-go","sham":0,"trial_type":"pit-trial","trial_index":133,"time_elapsed":647362,"internal_node_id":"0.0-99.0","task_version":"battery-v0.2-trt"},{"rune":"Y","rune_set":"elianto","hex":"#f73b6a7A","correct":32,"choice":-1,"rt":-1,"accuracy":0,"outcome":"-10","keys":[],"total_keys":0,"block":1,"trial":93,"stimulus":9,"robot":3,"valence":"lose","action":"go","sham":0,"trial_type":"pit-trial","trial_index":134,"time_elapsed":651368,"internal_node_id":"0.0-100.0","task_version":"battery-v0.2-trt"},{"rune":"H","rune_set":"elianto","hex":"#f73b6a7A","correct":32,"choice":32,"rt":264.8549999576062,"accuracy":1,"outcome":"-1","keys":[1765.235000057146],"total_keys":1,"block":1,"trial":94,"stimulus":8,"robot":3,"valence":"lose","action":"go","sham":0,"trial_type":"pit-trial","trial_index":135,"time_elapsed":654336,"internal_node_id":"0.0-101.0","task_version":"battery-v0.2-trt"},{"rune":"R","rune_set":"elianto","hex":"#f73b6a7A","correct":-1,"choice":32,"rt":1164.4250000827014,"accuracy":0,"outcome":"-10","keys":[2664.8299999069422],"total_keys":1,"block":1,"trial":95,"stimulus":10,"robot":4,"valence":"lose","action":"no-go","sham":0,"trial_type":"pit-trial","trial_index":136,"time_elapsed":658204,"internal_node_id":"0.0-102.0","task_version":"battery-v0.2-trt"},{"rune":"M","rune_set":"elianto","hex":"#3366ff99","correct":-1,"choice":32,"rt":366.13500001840293,"accuracy":0,"outcome":"+1","keys":[1866.5199999231845],"total_keys":1,"block":1,"trial":96,"stimulus":11,"robot":2,"valence":"win","action":"no-go","sham":0,"trial_type":"pit-trial","trial_index":137,"time_elapsed":661275,"internal_node_id":"0.0-103.0","task_version":"battery-v0.2-trt"},{"rune":"R","rune_set":"elianto","hex":"#f73b6a7A","correct":-1,"choice":32,"rt":1236.754999961704,"accuracy":0,"outcome":"-10","keys":[2737.260000081733],"total_keys":1,"block":1,"trial":97,"stimulus":10,"robot":4,"valence":"lose","action":"no-go","sham":0,"trial_type":"pit-trial","trial_index":138,"time_elapsed":665218,"internal_node_id":"0.0-104.0","task_version":"battery-v0.2-trt"},{"rune":"M","rune_set":"elianto","hex":"#3366ff99","correct":-1,"choice":32,"rt":485.17500003799796,"accuracy":0,"outcome":"+1","keys":[1985.5799998622388],"total_keys":1,"block":1,"trial":98,"stimulus":11,"robot":2,"valence":"win","action":"no-go","sham":0,"trial_type":"pit-trial","trial_index":139,"time_elapsed":668408,"internal_node_id":"0.0-105.0","task_version":"battery-v0.2-trt"},{"rune":"Y","rune_set":"elianto","hex":"#f73b6a7A","correct":32,"choice":-1,"rt":-1,"accuracy":0,"outcome":"-10","keys":[],"total_keys":0,"block":1,"trial":99,"stimulus":9,"robot":3,"valence":"lose","action":"go","sham":0,"trial_type":"pit-trial","trial_index":140,"time_elapsed":672413,"internal_node_id":"0.0-106.0","task_version":"battery-v0.2-trt"},{"rune":"H","rune_set":"elianto","hex":"#f73b6a7A","correct":32,"choice":32,"rt":332.410000031814,"accuracy":1,"outcome":"-1","keys":[1833.7449999526143],"total_keys":1,"block":1,"trial":100,"stimulus":8,"robot":3,"valence":"lose","action":"go","sham":0,"trial_type":"pit-trial","trial_index":141,"time_elapsed":675450,"internal_node_id":"0.0-107.0","task_version":"battery-v0.2-trt"},{"rune":"H","rune_set":"elianto","hex":"#f73b6a7A","correct":32,"choice":32,"rt":544.2449999973178,"accuracy":1,"outcome":"-1","keys":[2045.4049999825656],"total_keys":1,"block":1,"trial":101,"stimulus":8,"robot":3,"valence":"lose","action":"go","sham":0,"trial_type":"pit-trial","trial_index":142,"time_elapsed":678701,"internal_node_id":"0.0-108.0","task_version":"battery-v0.2-trt"},{"rune":"R","rune_set":"elianto","hex":"#f73b6a7A","correct":-1,"choice":-1,"rt":-1,"accuracy":1,"outcome":"-1","keys":[],"total_keys":0,"block":1,"trial":102,"stimulus":10,"robot":4,"valence":"lose","action":"no-go","sham":0,"trial_type":"pit-trial","trial_index":143,"time_elapsed":682708,"internal_node_id":"0.0-109.0","task_version":"battery-v0.2-trt"},{"rune":"Y","rune_set":"elianto","hex":"#f73b6a7A","correct":32,"choice":32,"rt":764.6350001450628,"accuracy":1,"outcome":"-1","keys":[2264.885000186041],"total_keys":1,"block":1,"trial":103,"stimulus":9,"robot":3,"valence":"lose","action":"go","sham":0,"trial_type":"pit-trial","trial_index":144,"time_elapsed":686178,"internal_node_id":"0.0-110.0","task_version":"battery-v0.2-trt"},{"rune":"M","rune_set":"elianto","hex":"#3366ff99","correct":-1,"choice":32,"rt":345.87000007741153,"accuracy":0,"outcome":"+10","keys":[1846.309999935329],"total_keys":1,"block":1,"trial":104,"stimulus":11,"robot":2,"valence":"win","action":"no-go","sham":1,"trial_type":"pit-trial","trial_index":145,"time_elapsed":689229,"internal_node_id":"0.0-111.0","task_version":"battery-v0.2-trt"},{"rune":"Y","rune_set":"elianto","hex":"#f73b6a7A","correct":32,"choice":32,"rt":786.2100000493228,"accuracy":1,"outcome":"-1","keys":[2288.1749998778105],"total_keys":1,"block":1,"trial":105,"stimulus":9,"robot":3,"valence":"lose","action":"go","sham":0,"trial_type":"pit-trial","trial_index":146,"time_elapsed":692723,"internal_node_id":"0.0-112.0","task_version":"battery-v0.2-trt"},{"rune":"H","rune_set":"elianto","hex":"#f73b6a7A","correct":32,"choice":-1,"rt":-1,"accuracy":0,"outcome":"-10","keys":[2871.599999954924],"total_keys":1,"block":1,"trial":106,"stimulus":8,"robot":3,"valence":"lose","action":"go","sham":0,"trial_type":"pit-trial","trial_index":147,"time_elapsed":696728,"internal_node_id":"0.0-113.0","task_version":"battery-v0.2-trt"},{"rune":"M","rune_set":"elianto","hex":"#3366ff99","correct":-1,"choice":32,"rt":382.68500007689,"accuracy":0,"outcome":"+1","keys":[1882.9699999187142],"total_keys":1,"block":1,"trial":107,"stimulus":11,"robot":2,"valence":"win","action":"no-go","sham":0,"trial_type":"pit-trial","trial_index":148,"time_elapsed":699816,"internal_node_id":"0.0-114.0","task_version":"battery-v0.2-trt"},{"rune":"R","rune_set":"elianto","hex":"#f73b6a7A","correct":-1,"choice":32,"rt":546.8150000087917,"accuracy":0,"outcome":"-10","keys":[2047.370000043884],"total_keys":1,"block":1,"trial":108,"stimulus":10,"robot":4,"valence":"lose","action":"no-go","sham":0,"trial_type":"pit-trial","trial_index":149,"time_elapsed":703069,"internal_node_id":"0.0-115.0","task_version":"battery-v0.2-trt"},{"rune":"H","rune_set":"elianto","hex":"#f73b6a7A","correct":32,"choice":-1,"rt":-1,"accuracy":0,"outcome":"-1","keys":[],"total_keys":0,"block":1,"trial":109,"stimulus":8,"robot":3,"valence":"lose","action":"go","sham":1,"trial_type":"pit-trial","trial_index":150,"time_elapsed":707072,"internal_node_id":"0.0-116.0","task_version":"battery-v0.2-trt"},{"rune":"Y","rune_set":"elianto","hex":"#f73b6a7A","correct":32,"choice":-1,"rt":-1,"accuracy":0,"outcome":"-10","keys":[],"total_keys":0,"block":1,"trial":110,"stimulus":9,"robot":3,"valence":"lose","action":"go","sham":0,"trial_type":"pit-trial","trial_index":151,"time_elapsed":711078,"internal_node_id":"0.0-117.0","task_version":"battery-v0.2-trt"},{"rune":"M","rune_set":"elianto","hex":"#3366ff99","correct":-1,"choice":-1,"rt":-1,"accuracy":1,"outcome":"+10","keys":[2958.759999834001],"total_keys":1,"block":1,"trial":111,"stimulus":11,"robot":2,"valence":"win","action":"no-go","sham":0,"trial_type":"pit-trial","trial_index":152,"time_elapsed":715084,"internal_node_id":"0.0-118.0","task_version":"battery-v0.2-trt"},{"rune":"R","rune_set":"elianto","hex":"#f73b6a7A","correct":-1,"choice":32,"rt":426.0700000450015,"accuracy":0,"outcome":"-1","keys":[1926.6350001562387],"total_keys":1,"block":1,"trial":112,"stimulus":10,"robot":4,"valence":"lose","action":"no-go","sham":1,"trial_type":"pit-trial","trial_index":153,"time_elapsed":718213,"internal_node_id":"0.0-119.0","task_version":"battery-v0.2-trt"},{"rune":"R","rune_set":"elianto","hex":"#f73b6a7A","correct":-1,"choice":32,"rt":479.86500011757016,"accuracy":0,"outcome":"-10","keys":[1980.710000032559],"total_keys":1,"block":1,"trial":113,"stimulus":10,"robot":4,"valence":"lose","action":"no-go","sham":0,"trial_type":"pit-trial","trial_index":154,"time_elapsed":721397,"internal_node_id":"0.0-120.0","task_version":"battery-v0.2-trt"},{"rune":"H","rune_set":"elianto","hex":"#f73b6a7A","correct":32,"choice":32,"rt":558.8999998290092,"accuracy":1,"outcome":"-1","keys":[2060.1449999958277],"total_keys":1,"block":1,"trial":114,"stimulus":8,"robot":3,"valence":"lose","action":"go","sham":0,"trial_type":"pit-trial","trial_index":155,"time_elapsed":724663,"internal_node_id":"0.0-121.0","task_version":"battery-v0.2-trt"},{"rune":"M","rune_set":"elianto","hex":"#3366ff99","correct":-1,"choice":32,"rt":341.3949999958277,"accuracy":0,"outcome":"+1","keys":[1842.2050001099706],"total_keys":1,"block":1,"trial":115,"stimulus":11,"robot":2,"valence":"win","action":"no-go","sham":0,"trial_type":"pit-trial","trial_index":156,"time_elapsed":727710,"internal_node_id":"0.0-122.0","task_version":"battery-v0.2-trt"},{"rune":"Y","rune_set":"elianto","hex":"#f73b6a7A","correct":32,"choice":-1,"rt":-1,"accuracy":0,"outcome":"-10","keys":[],"total_keys":0,"block":1,"trial":116,"stimulus":9,"robot":3,"valence":"lose","action":"go","sham":0,"trial_type":"pit-trial","trial_index":157,"time_elapsed":731716,"internal_node_id":"0.0-123.0","task_version":"battery-v0.2-trt"},{"rune":"Y","rune_set":"elianto","hex":"#f73b6a7A","correct":32,"choice":32,"rt":62.28499999269843,"accuracy":1,"outcome":"-1","keys":[1563.869999954477],"total_keys":1,"block":1,"trial":117,"stimulus":9,"robot":3,"valence":"lose","action":"go","sham":0,"trial_type":"pit-trial","trial_index":158,"time_elapsed":734484,"internal_node_id":"0.0-124.0","task_version":"battery-v0.2-trt"},{"rune":"M","rune_set":"elianto","hex":"#3366ff99","correct":-1,"choice":32,"rt":374.6400000527501,"accuracy":0,"outcome":"+10","keys":[1874.9700000043958],"total_keys":1,"block":1,"trial":118,"stimulus":11,"robot":2,"valence":"win","action":"no-go","sham":1,"trial_type":"pit-trial","trial_index":159,"time_elapsed":737562,"internal_node_id":"0.0-125.0","task_version":"battery-v0.2-trt"},{"rune":"H","rune_set":"elianto","hex":"#f73b6a7A","correct":32,"choice":32,"rt":973.1950000859797,"accuracy":1,"outcome":"-10","keys":[2474.144999869168],"total_keys":1,"block":1,"trial":119,"stimulus":8,"robot":3,"valence":"lose","action":"go","sham":1,"trial_type":"pit-trial","trial_index":160,"time_elapsed":741241,"internal_node_id":"0.0-126.0","task_version":"battery-v0.2-trt"},{"rune":"R","rune_set":"elianto","hex":"#f73b6a7A","correct":-1,"choice":32,"rt":539.4800000358373,"accuracy":0,"outcome":"-10","keys":[2039.6350000519305],"total_keys":1,"block":1,"trial":120,"stimulus":10,"robot":4,"valence":"lose","action":"no-go","sham":0,"trial_type":"pit-trial","trial_index":161,"time_elapsed":744486,"internal_node_id":"0.0-127.0","task_version":"battery-v0.2-trt"},{"view_history":"[{\"page_index\":0,\"viewing_time\":6109.6850000321865},{\"page_index\":1,\"viewing_time\":10768.01999984309}]","rt":16878.15500004217,"trial_type":"pit-instructions","trial_index":162,"time_elapsed":761365,"internal_node_id":"0.0-128.0","task_version":"battery-v0.2-trt"},{"rune":"V","rune_set":"elianto","hex":"#f73b6a7A","correct":-1,"choice":32,"rt":539.9549999274313,"accuracy":0,"outcome":"-10","keys":[2040.739999851212],"total_keys":1,"block":2,"trial":121,"stimulus":0,"robot":4,"valence":"lose","action":"no-go","sham":0,"trial_type":"pit-trial","trial_index":163,"time_elapsed":764611,"internal_node_id":"0.0-129.0","task_version":"battery-v0.2-trt"},{"rune":"K","rune_set":"elianto","hex":"#3366ff99","correct":-1,"choice":32,"rt":431.97000003419816,"accuracy":0,"outcome":"+1","keys":[1932.6100000180304],"total_keys":1,"block":2,"trial":122,"stimulus":3,"robot":2,"valence":"win","action":"no-go","sham":0,"trial_type":"pit-trial","trial_index":164,"time_elapsed":767747,"internal_node_id":"0.0-130.0","task_version":"battery-v0.2-trt"},{"rune":"D","rune_set":"elianto","hex":"#3366ff99","correct":32,"choice":32,"rt":435.08500000461936,"accuracy":1,"outcome":"+10","keys":[1936.6750000044703],"total_keys":1,"block":2,"trial":123,"stimulus":2,"robot":1,"valence":"win","action":"go","sham":0,"trial_type":"pit-trial","trial_index":165,"time_elapsed":770889,"internal_node_id":"0.0-131.0","task_version":"battery-v0.2-trt"},{"rune":"J","rune_set":"elianto","hex":"#f73b6a7A","correct":-1,"choice":32,"rt":694.9799999129027,"accuracy":0,"outcome":"-10","keys":[2195.060000056401],"total_keys":1,"block":2,"trial":124,"stimulus":1,"robot":4,"valence":"lose","action":"no-go","sham":0,"trial_type":"pit-trial","trial_index":166,"time_elapsed":774289,"internal_node_id":"0.0-132.0","task_version":"battery-v0.2-trt"},{"rune":"V","rune_set":"elianto","hex":"#f73b6a7A","correct":-1,"choice":32,"rt":751.8899999558926,"accuracy":0,"outcome":"-10","keys":[2253.634999971837],"total_keys":1,"block":2,"trial":125,"stimulus":0,"robot":4,"valence":"lose","action":"no-go","sham":0,"trial_type":"pit-trial","trial_index":167,"time_elapsed":777746,"internal_node_id":"0.0-133.0","task_version":"battery-v0.2-trt"},{"rune":"J","rune_set":"elianto","hex":"#f73b6a7A","correct":-1,"choice":-1,"rt":-1,"accuracy":1,"outcome":"-1","keys":[],"total_keys":0,"block":2,"trial":126,"stimulus":1,"robot":4,"valence":"lose","action":"no-go","sham":0,"trial_type":"pit-trial","trial_index":168,"time_elapsed":781749,"internal_node_id":"0.0-134.0","task_version":"battery-v0.2-trt"},{"rune":"D","rune_set":"elianto","hex":"#3366ff99","correct":32,"choice":32,"rt":320.1549998484552,"accuracy":1,"outcome":"+10","keys":[1820.4700001515448],"total_keys":1,"block":2,"trial":127,"stimulus":2,"robot":1,"valence":"win","action":"go","sham":0,"trial_type":"pit-trial","trial_index":169,"time_elapsed":784775,"internal_node_id":"0.0-135.0","task_version":"battery-v0.2-trt"},{"rune":"K","rune_set":"elianto","hex":"#3366ff99","correct":-1,"choice":32,"rt":250.16499985940754,"accuracy":0,"outcome":"+1","keys":[1750.304999994114],"total_keys":1,"block":2,"trial":128,"stimulus":3,"robot":2,"valence":"win","action":"no-go","sham":0,"trial_type":"pit-trial","trial_index":170,"time_elapsed":787727,"internal_node_id":"0.0-136.0","task_version":"battery-v0.2-trt"},{"rune":"D","rune_set":"elianto","hex":"#3366ff99","correct":32,"choice":32,"rt":367.8550000768155,"accuracy":1,"outcome":"+10","keys":[1868.5600000899285],"total_keys":1,"block":2,"trial":129,"stimulus":2,"robot":1,"valence":"win","action":"go","sham":0,"trial_type":"pit-trial","trial_index":171,"time_elapsed":790800,"internal_node_id":"0.0-137.0","task_version":"battery-v0.2-trt"},{"rune":"J","rune_set":"elianto","hex":"#f73b6a7A","correct":-1,"choice":-1,"rt":-1,"accuracy":1,"outcome":"-1","keys":[],"total_keys":0,"block":2,"trial":130,"stimulus":1,"robot":4,"valence":"lose","action":"no-go","sham":0,"trial_type":"pit-trial","trial_index":172,"time_elapsed":794806,"internal_node_id":"0.0-138.0","task_version":"battery-v0.2-trt"},{"rune":"V","rune_set":"elianto","hex":"#f73b6a7A","correct":-1,"choice":-1,"rt":-1,"accuracy":1,"outcome":"-1","keys":[],"total_keys":0,"block":2,"trial":131,"stimulus":0,"robot":4,"valence":"lose","action":"no-go","sham":0,"trial_type":"pit-trial","trial_index":173,"time_elapsed":798809,"internal_node_id":"0.0-139.0","task_version":"battery-v0.2-trt"},{"rune":"K","rune_set":"elianto","hex":"#3366ff99","correct":-1,"choice":32,"rt":328.30499997362494,"accuracy":0,"outcome":"+1","keys":[1828.8350000511855],"total_keys":1,"block":2,"trial":132,"stimulus":3,"robot":2,"valence":"win","action":"no-go","sham":0,"trial_type":"pit-trial","trial_index":174,"time_elapsed":801843,"internal_node_id":"0.0-140.0","task_version":"battery-v0.2-trt"},{"rune":"D","rune_set":"elianto","hex":"#3366ff99","correct":32,"choice":32,"rt":335.2349998895079,"accuracy":1,"outcome":"+10","keys":[1835.9650000929832],"total_keys":1,"block":2,"trial":133,"stimulus":2,"robot":1,"valence":"win","action":"go","sham":0,"trial_type":"pit-trial","trial_index":175,"time_elapsed":804885,"internal_node_id":"0.0-141.0","task_version":"battery-v0.2-trt"},{"rune":"J","rune_set":"elianto","hex":"#f73b6a7A","correct":-1,"choice":32,"rt":681.0850000474602,"accuracy":0,"outcome":"-10","keys":[2181.7799999844283],"total_keys":1,"block":2,"trial":134,"stimulus":1,"robot":4,"valence":"lose","action":"no-go","sham":0,"trial_type":"pit-trial","trial_index":176,"time_elapsed":808272,"internal_node_id":"0.0-142.0","task_version":"battery-v0.2-trt"},{"rune":"V","rune_set":"elianto","hex":"#f73b6a7A","correct":-1,"choice":-1,"rt":-1,"accuracy":1,"outcome":"-1","keys":[2930.079999845475],"total_keys":1,"block":2,"trial":135,"stimulus":0,"robot":4,"valence":"lose","action":"no-go","sham":0,"trial_type":"pit-trial","trial_index":177,"time_elapsed":812287,"internal_node_id":"0.0-143.0","task_version":"battery-v0.2-trt"},{"rune":"K","rune_set":"elianto","hex":"#3366ff99","correct":-1,"choice":32,"rt":456.57000015489757,"accuracy":0,"outcome":"+1","keys":[1956.8900000303984],"total_keys":1,"block":2,"trial":136,"stimulus":3,"robot":2,"valence":"win","action":"no-go","sham":0,"trial_type":"pit-trial","trial_index":178,"time_elapsed":815447,"internal_node_id":"0.0-144.0","task_version":"battery-v0.2-trt"},{"rune":"V","rune_set":"elianto","hex":"#f73b6a7A","correct":-1,"choice":-1,"rt":-1,"accuracy":1,"outcome":"-10","keys":[],"total_keys":0,"block":2,"trial":137,"stimulus":0,"robot":4,"valence":"lose","action":"no-go","sham":1,"trial_type":"pit-trial","trial_index":179,"time_elapsed":819453,"internal_node_id":"0.0-145.0","task_version":"battery-v0.2-trt"},{"rune":"K","rune_set":"elianto","hex":"#3366ff99","correct":-1,"choice":-1,"rt":-1,"accuracy":1,"outcome":"+10","keys":[],"total_keys":0,"block":2,"trial":138,"stimulus":3,"robot":2,"valence":"win","action":"no-go","sham":0,"trial_type":"pit-trial","trial_index":180,"time_elapsed":823459,"internal_node_id":"0.0-146.0","task_version":"battery-v0.2-trt"},{"rune":"J","rune_set":"elianto","hex":"#f73b6a7A","correct":-1,"choice":32,"rt":479.25499989651144,"accuracy":0,"outcome":"-10","keys":[1980.6850000750273],"total_keys":1,"block":2,"trial":139,"stimulus":1,"robot":4,"valence":"lose","action":"no-go","sham":0,"trial_type":"pit-trial","trial_index":181,"time_elapsed":826643,"internal_node_id":"0.0-147.0","task_version":"battery-v0.2-trt"},{"rune":"D","rune_set":"elianto","hex":"#3366ff99","correct":32,"choice":-1,"rt":-1,"accuracy":0,"outcome":"+1","keys":[],"total_keys":0,"block":2,"trial":140,"stimulus":2,"robot":1,"valence":"win","action":"go","sham":0,"trial_type":"pit-trial","trial_index":182,"time_elapsed":830648,"internal_node_id":"0.0-148.0","task_version":"battery-v0.2-trt"},{"rune":"D","rune_set":"elianto","hex":"#3366ff99","correct":32,"choice":32,"rt":752.2050000261515,"accuracy":1,"outcome":"+10","keys":[2255.115000065416],"total_keys":1,"block":2,"trial":141,"stimulus":2,"robot":1,"valence":"win","action":"go","sham":0,"trial_type":"pit-trial","trial_index":183,"time_elapsed":834111,"internal_node_id":"0.0-149.0","task_version":"battery-v0.2-trt"},{"rune":"V","rune_set":"elianto","hex":"#f73b6a7A","correct":-1,"choice":32,"rt":439.8100001271814,"accuracy":0,"outcome":"-10","keys":[1941.6999998502433],"total_keys":1,"block":2,"trial":142,"stimulus":0,"robot":4,"valence":"lose","action":"no-go","sham":0,"trial_type":"pit-trial","trial_index":184,"time_elapsed":837258,"internal_node_id":"0.0-150.0","task_version":"battery-v0.2-trt"},{"rune":"J","rune_set":"elianto","hex":"#f73b6a7A","correct":-1,"choice":32,"rt":434.5299999695271,"accuracy":0,"outcome":"-10","keys":[1934.889999916777],"total_keys":1,"block":2,"trial":143,"stimulus":1,"robot":4,"valence":"lose","action":"no-go","sham":0,"trial_type":"pit-trial","trial_index":185,"time_elapsed":840397,"internal_node_id":"0.0-151.0","task_version":"battery-v0.2-trt"},{"rune":"K","rune_set":"elianto","hex":"#3366ff99","correct":-1,"choice":32,"rt":379.91500017233193,"accuracy":0,"outcome":"+1","keys":[1880.2149998955429],"total_keys":1,"block":2,"trial":144,"stimulus":3,"robot":2,"valence":"win","action":"no-go","sham":0,"trial_type":"pit-trial","trial_index":186,"time_elapsed":843482,"internal_node_id":"0.0-152.0","task_version":"battery-v0.2-trt"},{"rune":"J","rune_set":"elianto","hex":"#f73b6a7A","correct":-1,"choice":32,"rt":744.2749999463558,"accuracy":0,"outcome":"-10","keys":[2245.409999974072],"total_keys":1,"block":2,"trial":145,"stimulus":1,"robot":4,"valence":"lose","action":"no-go","sham":0,"trial_type":"pit-trial","trial_index":187,"time_elapsed":846931,"internal_node_id":"0.0-153.0","task_version":"battery-v0.2-trt"},{"rune":"D","rune_set":"elianto","hex":"#3366ff99","correct":32,"choice":32,"rt":1094.2800000775605,"accuracy":1,"outcome":"+10","keys":[2594.9999999720603],"total_keys":1,"block":2,"trial":146,"stimulus":2,"robot":1,"valence":"win","action":"go","sham":0,"trial_type":"pit-trial","trial_index":188,"time_elapsed":850729,"internal_node_id":"0.0-154.0","task_version":"battery-v0.2-trt"},{"rune":"K","rune_set":"elianto","hex":"#3366ff99","correct":-1,"choice":-1,"rt":-1,"accuracy":1,"outcome":"+10","keys":[],"total_keys":0,"block":2,"trial":147,"stimulus":3,"robot":2,"valence":"win","action":"no-go","sham":0,"trial_type":"pit-trial","trial_index":189,"time_elapsed":854732,"internal_node_id":"0.0-155.0","task_version":"battery-v0.2-trt"},{"rune":"V","rune_set":"elianto","hex":"#f73b6a7A","correct":-1,"choice":32,"rt":1030.0900000147521,"accuracy":0,"outcome":"-1","keys":[2531.040000030771],"total_keys":1,"block":2,"trial":148,"stimulus":0,"robot":4,"valence":"lose","action":"no-go","sham":1,"trial_type":"pit-trial","trial_index":190,"time_elapsed":858469,"internal_node_id":"0.0-156.0","task_version":"battery-v0.2-trt"},{"rune":"J","rune_set":"elianto","hex":"#f73b6a7A","correct":-1,"choice":-1,"rt":-1,"accuracy":1,"outcome":"-1","keys":[],"total_keys":0,"block":2,"trial":149,"stimulus":1,"robot":4,"valence":"lose","action":"no-go","sham":0,"trial_type":"pit-trial","trial_index":191,"time_elapsed":862475,"internal_node_id":"0.0-157.0","task_version":"battery-v0.2-trt"},{"rune":"D","rune_set":"elianto","hex":"#3366ff99","correct":32,"choice":32,"rt":462.57000020705163,"accuracy":1,"outcome":"+10","keys":[1964.7499998100102],"total_keys":1,"block":2,"trial":150,"stimulus":2,"robot":1,"valence":"win","action":"go","sham":0,"trial_type":"pit-trial","trial_index":192,"time_elapsed":865643,"internal_node_id":"0.0-158.0","task_version":"battery-v0.2-trt"},{"rune":"K","rune_set":"elianto","hex":"#3366ff99","correct":-1,"choice":-1,"rt":-1,"accuracy":1,"outcome":"+10","keys":[],"total_keys":0,"block":2,"trial":151,"stimulus":3,"robot":2,"valence":"win","action":"no-go","sham":0,"trial_type":"pit-trial","trial_index":193,"time_elapsed":869648,"internal_node_id":"0.0-159.0","task_version":"battery-v0.2-trt"},{"rune":"V","rune_set":"elianto","hex":"#f73b6a7A","correct":-1,"choice":32,"rt":542.9400000721216,"accuracy":0,"outcome":"-1","keys":[2044.3349999841303],"total_keys":1,"block":2,"trial":152,"stimulus":0,"robot":4,"valence":"lose","action":"no-go","sham":1,"trial_type":"pit-trial","trial_index":194,"time_elapsed":872897,"internal_node_id":"0.0-160.0","task_version":"battery-v0.2-trt"},{"rune":"D","rune_set":"elianto","hex":"#3366ff99","correct":32,"choice":32,"rt":573.1200000736862,"accuracy":1,"outcome":"+10","keys":[2073.795000091195],"total_keys":1,"block":2,"trial":153,"stimulus":2,"robot":1,"valence":"win","action":"go","sham":0,"trial_type":"pit-trial","trial_index":195,"time_elapsed":876174,"internal_node_id":"0.0-161.0","task_version":"battery-v0.2-trt"},{"rune":"E","rune_set":"elianto","hex":"#f73b6a7A","correct":32,"choice":32,"rt":541.7799998540431,"accuracy":1,"outcome":"-10","keys":[2042.5100000575185],"total_keys":1,"block":2,"trial":154,"stimulus":4,"robot":3,"valence":"lose","action":"go","sham":1,"trial_type":"pit-trial","trial_index":196,"time_elapsed":879421,"internal_node_id":"0.0-162.0","task_version":"battery-v0.2-trt"},{"rune":"K","rune_set":"elianto","hex":"#3366ff99","correct":-1,"choice":-1,"rt":-1,"accuracy":1,"outcome":"+10","keys":[],"total_keys":0,"block":2,"trial":155,"stimulus":3,"robot":2,"valence":"win","action":"no-go","sham":0,"trial_type":"pit-trial","trial_index":197,"time_elapsed":883424,"internal_node_id":"0.0-163.0","task_version":"battery-v0.2-trt"},{"rune":"V","rune_set":"elianto","hex":"#f73b6a7A","correct":-1,"choice":32,"rt":322.3200000356883,"accuracy":0,"outcome":"-10","keys":[1823.2750000897795],"total_keys":1,"block":2,"trial":156,"stimulus":0,"robot":4,"valence":"lose","action":"no-go","sham":0,"trial_type":"pit-trial","trial_index":198,"time_elapsed":886454,"internal_node_id":"0.0-164.0","task_version":"battery-v0.2-trt"},{"rune":"E","rune_set":"elianto","hex":"#f73b6a7A","correct":32,"choice":32,"rt":400.1399998087436,"accuracy":1,"outcome":"-1","keys":[1901.2800001073629],"total_keys":1,"block":2,"trial":157,"stimulus":4,"robot":3,"valence":"lose","action":"go","sham":0,"trial_type":"pit-trial","trial_index":199,"time_elapsed":889559,"internal_node_id":"0.0-165.0","task_version":"battery-v0.2-trt"},{"rune":"D","rune_set":"elianto","hex":"#3366ff99","correct":32,"choice":32,"rt":500.8600000292063,"accuracy":1,"outcome":"+10","keys":[2001.0849998798221],"total_keys":1,"block":2,"trial":158,"stimulus":2,"robot":1,"valence":"win","action":"go","sham":0,"trial_type":"pit-trial","trial_index":200,"time_elapsed":892763,"internal_node_id":"0.0-166.0","task_version":"battery-v0.2-trt"},{"rune":"K","rune_set":"elianto","hex":"#3366ff99","correct":-1,"choice":-1,"rt":-1,"accuracy":1,"outcome":"+10","keys":[],"total_keys":0,"block":2,"trial":159,"stimulus":3,"robot":2,"valence":"win","action":"no-go","sham":0,"trial_type":"pit-trial","trial_index":201,"time_elapsed":896770,"internal_node_id":"0.0-167.0","task_version":"battery-v0.2-trt"},{"rune":"V","rune_set":"elianto","hex":"#f73b6a7A","correct":-1,"choice":-1,"rt":-1,"accuracy":1,"outcome":"-1","keys":[],"total_keys":0,"block":2,"trial":160,"stimulus":0,"robot":4,"valence":"lose","action":"no-go","sham":0,"trial_type":"pit-trial","trial_index":202,"time_elapsed":900777,"internal_node_id":"0.0-168.0","task_version":"battery-v0.2-trt"},{"rune":"W","rune_set":"elianto","hex":"#3366ff99","correct":-1,"choice":32,"rt":406.32000006735325,"accuracy":0,"outcome":"+1","keys":[1907.6799999456853],"total_keys":1,"block":2,"trial":161,"stimulus":5,"robot":2,"valence":"win","action":"no-go","sham":0,"trial_type":"pit-trial","trial_index":203,"time_elapsed":903889,"internal_node_id":"0.0-169.0","task_version":"battery-v0.2-trt"},{"rune":"S","rune_set":"elianto","hex":"#3366ff99","correct":32,"choice":32,"rt":901.2899999506772,"accuracy":1,"outcome":"+10","keys":[2401.7499999608845],"total_keys":1,"block":2,"trial":162,"stimulus":6,"robot":1,"valence":"win","action":"go","sham":0,"trial_type":"pit-trial","trial_index":204,"time_elapsed":907496,"internal_node_id":"0.0-170.0","task_version":"battery-v0.2-trt"},{"rune":"V","rune_set":"elianto","hex":"#f73b6a7A","correct":-1,"choice":-1,"rt":-1,"accuracy":1,"outcome":"-1","keys":[],"total_keys":0,"block":2,"trial":163,"stimulus":0,"robot":4,"valence":"lose","action":"no-go","sham":0,"trial_type":"pit-trial","trial_index":205,"time_elapsed":911500,"internal_node_id":"0.0-171.0","task_version":"battery-v0.2-trt"},{"rune":"E","rune_set":"elianto","hex":"#f73b6a7A","correct":32,"choice":32,"rt":670.7399999722838,"accuracy":1,"outcome":"-1","keys":[2170.7750000059605],"total_keys":1,"block":2,"trial":164,"stimulus":4,"robot":3,"valence":"lose","action":"go","sham":0,"trial_type":"pit-trial","trial_index":206,"time_elapsed":914872,"internal_node_id":"0.0-172.0","task_version":"battery-v0.2-trt"},{"rune":"E","rune_set":"elianto","hex":"#f73b6a7A","correct":32,"choice":32,"rt":513.3049997966737,"accuracy":1,"outcome":"-1","keys":[2013.9049999415874],"total_keys":1,"block":2,"trial":165,"stimulus":4,"robot":3,"valence":"lose","action":"go","sham":0,"trial_type":"pit-trial","trial_index":207,"time_elapsed":918090,"internal_node_id":"0.0-173.0","task_version":"battery-v0.2-trt"},{"rune":"S","rune_set":"elianto","hex":"#3366ff99","correct":32,"choice":-1,"rt":-1,"accuracy":0,"outcome":"+1","keys":[],"total_keys":0,"block":2,"trial":166,"stimulus":6,"robot":1,"valence":"win","action":"go","sham":0,"trial_type":"pit-trial","trial_index":208,"time_elapsed":922096,"internal_node_id":"0.0-174.0","task_version":"battery-v0.2-trt"},{"rune":"W","rune_set":"elianto","hex":"#3366ff99","correct":-1,"choice":32,"rt":351.1250000447035,"accuracy":0,"outcome":"+10","keys":[1852.5199999567121],"total_keys":1,"block":2,"trial":167,"stimulus":5,"robot":2,"valence":"win","action":"no-go","sham":1,"trial_type":"pit-trial","trial_index":209,"time_elapsed":925152,"internal_node_id":"0.0-175.0","task_version":"battery-v0.2-trt"},{"rune":"V","rune_set":"elianto","hex":"#f73b6a7A","correct":-1,"choice":32,"rt":743.4600000269711,"accuracy":0,"outcome":"-1","keys":[2243.8950000796467],"total_keys":1,"block":2,"trial":168,"stimulus":0,"robot":4,"valence":"lose","action":"no-go","sham":1,"trial_type":"pit-trial","trial_index":210,"time_elapsed":928599,"internal_node_id":"0.0-176.0","task_version":"battery-v0.2-trt"},{"rune":"W","rune_set":"elianto","hex":"#3366ff99","correct":-1,"choice":32,"rt":437.8849999047816,"accuracy":0,"outcome":"+1","keys":[1938.8800000306219],"total_keys":1,"block":2,"trial":169,"stimulus":5,"robot":2,"valence":"win","action":"no-go","sham":0,"trial_type":"pit-trial","trial_index":211,"time_elapsed":931743,"internal_node_id":"0.0-177.0","task_version":"battery-v0.2-trt"},{"rune":"P","rune_set":"elianto","hex":"#f73b6a7A","correct":-1,"choice":32,"rt":519.1699999850243,"accuracy":0,"outcome":"-10","keys":[2019.4450002163649],"total_keys":1,"block":2,"trial":170,"stimulus":7,"robot":4,"valence":"lose","action":"no-go","sham":0,"trial_type":"pit-trial","trial_index":212,"time_elapsed":934966,"internal_node_id":"0.0-178.0","task_version":"battery-v0.2-trt"},{"rune":"E","rune_set":"elianto","hex":"#f73b6a7A","correct":32,"choice":32,"rt":556.5899999346584,"accuracy":1,"outcome":"-10","keys":[2057.625000132248],"total_keys":1,"block":2,"trial":171,"stimulus":4,"robot":3,"valence":"lose","action":"go","sham":1,"trial_type":"pit-trial","trial_index":213,"time_elapsed":938228,"internal_node_id":"0.0-179.0","task_version":"battery-v0.2-trt"},{"rune":"S","rune_set":"elianto","hex":"#3366ff99","correct":32,"choice":32,"rt":363.4099999908358,"accuracy":1,"outcome":"+10","keys":[1864.3749998882413],"total_keys":1,"block":2,"trial":172,"stimulus":6,"robot":1,"valence":"win","action":"go","sham":0,"trial_type":"pit-trial","trial_index":214,"time_elapsed":941297,"internal_node_id":"0.0-180.0","task_version":"battery-v0.2-trt"},{"rune":"E","rune_set":"elianto","hex":"#f73b6a7A","correct":32,"choice":-1,"rt":-1,"accuracy":0,"outcome":"-10","keys":[],"total_keys":0,"block":2,"trial":173,"stimulus":4,"robot":3,"valence":"lose","action":"go","sham":0,"trial_type":"pit-trial","trial_index":215,"time_elapsed":945302,"internal_node_id":"0.0-181.0","task_version":"battery-v0.2-trt"},{"rune":"S","rune_set":"elianto","hex":"#3366ff99","correct":32,"choice":32,"rt":292.45500010438263,"accuracy":1,"outcome":"+10","keys":[1793.2199998758733],"total_keys":1,"block":2,"trial":174,"stimulus":6,"robot":1,"valence":"win","action":"go","sham":0,"trial_type":"pit-trial","trial_index":216,"time_elapsed":948300,"internal_node_id":"0.0-182.0","task_version":"battery-v0.2-trt"},{"rune":"P","rune_set":"elianto","hex":"#f73b6a7A","correct":-1,"choice":32,"rt":470.72499990463257,"accuracy":0,"outcome":"-10","keys":[1971.6000000480562],"total_keys":1,"block":2,"trial":175,"stimulus":7,"robot":4,"valence":"lose","action":"no-go","sham":0,"trial_type":"pit-trial","trial_index":217,"time_elapsed":951476,"internal_node_id":"0.0-183.0","task_version":"battery-v0.2-trt"},{"rune":"W","rune_set":"elianto","hex":"#3366ff99","correct":-1,"choice":32,"rt":399.2300000973046,"accuracy":0,"outcome":"+1","keys":[1901.0950000956655],"total_keys":1,"block":2,"trial":176,"stimulus":5,"robot":2,"valence":"win","action":"no-go","sham":0,"trial_type":"pit-trial","trial_index":218,"time_elapsed":954582,"internal_node_id":"0.0-184.0","task_version":"battery-v0.2-trt"},{"rune":"E","rune_set":"elianto","hex":"#f73b6a7A","correct":32,"choice":-1,"rt":-1,"accuracy":0,"outcome":"-10","keys":[],"total_keys":0,"block":2,"trial":177,"stimulus":4,"robot":3,"valence":"lose","action":"go","sham":0,"trial_type":"pit-trial","trial_index":219,"time_elapsed":958587,"internal_node_id":"0.0-185.0","task_version":"battery-v0.2-trt"},{"rune":"W","rune_set":"elianto","hex":"#3366ff99","correct":-1,"choice":32,"rt":350.3999998793006,"accuracy":0,"outcome":"+1","keys":[1852.1600000094622],"total_keys":1,"block":2,"trial":178,"stimulus":5,"robot":2,"valence":"win","action":"no-go","sham":0,"trial_type":"pit-trial","trial_index":220,"time_elapsed":961645,"internal_node_id":"0.0-186.0","task_version":"battery-v0.2-trt"},{"rune":"S","rune_set":"elianto","hex":"#3366ff99","correct":32,"choice":32,"rt":1100.0700001604855,"accuracy":1,"outcome":"+10","keys":[2600.6400000769645],"total_keys":1,"block":2,"trial":179,"stimulus":6,"robot":1,"valence":"win","action":"go","sham":0,"trial_type":"pit-trial","trial_index":221,"time_elapsed":965451,"internal_node_id":"0.0-187.0","task_version":"battery-v0.2-trt"},{"rune":"P","rune_set":"elianto","hex":"#f73b6a7A","correct":-1,"choice":32,"rt":859.9749999120831,"accuracy":0,"outcome":"-10","keys":[2363.0150000099093],"total_keys":1,"block":2,"trial":180,"stimulus":7,"robot":4,"valence":"lose","action":"no-go","sham":0,"trial_type":"pit-trial","trial_index":222,"time_elapsed":969017,"internal_node_id":"0.0-188.0","task_version":"battery-v0.2-trt"},{"rune":"P","rune_set":"elianto","hex":"#f73b6a7A","correct":-1,"choice":-1,"rt":-1,"accuracy":1,"outcome":"-1","keys":[],"total_keys":0,"block":2,"trial":181,"stimulus":7,"robot":4,"valence":"lose","action":"no-go","sham":0,"trial_type":"pit-trial","trial_index":223,"time_elapsed":973022,"internal_node_id":"0.0-189.0","task_version":"battery-v0.2-trt"},{"rune":"E","rune_set":"elianto","hex":"#f73b6a7A","correct":32,"choice":32,"rt":356.3299998641014,"accuracy":1,"outcome":"-1","keys":[1856.720000039786],"total_keys":1,"block":2,"trial":182,"stimulus":4,"robot":3,"valence":"lose","action":"go","sham":0,"trial_type":"pit-trial","trial_index":224,"time_elapsed":976083,"internal_node_id":"0.0-190.0","task_version":"battery-v0.2-trt"},{"rune":"W","rune_set":"elianto","hex":"#3366ff99","correct":-1,"choice":32,"rt":421.3650000747293,"accuracy":0,"outcome":"+1","keys":[1921.3549999985844],"total_keys":1,"block":2,"trial":183,"stimulus":5,"robot":2,"valence":"win","action":"no-go","sham":0,"trial_type":"pit-trial","trial_index":225,"time_elapsed":979209,"internal_node_id":"0.0-191.0","task_version":"battery-v0.2-trt"},{"rune":"S","rune_set":"elianto","hex":"#3366ff99","correct":32,"choice":32,"rt":371.3249999564141,"accuracy":1,"outcome":"+10","keys":[1871.610000031069],"total_keys":1,"block":2,"trial":184,"stimulus":6,"robot":1,"valence":"win","action":"go","sham":0,"trial_type":"pit-trial","trial_index":226,"time_elapsed":982285,"internal_node_id":"0.0-192.0","task_version":"battery-v0.2-trt"},{"rune":"P","rune_set":"elianto","hex":"#f73b6a7A","correct":-1,"choice":32,"rt":1177.0800000522286,"accuracy":0,"outcome":"-10","keys":[2678.7149999290705],"total_keys":1,"block":2,"trial":185,"stimulus":7,"robot":4,"valence":"lose","action":"no-go","sham":0,"trial_type":"pit-trial","trial_index":227,"time_elapsed":986168,"internal_node_id":"0.0-193.0","task_version":"battery-v0.2-trt"},{"rune":"E","rune_set":"elianto","hex":"#f73b6a7A","correct":32,"choice":32,"rt":926.8449998926371,"accuracy":1,"outcome":"-1","keys":[2428.0099999159575],"total_keys":1,"block":2,"trial":186,"stimulus":4,"robot":3,"valence":"lose","action":"go","sham":0,"trial_type":"pit-trial","trial_index":228,"time_elapsed":989801,"internal_node_id":"0.0-194.0","task_version":"battery-v0.2-trt"},{"rune":"S","rune_set":"elianto","hex":"#3366ff99","correct":32,"choice":32,"rt":456.29499992355704,"accuracy":1,"outcome":"+10","keys":[1957.3749999981374],"total_keys":1,"block":2,"trial":187,"stimulus":6,"robot":1,"valence":"win","action":"go","sham":0,"trial_type":"pit-trial","trial_index":229,"time_elapsed":992963,"internal_node_id":"0.0-195.0","task_version":"battery-v0.2-trt"},{"rune":"W","rune_set":"elianto","hex":"#3366ff99","correct":-1,"choice":32,"rt":749.2500001098961,"accuracy":0,"outcome":"+1","keys":[2250.2900001127273],"total_keys":1,"block":2,"trial":188,"stimulus":5,"robot":2,"valence":"win","action":"no-go","sham":0,"trial_type":"pit-trial","trial_index":230,"time_elapsed":996419,"internal_node_id":"0.0-196.0","task_version":"battery-v0.2-trt"},{"rune":"W","rune_set":"elianto","hex":"#3366ff99","correct":-1,"choice":-1,"rt":-1,"accuracy":1,"outcome":"+10","keys":[],"total_keys":0,"block":2,"trial":189,"stimulus":5,"robot":2,"valence":"win","action":"no-go","sham":0,"trial_type":"pit-trial","trial_index":231,"time_elapsed":1000425,"internal_node_id":"0.0-197.0","task_version":"battery-v0.2-trt"},{"rune":"S","rune_set":"elianto","hex":"#3366ff99","correct":32,"choice":32,"rt":326.35500002652407,"accuracy":1,"outcome":"+1","keys":[1828.9000000804663],"total_keys":1,"block":2,"trial":190,"stimulus":6,"robot":1,"valence":"win","action":"go","sham":1,"trial_type":"pit-trial","trial_index":232,"time_elapsed":1003458,"internal_node_id":"0.0-198.0","task_version":"battery-v0.2-trt"},{"rune":"P","rune_set":"elianto","hex":"#f73b6a7A","correct":-1,"choice":32,"rt":1050.3200001548976,"accuracy":0,"outcome":"-10","keys":[2550.3849999513477],"total_keys":1,"block":2,"trial":191,"stimulus":7,"robot":4,"valence":"lose","action":"no-go","sham":0,"trial_type":"pit-trial","trial_index":233,"time_elapsed":1007213,"internal_node_id":"0.0-199.0","task_version":"battery-v0.2-trt"},{"rune":"E","rune_set":"elianto","hex":"#f73b6a7A","correct":32,"choice":32,"rt":846.4899999089539,"accuracy":1,"outcome":"-10","keys":[2346.9799999147654],"total_keys":1,"block":2,"trial":192,"stimulus":4,"robot":3,"valence":"lose","action":"go","sham":1,"trial_type":"pit-trial","trial_index":234,"time_elapsed":1010763,"internal_node_id":"0.0-200.0","task_version":"battery-v0.2-trt"},{"rune":"G","rune_set":"elianto","hex":"#3366ff99","correct":32,"choice":32,"rt":409.66499992646277,"accuracy":1,"outcome":"+10","keys":[1911.0449999570847],"total_keys":1,"block":2,"trial":193,"stimulus":8,"robot":1,"valence":"win","action":"go","sham":0,"trial_type":"pit-trial","trial_index":235,"time_elapsed":1013878,"internal_node_id":"0.0-201.0","task_version":"battery-v0.2-trt"},{"rune":"A","rune_set":"elianto","hex":"#f73b6a7A","correct":32,"choice":-1,"rt":-1,"accuracy":0,"outcome":"-10","keys":[],"total_keys":0,"block":2,"trial":194,"stimulus":9,"robot":3,"valence":"lose","action":"go","sham":0,"trial_type":"pit-trial","trial_index":236,"time_elapsed":1017883,"internal_node_id":"0.0-202.0","task_version":"battery-v0.2-trt"},{"rune":"W","rune_set":"elianto","hex":"#3366ff99","correct":-1,"choice":32,"rt":430.26000005193055,"accuracy":0,"outcome":"+1","keys":[1930.6850000284612],"total_keys":1,"block":2,"trial":195,"stimulus":5,"robot":2,"valence":"win","action":"no-go","sham":0,"trial_type":"pit-trial","trial_index":237,"time_elapsed":1021019,"internal_node_id":"0.0-203.0","task_version":"battery-v0.2-trt"},{"rune":"P","rune_set":"elianto","hex":"#f73b6a7A","correct":-1,"choice":-1,"rt":-1,"accuracy":1,"outcome":"-1","keys":[2876.1149998754263],"total_keys":1,"block":2,"trial":196,"stimulus":7,"robot":4,"valence":"lose","action":"no-go","sham":0,"trial_type":"pit-trial","trial_index":238,"time_elapsed":1025025,"internal_node_id":"0.0-204.0","task_version":"battery-v0.2-trt"},{"rune":"W","rune_set":"elianto","hex":"#3366ff99","correct":-1,"choice":32,"rt":340.970000019297,"accuracy":0,"outcome":"+1","keys":[1842.3899998888373],"total_keys":1,"block":2,"trial":197,"stimulus":5,"robot":2,"valence":"win","action":"no-go","sham":0,"trial_type":"pit-trial","trial_index":239,"time_elapsed":1028073,"internal_node_id":"0.0-205.0","task_version":"battery-v0.2-trt"},{"rune":"A","rune_set":"elianto","hex":"#f73b6a7A","correct":32,"choice":32,"rt":690.6000000890344,"accuracy":1,"outcome":"-1","keys":[2190.7199998386204],"total_keys":1,"block":2,"trial":198,"stimulus":9,"robot":3,"valence":"lose","action":"go","sham":0,"trial_type":"pit-trial","trial_index":240,"time_elapsed":1031468,"internal_node_id":"0.0-206.0","task_version":"battery-v0.2-trt"},{"rune":"P","rune_set":"elianto","hex":"#f73b6a7A","correct":-1,"choice":32,"rt":673.7850001081824,"accuracy":0,"outcome":"-10","keys":[2174.210000084713],"total_keys":1,"block":2,"trial":199,"stimulus":7,"robot":4,"valence":"lose","action":"no-go","sham":0,"trial_type":"pit-trial","trial_index":241,"time_elapsed":1034847,"internal_node_id":"0.0-207.0","task_version":"battery-v0.2-trt"},{"rune":"G","rune_set":"elianto","hex":"#3366ff99","correct":32,"choice":32,"rt":406.7750000394881,"accuracy":1,"outcome":"+1","keys":[1908.7950000539422],"total_keys":1,"block":2,"trial":200,"stimulus":8,"robot":1,"valence":"win","action":"go","sham":1,"trial_type":"pit-trial","trial_index":242,"time_elapsed":1037961,"internal_node_id":"0.0-208.0","task_version":"battery-v0.2-trt"},{"rune":"A","rune_set":"elianto","hex":"#f73b6a7A","correct":32,"choice":32,"rt":438.3250002283603,"accuracy":1,"outcome":"-1","keys":[1938.3199999574572],"total_keys":1,"block":2,"trial":201,"stimulus":9,"robot":3,"valence":"lose","action":"go","sham":0,"trial_type":"pit-trial","trial_index":243,"time_elapsed":1041104,"internal_node_id":"0.0-209.0","task_version":"battery-v0.2-trt"},{"rune":"P","rune_set":"elianto","hex":"#f73b6a7A","correct":-1,"choice":-1,"rt":-1,"accuracy":1,"outcome":"-1","keys":[],"total_keys":0,"block":2,"trial":202,"stimulus":7,"robot":4,"valence":"lose","action":"no-go","sham":0,"trial_type":"pit-trial","trial_index":244,"time_elapsed":1045110,"internal_node_id":"0.0-210.0","task_version":"battery-v0.2-trt"},{"rune":"W","rune_set":"elianto","hex":"#3366ff99","correct":-1,"choice":32,"rt":287.1899998281151,"accuracy":0,"outcome":"+1","keys":[1787.4100001063198],"total_keys":1,"block":2,"trial":203,"stimulus":5,"robot":2,"valence":"win","action":"no-go","sham":0,"trial_type":"pit-trial","trial_index":245,"time_elapsed":1048103,"internal_node_id":"0.0-211.0","task_version":"battery-v0.2-trt"},{"rune":"G","rune_set":"elianto","hex":"#3366ff99","correct":32,"choice":32,"rt":291.630000108853,"accuracy":1,"outcome":"+10","keys":[1792.6949998363853],"total_keys":1,"block":2,"trial":204,"stimulus":8,"robot":1,"valence":"win","action":"go","sham":0,"trial_type":"pit-trial","trial_index":246,"time_elapsed":1051100,"internal_node_id":"0.0-212.0","task_version":"battery-v0.2-trt"},{"rune":"G","rune_set":"elianto","hex":"#3366ff99","correct":32,"choice":32,"rt":364.850000012666,"accuracy":1,"outcome":"+10","keys":[1866.185000166297],"total_keys":1,"block":2,"trial":205,"stimulus":8,"robot":1,"valence":"win","action":"go","sham":0,"trial_type":"pit-trial","trial_index":247,"time_elapsed":1054171,"internal_node_id":"0.0-213.0","task_version":"battery-v0.2-trt"},{"rune":"A","rune_set":"elianto","hex":"#f73b6a7A","correct":32,"choice":32,"rt":729.5499998144805,"accuracy":1,"outcome":"-10","keys":[2230.9049998875707],"total_keys":1,"block":2,"trial":206,"stimulus":9,"robot":3,"valence":"lose","action":"go","sham":1,"trial_type":"pit-trial","trial_index":248,"time_elapsed":1057605,"internal_node_id":"0.0-214.0","task_version":"battery-v0.2-trt"},{"rune":"P","rune_set":"elianto","hex":"#f73b6a7A","correct":-1,"choice":-1,"rt":-1,"accuracy":1,"outcome":"-10","keys":[],"total_keys":0,"block":2,"trial":207,"stimulus":7,"robot":4,"valence":"lose","action":"no-go","sham":1,"trial_type":"pit-trial","trial_index":249,"time_elapsed":1061610,"internal_node_id":"0.0-215.0","task_version":"battery-v0.2-trt"},{"rune":"W","rune_set":"elianto","hex":"#3366ff99","correct":-1,"choice":32,"rt":308.16999985836446,"accuracy":0,"outcome":"+1","keys":[1808.5549999959767],"total_keys":1,"block":2,"trial":208,"stimulus":5,"robot":2,"valence":"win","action":"no-go","sham":0,"trial_type":"pit-trial","trial_index":250,"time_elapsed":1064622,"internal_node_id":"0.0-216.0","task_version":"battery-v0.2-trt"},{"rune":"U","rune_set":"elianto","hex":"#3366ff99","correct":-1,"choice":32,"rt":404.88000004552305,"accuracy":0,"outcome":"+10","keys":[1905.3100000601262],"total_keys":1,"block":2,"trial":209,"stimulus":11,"robot":2,"valence":"win","action":"no-go","sham":1,"trial_type":"pit-trial","trial_index":251,"time_elapsed":1067733,"internal_node_id":"0.0-217.0","task_version":"battery-v0.2-trt"},{"rune":"G","rune_set":"elianto","hex":"#3366ff99","correct":32,"choice":32,"rt":366.90999986603856,"accuracy":1,"outcome":"+10","keys":[1867.585000116378],"total_keys":1,"block":2,"trial":210,"stimulus":8,"robot":1,"valence":"win","action":"go","sham":0,"trial_type":"pit-trial","trial_index":252,"time_elapsed":1070806,"internal_node_id":"0.0-218.0","task_version":"battery-v0.2-trt"},{"rune":"L","rune_set":"elianto","hex":"#f73b6a7A","correct":32,"choice":32,"rt":600.9750000666827,"accuracy":1,"outcome":"-1","keys":[2102.2099999245256],"total_keys":1,"block":2,"trial":211,"stimulus":10,"robot":3,"valence":"lose","action":"go","sham":0,"trial_type":"pit-trial","trial_index":253,"time_elapsed":1074110,"internal_node_id":"0.0-219.0","task_version":"battery-v0.2-trt"},{"rune":"A","rune_set":"elianto","hex":"#f73b6a7A","correct":32,"choice":32,"rt":425.2800000831485,"accuracy":1,"outcome":"-1","keys":[1925.404999870807],"total_keys":1,"block":2,"trial":212,"stimulus":9,"robot":3,"valence":"lose","action":"go","sham":0,"trial_type":"pit-trial","trial_index":254,"time_elapsed":1077238,"internal_node_id":"0.0-220.0","task_version":"battery-v0.2-trt"},{"rune":"A","rune_set":"elianto","hex":"#f73b6a7A","correct":32,"choice":32,"rt":371.4250000193715,"accuracy":1,"outcome":"-1","keys":[1871.7900000046939],"total_keys":1,"block":2,"trial":213,"stimulus":9,"robot":3,"valence":"lose","action":"go","sham":0,"trial_type":"pit-trial","trial_index":255,"time_elapsed":1080316,"internal_node_id":"0.0-221.0","task_version":"battery-v0.2-trt"},{"rune":"G","rune_set":"elianto","hex":"#3366ff99","correct":32,"choice":32,"rt":341.33500000461936,"accuracy":1,"outcome":"+10","keys":[1841.7150001041591],"total_keys":1,"block":2,"trial":214,"stimulus":8,"robot":1,"valence":"win","action":"go","sham":0,"trial_type":"pit-trial","trial_index":256,"time_elapsed":1083361,"internal_node_id":"0.0-222.0","task_version":"battery-v0.2-trt"},{"rune":"U","rune_set":"elianto","hex":"#3366ff99","correct":-1,"choice":32,"rt":544.5749999489635,"accuracy":0,"outcome":"+1","keys":[2044.9999999254942],"total_keys":1,"block":2,"trial":215,"stimulus":11,"robot":2,"valence":"win","action":"no-go","sham":0,"trial_type":"pit-trial","trial_index":257,"time_elapsed":1086610,"internal_node_id":"0.0-223.0","task_version":"battery-v0.2-trt"},{"rune":"L","rune_set":"elianto","hex":"#f73b6a7A","correct":32,"choice":32,"rt":1038.0900001619011,"accuracy":1,"outcome":"-1","keys":[2538.8750000856817],"total_keys":1,"block":2,"trial":216,"stimulus":10,"robot":3,"valence":"lose","action":"go","sham":0,"trial_type":"pit-trial","trial_index":258,"time_elapsed":1090355,"internal_node_id":"0.0-224.0","task_version":"battery-v0.2-trt"},{"rune":"A","rune_set":"elianto","hex":"#f73b6a7A","correct":32,"choice":32,"rt":573.1650001835078,"accuracy":1,"outcome":"-10","keys":[2074.625000124797],"total_keys":1,"block":2,"trial":217,"stimulus":9,"robot":3,"valence":"lose","action":"go","sham":1,"trial_type":"pit-trial","trial_index":259,"time_elapsed":1093635,"internal_node_id":"0.0-225.0","task_version":"battery-v0.2-trt"},{"rune":"G","rune_set":"elianto","hex":"#3366ff99","correct":32,"choice":32,"rt":409.70499999821186,"accuracy":1,"outcome":"+10","keys":[1909.8749998956919],"total_keys":1,"block":2,"trial":218,"stimulus":8,"robot":1,"valence":"win","action":"go","sham":0,"trial_type":"pit-trial","trial_index":260,"time_elapsed":1096747,"internal_node_id":"0.0-226.0","task_version":"battery-v0.2-trt"},{"rune":"L","rune_set":"elianto","hex":"#f73b6a7A","correct":32,"choice":32,"rt":539.6950000431389,"accuracy":1,"outcome":"-10","keys":[2040.98999989219],"total_keys":1,"block":2,"trial":219,"stimulus":10,"robot":3,"valence":"lose","action":"go","sham":1,"trial_type":"pit-trial","trial_index":261,"time_elapsed":1099993,"internal_node_id":"0.0-227.0","task_version":"battery-v0.2-trt"},{"rune":"U","rune_set":"elianto","hex":"#3366ff99","correct":-1,"choice":32,"rt":417.6199999637902,"accuracy":0,"outcome":"+1","keys":[1917.9950000252575],"total_keys":1,"block":2,"trial":220,"stimulus":11,"robot":2,"valence":"win","action":"no-go","sham":0,"trial_type":"pit-trial","trial_index":262,"time_elapsed":1103117,"internal_node_id":"0.0-228.0","task_version":"battery-v0.2-trt"},{"rune":"A","rune_set":"elianto","hex":"#f73b6a7A","correct":32,"choice":32,"rt":607.4149999767542,"accuracy":1,"outcome":"-1","keys":[2108.974999981001],"total_keys":1,"block":2,"trial":221,"stimulus":9,"robot":3,"valence":"lose","action":"go","sham":0,"trial_type":"pit-trial","trial_index":263,"time_elapsed":1106432,"internal_node_id":"0.0-229.0","task_version":"battery-v0.2-trt"},{"rune":"U","rune_set":"elianto","hex":"#3366ff99","correct":-1,"choice":32,"rt":677.3699999321252,"accuracy":0,"outcome":"+1","keys":[2177.6799999643117],"total_keys":1,"block":2,"trial":222,"stimulus":11,"robot":2,"valence":"win","action":"no-go","sham":0,"trial_type":"pit-trial","trial_index":264,"time_elapsed":1109812,"internal_node_id":"0.0-230.0","task_version":"battery-v0.2-trt"},{"rune":"G","rune_set":"elianto","hex":"#3366ff99","correct":32,"choice":-1,"rt":-1,"accuracy":0,"outcome":"+1","keys":[],"total_keys":0,"block":2,"trial":223,"stimulus":8,"robot":1,"valence":"win","action":"go","sham":0,"trial_type":"pit-trial","trial_index":265,"time_elapsed":1113818,"internal_node_id":"0.0-231.0","task_version":"battery-v0.2-trt"},{"rune":"L","rune_set":"elianto","hex":"#f73b6a7A","correct":32,"choice":32,"rt":712.2000001836568,"accuracy":1,"outcome":"-1","keys":[2212.8299998585135],"total_keys":1,"block":2,"trial":224,"stimulus":10,"robot":3,"valence":"lose","action":"go","sham":0,"trial_type":"pit-trial","trial_index":266,"time_elapsed":1117235,"internal_node_id":"0.0-232.0","task_version":"battery-v0.2-trt"},{"rune":"A","rune_set":"elianto","hex":"#f73b6a7A","correct":32,"choice":32,"rt":465.3749999124557,"accuracy":1,"outcome":"-1","keys":[1967.0049999840558],"total_keys":1,"block":2,"trial":225,"stimulus":9,"robot":3,"valence":"lose","action":"go","sham":0,"trial_type":"pit-trial","trial_index":267,"time_elapsed":1120408,"internal_node_id":"0.0-233.0","task_version":"battery-v0.2-trt"},{"rune":"G","rune_set":"elianto","hex":"#3366ff99","correct":32,"choice":32,"rt":323.62499996088445,"accuracy":1,"outcome":"+1","keys":[1824.4000000413507],"total_keys":1,"block":2,"trial":226,"stimulus":8,"robot"