[{"view_history":"[{\"page_index\":0,\"viewing_time\":1296.2999999872409}]","rt":1296.5449999901466,"trial_type":"instructions","trial_index":0,"time_elapsed":1302,"internal_node_id":"0.0-0.0","task_version":"battery-v0.2-trt"},{"slider_type":"valence","raw_loc":606,"loc":0.712,"trial_type":"affective-slider","trial_index":1,"time_elapsed":7997,"internal_node_id":"0.0-1.0","task_version":"battery-v0.2-trt"},{"responses":{"Q07":"0","Q03":"0","Q01":"0","Q08":"0","Q06":"0","Q04":"0","Q02":"0","Q05":"1"},"rt":25130.535000003874,"item_order":[6,2,0,7,5,3,1,4],"radio_events":[18470.860000001267,20012.08499999484,20497.779999976046,21158.379999978933,21656.810000014957,23218.014999991283,23923.130000010133,24343.25999999419],"key_events":[15871.845000016037,16078.19000002928,16204.269999987446,16333.370000007562,16491.794999979902,16644.13999998942,16926.15499999374,17120.63499999931,17359.364999982063,17604.15999998804,17872.16000002809,18470.860000001267,19539.189999981318,20012.08499999484,20497.779999976046,21158.379999978933,21656.810000014957,22474.92000000784,23218.014999991283,23923.130000010133,24343.25999999419,25129.625000001397],"mouse_events":[],"straightlining":0.875,"zigzagging":0.14285714285714285,"survey":"gad7","trial_type":"survey-template","trial_index":2,"time_elapsed":33131,"internal_node_id":"0.0-2.0","task_version":"battery-v0.2-trt","infrequency":0},{"responses":{"Q01":"1","Q12":"1","Q06":"1","Q11":"1","Q02":"1","Q03":"1","Q05":"1","Q13":"1","Q04":"1","Q09":"2","Q07":"0","Q08":"0","Q10":"0"},"rt":38058.09499998577,"item_order":[0,11,5,10,1,2,4,12,3,8,6,7,9],"radio_events":[1595.7099999650382,2096.689999976661,4148.894999991171,4681.660000002012,5228.294999978971,5713.609999977052,6381.194999965373,8027.229999948759,8601.894999970682,9198.789999994915,9509.774999984074,10661.069999972824,11192.604999989271,13745.874999964144,14522.669999976642,14808.329999970738,16360.354999953415,16546.979999984615,19280.189999961294,19968.789999955334,22709.334999963176,23234.154999954626,23731.199999980163,24165.999999968335,24610.669999965467,24883.924999972805,25330.184999969788,25602.474999963306,29943.494999955874,30520.674999977928,31484.544999955688,32351.67000000365],"key_events":[1595.7099999650382,1782.619999954477,1933.0849999678321,2096.689999976661,2225.309999950696,2412.75499999756,2577.4799999780953,2747.7749999961816,2922.915000002831,3440.729999972973,4148.894999991171,4681.660000002012,5228.294999978971,5713.609999977052,6381.194999965373,8027.229999948759,8601.894999970682,9198.789999994915,9509.774999984074,10661.069999972824,11192.604999989271,13745.874999964144,14522.669999976642,14808.329999970738,16360.354999953415,16546.979999984615,19280.189999961294,19968.789999955334,22709.334999963176,23234.154999954626,23731.199999980163,24165.999999968335,24610.669999965467,24883.924999972805,25330.184999969788,25602.474999963306,29943.494999955874,30520.674999977928,31484.544999955688,32351.67000000365,38056.97999999393],"mouse_events":[],"straightlining":0.6923076923076923,"zigzagging":0.08333333333333333,"survey":"bisbas","trial_type":"survey-template","trial_index":3,"time_elapsed":71192,"internal_node_id":"0.0-3.0","task_version":"battery-v0.2-trt","infrequency":0.5},{"responses":{"Q06":"1","Q08":"1","Q01":"1","Q02":"1","Q07":"1","Q04":"1","Q05":"1","Q03":"1"},"rt":18482.215000025462,"item_order":[5,7,0,1,6,3,4,2],"radio_events":[8009.510000003502,8614.13000000175,10365.85499998182,11325.599999981932,11907.319999998435,12683.4600000293,12967.294999980368,13346.610000007786,14235.64000002807,14833.715000015218,15361.949999991339,15899.785000015981,16499.345000018366],"key_events":[726.1450000223704,3257.110000005923,3787.5350000103936,6732.819999975618,8009.510000003502,8614.13000000175,10365.85499998182,11325.599999981932,11907.319999998435,12683.4600000293,12967.294999980368,13346.610000007786,14235.64000002807,14833.715000015218,15361.949999991339,15899.785000015981,16499.345000018366,18034.670000022743,18481.48499999661],"mouse_events":[],"straightlining":1,"zigzagging":0,"survey":"dass_d","trial_type":"survey-template","trial_index":4,"time_elapsed":89677,"internal_node_id":"0.0-4.0","task_version":"battery-v0.2-trt","infrequency":1},{"value":[1.5,2.5673076923076925,0.22619047619047616],"trial_type":"call-function","trial_index":5,"time_elapsed":89679,"internal_node_id":"0.0-5.0","task_version":"battery-v0.2-trt"},{"view_history":"[{\"page_index\":0,\"viewing_time\":3284.6450000070035},{\"page_index\":1,\"viewing_time\":913.3750000037253},{\"page_index\":2,\"viewing_time\":2417.5950000062585},{\"page_index\":3,\"viewing_time\":2492.9299999494106},{\"page_index\":4,\"viewing_time\":3099.9400000437163},{\"page_index\":5,\"viewing_time\":825.1499999896623},{\"page_index\":6,\"viewing_time\":1441.6249999776483},{\"page_index\":7,\"viewing_time\":7519.9049999937415},{\"page_index\":8,\"viewing_time\":1691.9750000233762},{\"page_index\":9,\"viewing_time\":1109.7350000054576}]","rt":24797.244999965187,"trial_type":"pit-instructions","trial_index":6,"time_elapsed":114479,"internal_node_id":"0.0-6.0-0.0","task_version":"battery-v0.2-trt"},{"rune":"1","rune_set":"elianto","hex":"#3366ff99","correct":32,"choice":-1,"rt":-1,"accuracy":0,"outcome":"+1","keys":[],"total_keys":0,"block":0,"practice":1,"trial_type":"pit-trial","trial_index":7,"time_elapsed":118488,"internal_node_id":"0.0-6.0-1.0-0.0","task_version":"battery-v0.2-trt"},{"rune":"1","rune_set":"elianto","hex":"#3366ff99","correct":32,"choice":32,"rt":416.3350000162609,"accuracy":1,"outcome":"+10","keys":[1916.3699999917299],"total_keys":1,"block":0,"practice":1,"trial_type":"pit-trial","trial_index":8,"time_elapsed":121609,"internal_node_id":"0.0-6.0-1.1-0.1","task_version":"battery-v0.2-trt"},{"rune":"1","rune_set":"elianto","hex":"#3366ff99","correct":32,"choice":32,"rt":541.8049999861978,"accuracy":1,"outcome":"+10","keys":[2042.589999968186],"total_keys":1,"block":0,"practice":1,"trial_type":"pit-trial","trial_index":9,"time_elapsed":124856,"internal_node_id":"0.0-6.0-1.2-0.2","task_version":"battery-v0.2-trt"},{"rune":"1","rune_set":"elianto","hex":"#3366ff99","correct":32,"choice":32,"rt":277.8899999684654,"accuracy":1,"outcome":"+10","keys":[1778.0849999981],"total_keys":1,"block":0,"practice":1,"trial_type":"pit-trial","trial_index":10,"time_elapsed":127836,"internal_node_id":"0.0-6.0-1.3-0.3","task_version":"battery-v0.2-trt"},{"trial_type":"call-function","trial_index":11,"time_elapsed":127838,"internal_node_id":"0.0-6.0-2.0","task_version":"battery-v0.2-trt"},{"view_history":"[{\"page_index\":0,\"viewing_time\":11620.345000002999},{\"page_index\":1,\"viewing_time\":1032.984999998007}]","rt":12653.624999977183,"trial_type":"pit-instructions","trial_index":12,"time_elapsed":140492,"internal_node_id":"0.0-6.0-3.0","task_version":"battery-v0.2-trt"},{"rune":"2","rune_set":"elianto","hex":"#3366ff99","correct":-1,"choice":32,"rt":381.75000000046566,"accuracy":0,"outcome":"+1","keys":[1882.3299999930896],"total_keys":1,"block":0,"practice":2,"trial_type":"pit-trial","trial_index":13,"time_elapsed":143578,"internal_node_id":"0.0-6.0-4.0-0.0","task_version":"battery-v0.2-trt"},{"rune":"2","rune_set":"elianto","hex":"#3366ff99","correct":-1,"choice":-1,"rt":-1,"accuracy":1,"outcome":"+10","keys":[],"total_keys":0,"block":0,"practice":2,"trial_type":"pit-trial","trial_index":14,"time_elapsed":147583,"internal_node_id":"0.0-6.0-4.1-0.1","task_version":"battery-v0.2-trt"},{"rune":"2","rune_set":"elianto","hex":"#3366ff99","correct":-1,"choice":-1,"rt":-1,"accuracy":1,"outcome":"+10","keys":[],"total_keys":0,"block":0,"practice":2,"trial_type":"pit-trial","trial_index":15,"time_elapsed":151589,"internal_node_id":"0.0-6.0-4.2-0.2","task_version":"battery-v0.2-trt"},{"rune":"2","rune_set":"elianto","hex":"#3366ff99","correct":-1,"choice":-1,"rt":-1,"accuracy":1,"outcome":"+10","keys":[],"total_keys":0,"block":0,"practice":2,"trial_type":"pit-trial","trial_index":16,"time_elapsed":155597,"internal_node_id":"0.0-6.0-4.3-0.3","task_version":"battery-v0.2-trt"},{"trial_type":"call-function","trial_index":17,"time_elapsed":155598,"internal_node_id":"0.0-6.0-5.0","task_version":"battery-v0.2-trt"},{"view_history":"[{\"page_index\":0,\"viewing_time\":7854.200000001583},{\"page_index\":1,\"viewing_time\":1301.7349999863654}]","rt":9156.220000004396,"trial_type":"pit-instructions","trial_index":18,"time_elapsed":164755,"internal_node_id":"0.0-6.0-6.0","task_version":"battery-v0.2-trt"},{"rune":"3","rune_set":"elianto","hex":"#f73b6a7A","correct":-1,"choice":32,"rt":510.65000001108274,"accuracy":0,"outcome":"-10","keys":[2012.1900000376627],"total_keys":1,"block":0,"practice":3,"trial_type":"pit-trial","trial_index":19,"time_elapsed":167970,"internal_node_id":"0.0-6.0-7.0-0.0","task_version":"battery-v0.2-trt"},{"rune":"3","rune_set":"elianto","hex":"#f73b6a7A","correct":-1,"choice":-1,"rt":-1,"accuracy":1,"outcome":"-1","keys":[],"total_keys":0,"block":0,"practice":3,"trial_type":"pit-trial","trial_index":20,"time_elapsed":171976,"internal_node_id":"0.0-6.0-7.1-0.1","task_version":"battery-v0.2-trt"},{"rune":"3","rune_set":"elianto","hex":"#f73b6a7A","correct":-1,"choice":-1,"rt":-1,"accuracy":1,"outcome":"-1","keys":[],"total_keys":0,"block":0,"practice":3,"trial_type":"pit-trial","trial_index":21,"time_elapsed":175984,"internal_node_id":"0.0-6.0-7.2-0.2","task_version":"battery-v0.2-trt"},{"rune":"3","rune_set":"elianto","hex":"#f73b6a7A","correct":-1,"choice":-1,"rt":-1,"accuracy":1,"outcome":"-1","keys":[],"total_keys":0,"block":0,"practice":3,"trial_type":"pit-trial","trial_index":22,"time_elapsed":179995,"internal_node_id":"0.0-6.0-7.3-0.3","task_version":"battery-v0.2-trt"},{"trial_type":"call-function","trial_index":23,"time_elapsed":179996,"internal_node_id":"0.0-6.0-8.0","task_version":"battery-v0.2-trt"},{"view_history":"[{\"page_index\":0,\"viewing_time\":2108.074999996461},{\"page_index\":1,\"viewing_time\":496.5799999772571}]","rt":2605.020000017248,"trial_type":"pit-instructions","trial_index":24,"time_elapsed":182604,"internal_node_id":"0.0-6.0-9.0","task_version":"battery-v0.2-trt"},{"rune":"4","rune_set":"elianto","hex":"#f73b6a7A","correct":32,"choice":32,"rt":268.9399999799207,"accuracy":1,"outcome":"-1","keys":[1769.289999967441],"total_keys":1,"block":0,"practice":4,"trial_type":"pit-trial","trial_index":25,"time_elapsed":185578,"internal_node_id":"0.0-6.0-10.0-0.0","task_version":"battery-v0.2-trt"},{"rune":"4","rune_set":"elianto","hex":"#f73b6a7A","correct":32,"choice":-1,"rt":-1,"accuracy":0,"outcome":"-10","keys":[],"total_keys":0,"block":0,"practice":4,"trial_type":"pit-trial","trial_index":26,"time_elapsed":189590,"internal_node_id":"0.0-6.0-10.1-0.1","task_version":"battery-v0.2-trt"},{"rune":"4","rune_set":"elianto","hex":"#f73b6a7A","correct":32,"choice":32,"rt":301.34999996516854,"accuracy":1,"outcome":"-1","keys":[1802.8599999961443],"total_keys":1,"block":0,"practice":4,"trial_type":"pit-trial","trial_index":27,"time_elapsed":192598,"internal_node_id":"0.0-6.0-10.2-0.2","task_version":"battery-v0.2-trt"},{"rune":"4","rune_set":"elianto","hex":"#f73b6a7A","correct":32,"choice":32,"rt":269.8099999688566,"accuracy":1,"outcome":"-1","keys":[1769.895000034012],"total_keys":1,"block":0,"practice":4,"trial_type":"pit-trial","trial_index":28,"time_elapsed":195575,"internal_node_id":"0.0-6.0-10.3-0.3","task_version":"battery-v0.2-trt"},{"rune":"4","rune_set":"elianto","hex":"#f73b6a7A","correct":32,"choice":32,"rt":179.69999997876585,"accuracy":1,"outcome":"-1","keys":[1682.5800000224262],"total_keys":1,"block":0,"practice":4,"trial_type":"pit-trial","trial_index":29,"time_elapsed":198463,"internal_node_id":"0.0-6.0-10.4-0.4","task_version":"battery-v0.2-trt"},{"trial_type":"call-function","trial_index":30,"time_elapsed":198463,"internal_node_id":"0.0-6.0-11.0","task_version":"battery-v0.2-trt"},{"view_history":"[{\"page_index\":0,\"viewing_time\":2003.5849999985658},{\"page_index\":1,\"viewing_time\":1810.7350000063889},{\"page_index\":2,\"viewing_time\":6243.414999975357},{\"page_index\":3,\"viewing_time\":2375.3949999809265},{\"page_index\":4,\"viewing_time\":1677.1450000233017},{\"page_index\":5,\"viewing_time\":1004.0349999908358}]","rt":15114.604999951553,"trial_type":"pit-instructions","trial_index":31,"time_elapsed":213582,"internal_node_id":"0.0-6.0-12.0","task_version":"battery-v0.2-trt"},{"responses":["Press SPACE","+10","-1","True","True"],"num_errors":0,"rt":14437.320000026375,"trial_type":"pit-comprehension","trial_index":32,"time_elapsed":228023,"internal_node_id":"0.0-6.0-13.0","task_version":"battery-v0.2-trt"},{"view_history":"[{\"page_index\":0,\"viewing_time\":93038.13500003889},{\"page_index\":1,\"viewing_time\":2185.0349999731407}]","rt":95223.46000000834,"trial_type":"pit-instructions","trial_index":33,"time_elapsed":323253,"internal_node_id":"0.0-7.0","task_version":"battery-v0.2-trt"},{"rune":"N","rune_set":"bacs1","hex":"#f73b6a7A","correct":-1,"choice":-1,"rt":-1,"accuracy":1,"outcome":"-1","keys":[],"total_keys":0,"block":1,"trial":1,"stimulus":0,"robot":4,"valence":"lose","action":"no-go","sham":0,"trial_type":"pit-trial","trial_index":34,"time_elapsed":327261,"internal_node_id":"0.0-8.0","task_version":"battery-v0.2-trt"},{"rune":"I","rune_set":"bacs1","hex":"#3366ff99","correct":32,"choice":32,"rt":698.3350000227802,"accuracy":1,"outcome":"+10","keys":[2200.825000007171],"total_keys":1,"block":1,"trial":2,"stimulus":2,"robot":1,"valence":"win","action":"go","sham":0,"trial_type":"pit-trial","trial_index":35,"time_elapsed":330667,"internal_node_id":"0.0-9.0","task_version":"battery-v0.2-trt"},{"rune":"O","rune_set":"bacs1","hex":"#3366ff99","correct":-1,"choice":-1,"rt":-1,"accuracy":1,"outcome":"+10","keys":[],"total_keys":0,"block":1,"trial":3,"stimulus":3,"robot":2,"valence":"win","action":"no-go","sham":0,"trial_type":"pit-trial","trial_index":36,"time_elapsed":334675,"internal_node_id":"0.0-10.0","task_version":"battery-v0.2-trt"},{"rune":"G","rune_set":"bacs1","hex":"#f73b6a7A","correct":-1,"choice":-1,"rt":-1,"accuracy":1,"outcome":"-1","keys":[],"total_keys":0,"block":1,"trial":4,"stimulus":1,"robot":4,"valence":"lose","action":"no-go","sham":0,"trial_type":"pit-trial","trial_index":37,"time_elapsed":338681,"internal_node_id":"0.0-11.0","task_version":"battery-v0.2-trt"},{"rune":"O","rune_set":"bacs1","hex":"#3366ff99","correct":-1,"choice":-1,"rt":-1,"accuracy":1,"outcome":"+10","keys":[],"total_keys":0,"block":1,"trial":5,"stimulus":3,"robot":2,"valence":"win","action":"no-go","sham":0,"trial_type":"pit-trial","trial_index":38,"time_elapsed":342689,"internal_node_id":"0.0-12.0","task_version":"battery-v0.2-trt"},{"rune":"N","rune_set":"bacs1","hex":"#f73b6a7A","correct":-1,"choice":32,"rt":544.2249999614432,"accuracy":0,"outcome":"-10","keys":[2045.1500000199303],"total_keys":1,"block":1,"trial":6,"stimulus":0,"robot":4,"valence":"lose","action":"no-go","sham":0,"trial_type":"pit-trial","trial_index":39,"time_elapsed":345938,"internal_node_id":"0.0-13.0","task_version":"battery-v0.2-trt"},{"rune":"I","rune_set":"bacs1","hex":"#3366ff99","correct":32,"choice":32,"rt":648.5650000395253,"accuracy":1,"outcome":"+10","keys":[2148.849999997765],"total_keys":1,"block":1,"trial":7,"stimulus":2,"robot":1,"valence":"win","action":"go","sham":0,"trial_type":"pit-trial","trial_index":40,"time_elapsed":349290,"internal_node_id":"0.0-14.0","task_version":"battery-v0.2-trt"},{"rune":"G","rune_set":"bacs1","hex":"#f73b6a7A","correct":-1,"choice":-1,"rt":-1,"accuracy":1,"outcome":"-1","keys":[],"total_keys":0,"block":1,"trial":8,"stimulus":1,"robot":4,"valence":"lose","action":"no-go","sham":0,"trial_type":"pit-trial","trial_index":41,"time_elapsed":353295,"internal_node_id":"0.0-15.0","task_version":"battery-v0.2-trt"},{"rune":"O","rune_set":"bacs1","hex":"#3366ff99","correct":-1,"choice":-1,"rt":-1,"accuracy":1,"outcome":"+10","keys":[],"total_keys":0,"block":1,"trial":9,"stimulus":3,"robot":2,"valence":"win","action":"no-go","sham":0,"trial_type":"pit-trial","trial_index":42,"time_elapsed":357304,"internal_node_id":"0.0-16.0","task_version":"battery-v0.2-trt"},{"rune":"N","rune_set":"bacs1","hex":"#f73b6a7A","correct":-1,"choice":-1,"rt":-1,"accuracy":1,"outcome":"-1","keys":[],"total_keys":0,"block":1,"trial":10,"stimulus":0,"robot":4,"valence":"lose","action":"no-go","sham":0,"trial_type":"pit-trial","trial_index":43,"time_elapsed":361310,"internal_node_id":"0.0-17.0","task_version":"battery-v0.2-trt"},{"rune":"G","rune_set":"bacs1","hex":"#f73b6a7A","correct":-1,"choice":-1,"rt":-1,"accuracy":1,"outcome":"-1","keys":[],"total_keys":0,"block":1,"trial":11,"stimulus":1,"robot":4,"valence":"lose","action":"no-go","sham":0,"trial_type":"pit-trial","trial_index":44,"time_elapsed":365317,"internal_node_id":"0.0-18.0","task_version":"battery-v0.2-trt"},{"rune":"I","rune_set":"bacs1","hex":"#3366ff99","correct":32,"choice":32,"rt":713.030000042636,"accuracy":1,"outcome":"+10","keys":[2213.075000036042],"total_keys":1,"block":1,"trial":12,"stimulus":2,"robot":1,"valence":"win","action":"go","sham":0,"trial_type":"pit-trial","trial_index":45,"time_elapsed":368736,"internal_node_id":"0.0-19.0","task_version":"battery-v0.2-trt"},{"rune":"N","rune_set":"bacs1","hex":"#f73b6a7A","correct":-1,"choice":-1,"rt":-1,"accuracy":1,"outcome":"-1","keys":[3028.1649999669753],"total_keys":1,"block":1,"trial":13,"stimulus":0,"robot":4,"valence":"lose","action":"no-go","sham":0,"trial_type":"pit-trial","trial_index":46,"time_elapsed":372744,"internal_node_id":"0.0-20.0","task_version":"battery-v0.2-trt"},{"rune":"O","rune_set":"bacs1","hex":"#3366ff99","correct":-1,"choice":-1,"rt":-1,"accuracy":1,"outcome":"+1","keys":[173.07499999878928],"total_keys":1,"block":1,"trial":14,"stimulus":3,"robot":2,"valence":"win","action":"no-go","sham":1,"trial_type":"pit-trial","trial_index":47,"time_elapsed":376751,"internal_node_id":"0.0-21.0","task_version":"battery-v0.2-trt"},{"rune":"I","rune_set":"bacs1","hex":"#3366ff99","correct":32,"choice":32,"rt":542.5549999927171,"accuracy":1,"outcome":"+10","keys":[2042.6100000040606],"total_keys":1,"block":1,"trial":15,"stimulus":2,"robot":1,"valence":"win","action":"go","sham":0,"trial_type":"pit-trial","trial_index":48,"time_elapsed":379999,"internal_node_id":"0.0-22.0","task_version":"battery-v0.2-trt"},{"rune":"G","rune_set":"bacs1","hex":"#f73b6a7A","correct":-1,"choice":-1,"rt":-1,"accuracy":1,"outcome":"-1","keys":[],"total_keys":0,"block":1,"trial":16,"stimulus":1,"robot":4,"valence":"lose","action":"no-go","sham":0,"trial_type":"pit-trial","trial_index":49,"time_elapsed":384008,"internal_node_id":"0.0-23.0","task_version":"battery-v0.2-trt"},{"rune":"N","rune_set":"bacs1","hex":"#f73b6a7A","correct":-1,"choice":32,"rt":1190.4600000125356,"accuracy":0,"outcome":"-10","keys":[2692.38000002224],"total_keys":1,"block":1,"trial":17,"stimulus":0,"robot":4,"valence":"lose","action":"no-go","sham":0,"trial_type":"pit-trial","trial_index":50,"time_elapsed":387905,"internal_node_id":"0.0-24.0","task_version":"battery-v0.2-trt"},{"rune":"G","rune_set":"bacs1","hex":"#f73b6a7A","correct":-1,"choice":-1,"rt":-1,"accuracy":1,"outcome":"-10","keys":[],"total_keys":0,"block":1,"trial":18,"stimulus":1,"robot":4,"valence":"lose","action":"no-go","sham":1,"trial_type":"pit-trial","trial_index":51,"time_elapsed":391914,"internal_node_id":"0.0-25.0","task_version":"battery-v0.2-trt"},{"rune":"O","rune_set":"bacs1","hex":"#3366ff99","correct":-1,"choice":-1,"rt":-1,"accuracy":1,"outcome":"+10","keys":[],"total_keys":0,"block":1,"trial":19,"stimulus":3,"robot":2,"valence":"win","action":"no-go","sham":0,"trial_type":"pit-trial","trial_index":52,"time_elapsed":395919,"internal_node_id":"0.0-26.0","task_version":"battery-v0.2-trt"},{"rune":"I","rune_set":"bacs1","hex":"#3366ff99","correct":32,"choice":32,"rt":319.83500003116205,"accuracy":1,"outcome":"+10","keys":[1819.9449999956414],"total_keys":1,"block":1,"trial":20,"stimulus":2,"robot":1,"valence":"win","action":"go","sham":0,"trial_type":"pit-trial","trial_index":53,"time_elapsed":398945,"internal_node_id":"0.0-27.0","task_version":"battery-v0.2-trt"},{"rune":"N","rune_set":"bacs1","hex":"#f73b6a7A","correct":-1,"choice":-1,"rt":-1,"accuracy":1,"outcome":"-1","keys":[],"total_keys":0,"block":1,"trial":21,"stimulus":0,"robot":4,"valence":"lose","action":"no-go","sham":0,"trial_type":"pit-trial","trial_index":54,"time_elapsed":402949,"internal_node_id":"0.0-28.0","task_version":"battery-v0.2-trt"},{"rune":"I","rune_set":"bacs1","hex":"#3366ff99","correct":32,"choice":32,"rt":435.6499999994412,"accuracy":1,"outcome":"+1","keys":[1936.3750000484288],"total_keys":1,"block":1,"trial":22,"stimulus":2,"robot":1,"valence":"win","action":"go","sham":1,"trial_type":"pit-trial","trial_index":55,"time_elapsed":406091,"internal_node_id":"0.0-29.0","task_version":"battery-v0.2-trt"},{"rune":"O","rune_set":"bacs1","hex":"#3366ff99","correct":-1,"choice":32,"rt":529.9450000165962,"accuracy":0,"outcome":"+1","keys":[2031.5750000299886],"total_keys":1,"block":1,"trial":23,"stimulus":3,"robot":2,"valence":"win","action":"no-go","sham":0,"trial_type":"pit-trial","trial_index":56,"time_elapsed":409328,"internal_node_id":"0.0-30.0","task_version":"battery-v0.2-trt"},{"rune":"G","rune_set":"bacs1","hex":"#f73b6a7A","correct":-1,"choice":-1,"rt":-1,"accuracy":1,"outcome":"-1","keys":[],"total_keys":0,"block":1,"trial":24,"stimulus":1,"robot":4,"valence":"lose","action":"no-go","sham":0,"trial_type":"pit-trial","trial_index":57,"time_elapsed":413333,"internal_node_id":"0.0-31.0","task_version":"battery-v0.2-trt"},{"rune":"N","rune_set":"bacs1","hex":"#f73b6a7A","correct":-1,"choice":-1,"rt":-1,"accuracy":1,"outcome":"-1","keys":[],"total_keys":0,"block":1,"trial":25,"stimulus":0,"robot":4,"valence":"lose","action":"no-go","sham":0,"trial_type":"pit-trial","trial_index":58,"time_elapsed":417338,"internal_node_id":"0.0-32.0","task_version":"battery-v0.2-trt"},{"rune":"O","rune_set":"bacs1","hex":"#3366ff99","correct":-1,"choice":-1,"rt":-1,"accuracy":1,"outcome":"+1","keys":[],"total_keys":0,"block":1,"trial":26,"stimulus":3,"robot":2,"valence":"win","action":"no-go","sham":1,"trial_type":"pit-trial","trial_index":59,"time_elapsed":421344,"internal_node_id":"0.0-33.0","task_version":"battery-v0.2-trt"},{"rune":"G","rune_set":"bacs1","hex":"#f73b6a7A","correct":-1,"choice":-1,"rt":-1,"accuracy":1,"outcome":"-1","keys":[],"total_keys":0,"block":1,"trial":27,"stimulus":1,"robot":4,"valence":"lose","action":"no-go","sham":0,"trial_type":"pit-trial","trial_index":60,"time_elapsed":425350,"internal_node_id":"0.0-34.0","task_version":"battery-v0.2-trt"},{"rune":"I","rune_set":"bacs1","hex":"#3366ff99","correct":32,"choice":32,"rt":938.9500000397675,"accuracy":1,"outcome":"+10","keys":[2439.375000016298],"total_keys":1,"block":1,"trial":28,"stimulus":2,"robot":1,"valence":"win","action":"go","sham":0,"trial_type":"pit-trial","trial_index":61,"time_elapsed":428991,"internal_node_id":"0.0-35.0","task_version":"battery-v0.2-trt"},{"rune":"N","rune_set":"bacs1","hex":"#f73b6a7A","correct":-1,"choice":-1,"rt":-1,"accuracy":1,"outcome":"-1","keys":[],"total_keys":0,"block":1,"trial":29,"stimulus":0,"robot":4,"valence":"lose","action":"no-go","sham":0,"trial_type":"pit-trial","trial_index":62,"time_elapsed":432997,"internal_node_id":"0.0-36.0","task_version":"battery-v0.2-trt"},{"rune":"G","rune_set":"bacs1","hex":"#f73b6a7A","correct":-1,"choice":-1,"rt":-1,"accuracy":1,"outcome":"-1","keys":[],"total_keys":0,"block":1,"trial":30,"stimulus":1,"robot":4,"valence":"lose","action":"no-go","sham":0,"trial_type":"pit-trial","trial_index":63,"time_elapsed":437004,"internal_node_id":"0.0-37.0","task_version":"battery-v0.2-trt"},{"rune":"I","rune_set":"bacs1","hex":"#3366ff99","correct":32,"choice":32,"rt":547.6050000288524,"accuracy":1,"outcome":"+10","keys":[2048.130000010133],"total_keys":1,"block":1,"trial":31,"stimulus":2,"robot":1,"valence":"win","action":"go","sham":0,"trial_type":"pit-trial","trial_index":64,"time_elapsed":440257,"internal_node_id":"0.0-38.0","task_version":"battery-v0.2-trt"},{"rune":"O","rune_set":"bacs1","hex":"#3366ff99","correct":-1,"choice":-1,"rt":-1,"accuracy":1,"outcome":"+10","keys":[],"total_keys":0,"block":1,"trial":32,"stimulus":3,"robot":2,"valence":"win","action":"no-go","sham":0,"trial_type":"pit-trial","trial_index":65,"time_elapsed":444267,"internal_node_id":"0.0-39.0","task_version":"battery-v0.2-trt"},{"rune":"I","rune_set":"bacs1","hex":"#3366ff99","correct":32,"choice":32,"rt":585.1350000011735,"accuracy":1,"outcome":"+10","keys":[2085.194999992382],"total_keys":1,"block":1,"trial":33,"stimulus":2,"robot":1,"valence":"win","action":"go","sham":0,"trial_type":"pit-trial","trial_index":66,"time_elapsed":447556,"internal_node_id":"0.0-40.0","task_version":"battery-v0.2-trt"},{"rune":"D","rune_set":"bacs1","hex":"#f73b6a7A","correct":32,"choice":32,"rt":945.7650000113063,"accuracy":1,"outcome":"-10","keys":[2445.884999993723],"total_keys":1,"block":1,"trial":34,"stimulus":4,"robot":3,"valence":"lose","action":"go","sham":1,"trial_type":"pit-trial","trial_index":67,"time_elapsed":451207,"internal_node_id":"0.0-41.0","task_version":"battery-v0.2-trt"},{"rune":"N","rune_set":"bacs1","hex":"#f73b6a7A","correct":-1,"choice":-1,"rt":-1,"accuracy":1,"outcome":"-1","keys":[],"total_keys":0,"block":1,"trial":35,"stimulus":0,"robot":4,"valence":"lose","action":"no-go","sham":0,"trial_type":"pit-trial","trial_index":68,"time_elapsed":455216,"internal_node_id":"0.0-42.0","task_version":"battery-v0.2-trt"},{"rune":"O","rune_set":"bacs1","hex":"#3366ff99","correct":-1,"choice":-1,"rt":-1,"accuracy":1,"outcome":"+10","keys":[],"total_keys":0,"block":1,"trial":36,"stimulus":3,"robot":2,"valence":"win","action":"no-go","sham":0,"trial_type":"pit-trial","trial_index":69,"time_elapsed":459223,"internal_node_id":"0.0-43.0","task_version":"battery-v0.2-trt"},{"rune":"D","rune_set":"bacs1","hex":"#f73b6a7A","correct":32,"choice":-1,"rt":-1,"accuracy":0,"outcome":"-10","keys":[],"total_keys":0,"block":1,"trial":37,"stimulus":4,"robot":3,"valence":"lose","action":"go","sham":0,"trial_type":"pit-trial","trial_index":70,"time_elapsed":463230,"internal_node_id":"0.0-44.0","task_version":"battery-v0.2-trt"},{"rune":"N","rune_set":"bacs1","hex":"#f73b6a7A","correct":-1,"choice":-1,"rt":-1,"accuracy":1,"outcome":"-1","keys":[],"total_keys":0,"block":1,"trial":38,"stimulus":0,"robot":4,"valence":"lose","action":"no-go","sham":0,"trial_type":"pit-trial","trial_index":71,"time_elapsed":467234,"internal_node_id":"0.0-45.0","task_version":"battery-v0.2-trt"},{"rune":"O","rune_set":"bacs1","hex":"#3366ff99","correct":-1,"choice":-1,"rt":-1,"accuracy":1,"outcome":"+10","keys":[],"total_keys":0,"block":1,"trial":39,"stimulus":3,"robot":2,"valence":"win","action":"no-go","sham":0,"trial_type":"pit-trial","trial_index":72,"time_elapsed":471237,"internal_node_id":"0.0-46.0","task_version":"battery-v0.2-trt"},{"rune":"I","rune_set":"bacs1","hex":"#3366ff99","correct":32,"choice":32,"rt":343.5099999769591,"accuracy":1,"outcome":"+10","keys":[1843.8399999868125],"total_keys":1,"block":1,"trial":40,"stimulus":2,"robot":1,"valence":"win","action":"go","sham":0,"trial_type":"pit-trial","trial_index":73,"time_elapsed":474284,"internal_node_id":"0.0-47.0","task_version":"battery-v0.2-trt"},{"rune":"K","rune_set":"bacs1","hex":"#3366ff99","correct":-1,"choice":-1,"rt":-1,"accuracy":1,"outcome":"+10","keys":[],"total_keys":0,"block":1,"trial":41,"stimulus":5,"robot":2,"valence":"win","action":"no-go","sham":0,"trial_type":"pit-trial","trial_index":74,"time_elapsed":478290,"internal_node_id":"0.0-48.0","task_version":"battery-v0.2-trt"},{"rune":"S","rune_set":"bacs1","hex":"#3366ff99","correct":32,"choice":32,"rt":1269.4449999835342,"accuracy":1,"outcome":"+10","keys":[2770.0799999875017],"total_keys":1,"block":1,"trial":42,"stimulus":6,"robot":1,"valence":"win","action":"go","sham":0,"trial_type":"pit-trial","trial_index":75,"time_elapsed":482265,"internal_node_id":"0.0-49.0","task_version":"battery-v0.2-trt"},{"rune":"N","rune_set":"bacs1","hex":"#f73b6a7A","correct":-1,"choice":-1,"rt":-1,"accuracy":1,"outcome":"-10","keys":[],"total_keys":0,"block":1,"trial":43,"stimulus":0,"robot":4,"valence":"lose","action":"no-go","sham":1,"trial_type":"pit-trial","trial_index":76,"time_elapsed":486275,"internal_node_id":"0.0-50.0","task_version":"battery-v0.2-trt"},{"rune":"D","rune_set":"bacs1","hex":"#f73b6a7A","correct":32,"choice":-1,"rt":-1,"accuracy":0,"outcome":"-10","keys":[3790.5100000207312],"total_keys":1,"block":1,"trial":44,"stimulus":4,"robot":3,"valence":"lose","action":"go","sham":0,"trial_type":"pit-trial","trial_index":77,"time_elapsed":490285,"internal_node_id":"0.0-51.0","task_version":"battery-v0.2-trt"},{"rune":"K","rune_set":"bacs1","hex":"#3366ff99","correct":-1,"choice":32,"rt":850.5649999715388,"accuracy":0,"outcome":"+1","keys":[2350.6799999740906],"total_keys":1,"block":1,"trial":45,"stimulus":5,"robot":2,"valence":"win","action":"no-go","sham":0,"trial_type":"pit-trial","trial_index":78,"time_elapsed":493840,"internal_node_id":"0.0-52.0","task_version":"battery-v0.2-trt"},{"rune":"S","rune_set":"bacs1","hex":"#3366ff99","correct":32,"choice":32,"rt":394.87999997800216,"accuracy":1,"outcome":"+10","keys":[1895.0850000255741],"total_keys":1,"block":1,"trial":46,"stimulus":6,"robot":1,"valence":"win","action":"go","sham":0,"trial_type":"pit-trial","trial_index":79,"time_elapsed":496940,"internal_node_id":"0.0-53.0","task_version":"battery-v0.2-trt"},{"rune":"D","rune_set":"bacs1","hex":"#f73b6a7A","correct":32,"choice":-1,"rt":-1,"accuracy":0,"outcome":"-10","keys":[2977.885000000242],"total_keys":1,"block":1,"trial":47,"stimulus":4,"robot":3,"valence":"lose","action":"go","sham":0,"trial_type":"pit-trial","trial_index":80,"time_elapsed":500944,"internal_node_id":"0.0-54.0","task_version":"battery-v0.2-trt"},{"rune":"N","rune_set":"bacs1","hex":"#f73b6a7A","correct":-1,"choice":-1,"rt":-1,"accuracy":1,"outcome":"-1","keys":[],"total_keys":0,"block":1,"trial":48,"stimulus":0,"robot":4,"valence":"lose","action":"no-go","sham":0,"trial_type":"pit-trial","trial_index":81,"time_elapsed":504949,"internal_node_id":"0.0-55.0","task_version":"battery-v0.2-trt"},{"rune":"D","rune_set":"bacs1","hex":"#f73b6a7A","correct":32,"choice":32,"rt":1116.5349999791943,"accuracy":1,"outcome":"-1","keys":[2617.2849999857135],"total_keys":1,"block":1,"trial":49,"stimulus":4,"robot":3,"valence":"lose","action":"go","sham":0,"trial_type":"pit-trial","trial_index":82,"time_elapsed":508768,"internal_node_id":"0.0-56.0","task_version":"battery-v0.2-trt"},{"rune":"S","rune_set":"bacs1","hex":"#3366ff99","correct":32,"choice":32,"rt":633.1500000087544,"accuracy":1,"outcome":"+10","keys":[2133.2199999596924],"total_keys":1,"block":1,"trial":50,"stimulus":6,"robot":1,"valence":"win","action":"go","sham":0,"trial_type":"pit-trial","trial_index":83,"time_elapsed":512106,"internal_node_id":"0.0-57.0","task_version":"battery-v0.2-trt"},{"rune":"U","rune_set":"bacs1","hex":"#f73b6a7A","correct":-1,"choice":-1,"rt":-1,"accuracy":1,"outcome":"-1","keys":[],"total_keys":0,"block":1,"trial":51,"stimulus":7,"robot":4,"valence":"lose","action":"no-go","sham":0,"trial_type":"pit-trial","trial_index":84,"time_elapsed":516113,"internal_node_id":"0.0-58.0","task_version":"battery-v0.2-trt"},{"rune":"K","rune_set":"bacs1","hex":"#3366ff99","correct":-1,"choice":-1,"rt":-1,"accuracy":1,"outcome":"+1","keys":[3679.3000000179745],"total_keys":1,"block":1,"trial":52,"stimulus":5,"robot":2,"valence":"win","action":"no-go","sham":1,"trial_type":"pit-trial","trial_index":85,"time_elapsed":520116,"internal_node_id":"0.0-59.0","task_version":"battery-v0.2-trt"},{"rune":"K","rune_set":"bacs1","hex":"#3366ff99","correct":-1,"choice":32,"rt":375.69000001531094,"accuracy":0,"outcome":"+1","keys":[1876.6700000269338],"total_keys":1,"block":1,"trial":53,"stimulus":5,"robot":2,"valence":"win","action":"no-go","sham":0,"trial_type":"pit-trial","trial_index":86,"time_elapsed":523197,"internal_node_id":"0.0-60.0","task_version":"battery-v0.2-trt"},{"rune":"S","rune_set":"bacs1","hex":"#3366ff99","correct":32,"choice":32,"rt":573.5299999942072,"accuracy":1,"outcome":"+1","keys":[2075.0549999647774],"total_keys":1,"block":1,"trial":54,"stimulus":6,"robot":1,"valence":"win","action":"go","sham":1,"trial_type":"pit-trial","trial_index":87,"time_elapsed":526476,"internal_node_id":"0.0-61.0","task_version":"battery-v0.2-trt"},{"rune":"D","rune_set":"bacs1","hex":"#f73b6a7A","correct":32,"choice":32,"rt":747.5399999530055,"accuracy":1,"outcome":"-10","keys":[2247.579999966547],"total_keys":1,"block":1,"trial":55,"stimulus":4,"robot":3,"valence":"lose","action":"go","sham":1,"trial_type":"pit-trial","trial_index":88,"time_elapsed":529926,"internal_node_id":"0.0-62.0","task_version":"battery-v0.2-trt"},{"rune":"U","rune_set":"bacs1","hex":"#f73b6a7A","correct":-1,"choice":-1,"rt":-1,"accuracy":1,"outcome":"-1","keys":[],"total_keys":0,"block":1,"trial":56,"stimulus":7,"robot":4,"valence":"lose","action":"no-go","sham":0,"trial_type":"pit-trial","trial_index":89,"time_elapsed":533935,"internal_node_id":"0.0-63.0","task_version":"battery-v0.2-trt"},{"rune":"K","rune_set":"bacs1","hex":"#3366ff99","correct":-1,"choice":32,"rt":580.939999956172,"accuracy":0,"outcome":"+1","keys":[2081.044999998994],"total_keys":1,"block":1,"trial":57,"stimulus":5,"robot":2,"valence":"win","action":"no-go","sham":0,"trial_type":"pit-trial","trial_index":90,"time_elapsed":537218,"internal_node_id":"0.0-64.0","task_version":"battery-v0.2-trt"},{"rune":"U","rune_set":"bacs1","hex":"#f73b6a7A","correct":-1,"choice":-1,"rt":-1,"accuracy":1,"outcome":"-1","keys":[],"total_keys":0,"block":1,"trial":58,"stimulus":7,"robot":4,"valence":"lose","action":"no-go","sham":0,"trial_type":"pit-trial","trial_index":91,"time_elapsed":541224,"internal_node_id":"0.0-65.0","task_version":"battery-v0.2-trt"},{"rune":"S","rune_set":"bacs1","hex":"#3366ff99","correct":32,"choice":32,"rt":432.47499997960404,"accuracy":1,"outcome":"+10","keys":[1932.9199999920093],"total_keys":1,"block":1,"trial":59,"stimulus":6,"robot":1,"valence":"win","action":"go","sham":0,"trial_type":"pit-trial","trial_index":92,"time_elapsed":544360,"internal_node_id":"0.0-66.0","task_version":"battery-v0.2-trt"},{"rune":"D","rune_set":"bacs1","hex":"#f73b6a7A","correct":32,"choice":-1,"rt":-1,"accuracy":0,"outcome":"-10","keys":[],"total_keys":0,"block":1,"trial":60,"stimulus":4,"robot":3,"valence":"lose","action":"go","sham":0,"trial_type":"pit-trial","trial_index":93,"time_elapsed":548367,"internal_node_id":"0.0-67.0","task_version":"battery-v0.2-trt"},{"rune":"U","rune_set":"bacs1","hex":"#f73b6a7A","correct":-1,"choice":-1,"rt":-1,"accuracy":1,"outcome":"-1","keys":[],"total_keys":0,"block":1,"trial":61,"stimulus":7,"robot":4,"valence":"lose","action":"no-go","sham":0,"trial_type":"pit-trial","trial_index":94,"time_elapsed":552373,"internal_node_id":"0.0-68.0","task_version":"battery-v0.2-trt"},{"rune":"K","rune_set":"bacs1","hex":"#3366ff99","correct":-1,"choice":-1,"rt":-1,"accuracy":1,"outcome":"+1","keys":[],"total_keys":0,"block":1,"trial":62,"stimulus":5,"robot":2,"valence":"win","action":"no-go","sham":1,"trial_type":"pit-trial","trial_index":95,"time_elapsed":556381,"internal_node_id":"0.0-69.0","task_version":"battery-v0.2-trt"},{"rune":"S","rune_set":"bacs1","hex":"#3366ff99","correct":32,"choice":32,"rt":644.9500000453554,"accuracy":1,"outcome":"+10","keys":[2144.990000000689],"total_keys":1,"block":1,"trial":63,"stimulus":6,"robot":1,"valence":"win","action":"go","sham":0,"trial_type":"pit-trial","trial_index":96,"time_elapsed":559732,"internal_node_id":"0.0-70.0","task_version":"battery-v0.2-trt"},{"rune":"D","rune_set":"bacs1","hex":"#f73b6a7A","correct":32,"choice":-1,"rt":-1,"accuracy":0,"outcome":"-10","keys":[],"total_keys":0,"block":1,"trial":64,"stimulus":4,"robot":3,"valence":"lose","action":"go","sham":0,"trial_type":"pit-trial","trial_index":97,"time_elapsed":563737,"internal_node_id":"0.0-71.0","task_version":"battery-v0.2-trt"},{"rune":"S","rune_set":"bacs1","hex":"#3366ff99","correct":32,"choice":-1,"rt":-1,"accuracy":0,"outcome":"+10","keys":[],"total_keys":0,"block":1,"trial":65,"stimulus":6,"robot":1,"valence":"win","action":"go","sham":1,"trial_type":"pit-trial","trial_index":98,"time_elapsed":567743,"internal_node_id":"0.0-72.0","task_version":"battery-v0.2-trt"},{"rune":"D","rune_set":"bacs1","hex":"#f73b6a7A","correct":32,"choice":-1,"rt":-1,"accuracy":0,"outcome":"-1","keys":[],"total_keys":0,"block":1,"trial":66,"stimulus":4,"robot":3,"valence":"lose","action":"go","sham":1,"trial_type":"pit-trial","trial_index":99,"time_elapsed":571748,"internal_node_id":"0.0-73.0","task_version":"battery-v0.2-trt"},{"rune":"K","rune_set":"bacs1","hex":"#3366ff99","correct":-1,"choice":32,"rt":576.2049999902956,"accuracy":0,"outcome":"+1","keys":[2076.694999996107],"total_keys":1,"block":1,"trial":67,"stimulus":5,"robot":2,"valence":"win","action":"no-go","sham":0,"trial_type":"pit-trial","trial_index":100,"time_elapsed":575027,"internal_node_id":"0.0-74.0","task_version":"battery-v0.2-trt"},{"rune":"U","rune_set":"bacs1","hex":"#f73b6a7A","correct":-1,"choice":-1,"rt":-1,"accuracy":1,"outcome":"-1","keys":[],"total_keys":0,"block":1,"trial":68,"stimulus":7,"robot":4,"valence":"lose","action":"no-go","sham":0,"trial_type":"pit-trial","trial_index":101,"time_elapsed":579032,"internal_node_id":"0.0-75.0","task_version":"battery-v0.2-trt"},{"rune":"D","rune_set":"bacs1","hex":"#f73b6a7A","correct":32,"choice":-1,"rt":-1,"accuracy":0,"outcome":"-1","keys":[],"total_keys":0,"block":1,"trial":69,"stimulus":4,"robot":3,"valence":"lose","action":"go","sham":1,"trial_type":"pit-trial","trial_index":102,"time_elapsed":583042,"internal_node_id":"0.0-76.0","task_version":"battery-v0.2-trt"},{"rune":"U","rune_set":"bacs1","hex":"#f73b6a7A","correct":-1,"choice":-1,"rt":-1,"accuracy":1,"outcome":"-1","keys":[],"total_keys":0,"block":1,"trial":70,"stimulus":7,"robot":4,"valence":"lose","action":"no-go","sham":0,"trial_type":"pit-trial","trial_index":103,"time_elapsed":587045,"internal_node_id":"0.0-77.0","task_version":"battery-v0.2-trt"},{"rune":"S","rune_set":"bacs1","hex":"#3366ff99","correct":32,"choice":32,"rt":408.71000004699454,"accuracy":1,"outcome":"+10","keys":[1910.379999957513],"total_keys":1,"block":1,"trial":71,"stimulus":6,"robot":1,"valence":"win","action":"go","sham":0,"trial_type":"pit-trial","trial_index":104,"time_elapsed":590161,"internal_node_id":"0.0-78.0","task_version":"battery-v0.2-trt"},{"rune":"K","rune_set":"bacs1","hex":"#3366ff99","correct":-1,"choice":-1,"rt":-1,"accuracy":1,"outcome":"+10","keys":[],"total_keys":0,"block":1,"trial":72,"stimulus":5,"robot":2,"valence":"win","action":"no-go","sham":0,"trial_type":"pit-trial","trial_index":105,"time_elapsed":594164,"internal_node_id":"0.0-79.0","task_version":"battery-v0.2-trt"},{"rune":"K","rune_set":"bacs1","hex":"#3366ff99","correct":-1,"choice":-1,"rt":-1,"accuracy":1,"outcome":"+10","keys":[],"total_keys":0,"block":1,"trial":73,"stimulus":5,"robot":2,"valence":"win","action":"no-go","sham":0,"trial_type":"pit-trial","trial_index":106,"time_elapsed":598170,"internal_node_id":"0.0-80.0","task_version":"battery-v0.2-trt"},{"rune":"P","rune_set":"bacs1","hex":"#f73b6a7A","correct":32,"choice":-1,"rt":-1,"accuracy":0,"outcome":"-10","keys":[],"total_keys":0,"block":1,"trial":74,"stimulus":9,"robot":3,"valence":"lose","action":"go","sham":0,"trial_type":"pit-trial","trial_index":107,"time_elapsed":602174,"internal_node_id":"0.0-81.0","task_version":"battery-v0.2-trt"},{"rune":"M","rune_set":"bacs1","hex":"#3366ff99","correct":32,"choice":-1,"rt":-1,"accuracy":0,"outcome":"+1","keys":[3636.225000023842],"total_keys":1,"block":1,"trial":75,"stimulus":8,"robot":1,"valence":"win","action":"go","sham":0,"trial_type":"pit-trial","trial_index":108,"time_elapsed":606181,"internal_node_id":"0.0-82.0","task_version":"battery-v0.2-trt"},{"rune":"U","rune_set":"bacs1","hex":"#f73b6a7A","correct":-1,"choice":-1,"rt":-1,"accuracy":1,"outcome":"-1","keys":[],"total_keys":0,"block":1,"trial":76,"stimulus":7,"robot":4,"valence":"lose","action":"no-go","sham":0,"trial_type":"pit-trial","trial_index":109,"time_elapsed":610189,"internal_node_id":"0.0-83.0","task_version":"battery-v0.2-trt"},{"rune":"K","rune_set":"bacs1","hex":"#3366ff99","correct":-1,"choice":-1,"rt":-1,"accuracy":1,"outcome":"+10","keys":[],"total_keys":0,"block":1,"trial":77,"stimulus":5,"robot":2,"valence":"win","action":"no-go","sham":0,"trial_type":"pit-trial","trial_index":110,"time_elapsed":614191,"internal_node_id":"0.0-84.0","task_version":"battery-v0.2-trt"},{"rune":"U","rune_set":"bacs1","hex":"#f73b6a7A","correct":-1,"choice":-1,"rt":-1,"accuracy":1,"outcome":"-1","keys":[],"total_keys":0,"block":1,"trial":78,"stimulus":7,"robot":4,"valence":"lose","action":"no-go","sham":0,"trial_type":"pit-trial","trial_index":111,"time_elapsed":618193,"internal_node_id":"0.0-85.0","task_version":"battery-v0.2-trt"},{"rune":"M","rune_set":"bacs1","hex":"#3366ff99","correct":32,"choice":32,"rt":748.3050000155345,"accuracy":1,"outcome":"+10","keys":[2251.430000003893],"total_keys":1,"block":1,"trial":79,"stimulus":8,"robot":1,"valence":"win","action":"go","sham":0,"trial_type":"pit-trial","trial_index":112,"time_elapsed":621651,"internal_node_id":"0.0-86.0","task_version":"battery-v0.2-trt"},{"rune":"P","rune_set":"bacs1","hex":"#f73b6a7A","correct":32,"choice":-1,"rt":-1,"accuracy":0,"outcome":"-10","keys":[],"total_keys":0,"block":1,"trial":80,"stimulus":9,"robot":3,"valence":"lose","action":"go","sham":0,"trial_type":"pit-trial","trial_index":113,"time_elapsed":625658,"internal_node_id":"0.0-87.0","task_version":"battery-v0.2-trt"},{"rune":"K","rune_set":"bacs1","hex":"#3366ff99","correct":-1,"choice":-1,"rt":-1,"accuracy":1,"outcome":"+1","keys":[],"total_keys":0,"block":1,"trial":81,"stimulus":5,"robot":2,"valence":"win","action":"no-go","sham":1,"trial_type":"pit-trial","trial_index":114,"time_elapsed":629663,"internal_node_id":"0.0-88.0","task_version":"battery-v0.2-trt"},{"rune":"U","rune_set":"bacs1","hex":"#f73b6a7A","correct":-1,"choice":-1,"rt":-1,"accuracy":1,"outcome":"-1","keys":[],"total_keys":0,"block":1,"trial":82,"stimulus":7,"robot":4,"valence":"lose","action":"no-go","sham":0,"trial_type":"pit-trial","trial_index":115,"time_elapsed":633667,"internal_node_id":"0.0-89.0","task_version":"battery-v0.2-trt"},{"rune":"P","rune_set":"bacs1","hex":"#f73b6a7A","correct":32,"choice":-1,"rt":-1,"accuracy":0,"outcome":"-10","keys":[],"total_keys":0,"block":1,"trial":83,"stimulus":9,"robot":3,"valence":"lose","action":"go","sham":0,"trial_type":"pit-trial","trial_index":116,"time_elapsed":637671,"internal_node_id":"0.0-90.0","task_version":"battery-v0.2-trt"},{"rune":"M","rune_set":"bacs1","hex":"#3366ff99","correct":32,"choice":-1,"rt":-1,"accuracy":0,"outcome":"+1","keys":[],"total_keys":0,"block":1,"trial":84,"stimulus":8,"robot":1,"valence":"win","action":"go","sham":0,"trial_type":"pit-trial","trial_index":117,"time_elapsed":641675,"internal_node_id":"0.0-91.0","task_version":"battery-v0.2-trt"},{"rune":"P","rune_set":"bacs1","hex":"#f73b6a7A","correct":32,"choice":-1,"rt":-1,"accuracy":0,"outcome":"-10","keys":[],"total_keys":0,"block":1,"trial":85,"stimulus":9,"robot":3,"valence":"lose","action":"go","sham":0,"trial_type":"pit-trial","trial_index":118,"time_elapsed":645681,"internal_node_id":"0.0-92.0","task_version":"battery-v0.2-trt"},{"rune":"K","rune_set":"bacs1","hex":"#3366ff99","correct":-1,"choice":-1,"rt":-1,"accuracy":1,"outcome":"+10","keys":[],"total_keys":0,"block":1,"trial":86,"stimulus":5,"robot":2,"valence":"win","action":"no-go","sham":0,"trial_type":"pit-trial","trial_index":119,"time_elapsed":649687,"internal_node_id":"0.0-93.0","task_version":"battery-v0.2-trt"},{"rune":"U","rune_set":"bacs1","hex":"#f73b6a7A","correct":-1,"choice":-1,"rt":-1,"accuracy":1,"outcome":"-1","keys":[],"total_keys":0,"block":1,"trial":87,"stimulus":7,"robot":4,"valence":"lose","action":"no-go","sham":0,"trial_type":"pit-trial","trial_index":120,"time_elapsed":653690,"internal_node_id":"0.0-94.0","task_version":"battery-v0.2-trt"},{"rune":"M","rune_set":"bacs1","hex":"#3366ff99","correct":32,"choice":-1,"rt":-1,"accuracy":0,"outcome":"+1","keys":[],"total_keys":0,"block":1,"trial":88,"stimulus":8,"robot":1,"valence":"win","action":"go","sham":0,"trial_type":"pit-trial","trial_index":121,"time_elapsed":657692,"internal_node_id":"0.0-95.0","task_version":"battery-v0.2-trt"},{"rune":"P","rune_set":"bacs1","hex":"#f73b6a7A","correct":32,"choice":-1,"rt":-1,"accuracy":0,"outcome":"-10","keys":[],"total_keys":0,"block":1,"trial":89,"stimulus":9,"robot":3,"valence":"lose","action":"go","sham":0,"trial_type":"pit-trial","trial_index":122,"time_elapsed":661698,"internal_node_id":"0.0-96.0","task_version":"battery-v0.2-trt"},{"rune":"M","rune_set":"bacs1","hex":"#3366ff99","correct":32,"choice":-1,"rt":-1,"accuracy":0,"outcome":"+10","keys":[],"total_keys":0,"block":1,"trial":90,"stimulus":8,"robot":1,"valence":"win","action":"go","sham":1,"trial_type":"pit-trial","trial_index":123,"time_elapsed":665707,"internal_node_id":"0.0-97.0","task_version":"battery-v0.2-trt"},{"rune":"Y","rune_set":"bacs1","hex":"#3366ff99","correct":-1,"choice":-1,"rt":-1,"accuracy":1,"outcome":"+1","keys":[],"total_keys":0,"block":1,"trial":91,"stimulus":11,"robot":2,"valence":"win","action":"no-go","sham":1,"trial_type":"pit-trial","trial_index":124,"time_elapsed":669708,"internal_node_id":"0.0-98.0","task_version":"battery-v0.2-trt"},{"rune":"H","rune_set":"bacs1","hex":"#f73b6a7A","correct":32,"choice":-1,"rt":-1,"accuracy":0,"outcome":"-1","keys":[],"total_keys":0,"block":1,"trial":92,"stimulus":10,"robot":3,"valence":"lose","action":"go","sham":1,"trial_type":"pit-trial","trial_index":125,"time_elapsed":673716,"internal_node_id":"0.0-99.0","task_version":"battery-v0.2-trt"},{"rune":"H","rune_set":"bacs1","hex":"#f73b6a7A","correct":32,"choice":-1,"rt":-1,"accuracy":0,"outcome":"-10","keys":[],"total_keys":0,"block":1,"trial":93,"stimulus":10,"robot":3,"valence":"lose","action":"go","sham":0,"trial_type":"pit-trial","trial_index":126,"time_elapsed":677722,"internal_node_id":"0.0-100.0","task_version":"battery-v0.2-trt"},{"rune":"P","rune_set":"bacs1","hex":"#f73b6a7A","correct":32,"choice":-1,"rt":-1,"accuracy":0,"outcome":"-10","keys":[],"total_keys":0,"block":1,"trial":94,"stimulus":9,"robot":3,"valence":"lose","action":"go","sham":0,"trial_type":"pit-trial","trial_index":127,"time_elapsed":681723,"internal_node_id":"0.0-101.0","task_version":"battery-v0.2-trt"},{"rune":"M","rune_set":"bacs1","hex":"#3366ff99","correct":32,"choice":-1,"rt":-1,"accuracy":0,"outcome":"+1","keys":[],"total_keys":0,"block":1,"trial":95,"stimulus":8,"robot":1,"valence":"win","action":"go","sham":0,"trial_type":"pit-trial","trial_index":128,"time_elapsed":685730,"internal_node_id":"0.0-102.0","task_version":"battery-v0.2-trt"},{"rune":"Y","rune_set":"bacs1","hex":"#3366ff99","correct":-1,"choice":-1,"rt":-1,"accuracy":1,"outcome":"+10","keys":[],"total_keys":0,"block":1,"trial":96,"stimulus":11,"robot":2,"valence":"win","action":"no-go","sham":0,"trial_type":"pit-trial","trial_index":129,"time_elapsed":689733,"internal_node_id":"0.0-103.0","task_version":"battery-v0.2-trt"},{"rune":"P","rune_set":"bacs1","hex":"#f73b6a7A","correct":32,"choice":-1,"rt":-1,"accuracy":0,"outcome":"-10","keys":[],"total_keys":0,"block":1,"trial":97,"stimulus":9,"robot":3,"valence":"lose","action":"go","sham":0,"trial_type":"pit-trial","trial_index":130,"time_elapsed":693735,"internal_node_id":"0.0-104.0","task_version":"battery-v0.2-trt"},{"rune":"M","rune_set":"bacs1","hex":"#3366ff99","correct":32,"choice":-1,"rt":-1,"accuracy":0,"outcome":"+1","keys":[],"total_keys":0,"block":1,"trial":98,"stimulus":8,"robot":1,"valence":"win","action":"go","sham":0,"trial_type":"pit-trial","trial_index":131,"time_elapsed":697742,"internal_node_id":"0.0-105.0","task_version":"battery-v0.2-trt"},{"rune":"Y","rune_set":"bacs1","hex":"#3366ff99","correct":-1,"choice":-1,"rt":-1,"accuracy":1,"outcome":"+10","keys":[],"total_keys":0,"block":1,"trial":99,"stimulus":11,"robot":2,"valence":"win","action":"no-go","sham":0,"trial_type":"pit-trial","trial_index":132,"time_elapsed":701748,"internal_node_id":"0.0-106.0","task_version":"battery-v0.2-trt"},{"rune":"H","rune_set":"bacs1","hex":"#f73b6a7A","correct":32,"choice":-1,"rt":-1,"accuracy":0,"outcome":"-1","keys":[],"total_keys":0,"block":1,"trial":100,"stimulus":10,"robot":3,"valence":"lose","action":"go","sham":1,"trial_type":"pit-trial","trial_index":133,"time_elapsed":705752,"internal_node_id":"0.0-107.0","task_version":"battery-v0.2-trt"},{"rune":"M","rune_set":"bacs1","hex":"#3366ff99","correct":32,"choice":-1,"rt":-1,"accuracy":0,"outcome":"+1","keys":[],"total_keys":0,"block":1,"trial":101,"stimulus":8,"robot":1,"valence":"win","action":"go","sham":0,"trial_type":"pit-trial","trial_index":134,"time_elapsed":709759,"internal_node_id":"0.0-108.0","task_version":"battery-v0.2-trt"},{"rune":"Y","rune_set":"bacs1","hex":"#3366ff99","correct":-1,"choice":-1,"rt":-1,"accuracy":1,"outcome":"+10","keys":[],"total_keys":0,"block":1,"trial":102,"stimulus":11,"robot":2,"valence":"win","action":"no-go","sham":0,"trial_type":"pit-trial","trial_index":135,"time_elapsed":713766,"internal_node_id":"0.0-109.0","task_version":"battery-v0.2-trt"},{"rune":"H","rune_set":"bacs1","hex":"#f73b6a7A","correct":32,"choice":-1,"rt":-1,"accuracy":0,"outcome":"-10","keys":[],"total_keys":0,"block":1,"trial":103,"stimulus":10,"robot":3,"valence":"lose","action":"go","sham":0,"trial_type":"pit-trial","trial_index":136,"time_elapsed":717776,"internal_node_id":"0.0-110.0","task_version":"battery-v0.2-trt"},{"rune":"P","rune_set":"bacs1","hex":"#f73b6a7A","correct":32,"choice":-1,"rt":-1,"accuracy":0,"outcome":"-10","keys":[],"total_keys":0,"block":1,"trial":104,"stimulus":9,"robot":3,"valence":"lose","action":"go","sham":0,"trial_type":"pit-trial","trial_index":137,"time_elapsed":721783,"internal_node_id":"0.0-111.0","task_version":"battery-v0.2-trt"},{"rune":"Y","rune_set":"bacs1","hex":"#3366ff99","correct":-1,"choice":-1,"rt":-1,"accuracy":1,"outcome":"+10","keys":[],"total_keys":0,"block":1,"trial":105,"stimulus":11,"robot":2,"valence":"win","action":"no-go","sham":0,"trial_type":"pit-trial","trial_index":138,"time_elapsed":725789,"internal_node_id":"0.0-112.0","task_version":"battery-v0.2-trt"},{"rune":"H","rune_set":"bacs1","hex":"#f73b6a7A","correct":32,"choice":-1,"rt":-1,"accuracy":0,"outcome":"-1","keys":[],"total_keys":0,"block":1,"trial":106,"stimulus":10,"robot":3,"valence":"lose","action":"go","sham":1,"trial_type":"pit-trial","trial_index":139,"time_elapsed":729796,"internal_node_id":"0.0-113.0","task_version":"battery-v0.2-trt"},{"rune":"M","rune_set":"bacs1","hex":"#3366ff99","correct":32,"choice":-1,"rt":-1,"accuracy":0,"outcome":"+1","keys":[],"total_keys":0,"block":1,"trial":107,"stimulus":8,"robot":1,"valence":"win","action":"go","sham":0,"trial_type":"pit-trial","trial_index":140,"time_elapsed":733807,"internal_node_id":"0.0-114.0","task_version":"battery-v0.2-trt"},{"rune":"P","rune_set":"bacs1","hex":"#f73b6a7A","correct":32,"choice":-1,"rt":-1,"accuracy":0,"outcome":"-10","keys":[],"total_keys":0,"block":1,"trial":108,"stimulus":9,"robot":3,"valence":"lose","action":"go","sham":0,"trial_type":"pit-trial","trial_index":141,"time_elapsed":737813,"internal_node_id":"0.0-115.0","task_version":"battery-v0.2-trt"},{"rune":"H","rune_set":"bacs1","hex":"#f73b6a7A","correct":32,"choice":-1,"rt":-1,"accuracy":0,"outcome":"-10","keys":[],"total_keys":0,"block":1,"trial":109,"stimulus":10,"robot":3,"valence":"lose","action":"go","sham":0,"trial_type":"pit-trial","trial_index":142,"time_elapsed":741819,"internal_node_id":"0.0-116.0","task_version":"battery-v0.2-trt"},{"rune":"Y","rune_set":"bacs1","hex":"#3366ff99","correct":-1,"choice":-1,"rt":-1,"accuracy":1,"outcome":"+10","keys":[],"total_keys":0,"block":1,"trial":110,"stimulus":11,"robot":2,"valence":"win","action":"no-go","sham":0,"trial_type":"pit-trial","trial_index":143,"time_elapsed":745826,"internal_node_id":"0.0-117.0","task_version":"battery-v0.2-trt"},{"rune":"M","rune_set":"bacs1","hex":"#3366ff99","correct":32,"choice":-1,"rt":-1,"accuracy":0,"outcome":"+1","keys":[],"total_keys":0,"block":1,"trial":111,"stimulus":8,"robot":1,"valence":"win","action":"go","sham":0,"trial_type":"pit-trial","trial_index":144,"time_elapsed":749832,"internal_node_id":"0.0-118.0","task_version":"battery-v0.2-trt"},{"rune":"P","rune_set":"bacs1","hex":"#f73b6a7A","correct":32,"choice":-1,"rt":-1,"accuracy":0,"outcome":"-10","keys":[],"total_keys":0,"block":1,"trial":112,"stimulus":9,"robot":3,"valence":"lose","action":"go","sham":0,"trial_type":"pit-trial","trial_index":145,"time_elapsed":753835,"internal_node_id":"0.0-119.0","task_version":"battery-v0.2-trt"},{"rune":"M","rune_set":"bacs1","hex":"#3366ff99","correct":32,"choice":-1,"rt":-1,"accuracy":0,"outcome":"+1","keys":[],"total_keys":0,"block":1,"trial":113,"stimulus":8,"robot":1,"valence":"win","action":"go","sham":0,"trial_type":"pit-trial","trial_index":146,"time_elapsed":757842,"internal_node_id":"0.0-120.0","task_version":"battery-v0.2-trt"},{"rune":"Y","rune_set":"bacs1","hex":"#3366ff99","correct":-1,"choice":-1,"rt":-1,"accuracy":1,"outcome":"+10","keys":[],"total_keys":0,"block":1,"trial":114,"stimulus":11,"robot":2,"valence":"win","action":"no-go","sham":0,"trial_type":"pit-trial","trial_index":147,"time_elapsed":761847,"internal_node_id":"0.0-121.0","task_version":"battery-v0.2-trt"},{"rune":"H","rune_set":"bacs1","hex":"#f73b6a7A","correct":32,"choice":-1,"rt":-1,"accuracy":0,"outcome":"-10","keys":[],"total_keys":0,"block":1,"trial":115,"stimulus":10,"robot":3,"valence":"lose","action":"go","sham":0,"trial_type":"pit-trial","trial_index":148,"time_elapsed":765854,"internal_node_id":"0.0-122.0","task_version":"battery-v0.2-trt"},{"rune":"P","rune_set":"bacs1","hex":"#f73b6a7A","correct":32,"choice":-1,"rt":-1,"accuracy":0,"outcome":"-1","keys":[],"total_keys":0,"block":1,"trial":116,"stimulus":9,"robot":3,"valence":"lose","action":"go","sham":1,"trial_type":"pit-trial","trial_index":149,"time_elapsed":769856,"internal_node_id":"0.0-123.0","task_version":"battery-v0.2-trt"},{"rune":"H","rune_set":"bacs1","hex":"#f73b6a7A","correct":32,"choice":-1,"rt":-1,"accuracy":0,"outcome":"-1","keys":[],"total_keys":0,"block":1,"trial":117,"stimulus":10,"robot":3,"valence":"lose","action":"go","sham":1,"trial_type":"pit-trial","trial_index":150,"time_elapsed":773866,"internal_node_id":"0.0-124.0","task_version":"battery-v0.2-trt"},{"rune":"M","rune_set":"bacs1","hex":"#3366ff99","correct":32,"choice":-1,"rt":-1,"accuracy":0,"outcome":"+10","keys":[],"total_keys":0,"block":1,"trial":118,"stimulus":8,"robot":1,"valence":"win","action":"go","sham":1,"trial_type":"pit-trial","trial_index":151,"time_elapsed":777872,"internal_node_id":"0.0-125.0","task_version":"battery-v0.2-trt"},{"rune":"Y","rune_set":"bacs1","hex":"#3366ff99","correct":-1,"choice":-1,"rt":-1,"accuracy":1,"outcome":"+10","keys":[],"total_keys":0,"block":1,"trial":119,"stimulus":11,"robot":2,"valence":"win","action":"no-go","sham":0,"trial_type":"pit-trial","trial_index":152,"time_elapsed":781878,"internal_node_id":"0.0-126.0","task_version":"battery-v0.2-trt"},{"rune":"P","rune_set":"bacs1","hex":"#f73b6a7A","correct":32,"choice":-1,"rt":-1,"accuracy":0,"outcome":"-10","keys":[],"total_keys":0,"block":1,"trial":120,"stimulus":9,"robot":3,"valence":"lose","action":"go","sham":0,"trial_type":"pit-trial","trial_index":153,"time_elapsed":785885,"internal_node_id":"0.0-127.0","task_version":"battery-v0.2-trt"},{"view_history":"[{\"page_index\":0,\"viewing_time\":69345.6100000185},{\"page_index\":1,\"viewing_time\":4543.059999996331}]","rt":73888.9799999888,"trial_type":"pit-instructions","trial_index":154,"time_elapsed":859777,"internal_node_id":"0.0-128.0","task_version":"battery-v0.2-trt"},{"rune":"Q","rune_set":"bacs1","hex":"#3366ff99","correct":-1,"choice":-1,"rt":-1,"accuracy":1,"outcome":"+1","keys":[],"total_keys":0,"block":2,"trial":121,"stimulus":0,"robot":2,"valence":"win","action":"no-go","sham":1,"trial_type":"pit-trial","trial_index":155,"time_elapsed":863782,"internal_node_id":"0.0-129.0","task_version":"battery-v0.2-trt"},{"rune":"C","rune_set":"bacs1","hex":"#f73b6a7A","correct":-1,"choice":-1,"rt":-1,"accuracy":1,"outcome":"-1","keys":[],"total_keys":0,"block":2,"trial":122,"stimulus":2,"robot":4,"valence":"lose","action":"no-go","sham":0,"trial_type":"pit-trial","trial_index":156,"time_elapsed":867789,"internal_node_id":"0.0-130.0","task_version":"battery-v0.2-trt"},{"rune":"L","rune_set":"bacs1","hex":"#3366ff99","correct":32,"choice":32,"rt":691.2750000483356,"accuracy":1,"outcome":"+10","keys":[2191.3449999992736],"total_keys":1,"block":2,"trial":123,"stimulus":1,"robot":1,"valence":"win","action":"go","sham":0,"trial_type":"pit-trial","trial_index":157,"time_elapsed":871183,"internal_node_id":"0.0-131.0","task_version":"battery-v0.2-trt"},{"rune":"A","rune_set":"bacs1","hex":"#3366ff99","correct":32,"choice":-1,"rt":-1,"accuracy":0,"outcome":"+1","keys":[],"total_keys":0,"block":2,"trial":124,"stimulus":3,"robot":1,"valence":"win","action":"go","sham":0,"trial_type":"pit-trial","trial_index":158,"time_elapsed":875189,"internal_node_id":"0.0-132.0","task_version":"battery-v0.2-trt"},{"rune":"A","rune_set":"bacs1","hex":"#3366ff99","correct":32,"choice":-1,"rt":-1,"accuracy":0,"outcome":"+1","keys":[2849.80500000529],"total_keys":1,"block":2,"trial":125,"stimulus":3,"robot":1,"valence":"win","action":"go","sham":0,"trial_type":"pit-trial","trial_index":159,"time_elapsed":879195,"internal_node_id":"0.0-133.0","task_version":"battery-v0.2-trt"},{"rune":"C","rune_set":"bacs1","hex":"#f73b6a7A","correct":-1,"choice":-1,"rt":-1,"accuracy":1,"outcome":"-1","keys":[],"total_keys":0,"block":2,"trial":126,"stimulus":2,"robot":4,"valence":"lose","action":"no-go","sham":0,"trial_type":"pit-trial","trial_index":160,"time_elapsed":883197,"internal_node_id":"0.0-134.0","task_version":"battery-v0.2-trt"},{"rune":"L","rune_set":"bacs1","hex":"#3366ff99","correct":32,"choice":32,"rt":459.4749999814667,"accuracy":1,"outcome":"+10","keys":[1959.8600000026636],"total_keys":1,"block":2,"trial":127,"stimulus":1,"robot":1,"valence":"win","action":"go","sham":0,"trial_type":"pit-trial","trial_index":161,"time_elapsed":886361,"internal_node_id":"0.0-135.0","task_version":"battery-v0.2-trt"},{"rune":"Q","rune_set":"bacs1","hex":"#3366ff99","correct":-1,"choice":32,"rt":485.67999998340383,"accuracy":0,"outcome":"+10","keys":[1985.7549999724142],"total_keys":1,"block":2,"trial":128,"stimulus":0,"robot":2,"valence":"win","action":"no-go","sham":1,"trial_type":"pit-trial","trial_index":162,"time_elapsed":889550,"internal_node_id":"0.0-136.0","task_version":"battery-v0.2-trt"},{"rune":"L","rune_set":"bacs1","hex":"#3366ff99","correct":32,"choice":32,"rt":596.9800000311807,"accuracy":1,"outcome":"+10","keys":[2097.040000022389],"total_keys":1,"block":2,"trial":129,"stimulus":1,"robot":1,"valence":"win","action":"go","sham":0,"trial_type":"pit-trial","trial_index":163,"time_elapsed":892852,"internal_node_id":"0.0-137.0","task_version":"battery-v0.2-trt"},{"rune":"A","rune_set":"bacs1","hex":"#3366ff99","correct":32,"choice":-1,"rt":-1,"accuracy":0,"outcome":"+1","keys":[],"total_keys":0,"block":2,"trial":130,"stimulus":3,"robot":1,"valence":"win","action":"go","sham":0,"trial_type":"pit-trial","trial_index":164,"time_elapsed":896855,"internal_node_id":"0.0-138.0","task_version":"battery-v0.2-trt"},{"rune":"Q","rune_set":"bacs1","hex":"#3366ff99","correct":-1,"choice":32,"rt":496.599999954924,"accuracy":0,"outcome":"+1","keys":[1999.0950000355951],"total_keys":1,"block":2,"trial":131,"stimulus":0,"robot":2,"valence":"win","action":"no-go","sham":0,"trial_type":"pit-trial","trial_index":165,"time_elapsed":900059,"internal_node_id":"0.0-139.0","task_version":"battery-v0.2-trt"},{"rune":"C","rune_set":"bacs1","hex":"#f73b6a7A","correct":-1,"choice":-1,"rt":-1,"accuracy":1,"outcome":"-1","keys":[],"total_keys":0,"block":2,"trial":132,"stimulus":2,"robot":4,"valence":"lose","action":"no-go","sham":0,"trial_type":"pit-trial","trial_index":166,"time_elapsed":904070,"internal_node_id":"0.0-140.0","task_version":"battery-v0.2-trt"},{"rune":"L","rune_set":"bacs1","hex":"#3366ff99","correct":32,"choice":32,"rt":961.3099999842234,"accuracy":1,"outcome":"+10","keys":[2463.049999962095],"total_keys":1,"block":2,"trial":133,"stimulus":1,"robot":1,"valence":"win","action":"go","sham":0,"trial_type":"pit-trial","trial_index":167,"time_elapsed":907735,"internal_node_id":"0.0-141.0","task_version":"battery-v0.2-trt"},{"rune":"C","rune_set":"bacs1","hex":"#f73b6a7A","correct":-1,"choice":-1,"rt":-1,"accuracy":1,"outcome":"-1","keys":[],"total_keys":0,"block":2,"trial":134,"stimulus":2,"robot":4,"valence":"lose","action":"no-go","sham":0,"trial_type":"pit-trial","trial_index":168,"time_elapsed":911744,"internal_node_id":"0.0-142.0","task_version":"battery-v0.2-trt"},{"rune":"A","rune_set":"bacs1","hex":"#3366ff99","correct":32,"choice":-1,"rt":-1,"accuracy":0,"outcome":"+10","keys":[],"total_keys":0,"block":2,"trial":135,"stimulus":3,"robot":1,"valence":"win","action":"go","sham":1,"trial_type":"pit-trial","trial_index":169,"time_elapsed":915749,"internal_node_id":"0.0-143.0","task_version":"battery-v0.2-trt"},{"rune":"Q","rune_set":"bacs1","hex":"#3366ff99","correct":-1,"choice":32,"rt":456.13000000594184,"accuracy":0,"outcome":"+10","keys":[1956.2400000286289],"total_keys":1,"block":2,"trial":136,"stimulus":0,"robot":2,"valence":"win","action":"no-go","sham":1,"trial_type":"pit-trial","trial_index":170,"time_elapsed":918909,"internal_node_id":"0.0-144.0","task_version":"battery-v0.2-trt"},{"rune":"C","rune_set":"bacs1","hex":"#f73b6a7A","correct":-1,"choice":-1,"rt":-1,"accuracy":1,"outcome":"-10","keys":[],"total_keys":0,"block":2,"trial":137,"stimulus":2,"robot":4,"valence":"lose","action":"no-go","sham":1,"trial_type":"pit-trial","trial_index":171,"time_elapsed":922916,"internal_node_id":"0.0-145.0","task_version":"battery-v0.2-trt"},{"rune":"A","rune_set":"bacs1","hex":"#3366ff99","correct":32,"choice":-1,"rt":-1,"accuracy":0,"outcome":"+1","keys":[],"total_keys":0,"block":2,"trial":138,"stimulus":3,"robot":1,"valence":"win","action":"go","sham":0,"trial_type":"pit-trial","trial_index":172,"time_elapsed":926924,"internal_node_id":"0.0-146.0","task_version":"battery-v0.2-trt"},{"rune":"L","rune_set":"bacs1","hex":"#3366ff99","correct":32,"choice":32,"rt":493.6299999826588,"accuracy":1,"outcome":"+10","keys":[1995.1550000114366],"total_keys":1,"block":2,"trial":139,"stimulus":1,"robot":1,"valence":"win","action":"go","sham":0,"trial_type":"pit-trial","trial_index":173,"time_elapsed":930122,"internal_node_id":"0.0-147.0","task_version":"battery-v0.2-trt"},{"rune":"Q","rune_set":"bacs1","hex":"#3366ff99","correct":-1,"choice":32,"rt":388.9099999796599,"accuracy":0,"outcome":"+1","keys":[1890.9650000277907],"total_keys":1,"block":2,"trial":140,"stimulus":0,"robot":2,"valence":"win","action":"no-go","sham":0,"trial_type":"pit-trial","trial_index":174,"time_elapsed":933216,"internal_node_id":"0.0-148.0","task_version":"battery-v0.2-trt"},{"rune":"A","rune_set":"bacs1","hex":"#3366ff99","correct":32,"choice":-1,"rt":-1,"accuracy":0,"outcome":"+10","keys":[],"total_keys":0,"block":2,"trial":141,"stimulus":3,"robot":1,"valence":"win","action":"go","sham":1,"trial_type":"pit-trial","trial_index":175,"time_elapsed":937223,"internal_node_id":"0.0-149.0","task_version":"battery-v0.2-trt"},{"rune":"Q","rune_set":"bacs1","hex":"#3366ff99","correct":-1,"choice":32,"rt":540.2499999618158,"accuracy":0,"outcome":"+10","keys":[2043.0499999783933],"total_keys":1,"block":2,"trial":142,"stimulus":0,"robot":2,"valence":"win","action":"no-go","sham":1,"trial_type":"pit-trial","trial_index":176,"time_elapsed":940471,"internal_node_id":"0.0-150.0","task_version":"battery-v0.2-trt"},{"rune":"L","rune_set":"bacs1","hex":"#3366ff99","correct":32,"choice":32,"rt":312.4299999908544,"accuracy":1,"outcome":"+10","keys":[1812.709999969229],"total_keys":1,"block":2,"trial":143,"stimulus":1,"robot":1,"valence":"win","action":"go","sham":0,"trial_type":"pit-trial","trial_index":177,"time_elapsed":943489,"internal_node_id":"0.0-151.0","task_version":"battery-v0.2-trt"},{"rune":"C","rune_set":"bacs1","hex":"#f73b6a7A","correct":-1,"choice":-1,"rt":-1,"accuracy":1,"outcome":"-1","keys":[],"total_keys":0,"block":2,"trial":144,"stimulus":2,"robot":4,"valence":"lose","action":"no-go","sham":0,"trial_type":"pit-trial","trial_index":178,"time_elapsed":947496,"internal_node_id":"0.0-152.0","task_version":"battery-v0.2-trt"},{"rune":"Q","rune_set":"bacs1","hex":"#3366ff99","correct":-1,"choice":32,"rt":671.825000026729,"accuracy":0,"outcome":"+10","keys":[2172.309999994468],"total_keys":1,"block":2,"trial":145,"stimulus":0,"robot":2,"valence":"win","action":"no-go","sham":1,"trial_type":"pit-trial","trial_index":179,"time_elapsed":950872,"internal_node_id":"0.0-153.0","task_version":"battery-v0.2-trt"},{"rune":"A","rune_set":"bacs1","hex":"#3366ff99","correct":32,"choice":-1,"rt":-1,"accuracy":0,"outcome":"+1","keys":[],"total_keys":0,"block":2,"trial":146,"stimulus":3,"robot":1,"valence":"win","action":"go","sham":0,"trial_type":"pit-trial","trial_index":180,"time_elapsed":954878,"internal_node_id":"0.0-154.0","task_version":"battery-v0.2-trt"},{"rune":"L","rune_set":"bacs1","hex":"#3366ff99","correct":32,"choice":32,"rt":441.34000001940876,"accuracy":1,"outcome":"+1","keys":[1941.3899999926798],"total_keys":1,"block":2,"trial":147,"stimulus":1,"robot":1,"valence":"win","action":"go","sham":1,"trial_type":"pit-trial","trial_index":181,"time_elapsed":958024,"internal_node_id":"0.0-155.0","task_version":"battery-v0.2-trt"},{"rune":"C","rune_set":"bacs1","hex":"#f73b6a7A","correct":-1,"choice":-1,"rt":-1,"accuracy":1,"outcome":"-1","keys":[],"total_keys":0,"block":2,"trial":148,"stimulus":2,"robot":4,"valence":"lose","action":"no-go","sham":0,"trial_type":"pit-trial","trial_index":182,"time_elapsed":962027,"internal_node_id":"0.0-156.0","task_version":"battery-v0.2-trt"},{"rune":"Q","rune_set":"bacs1","hex":"#3366ff99","correct":-1,"choice":32,"rt":374.24999999348074,"accuracy":0,"outcome":"+1","keys":[1874.744999979157],"total_keys":1,"block":2,"trial":149,"stimulus":0,"robot":2,"valence":"win","action":"no-go","sham":0,"trial_type":"pit-trial","trial_index":183,"time_elapsed":965108,"internal_node_id":"0.0-157.0","task_version":"battery-v0.2-trt"},{"rune":"L","rune_set":"bacs1","hex":"#3366ff99","correct":32,"choice":32,"rt":415.4199999757111,"accuracy":1,"outcome":"+10","keys":[1916.01000004448],"total_keys":1,"block":2,"trial":150,"stimulus":1,"robot":1,"valence":"win","action":"go","sham":0,"trial_type":"pit-trial","trial_index":184,"time_elapsed":968226,"internal_node_id":"0.0-158.0","task_version":"battery-v0.2-trt"},{"rune":"A","rune_set":"bacs1","hex":"#3366ff99","correct":32,"choice":-1,"rt":-1,"accuracy":0,"outcome":"+1","keys":[],"total_keys":0,"block":2,"trial":151,"stimulus":3,"robot":1,"valence":"win","action":"go","sham":0,"trial_type":"pit-trial","trial_index":185,"time_elapsed":972230,"internal_node_id":"0.0-159.0","task_version":"battery-v0.2-trt"},{"rune":"C","rune_set":"bacs1","hex":"#f73b6a7A","correct":-1,"choice":-1,"rt":-1,"accuracy":1,"outcome":"-1","keys":[],"total_keys":0,"block":2,"trial":152,"stimulus":2,"robot":4,"valence":"lose","action":"no-go","sham":0,"trial_type":"pit-trial","trial_index":186,"time_elapsed":976236,"internal_node_id":"0.0-160.0","task_version":"battery-v0.2-trt"},{"rune":"Q","rune_set":"bacs1","hex":"#3366ff99","correct":-1,"choice":32,"rt":670.8349999971688,"accuracy":0,"outcome":"+1","keys":[2173.49999997532],"total_keys":1,"block":2,"trial":153,"stimulus":0,"robot":2,"valence":"win","action":"no-go","sham":0,"trial_type":"pit-trial","trial_index":187,"time_elapsed":979612,"internal_node_id":"0.0-161.0","task_version":"battery-v0.2-trt"},{"rune":"A","rune_set":"bacs1","hex":"#3366ff99","correct":32,"choice":-1,"rt":-1,"accuracy":0,"outcome":"+10","keys":[],"total_keys":0,"block":2,"trial":154,"stimulus":3,"robot":1,"valence":"win","action":"go","sham":1,"trial_type":"pit-trial","trial_index":188,"time_elapsed":983617,"internal_node_id":"0.0-162.0","task_version":"battery-v0.2-trt"},{"rune":"F","rune_set":"bacs1","hex":"#3366ff99","correct":32,"choice":32,"rt":1172.6050000288524,"accuracy":1,"outcome":"+10","keys":[2673.3600000152364,3028.1100000138395],"total_keys":2,"block":2,"trial":155,"stimulus":4,"robot":1,"valence":"win","action":"go","sham":0,"trial_type":"pit-trial","trial_index":189,"time_elapsed":987494,"internal_node_id":"0.0-163.0","task_version":"battery-v0.2-trt"},{"rune":"C","rune_set":"bacs1","hex":"#f73b6a7A","correct":-1,"choice":-1,"rt":-1,"accuracy":1,"outcome":"-1","keys":[],"total_keys":0,"block":2,"trial":156,"stimulus":2,"robot":4,"valence":"lose","action":"no-go","sham":0,"trial_type":"pit-trial","trial_index":190,"time_elapsed":991499,"internal_node_id":"0.0-164.0","task_version":"battery-v0.2-trt"},{"rune":"Q","rune_set":"bacs1","hex":"#3366ff99","correct":-1,"choice":32,"rt":519.4150000461377,"accuracy":0,"outcome":"+1","keys":[2019.7100000223145],"total_keys":1,"block":2,"trial":157,"stimulus":0,"robot":2,"valence":"win","action":"no-go","sham":0,"trial_type":"pit-trial","trial_index":191,"time_elapsed":994720,"internal_node_id":"0.0-165.0","task_version":"battery-v0.2-trt"},{"rune":"F","rune_set":"bacs1","hex":"#3366ff99","correct":32,"choice":-1,"rt":-1,"accuracy":0,"outcome":"+1","keys":[],"total_keys":0,"block":2,"trial":158,"stimulus":4,"robot":1,"valence":"win","action":"go","sham":0,"trial_type":"pit-trial","trial_index":192,"time_elapsed":998730,"internal_node_id":"0.0-166.0","task_version":"battery-v0.2-trt"},{"rune":"A","rune_set":"bacs1","hex":"#3366ff99","correct":32,"choice":32,"rt":931.4049999811687,"accuracy":1,"outcome":"+1","keys":[456.4350000000559,2432.115000032354],"total_keys":2,"block":2,"trial":159,"stimulus":3,"robot":1,"valence":"win","action":"go","sham":1,"trial_type":"pit-trial","trial_index":193,"time_elapsed":1002367,"internal_node_id":"0.0-167.0","task_version":"battery-v0.2-trt"},{"rune":"C","rune_set":"bacs1","hex":"#f73b6a7A","correct":-1,"choice":-1,"rt":-1,"accuracy":1,"outcome":"-1","keys":[],"total_keys":0,"block":2,"trial":160,"stimulus":2,"robot":4,"valence":"lose","action":"no-go","sham":0,"trial_type":"pit-trial","trial_index":194,"time_elapsed":1006371,"internal_node_id":"0.0-168.0","task_version":"battery-v0.2-trt"},{"rune":"T","rune_set":"bacs1","hex":"#f73b6a7A","correct":32,"choice":-1,"rt":-1,"accuracy":0,"outcome":"-10","keys":[3515.895000018645],"total_keys":1,"block":2,"trial":161,"stimulus":5,"robot":3,"valence":"lose","action":"go","sham":0,"trial_type":"pit-trial","trial_index":195,"time_elapsed":1010377,"internal_node_id":"0.0-169.0","task_version":"battery-v0.2-trt"},{"rune":"F","rune_set":"bacs1","hex":"#3366ff99","correct":32,"choice":32,"rt":920.2499999664724,"accuracy":1,"outcome":"+10","keys":[2420.734999992419],"total_keys":1,"block":2,"trial":162,"stimulus":4,"robot":1,"valence":"win","action":"go","sham":0,"trial_type":"pit-trial","trial_index":196,"time_elapsed":1014002,"internal_node_id":"0.0-170.0","task_version":"battery-v0.2-trt"},{"rune":"Q","rune_set":"bacs1","hex":"#3366ff99","correct":-1,"choice":32,"rt":898.8549999776296,"accuracy":0,"outcome":"+1","keys":[2399.8999999603257],"total_keys":1,"block":2,"trial":163,"stimulus":0,"robot":2,"valence":"win","action":"no-go","sham":0,"trial_type":"pit-trial","trial_index":197,"time_elapsed":1017603,"internal_node_id":"0.0-171.0","task_version":"battery-v0.2-trt"},{"rune":"E","rune_set":"bacs1","hex":"#f73b6a7A","correct":-1,"choice":-1,"rt":-1,"accuracy":1,"outcome":"-10","keys":[],"total_keys":0,"block":2,"trial":164,"stimulus":6,"robot":4,"valence":"lose","action":"no-go","sham":1,"trial_type":"pit-trial","trial_index":198,"time_elapsed":1021612,"internal_node_id":"0.0-172.0","task_version":"battery-v0.2-trt"},{"rune":"T","rune_set":"bacs1","hex":"#f73b6a7A","correct":32,"choice":32,"rt":510.6099999975413,"accuracy":1,"outcome":"-1","keys":[2011.2599999993108],"total_keys":1,"block":2,"trial":165,"stimulus":5,"robot":3,"valence":"lose","action":"go","sham":0,"trial_type":"pit-trial","trial_index":199,"time_elapsed":1024828,"internal_node_id":"0.0-173.0","task_version":"battery-v0.2-trt"},{"rune":"Q","rune_set":"bacs1","hex":"#3366ff99","correct":-1,"choice":-1,"rt":-1,"accuracy":1,"outcome":"+10","keys":[],"total_keys":0,"block":2,"trial":166,"stimulus":0,"robot":2,"valence":"win","action":"no-go","sham":0,"trial_type":"pit-trial","trial_index":200,"time_elapsed":1028835,"internal_node_id":"0.0-174.0","task_version":"battery-v0.2-trt"},{"rune":"F","rune_set":"bacs1","hex":"#3366ff99","correct":32,"choice":32,"rt":611.6699999547563,"accuracy":1,"outcome":"+1","keys":[2111.7599999997765],"total_keys":1,"block":2,"trial":167,"stimulus":4,"robot":1,"valence":"win","action":"go","sham":1,"trial_type":"pit-trial","trial_index":201,"time_elapsed":1032150,"internal_node_id":"0.0-175.0","task_version":"battery-v0.2-trt"},{"rune":"E","rune_set":"bacs1","hex":"#f73b6a7A","correct":-1,"choice":32,"rt":772.739999985788,"accuracy":0,"outcome":"-1","keys":[2273.8749999552965],"total_keys":1,"block":2,"trial":168,"stimulus":6,"robot":4,"valence":"lose","action":"no-go","sham":1,"trial_type":"pit-trial","trial_index":202,"time_elapsed":1035629,"internal_node_id":"0.0-176.0","task_version":"battery-v0.2-trt"},{"rune":"E","rune_set":"bacs1","hex":"#f73b6a7A","correct":-1,"choice":32,"rt":457.78999995673075,"accuracy":0,"outcome":"-10","keys":[1957.845000026282],"total_keys":1,"block":2,"trial":169,"stimulus":6,"robot":4,"valence":"lose","action":"no-go","sham":0,"trial_type":"pit-trial","trial_index":203,"time_elapsed":1038791,"internal_node_id":"0.0-177.0","task_version":"battery-v0.2-trt"},{"rune":"F","rune_set":"bacs1","hex":"#3366ff99","correct":32,"choice":32,"rt":898.2200000318699,"accuracy":1,"outcome":"+1","keys":[2398.3350000344217,2713.8600000180304,3499.7350000194274],"total_keys":3,"block":2,"trial":170,"stimulus":4,"robot":1,"valence":"win","action":"go","sham":1,"trial_type":"pit-trial","trial_index":204,"time_elapsed":1042394,"internal_node_id":"0.0-178.0","task_version":"battery-v0.2-trt"},{"rune":"T","rune_set":"bacs1","hex":"#f73b6a7A","correct":32,"choice":32,"rt":517.359999998007,"accuracy":1,"outcome":"-1","keys":[2017.4000000115484],"total_keys":1,"block":2,"trial":171,"stimulus":5,"robot":3,"valence":"lose","action":"go","sham":0,"trial_type":"pit-trial","trial_index":205,"time_elapsed":1045616,"internal_node_id":"0.0-179.0","task_version":"battery-v0.2-trt"},{"rune":"V","rune_set":"bacs1","hex":"#3366ff99","correct":-1,"choice":-1,"rt":-1,"accuracy":1,"outcome":"+10","keys":[],"total_keys":0,"block":2,"trial":172,"stimulus":7,"robot":2,"valence":"win","action":"no-go","sham":0,"trial_type":"pit-trial","trial_index":206,"time_elapsed":1049623,"internal_node_id":"0.0-180.0","task_version":"battery-v0.2-trt"},{"rune":"F","rune_set":"bacs1","hex":"#3366ff99","correct":32,"choice":-1,"rt":-1,"accuracy":0,"outcome":"+1","keys":[3552.7349999756552],"total_keys":1,"block":2,"trial":173,"stimulus":4,"robot":1,"valence":"win","action":"go","sham":0,"trial_type":"pit-trial","trial_index":207,"time_elapsed":1053630,"internal_node_id":"0.0-181.0","task_version":"battery-v0.2-trt"},{"rune":"V","rune_set":"bacs1","hex":"#3366ff99","correct":-1,"choice":-1,"rt":-1,"accuracy":1,"outcome":"+10","keys":[],"total_keys":0,"block":2,"trial":174,"stimulus":7,"robot":2,"valence":"win","action":"no-go","sham":0,"trial_type":"pit-trial","trial_index":208,"time_elapsed":1057635,"internal_node_id":"0.0-182.0","task_version":"battery-v0.2-trt"},{"rune":"T","rune_set":"bacs1","hex":"#f73b6a7A","correct":32,"choice":32,"rt":581.1099999700673,"accuracy":1,"outcome":"-1","keys":[2082.079999963753],"total_keys":1,"block":2,"trial":175,"stimulus":5,"robot":3,"valence":"lose","action":"go","sham":0,"trial_type":"pit-trial","trial_index":209,"time_elapsed":1060920,"internal_node_id":"0.0-183.0","task_version":"battery-v0.2-trt"},{"rune":"E","rune_set":"bacs1","hex":"#f73b6a7A","correct":-1,"choice":32,"rt":824.3550000479445,"accuracy":0,"outcome":"-10","keys":[2324.640000006184],"total_keys":1,"block":2,"trial":176,"stimulus":6,"robot":4,"valence":"lose","action":"no-go","sham":0,"trial_type":"pit-trial","trial_index":210,"time_elapsed":1064450,"internal_node_id":"0.0-184.0","task_version":"battery-v0.2-trt"},{"rune":"F","rune_set":"bacs1","hex":"#3366ff99","correct":32,"choice":32,"rt":717.1400000224821,"accuracy":1,"outcome":"+10","keys":[2218.2649999740534],"total_keys":1,"block":2,"trial":177,"stimulus":4,"robot":1,"valence":"win","action":"go","sham":0,"trial_type":"pit-trial","trial_index":211,"time_elapsed":1067870,"internal_node_id":"0.0-185.0","task_version":"battery-v0.2-trt"},{"rune":"T","rune_set":"bacs1","hex":"#f73b6a7A","correct":32,"choice":32,"rt":482.55999997491017,"accuracy":1,"outcome":"-1","keys":[1982.8050000360236],"total_keys":1,"block":2,"trial":178,"stimulus":5,"robot":3,"valence":"lose","action":"go","sham":0,"trial_type":"pit-trial","trial_index":212,"time_elapsed":1071059,"internal_node_id":"0.0-186.0","task_version":"battery-v0.2-trt"},{"rune":"E","rune_set":"bacs1","hex":"#f73b6a7A","correct":-1,"choice":-1,"rt":-1,"accuracy":1,"outcome":"-10","keys":[3405.8749999967404],"total_keys":1,"block":2,"trial":179,"stimulus":6,"robot":4,"valence":"lose","action":"no-go","sham":1,"trial_type":"pit-trial","trial_index":213,"time_elapsed":1075067,"internal_node_id":"0.0-187.0","task_version":"battery-v0.2-trt"},{"rune":"V","rune_set":"bacs1","hex":"#3366ff99","correct":-1,"choice":-1,"rt":-1,"accuracy":1,"outcome":"+10","keys":[],"total_keys":0,"block":2,"trial":180,"stimulus":7,"robot":2,"valence":"win","action":"no-go","sham":0,"trial_type":"pit-trial","trial_index":214,"time_elapsed":1079074,"internal_node_id":"0.0-188.0","task_version":"battery-v0.2-trt"},{"rune":"V","rune_set":"bacs1","hex":"#3366ff99","correct":-1,"choice":-1,"rt":-1,"accuracy":1,"outcome":"+10","keys":[],"total_keys":0,"block":2,"trial":181,"stimulus":7,"robot":2,"valence":"win","action":"no-go","sham":0,"trial_type":"pit-trial","trial_index":215,"time_elapsed":1083083,"internal_node_id":"0.0-189.0","task_version":"battery-v0.2-trt"},{"rune":"E","rune_set":"bacs1","hex":"#f73b6a7A","correct":-1,"choice":32,"rt":1149.924999976065,"accuracy":0,"outcome":"-10","keys":[2650.2150000305846],"total_keys":1,"block":2,"trial":182,"stimulus":6,"robot":4,"valence":"lose","action":"no-go","sham":0,"trial_type":"pit-trial","trial_index":216,"time_elapsed":1086939,"internal_node_id":"0.0-190.0","task_version":"battery-v0.2-trt"},{"rune":"F","rune_set":"bacs1","hex":"#3366ff99","correct":32,"choice":-1,"rt":-1,"accuracy":0,"outcome":"+10","keys":[],"total_keys":0,"block":2,"trial":183,"stimulus":4,"robot":1,"valence":"win","action":"go","sham":1,"trial_type":"pit-trial","trial_index":217,"time_elapsed":1090946,"internal_node_id":"0.0-191.0","task_version":"battery-v0.2-trt"},{"rune":"T","rune_set":"bacs1","hex":"#f73b6a7A","correct":32,"choice":32,"rt":487.3950000037439,"accuracy":1,"outcome":"-1","keys":[1987.4349999590777],"total_keys":1,"block":2,"trial":184,"stimulus":5,"robot":3,"valence":"lose","action":"go","sham":0,"trial_type":"pit-trial","trial_index":218,"time_elapsed":1094137,"internal_node_id":"0.0-192.0","task_version":"battery-v0.2-trt"},{"rune":"T","rune_set":"bacs1","hex":"#f73b6a7A","correct":32,"choice":32,"rt":549.3599999463186,"accuracy":1,"outcome":"-1","keys":[2051.9550000317395],"total_keys":1,"block":2,"trial":185,"stimulus":5,"robot":3,"valence":"lose","action":"go","sham":0,"trial_type":"pit-trial","trial_index":219,"time_elapsed":1097395,"internal_node_id":"0.0-193.0","task_version":"battery-v0.2-trt"},{"rune":"F","rune_set":"bacs1","hex":"#3366ff99","correct":32,"choice":-1,"rt":-1,"accuracy":0,"outcome":"+1","keys":[],"total_keys":0,"block":2,"trial":186,"stimulus":4,"robot":1,"valence":"win","action":"go","sham":0,"trial_type":"pit-trial","trial_index":220,"time_elapsed":1101402,"internal_node_id":"0.0-194.0","task_version":"battery-v0.2-trt"},{"rune":"E","rune_set":"bacs1","hex":"#f73b6a7A","correct":-1,"choice":-1,"rt":-1,"accuracy":1,"outcome":"-1","keys":[],"total_keys":0,"block":2,"trial":187,"stimulus":6,"robot":4,"valence":"lose","action":"no-go","sham":0,"trial_type":"pit-trial","trial_index":221,"time_elapsed":1105408,"internal_node_id":"0.0-195.0","task_version":"battery-v0.2-trt"},{"rune":"V","rune_set":"bacs1","hex":"#3366ff99","correct":-1,"choice":-1,"rt":-1,"accuracy":1,"outcome":"+10","keys":[],"total_keys":0,"block":2,"trial":188,"stimulus":7,"robot":2,"valence":"win","action":"no-go","sham":0,"trial_type":"pit-trial","trial_index":222,"time_elapsed":1109413,"internal_node_id":"0.0-196.0","task_version":"battery-v0.2-trt"},{"rune":"V","rune_set":"bacs1","hex":"#3366ff99","correct":-1,"choice":-1,"rt":-1,"accuracy":1,"outcome":"+10","keys":[],"total_keys":0,"block":2,"trial":189,"stimulus":7,"robot":2,"valence":"win","action":"no-go","sham":0,"trial_type":"pit-trial","trial_index":223,"time_elapsed":1113418,"internal_node_id":"0.0-197.0","task_version":"battery-v0.2-trt"},{"rune":"F","rune_set":"bacs1","hex":"#3366ff99","correct":32,"choice":-1,"rt":-1,"accuracy":0,"outcome":"+1","keys":[],"total_keys":0,"block":2,"trial":190,"stimulus":4,"robot":1,"valence":"win","action":"go","sham":0,"trial_type":"pit-trial","trial_index":224,"time_elapsed":1117426,"internal_node_id":"0.0-198.0","task_version":"battery-v0.2-trt"},{"rune":"T","rune_set":"bacs1","hex":"#f73b6a7A","correct":32,"choice":-1,"rt":-1,"accuracy":0,"outcome":"-10","keys":[2926.2549999984913],"total_keys":1,"block":2,"trial":191,"stimulus":5,"robot":3,"valence":"lose","action":"go","sham":0,"trial_type":"pit-trial","trial_index":225,"time_elapsed":1121431,"internal_node_id":"0.0-199.0","task_version":"battery-v0.2-trt"},{"rune":"E","rune_set":"bacs1","hex":"#f73b6a7A","correct":-1,"choice":32,"rt":637.5750000006519,"accuracy":0,"outcome":"-10","keys":[2138.3400000049733],"total_keys":1,"block":2,"trial":192,"stimulus":6,"robot":4,"valence":"lose","action":"no-go","sham":0,"trial_type":"pit-trial","trial_index":226,"time_elapsed":1124774,"internal_node_id":"0.0-200.0","task_version":"battery-v0.2-trt"},{"rune":"F","rune_set":"bacs1","hex":"#3366ff99","correct":32,"choice":-1,"rt":-1,"accuracy":0,"outcome":"+1","keys":[],"total_keys":0,"block":2,"trial":193,"stimulus":4,"robot":1,"valence":"win","action":"go","sham":0,"trial_type":"pit-trial","trial_index":227,"time_elapsed":1128781,"internal_node_id":"0.0-201.0","task_version":"battery-v0.2-trt"},{"rune":"E","rune_set":"bacs1","hex":"#f73b6a7A","correct":-1,"choice":32,"rt":1222.6900000241585,"accuracy":0,"outcome":"-10","keys":[2723.679999995511],"total_keys":1,"block":2,"trial":194,"stimulus":6,"robot":4,"valence":"lose","action":"no-go","sham":0,"trial_type":"pit-trial","trial_index":228,"time_elapsed":1132709,"internal_node_id":"0.0-202.0","task_version":"battery-v0.2-trt"},{"rune":"R","rune_set":"bacs1","hex":"#f73b6a7A","correct":32,"choice":-1,"rt":-1,"accuracy":0,"outcome":"-10","keys":[],"total_keys":0,"block":2,"trial":195,"stimulus":8,"robot":3,"valence":"lose","action":"go","sham":0,"trial_type":"pit-trial","trial_index":229,"time_elapsed":1136719,"internal_node_id":"0.0-203.0","task_version":"battery-v0.2-trt"},{"rune":"V","rune_set":"bacs1","hex":"#3366ff99","correct":-1,"choice":-1,"rt":-1,"accuracy":1,"outcome":"+1","keys":[],"total_keys":0,"block":2,"trial":196,"stimulus":7,"robot":2,"valence":"win","action":"no-go","sham":1,"trial_type":"pit-trial","trial_index":230,"time_elapsed":1140727,"internal_node_id":"0.0-204.0","task_version":"battery-v0.2-trt"},{"rune":"E","rune_set":"bacs1","hex":"#f73b6a7A","correct":-1,"choice":-1,"rt":-1,"accuracy":1,"outcome":"-1","keys":[],"total_keys":0,"block":2,"trial":197,"stimulus":6,"robot":4,"valence":"lose","action":"no-go","sham":0,"trial_type":"pit-trial","trial_index":231,"time_elapsed":1144737,"internal_node_id":"0.0-205.0","task_version":"battery-v0.2-trt"},{"rune":"R","rune_set":"bacs1","hex":"#f73b6a7A","correct":32,"choice":32,"rt":653.1499999691732,"accuracy":1,"outcome":"-1","keys":[2155.1849999814294],"total_keys":1,"block":2,"trial":198,"stimulus":8,"robot":3,"valence":"lose","action":"go","sham":0,"trial_type":"pit-trial","trial_index":232,"time_elapsed":1148098,"internal_node_id":"0.0-206.0","task_version":"battery-v0.2-trt"},{"rune":"V","rune_set":"bacs1","hex":"#3366ff99","correct":-1,"choice":-1,"rt":-1,"accuracy":1,"outcome":"+10","keys":[],"total_keys":0,"block":2,"trial":199,"stimulus":7,"robot":2,"valence":"win","action":"no-go","sham":0,"trial_type":"pit-trial","trial_index":233,"time_elapsed":1152107,"internal_node_id":"0.0-207.0","task_version":"battery-v0.2-trt"},{"rune":"F","rune_set":"bacs1","hex":"#3366ff99","correct":32,"choice":-1,"rt":-1,"accuracy":0,"outcome":"+1","keys":[],"total_keys":0,"block":2,"trial":200,"stimulus":4,"robot":1,"valence":"win","action":"go","sham":0,"trial_type":"pit-trial","trial_index":234,"time_elapsed":1156116,"internal_node_id":"0.0-208.0","task_version":"battery-v0.2-trt"},{"rune":"V","rune_set":"bacs1","hex":"#3366ff99","correct":-1,"choice":-1,"rt":-1,"accuracy":1,"outcome":"+10","keys":[],"total_keys":0,"block":2,"trial":201,"stimulus":7,"robot":2,"valence":"win","action":"no-go","sham":0,"trial_type":"pit-trial","trial_index":235,"time_elapsed":1160121,"internal_node_id":"0.0-209.0","task_version":"battery-v0.2-trt"},{"rune":"E","rune_set":"bacs1","hex":"#f73b6a7A","correct":-1,"choice":-1,"rt":-1,"accuracy":1,"outcome":"-1","keys":[],"total_keys":0,"block":2,"trial":202,"stimulus":6,"robot":4,"valence":"lose","action":"no-go","sham":0,"trial_type":"pit-trial","trial_index":236,"time_elapsed":1164130,"internal_node_id":"0.0-210.0","task_version":"battery-v0.2-trt"},{"rune":"J","rune_set":"bacs1","hex":"#f73b6a7A","correct":32,"choice":-1,"rt":-1,"accuracy":0,"outcome":"-10","keys":[],"total_keys":0,"block":2,"trial":203,"stimulus":9,"robot":3,"valence":"lose","action":"go","sham":0,"trial_type":"pit-trial","trial_index":237,"time_elapsed":1168138,"internal_node_id":"0.0-211.0","task_version":"battery-v0.2-trt"},{"rune":"R","rune_set":"bacs1","hex":"#f73b6a7A","correct":32,"choice":32,"rt":998.250000004191,"accuracy":1,"outcome":"-1","keys":[2499.934999970719],"total_keys":1,"block":2,"trial":204,"stimulus":8,"robot":3,"valence":"lose","action":"go","sham":0,"trial_type":"pit-trial","trial_index":238,"time_elapsed":1171844,"internal_node_id":"0.0-212.0","task_version":"battery-v0.2-trt"},{"rune":"E","rune_set":"bacs1","hex":"#f73b6a7A","correct":-1,"choice":-1,"rt":-1,"accuracy":1,"outcome":"-1","keys":[],"total_keys":0,"block":2,"trial":205,"stimulus":6,"robot":4,"valence":"lose","action":"no-go","sham":0,"trial_type":"pit-trial","trial_index":239,"time_elapsed":1175852,"internal_node_id":"0.0-213.0","task_version":"battery-v0.2-trt"},{"rune":"R","rune_set":"bacs1","hex":"#f73b6a7A","correct":32,"choice":32,"rt":594.5149999461137,"accuracy":1,"outcome":"-10","keys":[2095.0399999856018],"total_keys":1,"block":2,"trial":206,"stimulus":8,"robot":3,"valence":"lose","action":"go","sham":1,"trial_type":"pit-trial","trial_index":240,"time_elapsed":1179151,"internal_node_id":"0.0-214.0","task_version":"battery-v0.2-trt"},{"rune":"J","rune_set":"bacs1","hex":"#f73b6a7A","correct":32,"choice":-1,"rt":-1,"accuracy":0,"outcome":"-10","keys":[3351.090000011027],"total_keys":1,"block":2,"trial":207,"stimulus":9,"robot":3,"valence":"lose","action":"go","sham":0,"trial_type":"pit-trial","trial_index":241,"time_elapsed":1183157,"internal_node_id":"0.0-215.0","task_version":"battery-v0.2-trt"},{"rune":"V","rune_set":"bacs1","hex":"#3366ff99","correct":-1,"choice":-1,"rt":-1,"accuracy":1,"outcome":"+1","keys":[],"total_keys":0,"block":2,"trial":208,"stimulus":7,"robot":2,"valence":"win","action":"no-go","sham":1,"trial_type":"pit-trial","trial_index":242,"time_elapsed":1187165,"internal_node_id":"0.0-216.0","task_version":"battery-v0.2-trt"},{"rune":"R","rune_set":"bacs1","hex":"#f73b6a7A","correct":32,"choice":32,"rt":639.8199999821372,"accuracy":1,"outcome":"-1","keys":[2140.2349999989383],"total_keys":1,"block":2,"trial":209,"stimulus":8,"robot":3,"valence":"lose","action":"go","sham":0,"trial_type":"pit-trial","trial_index":243,"time_elapsed":1190508,"internal_node_id":"0.0-217.0","task_version":"battery-v0.2-trt"},{"rune":"Z","rune_set":"bacs1","hex":"#f73b6a7A","correct":-1,"choice":-1,"rt":-1,"accuracy":1,"outcome":"-1","keys":[],"total_keys":0,"block":2,"trial":210,"stimulus":10,"robot":4,"valence":"lose","action":"no-go","sham":0,"trial_type":"pit-trial","trial_index":244,"time_elapsed":1194513,"internal_node_id":"0.0-218.0","task_version":"battery-v0.2-trt"},{"rune":"B","rune_set":"bacs1","hex":"#3366ff99","correct":-1,"choice":-1,"rt":-1,"accuracy":1,"outcome":"+10","keys":[],"total_keys":0,"block":2,"trial":211,"stimulus":11,"robot":2,"valence":"win","action":"no-go","sham":0,"trial_type":"pit-trial","trial_index":245,"time_elapsed":1198520,"internal_node_id":"0.0-219.0","task_version":"battery-v0.2-trt"},{"rune":"J","rune_set":"bacs1","hex":"#f73b6a7A","correct":32,"choice":32,"rt":1221.2849999777973,"accuracy":1,"outcome":"-1","keys":[2722.0950000337325],"total_keys":1,"block":2,"trial":212,"stimulus":9,"robot":3,"valence":"lose","action":"go","sham":0,"trial_type":"pit-trial","trial_index":246,"time_elapsed":1202448,"internal_node_id":"0.0-220.0","task_version":"battery-v0.2-trt"},{"rune":"B","rune_set":"bacs1","hex":"#3366ff99","correct":-1,"choice":-1,"rt":-1,"accuracy":1,"outcome":"+10","keys":[],"total_keys":0,"block":2,"trial":213,"stimulus":11,"robot":2,"valence":"win","action":"no-go","sham":0,"trial_type":"pit-trial","trial_index":247,"time_elapsed":1206453,"internal_node_id":"0.0-221.0","task_version":"battery-v0.2-trt"},{"rune":"Z","rune_set":"bacs1","hex":"#f73b6a7A","correct":-1,"choice":-1,"rt":-1,"accuracy":1,"outcome":"-1","keys":[],"total_keys":0,"block":2,"trial":214,"stimulus":10,"robot":4,"valence":"lose","action":"no-go","sham":0,"trial_type":"pit-trial","trial_index":248,"time_elapsed":1210459,"internal_node_id":"0.0-222.0","task_version":"battery-v0.2-trt"},{"rune":"R","rune_set":"bacs1","hex":"#f73b6a7A","correct":32,"choice":32,"rt":720.2750000287779,"accuracy":1,"outcome":"-1","keys":[2220.9099999745376],"total_keys":1,"block":2,"trial":215,"stimulus":8,"robot":3,"valence":"lose","action":"go","sham":0,"trial_type":"pit-trial","trial_index":249,"time_elapsed":1213882,"internal_node_id":"0.0-223.0","task_version":"battery-v0.2-trt"},{"rune":"J","rune_set":"bacs1","hex":"#f73b6a7A","correct":32,"choice":-1,"rt":-1,"accuracy":0,"outcome":"-1","keys":[3388.639999961015],"total_keys":1,"block":2,"trial":216,"stimulus":9,"robot":3,"valence":"lose","action":"go","sham":1,"trial_type":"pit-trial","trial_index":250,"time_elapsed":1217887,"internal_node_id":"0.0-224.0","task_version":"battery-v0.2-trt"},{"rune":"B","rune_set":"bacs1","hex":"#3366ff99","correct":-1,"choice":-1,"rt":-1,"accuracy":1,"outcome":"+10","keys":[],"total_keys":0,"block":2,"trial":217,"stimulus":11,"robot":2,"valence":"win","action":"no-go","sham":0,"trial_type":"pit-trial","trial_index":251,"time_elapsed":1221895,"internal_node_id":"0.0-225.0","task_version":"battery-v0.2-trt"},{"rune":"Z","rune_set":"bacs1","hex":"#f73b6a7A","correct":-1,"choice":-1,"rt":-1,"accuracy":1,"outcome":"-1","keys":[],"total_keys":0,"block":2,"trial":218,"stimulus":10,"robot":4,"valence":"lose","action":"no-go","sham":0,"trial_type":"pit-trial","trial_index":252,"time_elapsed":1225897,"internal_node_id":"0.0-226.0","task_version":"battery-v0.2-trt"},{"rune":"J","rune_set":"bacs1","hex":"#f73b6a7A","correct":32,"choice":-1,"rt":-1,"accuracy":0,"outcome":"-10","keys":[],"total_keys":0,"block":2,"trial":219,"stimulus":9,"robot":3,"valence":"lose","action":"go","sham":0,"trial_type":"pit-trial","trial_index":253,"time_elapsed":1229903,"internal_node_id":"0.0-227.0","task_version":"battery-v0.2-trt"},{"rune":"R","rune_set":"bacs1","hex":"#f73b6a7A","correct":32,"choice":32,"rt":593.8850000384264,"accuracy":1,"outcome":"-10","keys":[2093.955000047572],"total_keys":1,"block":2,"trial":220,"stimulus":8,"robot":3,"valence":"lose","action":"go","sham":1,"trial_type":"pit-trial","trial_index":254,"time_elapsed":1233202,"internal_node_id":"0.0-228.0","task_version":"battery-v0.2-trt"},{"rune":"R","rune_set":"bacs1","hex":"#f73b6a7A","correct":32,"choice":32,"rt":1080.7400000048801,"accuracy":1,"outcome":"-1","keys":[2580.8949999627657],"total_keys":1,"block":2,"trial":221,"stimulus":8,"robot":3,"valence":"lose","action":"go","sham":0,"trial_type":"pit-trial","trial_index":255,"time_elapsed":1236984,"internal_node_id":"0.0-229.0","task_version":"battery-v0.2-trt"},{"rune":"Z","rune_set":"bacs1","hex":"#f73b6a7A","correct":-1,"choice":-1,"rt":-1,"accuracy":1,"outcome":"-1","keys":[],"total_keys":0,"block":2,"trial":222,"stimulus":10,"robot":4,"valence":"lose","action":"no-go","sham":0,"trial_type":"pit-trial","trial_index":256,"time_elapsed":1240991,"internal_node_id":"0.0-230.0","task_version":"battery-v0.2-trt"},{"rune":"J","rune_set":"bacs1","hex":"#f73b6a7A","correct":32,"choice":-1,"rt":-1,"accuracy":0,"outcome":"-10","keys":[],"total_keys":0,"block":2,"trial":223,"stimulus":9,"robot":3,"valence":"lose","action":"go","sham":0,"trial_type":"pit-trial","trial_index":257,"time_elapsed":1245001,"internal_node_id":"0.0-231.0","task_version":"battery-v0.2-trt"},{"rune":"B","rune_set":"bacs1","hex":"#3366ff99","correct":-1,"choice":-1,"rt":-1,"accuracy":1,"outcome":"+10","keys":[],"total_keys":0,"block":2,"trial":224,"stimulus":11,"robot":2,"valence":"win","action":"no-go","sham":0,"trial_type":"pit-trial","trial_index":258,"time_elapsed":1249006,"internal_node_id":"0.0-232.0","task_version":"battery-v0.2-trt"},{"rune":"B","rune_set":"bacs1","hex":"#3366ff99","correct":-1,"choice":-1,"rt":-1,"accuracy":1,"outcome":"+10","keys":[],"total_keys":0,"block":2,"trial":225,"stimulus":11,"robot":2,"valence":"win","action":"no-go","sham":0,"trial_type":"pit-trial","trial_index":259,"time_elapsed":1253014,"internal_node_id":"0.0-233.0","task_version":"battery-v0.2-trt"},{"rune":"Z","rune_set":"bacs1","hex":"#f73b6a7A","correct":-1,"choice":-1,"rt":-1,"accuracy":1,"outcome":"-1","keys":[],"total_keys":0,"block":2,"trial":226,"stimulus":10,"robot":4,"valence":"lose","action":"no-go","sham":0,"trial_type":"pit-trial","trial_index":260,"time_elapsed":1257020,"internal_node_id":"0.0-234.0","task_version":"battery-v0.2-trt"},{"rune":"J","rune_set":"bacs1","hex":"#f73b6a7A","correct":32,"choice":-1,"rt":-1,"accuracy":0,"outcome":"-10","keys":[],"total_keys":0,"block":2,"trial":227,"stimulus":9,"robot":3,"valence":"lose","action":"go","sham":0,"trial_type":"pit-trial","trial_index":261,"time_elapsed":1261028,"internal_node_id":"0.0-235.0","task_version":"battery-v0.2-trt"},{"rune":"R","rune_set":"bacs1","hex":"#f73b6a7A","correct":32,"choice":32,"rt":837.3799999826588,"accuracy":1,"outcome":"-1","keys":[2338.6300000129268],"total_keys":1,"block":2,"trial":228,"stimulus":8,"robot":3,"valence":"lose","action":"go","sham":0,"trial_type":"pit-trial","trial_index":262,"time_elapsed":1264570,"internal_node_id":"0.0-236.0","task_version":"battery-v0.2-trt"},{"rune":"R","rune_set":"bacs1","hex":"#f73b6a7A","correct":32,"choice":-1,"rt":-1,"accuracy":0,"outcome":"-1","keys":[2921.6350000351667],"total_keys":1,"block":2,"trial":229,"stimulus":8,"robot":3,"valence":"lose","action":"go","sham":1,"trial_type":"pit-trial","trial_index":263,"time_elapsed":1268575,"internal_node_id":"0.0-237.0","task_version":"battery-v0.2-trt"},{"rune":"Z","rune_set":"bacs1","hex":"#f73b6a7A","correct":-1,"choice":-1,"rt":-1,"accuracy":1,"outcome":"-1","keys":[],"total_keys":0,"block":2,"trial":230,"stimulus":10,"robot":4,"valence":"lose","action":"no-go","sham":0,"trial_type":"pit-trial","trial_index":264,"time_elapsed":1272581,"internal_node_id":"0.0-238.0","task_version":"battery-v0.2-trt"},{"rune":"J","rune_set":"bacs1","hex":"#f73b6a7A","correct":32,"choice":-1,"rt":-1,"accuracy":0,"outcome":"-10","keys":[],"total_keys":0,"block":2,"trial":231,"stimulus":9,"robot":3,"valence":"lose","action":"go","sham":0,"trial_type":"pit-trial","trial_index":265,"time_elapsed":1276588,"internal_node_id":"0.0-239.0","task_version":"battery-v0.2-trt"},{"rune":"B","rune_set":"bacs1","hex":"#3366ff99","correct":-1,"choice":-1,"rt":-1,"accuracy":1,"outcome":"+1","keys":[],"total_keys":0,"block":2,"trial":232,"stimulus":11,"robot":2,"valence":"win","action":"no-go","sham":1,"trial_type":"pit-trial","trial_index":266,"time_elapsed":1280598,"internal_node_id":"0.0-240.0","task_version":"battery-v0.2-trt"},{"rune":"B","rune_set":"bacs1","hex":"#3366ff99","correct":-1,"choice":-1,"rt":-1,"accuracy":1,"outcome":"+10","keys":[],"total_keys":0,"block":2,"trial":233,"stimulus":11,"robot":2,"valence":"win","action":"no-go","sham":0,"trial_type":"pit-trial","trial_index":267,"time_elapsed":1284604,"internal_node_id":"0.0-241.0","task_version":"battery-v0.2-trt"},{"rune":"Z","rune_set":"bacs1","hex":"#f73b6a7A","correct":-1,"choice":-1,"rt":-1,"accuracy":1,"outcome":"-1","keys":[],"total_keys":0,"block":2,"trial":234,"stimulus":10,"robot":4,"valence":"lose","action":"no-go","sham":0,"trial_type":"pit-trial","trial_index":268,"time_elapsed":1288610,"internal_node_id":"0.0-242.0","task_version":"battery-v0.2-trt"},{"rune":"R","rune_set":"bacs1","hex":"#f73b6a7A","correct":32,"choice":-1,"rt":-1,"accuracy":0,"outcome":"-10","keys":[],"total_keys":0,"block":2,"trial":235,"stimulus":8,"robot":3,"valence":"lose","action":"go","sham":0,"trial_type":"pit-trial","trial_index":269,"time_elapsed":1292617,"internal_node_id":"0.0-243.0","task_version":"battery-v0.2-trt"},{"rune":"J","rune_set":"bacs1","hex":"#f73b6a7A","correct":32,"choice":-1,"rt":-1,"accuracy":0,"outcome":"-1","keys":[2927.48000001302],"total_keys":1,"block":2,"trial":236,"stimulus":9,"robot":3,"valence":"lose","action":"go","sham":1,"trial_type":"pit-trial","trial_index":270,"time_elapsed":1296621,"internal_node_id":"0.0-244.0","task_version":"battery-v0.2-trt"},{"rune":"J","rune_set":"bacs1","hex":"#f73b6a7A","correct":32,"choice":-1,"rt":-1,"accuracy":0,"outcome":"-10","keys":[],"total_keys":0,"block":2,"trial":237,"stimulus":9,"robot":3,"valence":"lose","action":"go","sham":0,"trial_type":"pit-trial","trial_index":271,"time_elapsed":1300626,"internal_node_id":"0.0-245.0","task_version":"battery-v0.2-trt"},{"rune":"B","rune_set":"bacs1","hex":"#3366ff99","correct":-1,"choice":-1,"rt":-1,"accuracy":1,"outcome":"+10","keys":[],"total_keys":0,"block":2,"trial":238,"stimulus":11,"robot":2,"valence":"win","action":"no-go","sham":0,"trial_type":"pit-trial","trial_index":272,"time_elapsed":1304632,"internal_node_id":"0.0-246.0","task_version":"battery-v0.2-trt"},{"rune":"Z","rune_set":"bacs1","hex":"#f73b6a7A","correct":-1,"choice":-1,"rt":-1,"accuracy":1,"outcome":"-1","keys":[],"total_keys":0,"block":2,"trial":239,"stimulus":10,"robot":4,"valence":"lose","action":"no-go","sham":0,"trial_type":"pit-trial","trial_index":273,"time_elapsed":1308640,"internal_node_id"