[{"view_history":"[{\"page_index\":0,\"viewing_time\":3467.1149998903275}]","rt":3467.7049999590963,"trial_type":"instructions","trial_index":0,"time_elapsed":3486,"internal_node_id":"0.0-0.0","task_version":"battery-v0.2-trt"},{"slider_type":"valence","raw_loc":456,"loc":0.412,"trial_type":"affective-slider","trial_index":1,"time_elapsed":7781,"internal_node_id":"0.0-1.0","task_version":"battery-v0.2-trt"},{"responses":{"Q06":"1","Q08":"3","Q05":"3","Q02":"2","Q07":"2","Q01":"2","Q03":"2","Q04":"3"},"rt":20711.48999989964,"item_order":[5,7,4,1,6,0,2,3],"radio_events":[4710.560000035912,5858.37999987416,8566.259999992326,11361.954999854788,14365.999999921769,16369.984999997541,19138.349999906495,20198.014999972656],"key_events":[],"mouse_events":[4710.560000035912,5858.37999987416,8566.259999992326,11361.954999854788,11937.949999934062,12794.234999921173,14365.999999921769,15542.389999842271,16369.984999997541,16954.29000002332,18250.035000033677,19138.349999906495,20198.014999972656,20710.15499997884],"straightlining":0.5,"zigzagging":0.2857142857142857,"survey":"dass_d","trial_type":"survey-template","trial_index":2,"time_elapsed":28499,"internal_node_id":"0.0-2.0","task_version":"battery-v0.2-trt","infrequency":0.5},{"responses":{"Q10":"0","Q09":"0","Q05":"1","Q01":"3","Q08":"1","Q13":"0","Q06":"2","Q02":"2","Q04":"3","Q12":"0","Q07":"1","Q03":"2","Q11":"0"},"rt":45809.33999991976,"item_order":[9,8,4,0,7,12,5,1,3,11,6,2,10],"radio_events":[5807.749999919906,6335.334999952465,11511.87999988906,13051.904999883845,20191.325000021607,21159.854999976233,26151.820000028238,27711.905000032857,31471.750000026077,32415.73500004597,34755.834999959916,43723.78999995999,44787.75499993935],"key_events":[],"mouse_events":[4355.114999925718,5055.780000053346,5519.205000018701,5807.749999919906,6335.334999952465,10639.919999986887,11511.87999988906,13051.904999883845,20191.325000021607,21159.854999976233,26151.820000028238,27711.905000032857,30511.34500000626,31471.750000026077,32415.73500004597,34755.834999959916,40423.94499992952,41687.69499985501,43451.78500004113,43723.78999995999,44787.75499993935,45807.84499994479],"straightlining":0.38461538461538464,"zigzagging":0.5,"survey":"bisbas","trial_type":"survey-template","trial_index":3,"time_elapsed":74315,"internal_node_id":"0.0-3.0","task_version":"battery-v0.2-trt","infrequency":0},{"responses":{"Q04":"2","Q08":"0","Q06":"3","Q03":"3","Q05":"0","Q02":"2","Q07":"1","Q01":"2"},"rt":16628.38499993086,"item_order":[3,7,5,2,4,1,6,0],"radio_events":[4235.469999955967,5871.359999990091,7446.894999826327,8683.324999874458,10923.414999851957,12415.399999823421,14163.414999842644,15522.794999880716],"key_events":[],"mouse_events":[4235.469999955967,5871.359999990091,7446.894999826327,8683.324999874458,10923.414999851957,12415.399999823421,14163.414999842644,15522.794999880716,16627.399999881163],"straightlining":0.375,"zigzagging":0.5714285714285714,"survey":"gad7","trial_type":"survey-template","trial_index":4,"time_elapsed":90950,"internal_node_id":"0.0-4.0","task_version":"battery-v0.2-trt","infrequency":0},{"value":[0.5,1.2596153846153846,1.3571428571428572],"trial_type":"call-function","trial_index":5,"time_elapsed":90957,"internal_node_id":"0.0-5.0","task_version":"battery-v0.2-trt"},{"view_history":"[{\"page_index\":0,\"viewing_time\":6953.029999975115},{\"page_index\":1,\"viewing_time\":4803.9249998983},{\"page_index\":2,\"viewing_time\":4520.419999957085},{\"page_index\":3,\"viewing_time\":6931.895000161603},{\"page_index\":4,\"viewing_time\":7928.009999915957},{\"page_index\":5,\"viewing_time\":3899.459999985993},{\"page_index\":6,\"viewing_time\":8104.234999977052},{\"page_index\":7,\"viewing_time\":6452.305000042543},{\"page_index\":8,\"viewing_time\":7640.0949999224395},{\"page_index\":9,\"viewing_time\":10316.03500014171}]","rt":67549.869999988,"trial_type":"pit-instructions","trial_index":6,"time_elapsed":158511,"internal_node_id":"0.0-6.0-0.0","task_version":"battery-v0.2-trt"},{"rune":"1","rune_set":"elianto","hex":"#3366ff99","correct":32,"choice":-1,"rt":-1,"accuracy":0,"outcome":"+1","keys":[2959.6349999774247],"total_keys":1,"block":0,"practice":1,"trial_type":"pit-trial","trial_index":7,"time_elapsed":162519,"internal_node_id":"0.0-6.0-1.0-0.0","task_version":"battery-v0.2-trt"},{"rune":"1","rune_set":"elianto","hex":"#3366ff99","correct":32,"choice":32,"rt":97.10000013001263,"accuracy":1,"outcome":"+10","keys":[1597.1650001592934],"total_keys":1,"block":0,"practice":1,"trial_type":"pit-trial","trial_index":8,"time_elapsed":165333,"internal_node_id":"0.0-6.0-1.1-0.1","task_version":"battery-v0.2-trt"},{"rune":"1","rune_set":"elianto","hex":"#3366ff99","correct":32,"choice":32,"rt":377.8200000524521,"accuracy":1,"outcome":"+10","keys":[1878.2899999059737],"total_keys":1,"block":0,"practice":1,"trial_type":"pit-trial","trial_index":9,"time_elapsed":168421,"internal_node_id":"0.0-6.0-1.2-0.2","task_version":"battery-v0.2-trt"},{"rune":"1","rune_set":"elianto","hex":"#3366ff99","correct":32,"choice":32,"rt":363.3799999952316,"accuracy":1,"outcome":"+10","keys":[1864.0799999702722],"total_keys":1,"block":0,"practice":1,"trial_type":"pit-trial","trial_index":10,"time_elapsed":171493,"internal_node_id":"0.0-6.0-1.3-0.3","task_version":"battery-v0.2-trt"},{"trial_type":"call-function","trial_index":11,"time_elapsed":171500,"internal_node_id":"0.0-6.0-2.0","task_version":"battery-v0.2-trt"},{"view_history":"[{\"page_index\":0,\"viewing_time\":4725.35500000231},{\"page_index\":1,\"viewing_time\":2955.934999976307}]","rt":7681.610000086948,"trial_type":"pit-instructions","trial_index":12,"time_elapsed":179182,"internal_node_id":"0.0-6.0-3.0","task_version":"battery-v0.2-trt"},{"rune":"2","rune_set":"elianto","hex":"#3366ff99","correct":-1,"choice":-1,"rt":-1,"accuracy":1,"outcome":"+10","keys":[],"total_keys":0,"block":0,"practice":2,"trial_type":"pit-trial","trial_index":13,"time_elapsed":183189,"internal_node_id":"0.0-6.0-4.0-0.0","task_version":"battery-v0.2-trt"},{"rune":"2","rune_set":"elianto","hex":"#3366ff99","correct":-1,"choice":-1,"rt":-1,"accuracy":1,"outcome":"+10","keys":[],"total_keys":0,"block":0,"practice":2,"trial_type":"pit-trial","trial_index":14,"time_elapsed":187197,"internal_node_id":"0.0-6.0-4.1-0.1","task_version":"battery-v0.2-trt"},{"rune":"2","rune_set":"elianto","hex":"#3366ff99","correct":-1,"choice":-1,"rt":-1,"accuracy":1,"outcome":"+10","keys":[],"total_keys":0,"block":0,"practice":2,"trial_type":"pit-trial","trial_index":15,"time_elapsed":191207,"internal_node_id":"0.0-6.0-4.2-0.2","task_version":"battery-v0.2-trt"},{"rune":"2","rune_set":"elianto","hex":"#3366ff99","correct":-1,"choice":-1,"rt":-1,"accuracy":1,"outcome":"+10","keys":[],"total_keys":0,"block":0,"practice":2,"trial_type":"pit-trial","trial_index":16,"time_elapsed":195226,"internal_node_id":"0.0-6.0-4.3-0.3","task_version":"battery-v0.2-trt"},{"trial_type":"call-function","trial_index":17,"time_elapsed":195233,"internal_node_id":"0.0-6.0-5.0","task_version":"battery-v0.2-trt"},{"view_history":"[{\"page_index\":0,\"viewing_time\":7420.659999828786},{\"page_index\":1,\"viewing_time\":3459.8750001750886}]","rt":10880.834999959916,"trial_type":"pit-instructions","trial_index":18,"time_elapsed":206114,"internal_node_id":"0.0-6.0-6.0","task_version":"battery-v0.2-trt"},{"rune":"3","rune_set":"elianto","hex":"#f73b6a7A","correct":-1,"choice":32,"rt":1014.5750001538545,"accuracy":0,"outcome":"-10","keys":[2515.1049999985844],"total_keys":1,"block":0,"practice":3,"trial_type":"pit-trial","trial_index":19,"time_elapsed":209837,"internal_node_id":"0.0-6.0-7.0-0.0","task_version":"battery-v0.2-trt"},{"rune":"3","rune_set":"elianto","hex":"#f73b6a7A","correct":-1,"choice":-1,"rt":-1,"accuracy":1,"outcome":"-1","keys":[],"total_keys":0,"block":0,"practice":3,"trial_type":"pit-trial","trial_index":20,"time_elapsed":213851,"internal_node_id":"0.0-6.0-7.1-0.1","task_version":"battery-v0.2-trt"},{"rune":"3","rune_set":"elianto","hex":"#f73b6a7A","correct":-1,"choice":-1,"rt":-1,"accuracy":1,"outcome":"-1","keys":[],"total_keys":0,"block":0,"practice":3,"trial_type":"pit-trial","trial_index":21,"time_elapsed":217859,"internal_node_id":"0.0-6.0-7.2-0.2","task_version":"battery-v0.2-trt"},{"rune":"3","rune_set":"elianto","hex":"#f73b6a7A","correct":-1,"choice":-1,"rt":-1,"accuracy":1,"outcome":"-1","keys":[],"total_keys":0,"block":0,"practice":3,"trial_type":"pit-trial","trial_index":22,"time_elapsed":221873,"internal_node_id":"0.0-6.0-7.3-0.3","task_version":"battery-v0.2-trt"},{"trial_type":"call-function","trial_index":23,"time_elapsed":221878,"internal_node_id":"0.0-6.0-8.0","task_version":"battery-v0.2-trt"},{"view_history":"[{\"page_index\":0,\"viewing_time\":2223.9049999043345},{\"page_index\":1,\"viewing_time\":1603.6700000986457}]","rt":3827.874999959022,"trial_type":"pit-instructions","trial_index":24,"time_elapsed":225706,"internal_node_id":"0.0-6.0-9.0","task_version":"battery-v0.2-trt"},{"rune":"4","rune_set":"elianto","hex":"#f73b6a7A","correct":32,"choice":-1,"rt":-1,"accuracy":0,"outcome":"-10","keys":[2804.5350001193583],"total_keys":1,"block":0,"practice":4,"trial_type":"pit-trial","trial_index":25,"time_elapsed":229713,"internal_node_id":"0.0-6.0-10.0-0.0","task_version":"battery-v0.2-trt"},{"rune":"4","rune_set":"elianto","hex":"#f73b6a7A","correct":32,"choice":-1,"rt":-1,"accuracy":0,"outcome":"-10","keys":[3949.6200000867248],"total_keys":1,"block":0,"practice":4,"trial_type":"pit-trial","trial_index":26,"time_elapsed":233721,"internal_node_id":"0.0-6.0-10.1-0.1","task_version":"battery-v0.2-trt"},{"rune":"4","rune_set":"elianto","hex":"#f73b6a7A","correct":32,"choice":32,"rt":621.6050002258271,"accuracy":1,"outcome":"-1","keys":[2123.695000074804],"total_keys":1,"block":0,"practice":4,"trial_type":"pit-trial","trial_index":27,"time_elapsed":237051,"internal_node_id":"0.0-6.0-10.2-0.2","task_version":"battery-v0.2-trt"},{"rune":"4","rune_set":"elianto","hex":"#f73b6a7A","correct":32,"choice":32,"rt":521.4499998837709,"accuracy":1,"outcome":"-1","keys":[2021.760000148788],"total_keys":1,"block":0,"practice":4,"trial_type":"pit-trial","trial_index":28,"time_elapsed":240291,"internal_node_id":"0.0-6.0-10.3-0.3","task_version":"battery-v0.2-trt"},{"rune":"4","rune_set":"elianto","hex":"#f73b6a7A","correct":32,"choice":32,"rt":738.7049999088049,"accuracy":1,"outcome":"-1","keys":[2239.7300000302494],"total_keys":1,"block":0,"practice":4,"trial_type":"pit-trial","trial_index":29,"time_elapsed":243740,"internal_node_id":"0.0-6.0-10.4-0.4","task_version":"battery-v0.2-trt"},{"trial_type":"call-function","trial_index":30,"time_elapsed":243744,"internal_node_id":"0.0-6.0-11.0","task_version":"battery-v0.2-trt"},{"view_history":"[{\"page_index\":0,\"viewing_time\":1429.6150000300258},{\"page_index\":1,\"viewing_time\":5376.040000002831},{\"page_index\":2,\"viewing_time\":3771.8299999833107},{\"page_index\":3,\"viewing_time\":4111.950000049546},{\"page_index\":4,\"viewing_time\":5559.899999992922},{\"page_index\":5,\"viewing_time\":2412.2599998954684}]","rt":22661.915000062436,"trial_type":"pit-instructions","trial_index":31,"time_elapsed":266407,"internal_node_id":"0.0-6.0-12.0","task_version":"battery-v0.2-trt"},{"responses":["Press SPACE","+10","-1","True","True"],"num_errors":0,"rt":15773.935000179335,"trial_type":"pit-comprehension","trial_index":32,"time_elapsed":282188,"internal_node_id":"0.0-6.0-13.0","task_version":"battery-v0.2-trt"},{"view_history":"[{\"page_index\":0,\"viewing_time\":1849.9349998310208},{\"page_index\":1,\"viewing_time\":4307.890000054613}]","rt":6158.164999913424,"trial_type":"pit-instructions","trial_index":33,"time_elapsed":288355,"internal_node_id":"0.0-7.0","task_version":"battery-v0.2-trt"},{"rune":"C","rune_set":"bacs1","hex":"#f73b6a7A","correct":-1,"choice":-1,"rt":-1,"accuracy":1,"outcome":"-1","keys":[1440.4850001446903],"total_keys":1,"block":1,"trial":1,"stimulus":2,"robot":4,"valence":"lose","action":"no-go","sham":0,"trial_type":"pit-trial","trial_index":34,"time_elapsed":292364,"internal_node_id":"0.0-8.0","task_version":"battery-v0.2-trt"},{"rune":"Q","rune_set":"bacs1","hex":"#3366ff99","correct":-1,"choice":32,"rt":890.4250001069158,"accuracy":0,"outcome":"+10","keys":[2392.6800000481308],"total_keys":1,"block":1,"trial":2,"stimulus":0,"robot":2,"valence":"win","action":"no-go","sham":1,"trial_type":"pit-trial","trial_index":35,"time_elapsed":295965,"internal_node_id":"0.0-9.0","task_version":"battery-v0.2-trt"},{"rune":"A","rune_set":"bacs1","hex":"#3366ff99","correct":32,"choice":-1,"rt":-1,"accuracy":0,"outcome":"+1","keys":[],"total_keys":0,"block":1,"trial":3,"stimulus":3,"robot":1,"valence":"win","action":"go","sham":0,"trial_type":"pit-trial","trial_index":36,"time_elapsed":299985,"internal_node_id":"0.0-10.0","task_version":"battery-v0.2-trt"},{"rune":"L","rune_set":"bacs1","hex":"#3366ff99","correct":32,"choice":32,"rt":1269.364999840036,"accuracy":1,"outcome":"+10","keys":[2769.8500000406057],"total_keys":1,"block":1,"trial":4,"stimulus":1,"robot":1,"valence":"win","action":"go","sham":0,"trial_type":"pit-trial","trial_index":37,"time_elapsed":303984,"internal_node_id":"0.0-11.0","task_version":"battery-v0.2-trt"},{"rune":"C","rune_set":"bacs1","hex":"#f73b6a7A","correct":-1,"choice":-1,"rt":-1,"accuracy":1,"outcome":"-1","keys":[],"total_keys":0,"block":1,"trial":5,"stimulus":2,"robot":4,"valence":"lose","action":"no-go","sham":0,"trial_type":"pit-trial","trial_index":38,"time_elapsed":307994,"internal_node_id":"0.0-12.0","task_version":"battery-v0.2-trt"},{"rune":"A","rune_set":"bacs1","hex":"#3366ff99","correct":32,"choice":32,"rt":817.7800001576543,"accuracy":1,"outcome":"+10","keys":[2320.399999851361],"total_keys":1,"block":1,"trial":6,"stimulus":3,"robot":1,"valence":"win","action":"go","sham":0,"trial_type":"pit-trial","trial_index":39,"time_elapsed":311532,"internal_node_id":"0.0-13.0","task_version":"battery-v0.2-trt"},{"rune":"L","rune_set":"bacs1","hex":"#3366ff99","correct":32,"choice":32,"rt":1067.449999973178,"accuracy":1,"outcome":"+10","keys":[2567.544999998063],"total_keys":1,"block":1,"trial":7,"stimulus":1,"robot":1,"valence":"win","action":"go","sham":0,"trial_type":"pit-trial","trial_index":40,"time_elapsed":315310,"internal_node_id":"0.0-14.0","task_version":"battery-v0.2-trt"},{"rune":"Q","rune_set":"bacs1","hex":"#3366ff99","correct":-1,"choice":-1,"rt":-1,"accuracy":1,"outcome":"+10","keys":[],"total_keys":0,"block":1,"trial":8,"stimulus":0,"robot":2,"valence":"win","action":"no-go","sham":0,"trial_type":"pit-trial","trial_index":41,"time_elapsed":319329,"internal_node_id":"0.0-15.0","task_version":"battery-v0.2-trt"},{"rune":"Q","rune_set":"bacs1","hex":"#3366ff99","correct":-1,"choice":-1,"rt":-1,"accuracy":1,"outcome":"+10","keys":[],"total_keys":0,"block":1,"trial":9,"stimulus":0,"robot":2,"valence":"win","action":"no-go","sham":0,"trial_type":"pit-trial","trial_index":42,"time_elapsed":323348,"internal_node_id":"0.0-16.0","task_version":"battery-v0.2-trt"},{"rune":"L","rune_set":"bacs1","hex":"#3366ff99","correct":32,"choice":32,"rt":968.4599998872727,"accuracy":1,"outcome":"+10","keys":[2470.115000149235],"total_keys":1,"block":1,"trial":10,"stimulus":1,"robot":1,"valence":"win","action":"go","sham":0,"trial_type":"pit-trial","trial_index":43,"time_elapsed":327027,"internal_node_id":"0.0-17.0","task_version":"battery-v0.2-trt"},{"rune":"A","rune_set":"bacs1","hex":"#3366ff99","correct":32,"choice":-1,"rt":-1,"accuracy":0,"outcome":"+1","keys":[],"total_keys":0,"block":1,"trial":11,"stimulus":3,"robot":1,"valence":"win","action":"go","sham":0,"trial_type":"pit-trial","trial_index":44,"time_elapsed":331038,"internal_node_id":"0.0-18.0","task_version":"battery-v0.2-trt"},{"rune":"C","rune_set":"bacs1","hex":"#f73b6a7A","correct":-1,"choice":-1,"rt":-1,"accuracy":1,"outcome":"-1","keys":[],"total_keys":0,"block":1,"trial":12,"stimulus":2,"robot":4,"valence":"lose","action":"no-go","sham":0,"trial_type":"pit-trial","trial_index":45,"time_elapsed":335056,"internal_node_id":"0.0-19.0","task_version":"battery-v0.2-trt"},{"rune":"A","rune_set":"bacs1","hex":"#3366ff99","correct":32,"choice":32,"rt":935.6500001158565,"accuracy":1,"outcome":"+10","keys":[2436.629999894649],"total_keys":1,"block":1,"trial":13,"stimulus":3,"robot":1,"valence":"win","action":"go","sham":0,"trial_type":"pit-trial","trial_index":46,"time_elapsed":338701,"internal_node_id":"0.0-20.0","task_version":"battery-v0.2-trt"},{"rune":"L","rune_set":"bacs1","hex":"#3366ff99","correct":32,"choice":32,"rt":867.1949999406934,"accuracy":1,"outcome":"+10","keys":[2367.7249997854233],"total_keys":1,"block":1,"trial":14,"stimulus":1,"robot":1,"valence":"win","action":"go","sham":0,"trial_type":"pit-trial","trial_index":47,"time_elapsed":342277,"internal_node_id":"0.0-21.0","task_version":"battery-v0.2-trt"},{"rune":"C","rune_set":"bacs1","hex":"#f73b6a7A","correct":-1,"choice":-1,"rt":-1,"accuracy":1,"outcome":"-1","keys":[],"total_keys":0,"block":1,"trial":15,"stimulus":2,"robot":4,"valence":"lose","action":"no-go","sham":0,"trial_type":"pit-trial","trial_index":48,"time_elapsed":346306,"internal_node_id":"0.0-22.0","task_version":"battery-v0.2-trt"},{"rune":"Q","rune_set":"bacs1","hex":"#3366ff99","correct":-1,"choice":-1,"rt":-1,"accuracy":1,"outcome":"+10","keys":[],"total_keys":0,"block":1,"trial":16,"stimulus":0,"robot":2,"valence":"win","action":"no-go","sham":0,"trial_type":"pit-trial","trial_index":49,"time_elapsed":350317,"internal_node_id":"0.0-23.0","task_version":"battery-v0.2-trt"},{"rune":"L","rune_set":"bacs1","hex":"#3366ff99","correct":32,"choice":32,"rt":815.9799999557436,"accuracy":1,"outcome":"+10","keys":[2317.060000030324],"total_keys":1,"block":1,"trial":17,"stimulus":1,"robot":1,"valence":"win","action":"go","sham":0,"trial_type":"pit-trial","trial_index":50,"time_elapsed":353856,"internal_node_id":"0.0-24.0","task_version":"battery-v0.2-trt"},{"rune":"A","rune_set":"bacs1","hex":"#3366ff99","correct":32,"choice":32,"rt":808.0349999945611,"accuracy":1,"outcome":"+10","keys":[2308.475000085309],"total_keys":1,"block":1,"trial":18,"stimulus":3,"robot":1,"valence":"win","action":"go","sham":0,"trial_type":"pit-trial","trial_index":51,"time_elapsed":357380,"internal_node_id":"0.0-25.0","task_version":"battery-v0.2-trt"},{"rune":"C","rune_set":"bacs1","hex":"#f73b6a7A","correct":-1,"choice":-1,"rt":-1,"accuracy":1,"outcome":"-1","keys":[],"total_keys":0,"block":1,"trial":19,"stimulus":2,"robot":4,"valence":"lose","action":"no-go","sham":0,"trial_type":"pit-trial","trial_index":52,"time_elapsed":361389,"internal_node_id":"0.0-26.0","task_version":"battery-v0.2-trt"},{"rune":"Q","rune_set":"bacs1","hex":"#3366ff99","correct":-1,"choice":32,"rt":856.6449999343604,"accuracy":0,"outcome":"+1","keys":[2357.520000077784],"total_keys":1,"block":1,"trial":20,"stimulus":0,"robot":2,"valence":"win","action":"no-go","sham":0,"trial_type":"pit-trial","trial_index":53,"time_elapsed":364956,"internal_node_id":"0.0-27.0","task_version":"battery-v0.2-trt"},{"rune":"L","rune_set":"bacs1","hex":"#3366ff99","correct":32,"choice":32,"rt":1155.9200000483543,"accuracy":1,"outcome":"+10","keys":[2656.829999992624],"total_keys":1,"block":1,"trial":21,"stimulus":1,"robot":1,"valence":"win","action":"go","sham":0,"trial_type":"pit-trial","trial_index":54,"time_elapsed":368820,"internal_node_id":"0.0-28.0","task_version":"battery-v0.2-trt"},{"rune":"A","rune_set":"bacs1","hex":"#3366ff99","correct":32,"choice":32,"rt":1130.1349999848753,"accuracy":1,"outcome":"+10","keys":[2631.6400000359863],"total_keys":1,"block":1,"trial":22,"stimulus":3,"robot":1,"valence":"win","action":"go","sham":0,"trial_type":"pit-trial","trial_index":55,"time_elapsed":372660,"internal_node_id":"0.0-29.0","task_version":"battery-v0.2-trt"},{"rune":"Q","rune_set":"bacs1","hex":"#3366ff99","correct":-1,"choice":32,"rt":531.6900000907481,"accuracy":0,"outcome":"+1","keys":[2032.344999955967],"total_keys":1,"block":1,"trial":23,"stimulus":0,"robot":2,"valence":"win","action":"no-go","sham":0,"trial_type":"pit-trial","trial_index":56,"time_elapsed":375902,"internal_node_id":"0.0-30.0","task_version":"battery-v0.2-trt"},{"rune":"C","rune_set":"bacs1","hex":"#f73b6a7A","correct":-1,"choice":-1,"rt":-1,"accuracy":1,"outcome":"-1","keys":[],"total_keys":0,"block":1,"trial":24,"stimulus":2,"robot":4,"valence":"lose","action":"no-go","sham":0,"trial_type":"pit-trial","trial_index":57,"time_elapsed":379910,"internal_node_id":"0.0-31.0","task_version":"battery-v0.2-trt"},{"rune":"Q","rune_set":"bacs1","hex":"#3366ff99","correct":-1,"choice":32,"rt":590.6750001013279,"accuracy":0,"outcome":"+1","keys":[2091.604999965057],"total_keys":1,"block":1,"trial":25,"stimulus":0,"robot":2,"valence":"win","action":"no-go","sham":0,"trial_type":"pit-trial","trial_index":58,"time_elapsed":383221,"internal_node_id":"0.0-32.0","task_version":"battery-v0.2-trt"},{"rune":"L","rune_set":"bacs1","hex":"#3366ff99","correct":32,"choice":32,"rt":569.4049999583513,"accuracy":1,"outcome":"+10","keys":[2071.0999998264015],"total_keys":1,"block":1,"trial":26,"stimulus":1,"robot":1,"valence":"win","action":"go","sham":0,"trial_type":"pit-trial","trial_index":59,"time_elapsed":386502,"internal_node_id":"0.0-33.0","task_version":"battery-v0.2-trt"},{"rune":"A","rune_set":"bacs1","hex":"#3366ff99","correct":32,"choice":32,"rt":825.1749998889863,"accuracy":1,"outcome":"+10","keys":[2325.650000013411],"total_keys":1,"block":1,"trial":27,"stimulus":3,"robot":1,"valence":"win","action":"go","sham":0,"trial_type":"pit-trial","trial_index":60,"time_elapsed":390037,"internal_node_id":"0.0-34.0","task_version":"battery-v0.2-trt"},{"rune":"C","rune_set":"bacs1","hex":"#f73b6a7A","correct":-1,"choice":-1,"rt":-1,"accuracy":1,"outcome":"-1","keys":[],"total_keys":0,"block":1,"trial":28,"stimulus":2,"robot":4,"valence":"lose","action":"no-go","sham":0,"trial_type":"pit-trial","trial_index":61,"time_elapsed":394046,"internal_node_id":"0.0-35.0","task_version":"battery-v0.2-trt"},{"rune":"Q","rune_set":"bacs1","hex":"#3366ff99","correct":-1,"choice":-1,"rt":-1,"accuracy":1,"outcome":"+10","keys":[],"total_keys":0,"block":1,"trial":29,"stimulus":0,"robot":2,"valence":"win","action":"no-go","sham":0,"trial_type":"pit-trial","trial_index":62,"time_elapsed":398054,"internal_node_id":"0.0-36.0","task_version":"battery-v0.2-trt"},{"rune":"A","rune_set":"bacs1","hex":"#3366ff99","correct":32,"choice":32,"rt":563.8500000350177,"accuracy":1,"outcome":"+10","keys":[2065.199999837205],"total_keys":1,"block":1,"trial":30,"stimulus":3,"robot":1,"valence":"win","action":"go","sham":0,"trial_type":"pit-trial","trial_index":63,"time_elapsed":401332,"internal_node_id":"0.0-37.0","task_version":"battery-v0.2-trt"},{"rune":"C","rune_set":"bacs1","hex":"#f73b6a7A","correct":-1,"choice":-1,"rt":-1,"accuracy":1,"outcome":"-1","keys":[],"total_keys":0,"block":1,"trial":31,"stimulus":2,"robot":4,"valence":"lose","action":"no-go","sham":0,"trial_type":"pit-trial","trial_index":64,"time_elapsed":405353,"internal_node_id":"0.0-38.0","task_version":"battery-v0.2-trt"},{"rune":"L","rune_set":"bacs1","hex":"#3366ff99","correct":32,"choice":32,"rt":624.6400000527501,"accuracy":1,"outcome":"+10","keys":[2125.389999942854],"total_keys":1,"block":1,"trial":32,"stimulus":1,"robot":1,"valence":"win","action":"go","sham":0,"trial_type":"pit-trial","trial_index":65,"time_elapsed":408693,"internal_node_id":"0.0-39.0","task_version":"battery-v0.2-trt"},{"rune":"Q","rune_set":"bacs1","hex":"#3366ff99","correct":-1,"choice":-1,"rt":-1,"accuracy":1,"outcome":"+10","keys":[],"total_keys":0,"block":1,"trial":33,"stimulus":0,"robot":2,"valence":"win","action":"no-go","sham":0,"trial_type":"pit-trial","trial_index":66,"time_elapsed":412699,"internal_node_id":"0.0-40.0","task_version":"battery-v0.2-trt"},{"rune":"F","rune_set":"bacs1","hex":"#3366ff99","correct":32,"choice":32,"rt":644.6749998722225,"accuracy":1,"outcome":"+10","keys":[2145.5350001342595],"total_keys":1,"block":1,"trial":34,"stimulus":4,"robot":1,"valence":"win","action":"go","sham":0,"trial_type":"pit-trial","trial_index":67,"time_elapsed":416055,"internal_node_id":"0.0-41.0","task_version":"battery-v0.2-trt"},{"rune":"A","rune_set":"bacs1","hex":"#3366ff99","correct":32,"choice":32,"rt":534.419999923557,"accuracy":1,"outcome":"+1","keys":[2036.3499999511987],"total_keys":1,"block":1,"trial":35,"stimulus":3,"robot":1,"valence":"win","action":"go","sham":1,"trial_type":"pit-trial","trial_index":68,"time_elapsed":419308,"internal_node_id":"0.0-42.0","task_version":"battery-v0.2-trt"},{"rune":"C","rune_set":"bacs1","hex":"#f73b6a7A","correct":-1,"choice":-1,"rt":-1,"accuracy":1,"outcome":"-1","keys":[],"total_keys":0,"block":1,"trial":36,"stimulus":2,"robot":4,"valence":"lose","action":"no-go","sham":0,"trial_type":"pit-trial","trial_index":69,"time_elapsed":423318,"internal_node_id":"0.0-43.0","task_version":"battery-v0.2-trt"},{"rune":"C","rune_set":"bacs1","hex":"#f73b6a7A","correct":-1,"choice":-1,"rt":-1,"accuracy":1,"outcome":"-1","keys":[],"total_keys":0,"block":1,"trial":37,"stimulus":2,"robot":4,"valence":"lose","action":"no-go","sham":0,"trial_type":"pit-trial","trial_index":70,"time_elapsed":427329,"internal_node_id":"0.0-44.0","task_version":"battery-v0.2-trt"},{"rune":"Q","rune_set":"bacs1","hex":"#3366ff99","correct":-1,"choice":-1,"rt":-1,"accuracy":1,"outcome":"+10","keys":[],"total_keys":0,"block":1,"trial":38,"stimulus":0,"robot":2,"valence":"win","action":"no-go","sham":0,"trial_type":"pit-trial","trial_index":71,"time_elapsed":431340,"internal_node_id":"0.0-45.0","task_version":"battery-v0.2-trt"},{"rune":"A","rune_set":"bacs1","hex":"#3366ff99","correct":32,"choice":-1,"rt":-1,"accuracy":0,"outcome":"+1","keys":[],"total_keys":0,"block":1,"trial":39,"stimulus":3,"robot":1,"valence":"win","action":"go","sham":0,"trial_type":"pit-trial","trial_index":72,"time_elapsed":435350,"internal_node_id":"0.0-46.0","task_version":"battery-v0.2-trt"},{"rune":"F","rune_set":"bacs1","hex":"#3366ff99","correct":32,"choice":32,"rt":889.1100001055747,"accuracy":1,"outcome":"+1","keys":[2389.659999869764],"total_keys":1,"block":1,"trial":40,"stimulus":4,"robot":1,"valence":"win","action":"go","sham":1,"trial_type":"pit-trial","trial_index":73,"time_elapsed":438950,"internal_node_id":"0.0-47.0","task_version":"battery-v0.2-trt"},{"rune":"E","rune_set":"bacs1","hex":"#f73b6a7A","correct":-1,"choice":-1,"rt":-1,"accuracy":1,"outcome":"-1","keys":[],"total_keys":0,"block":1,"trial":41,"stimulus":6,"robot":4,"valence":"lose","action":"no-go","sham":0,"trial_type":"pit-trial","trial_index":74,"time_elapsed":442970,"internal_node_id":"0.0-48.0","task_version":"battery-v0.2-trt"},{"rune":"T","rune_set":"bacs1","hex":"#f73b6a7A","correct":32,"choice":-1,"rt":-1,"accuracy":0,"outcome":"-10","keys":[],"total_keys":0,"block":1,"trial":42,"stimulus":5,"robot":3,"valence":"lose","action":"go","sham":0,"trial_type":"pit-trial","trial_index":75,"time_elapsed":446988,"internal_node_id":"0.0-49.0","task_version":"battery-v0.2-trt"},{"rune":"F","rune_set":"bacs1","hex":"#3366ff99","correct":32,"choice":32,"rt":1146.0249999072403,"accuracy":1,"outcome":"+10","keys":[2646.1450001224875],"total_keys":1,"block":1,"trial":43,"stimulus":4,"robot":1,"valence":"win","action":"go","sham":0,"trial_type":"pit-trial","trial_index":76,"time_elapsed":450846,"internal_node_id":"0.0-50.0","task_version":"battery-v0.2-trt"},{"rune":"Q","rune_set":"bacs1","hex":"#3366ff99","correct":-1,"choice":-1,"rt":-1,"accuracy":1,"outcome":"+1","keys":[],"total_keys":0,"block":1,"trial":44,"stimulus":0,"robot":2,"valence":"win","action":"no-go","sham":1,"trial_type":"pit-trial","trial_index":77,"time_elapsed":454853,"internal_node_id":"0.0-51.0","task_version":"battery-v0.2-trt"},{"rune":"E","rune_set":"bacs1","hex":"#f73b6a7A","correct":-1,"choice":32,"rt":857.4950001202524,"accuracy":0,"outcome":"-10","keys":[2358.8950000703335],"total_keys":1,"block":1,"trial":45,"stimulus":6,"robot":4,"valence":"lose","action":"no-go","sham":0,"trial_type":"pit-trial","trial_index":78,"time_elapsed":458421,"internal_node_id":"0.0-52.0","task_version":"battery-v0.2-trt"},{"rune":"T","rune_set":"bacs1","hex":"#f73b6a7A","correct":32,"choice":32,"rt":888.7449998874217,"accuracy":1,"outcome":"-10","keys":[2390.0750000029802],"total_keys":1,"block":1,"trial":46,"stimulus":5,"robot":3,"valence":"lose","action":"go","sham":1,"trial_type":"pit-trial","trial_index":79,"time_elapsed":462020,"internal_node_id":"0.0-53.0","task_version":"battery-v0.2-trt"},{"rune":"Q","rune_set":"bacs1","hex":"#3366ff99","correct":-1,"choice":32,"rt":745.0800000224262,"accuracy":0,"outcome":"+1","keys":[2247.4249999504536],"total_keys":1,"block":1,"trial":47,"stimulus":0,"robot":2,"valence":"win","action":"no-go","sham":0,"trial_type":"pit-trial","trial_index":80,"time_elapsed":465477,"internal_node_id":"0.0-54.0","task_version":"battery-v0.2-trt"},{"rune":"F","rune_set":"bacs1","hex":"#3366ff99","correct":32,"choice":32,"rt":913.8199998997152,"accuracy":1,"outcome":"+10","keys":[2415.694999974221],"total_keys":1,"block":1,"trial":48,"stimulus":4,"robot":1,"valence":"win","action":"go","sham":0,"trial_type":"pit-trial","trial_index":81,"time_elapsed":469101,"internal_node_id":"0.0-55.0","task_version":"battery-v0.2-trt"},{"rune":"V","rune_set":"bacs1","hex":"#3366ff99","correct":-1,"choice":-1,"rt":-1,"accuracy":1,"outcome":"+10","keys":[],"total_keys":0,"block":1,"trial":49,"stimulus":7,"robot":2,"valence":"win","action":"no-go","sham":0,"trial_type":"pit-trial","trial_index":82,"time_elapsed":473109,"internal_node_id":"0.0-56.0","task_version":"battery-v0.2-trt"},{"rune":"E","rune_set":"bacs1","hex":"#f73b6a7A","correct":-1,"choice":-1,"rt":-1,"accuracy":1,"outcome":"-1","keys":[],"total_keys":0,"block":1,"trial":50,"stimulus":6,"robot":4,"valence":"lose","action":"no-go","sham":0,"trial_type":"pit-trial","trial_index":83,"time_elapsed":477115,"internal_node_id":"0.0-57.0","task_version":"battery-v0.2-trt"},{"rune":"T","rune_set":"bacs1","hex":"#f73b6a7A","correct":32,"choice":-1,"rt":-1,"accuracy":0,"outcome":"-10","keys":[],"total_keys":0,"block":1,"trial":51,"stimulus":5,"robot":3,"valence":"lose","action":"go","sham":0,"trial_type":"pit-trial","trial_index":84,"time_elapsed":481124,"internal_node_id":"0.0-58.0","task_version":"battery-v0.2-trt"},{"rune":"F","rune_set":"bacs1","hex":"#3366ff99","correct":32,"choice":32,"rt":891.8200000189245,"accuracy":1,"outcome":"+1","keys":[2391.8850000482053],"total_keys":1,"block":1,"trial":52,"stimulus":4,"robot":1,"valence":"win","action":"go","sham":1,"trial_type":"pit-trial","trial_index":85,"time_elapsed":484726,"internal_node_id":"0.0-59.0","task_version":"battery-v0.2-trt"},{"rune":"T","rune_set":"bacs1","hex":"#f73b6a7A","correct":32,"choice":-1,"rt":-1,"accuracy":0,"outcome":"-10","keys":[3841.065000044182],"total_keys":1,"block":1,"trial":53,"stimulus":5,"robot":3,"valence":"lose","action":"go","sham":0,"trial_type":"pit-trial","trial_index":86,"time_elapsed":488732,"internal_node_id":"0.0-60.0","task_version":"battery-v0.2-trt"},{"rune":"V","rune_set":"bacs1","hex":"#3366ff99","correct":-1,"choice":32,"rt":1021.3999999687076,"accuracy":0,"outcome":"+1","keys":[2521.885000169277],"total_keys":1,"block":1,"trial":54,"stimulus":7,"robot":2,"valence":"win","action":"no-go","sham":0,"trial_type":"pit-trial","trial_index":87,"time_elapsed":492461,"internal_node_id":"0.0-61.0","task_version":"battery-v0.2-trt"},{"rune":"F","rune_set":"bacs1","hex":"#3366ff99","correct":32,"choice":32,"rt":657.6849999837577,"accuracy":1,"outcome":"+1","keys":[2159.1849999967963],"total_keys":1,"block":1,"trial":55,"stimulus":4,"robot":1,"valence":"win","action":"go","sham":1,"trial_type":"pit-trial","trial_index":88,"time_elapsed":495828,"internal_node_id":"0.0-62.0","task_version":"battery-v0.2-trt"},{"rune":"E","rune_set":"bacs1","hex":"#f73b6a7A","correct":-1,"choice":-1,"rt":-1,"accuracy":1,"outcome":"-1","keys":[],"total_keys":0,"block":1,"trial":56,"stimulus":6,"robot":4,"valence":"lose","action":"no-go","sham":0,"trial_type":"pit-trial","trial_index":89,"time_elapsed":499838,"internal_node_id":"0.0-63.0","task_version":"battery-v0.2-trt"},{"rune":"V","rune_set":"bacs1","hex":"#3366ff99","correct":-1,"choice":-1,"rt":-1,"accuracy":1,"outcome":"+10","keys":[],"total_keys":0,"block":1,"trial":57,"stimulus":7,"robot":2,"valence":"win","action":"no-go","sham":0,"trial_type":"pit-trial","trial_index":90,"time_elapsed":503848,"internal_node_id":"0.0-64.0","task_version":"battery-v0.2-trt"},{"rune":"F","rune_set":"bacs1","hex":"#3366ff99","correct":32,"choice":32,"rt":1015.45500010252,"accuracy":1,"outcome":"+10","keys":[2516.5750000160187],"total_keys":1,"block":1,"trial":58,"stimulus":4,"robot":1,"valence":"win","action":"go","sham":0,"trial_type":"pit-trial","trial_index":91,"time_elapsed":507578,"internal_node_id":"0.0-65.0","task_version":"battery-v0.2-trt"},{"rune":"E","rune_set":"bacs1","hex":"#f73b6a7A","correct":-1,"choice":32,"rt":1179.1400001384318,"accuracy":0,"outcome":"-10","keys":[2679.5749999582767],"total_keys":1,"block":1,"trial":59,"stimulus":6,"robot":4,"valence":"lose","action":"no-go","sham":0,"trial_type":"pit-trial","trial_index":92,"time_elapsed":511477,"internal_node_id":"0.0-66.0","task_version":"battery-v0.2-trt"},{"rune":"T","rune_set":"bacs1","hex":"#f73b6a7A","correct":32,"choice":32,"rt":650.3600000869483,"accuracy":1,"outcome":"-1","keys":[2150.5599999800324],"total_keys":1,"block":1,"trial":60,"stimulus":5,"robot":3,"valence":"lose","action":"go","sham":0,"trial_type":"pit-trial","trial_index":93,"time_elapsed":514837,"internal_node_id":"0.0-67.0","task_version":"battery-v0.2-trt"},{"rune":"F","rune_set":"bacs1","hex":"#3366ff99","correct":32,"choice":32,"rt":548.3899998944253,"accuracy":1,"outcome":"+10","keys":[2048.630000092089],"total_keys":1,"block":1,"trial":61,"stimulus":4,"robot":1,"valence":"win","action":"go","sham":0,"trial_type":"pit-trial","trial_index":94,"time_elapsed":518092,"internal_node_id":"0.0-68.0","task_version":"battery-v0.2-trt"},{"rune":"T","rune_set":"bacs1","hex":"#f73b6a7A","correct":32,"choice":32,"rt":811.3299999386072,"accuracy":1,"outcome":"-1","keys":[2312.3250000644475],"total_keys":1,"block":1,"trial":62,"stimulus":5,"robot":3,"valence":"lose","action":"go","sham":0,"trial_type":"pit-trial","trial_index":95,"time_elapsed":521614,"internal_node_id":"0.0-69.0","task_version":"battery-v0.2-trt"},{"rune":"E","rune_set":"bacs1","hex":"#f73b6a7A","correct":-1,"choice":32,"rt":649.974999949336,"accuracy":0,"outcome":"-10","keys":[2150.3250000532717],"total_keys":1,"block":1,"trial":63,"stimulus":6,"robot":4,"valence":"lose","action":"no-go","sham":0,"trial_type":"pit-trial","trial_index":96,"time_elapsed":524972,"internal_node_id":"0.0-70.0","task_version":"battery-v0.2-trt"},{"rune":"V","rune_set":"bacs1","hex":"#3366ff99","correct":-1,"choice":32,"rt":468.3399999048561,"accuracy":0,"outcome":"+1","keys":[1970.499999821186],"total_keys":1,"block":1,"trial":64,"stimulus":7,"robot":2,"valence":"win","action":"no-go","sham":0,"trial_type":"pit-trial","trial_index":97,"time_elapsed":528149,"internal_node_id":"0.0-71.0","task_version":"battery-v0.2-trt"},{"rune":"E","rune_set":"bacs1","hex":"#f73b6a7A","correct":-1,"choice":-1,"rt":-1,"accuracy":1,"outcome":"-1","keys":[],"total_keys":0,"block":1,"trial":65,"stimulus":6,"robot":4,"valence":"lose","action":"no-go","sham":0,"trial_type":"pit-trial","trial_index":98,"time_elapsed":532170,"internal_node_id":"0.0-72.0","task_version":"battery-v0.2-trt"},{"rune":"V","rune_set":"bacs1","hex":"#3366ff99","correct":-1,"choice":-1,"rt":-1,"accuracy":1,"outcome":"+10","keys":[],"total_keys":0,"block":1,"trial":66,"stimulus":7,"robot":2,"valence":"win","action":"no-go","sham":0,"trial_type":"pit-trial","trial_index":99,"time_elapsed":536190,"internal_node_id":"0.0-73.0","task_version":"battery-v0.2-trt"},{"rune":"T","rune_set":"bacs1","hex":"#f73b6a7A","correct":32,"choice":-1,"rt":-1,"accuracy":0,"outcome":"-10","keys":[],"total_keys":0,"block":1,"trial":67,"stimulus":5,"robot":3,"valence":"lose","action":"go","sham":0,"trial_type":"pit-trial","trial_index":100,"time_elapsed":540200,"internal_node_id":"0.0-74.0","task_version":"battery-v0.2-trt"},{"rune":"F","rune_set":"bacs1","hex":"#3366ff99","correct":32,"choice":32,"rt":532.744999974966,"accuracy":1,"outcome":"+10","keys":[2034.660000121221],"total_keys":1,"block":1,"trial":68,"stimulus":4,"robot":1,"valence":"win","action":"go","sham":0,"trial_type":"pit-trial","trial_index":101,"time_elapsed":543454,"internal_node_id":"0.0-75.0","task_version":"battery-v0.2-trt"},{"rune":"F","rune_set":"bacs1","hex":"#3366ff99","correct":32,"choice":32,"rt":731.7800000309944,"accuracy":1,"outcome":"+10","keys":[2232.134999940172],"total_keys":1,"block":1,"trial":69,"stimulus":4,"robot":1,"valence":"win","action":"go","sham":0,"trial_type":"pit-trial","trial_index":102,"time_elapsed":546892,"internal_node_id":"0.0-76.0","task_version":"battery-v0.2-trt"},{"rune":"T","rune_set":"bacs1","hex":"#f73b6a7A","correct":32,"choice":32,"rt":605.1800001878291,"accuracy":1,"outcome":"-1","keys":[2105.3150000516325],"total_keys":1,"block":1,"trial":70,"stimulus":5,"robot":3,"valence":"lose","action":"go","sham":0,"trial_type":"pit-trial","trial_index":103,"time_elapsed":550204,"internal_node_id":"0.0-77.0","task_version":"battery-v0.2-trt"},{"rune":"V","rune_set":"bacs1","hex":"#3366ff99","correct":-1,"choice":32,"rt":961.780000012368,"accuracy":0,"outcome":"+1","keys":[2463.6600001249462],"total_keys":1,"block":1,"trial":71,"stimulus":7,"robot":2,"valence":"win","action":"no-go","sham":0,"trial_type":"pit-trial","trial_index":104,"time_elapsed":553878,"internal_node_id":"0.0-78.0","task_version":"battery-v0.2-trt"},{"rune":"E","rune_set":"bacs1","hex":"#f73b6a7A","correct":-1,"choice":32,"rt":796.1300001479685,"accuracy":0,"outcome":"-10","keys":[2296.275000087917],"total_keys":1,"block":1,"trial":72,"stimulus":6,"robot":4,"valence":"lose","action":"no-go","sham":0,"trial_type":"pit-trial","trial_index":105,"time_elapsed":557380,"internal_node_id":"0.0-79.0","task_version":"battery-v0.2-trt"},{"rune":"F","rune_set":"bacs1","hex":"#3366ff99","correct":32,"choice":32,"rt":785.2950000669807,"accuracy":1,"outcome":"+10","keys":[2286.525000119582],"total_keys":1,"block":1,"trial":73,"stimulus":4,"robot":1,"valence":"win","action":"go","sham":0,"trial_type":"pit-trial","trial_index":106,"time_elapsed":560877,"internal_node_id":"0.0-80.0","task_version":"battery-v0.2-trt"},{"rune":"E","rune_set":"bacs1","hex":"#f73b6a7A","correct":-1,"choice":-1,"rt":-1,"accuracy":1,"outcome":"-1","keys":[2807.740000076592],"total_keys":1,"block":1,"trial":74,"stimulus":6,"robot":4,"valence":"lose","action":"no-go","sham":0,"trial_type":"pit-trial","trial_index":107,"time_elapsed":564887,"internal_node_id":"0.0-81.0","task_version":"battery-v0.2-trt"},{"rune":"R","rune_set":"bacs1","hex":"#f73b6a7A","correct":32,"choice":-1,"rt":-1,"accuracy":0,"outcome":"-10","keys":[],"total_keys":0,"block":1,"trial":75,"stimulus":8,"robot":3,"valence":"lose","action":"go","sham":0,"trial_type":"pit-trial","trial_index":108,"time_elapsed":568896,"internal_node_id":"0.0-82.0","task_version":"battery-v0.2-trt"},{"rune":"V","rune_set":"bacs1","hex":"#3366ff99","correct":-1,"choice":-1,"rt":-1,"accuracy":1,"outcome":"+10","keys":[],"total_keys":0,"block":1,"trial":76,"stimulus":7,"robot":2,"valence":"win","action":"no-go","sham":0,"trial_type":"pit-trial","trial_index":109,"time_elapsed":572904,"internal_node_id":"0.0-83.0","task_version":"battery-v0.2-trt"},{"rune":"V","rune_set":"bacs1","hex":"#3366ff99","correct":-1,"choice":-1,"rt":-1,"accuracy":1,"outcome":"+10","keys":[],"total_keys":0,"block":1,"trial":77,"stimulus":7,"robot":2,"valence":"win","action":"no-go","sham":0,"trial_type":"pit-trial","trial_index":110,"time_elapsed":576911,"internal_node_id":"0.0-84.0","task_version":"battery-v0.2-trt"},{"rune":"F","rune_set":"bacs1","hex":"#3366ff99","correct":32,"choice":32,"rt":687.6199999824166,"accuracy":1,"outcome":"+10","keys":[2188.730000052601],"total_keys":1,"block":1,"trial":78,"stimulus":4,"robot":1,"valence":"win","action":"go","sham":0,"trial_type":"pit-trial","trial_index":111,"time_elapsed":580309,"internal_node_id":"0.0-85.0","task_version":"battery-v0.2-trt"},{"rune":"E","rune_set":"bacs1","hex":"#f73b6a7A","correct":-1,"choice":32,"rt":898.4850000124425,"accuracy":0,"outcome":"-10","keys":[2399.3899999186397],"total_keys":1,"block":1,"trial":79,"stimulus":6,"robot":4,"valence":"lose","action":"no-go","sham":0,"trial_type":"pit-trial","trial_index":112,"time_elapsed":583918,"internal_node_id":"0.0-86.0","task_version":"battery-v0.2-trt"},{"rune":"R","rune_set":"bacs1","hex":"#f73b6a7A","correct":32,"choice":32,"rt":906.4249999355525,"accuracy":1,"outcome":"-1","keys":[2407.080000033602],"total_keys":1,"block":1,"trial":80,"stimulus":8,"robot":3,"valence":"lose","action":"go","sham":0,"trial_type":"pit-trial","trial_index":113,"time_elapsed":587542,"internal_node_id":"0.0-87.0","task_version":"battery-v0.2-trt"},{"rune":"R","rune_set":"bacs1","hex":"#f73b6a7A","correct":32,"choice":32,"rt":938.3600000292063,"accuracy":1,"outcome":"-1","keys":[2439.394999993965],"total_keys":1,"block":1,"trial":81,"stimulus":8,"robot":3,"valence":"lose","action":"go","sham":0,"trial_type":"pit-trial","trial_index":114,"time_elapsed":591190,"internal_node_id":"0.0-88.0","task_version":"battery-v0.2-trt"},{"rune":"J","rune_set":"bacs1","hex":"#f73b6a7A","correct":32,"choice":-1,"rt":-1,"accuracy":0,"outcome":"-10","keys":[],"total_keys":0,"block":1,"trial":82,"stimulus":9,"robot":3,"valence":"lose","action":"go","sham":0,"trial_type":"pit-trial","trial_index":115,"time_elapsed":595202,"internal_node_id":"0.0-89.0","task_version":"battery-v0.2-trt"},{"rune":"V","rune_set":"bacs1","hex":"#3366ff99","correct":-1,"choice":32,"rt":407.2749998886138,"accuracy":0,"outcome":"+1","keys":[1908.5800000466406],"total_keys":1,"block":1,"trial":83,"stimulus":7,"robot":2,"valence":"win","action":"no-go","sham":0,"trial_type":"pit-trial","trial_index":116,"time_elapsed":598317,"internal_node_id":"0.0-90.0","task_version":"battery-v0.2-trt"},{"rune":"E","rune_set":"bacs1","hex":"#f73b6a7A","correct":-1,"choice":-1,"rt":-1,"accuracy":1,"outcome":"-10","keys":[],"total_keys":0,"block":1,"trial":84,"stimulus":6,"robot":4,"valence":"lose","action":"no-go","sham":1,"trial_type":"pit-trial","trial_index":117,"time_elapsed":602326,"internal_node_id":"0.0-91.0","task_version":"battery-v0.2-trt"},{"rune":"R","rune_set":"bacs1","hex":"#f73b6a7A","correct":32,"choice":32,"rt":714.8849999066442,"accuracy":1,"outcome":"-1","keys":[2215.904999990016],"total_keys":1,"block":1,"trial":85,"stimulus":8,"robot":3,"valence":"lose","action":"go","sham":0,"trial_type":"pit-trial","trial_index":118,"time_elapsed":605750,"internal_node_id":"0.0-92.0","task_version":"battery-v0.2-trt"},{"rune":"J","rune_set":"bacs1","hex":"#f73b6a7A","correct":32,"choice":32,"rt":1093.7649998813868,"accuracy":1,"outcome":"-1","keys":[2594.0799999516457],"total_keys":1,"block":1,"trial":86,"stimulus":9,"robot":3,"valence":"lose","action":"go","sham":0,"trial_type":"pit-trial","trial_index":119,"time_elapsed":609551,"internal_node_id":"0.0-93.0","task_version":"battery-v0.2-trt"},{"rune":"E","rune_set":"bacs1","hex":"#f73b6a7A","correct":-1,"choice":32,"rt":770.2649999409914,"accuracy":0,"outcome":"-1","keys":[2270.585000049323],"total_keys":1,"block":1,"trial":87,"stimulus":6,"robot":4,"valence":"lose","action":"no-go","sham":1,"trial_type":"pit-trial","trial_index":120,"time_elapsed":613030,"internal_node_id":"0.0-94.0","task_version":"battery-v0.2-trt"},{"rune":"V","rune_set":"bacs1","hex":"#3366ff99","correct":-1,"choice":-1,"rt":-1,"accuracy":1,"outcome":"+10","keys":[],"total_keys":0,"block":1,"trial":88,"stimulus":7,"robot":2,"valence":"win","action":"no-go","sham":0,"trial_type":"pit-trial","trial_index":121,"time_elapsed":617039,"internal_node_id":"0.0-95.0","task_version":"battery-v0.2-trt"},{"rune":"R","rune_set":"bacs1","hex":"#f73b6a7A","correct":32,"choice":32,"rt":1108.7799998931587,"accuracy":1,"outcome":"-1","keys":[2608.8349998462945],"total_keys":1,"block":1,"trial":89,"stimulus":8,"robot":3,"valence":"lose","action":"go","sham":0,"trial_type":"pit-trial","trial_index":122,"time_elapsed":620856,"internal_node_id":"0.0-96.0","task_version":"battery-v0.2-trt"},{"rune":"B","rune_set":"bacs1","hex":"#3366ff99","correct":-1,"choice":32,"rt":1152.1499999798834,"accuracy":0,"outcome":"+1","keys":[2654.795000096783],"total_keys":1,"block":1,"trial":90,"stimulus":11,"robot":2,"valence":"win","action":"no-go","sham":0,"trial_type":"pit-trial","trial_index":123,"time_elapsed":624718,"internal_node_id":"0.0-97.0","task_version":"battery-v0.2-trt"},{"rune":"Z","rune_set":"bacs1","hex":"#f73b6a7A","correct":-1,"choice":-1,"rt":-1,"accuracy":1,"outcome":"-1","keys":[],"total_keys":0,"block":1,"trial":91,"stimulus":10,"robot":4,"valence":"lose","action":"no-go","sham":0,"trial_type":"pit-trial","trial_index":124,"time_elapsed":628726,"internal_node_id":"0.0-98.0","task_version":"battery-v0.2-trt"},{"rune":"J","rune_set":"bacs1","hex":"#f73b6a7A","correct":32,"choice":32,"rt":642.4300000071526,"accuracy":1,"outcome":"-1","keys":[2142.695000162348],"total_keys":1,"block":1,"trial":92,"stimulus":9,"robot":3,"valence":"lose","action":"go","sham":0,"trial_type":"pit-trial","trial_index":125,"time_elapsed":632078,"internal_node_id":"0.0-99.0","task_version":"battery-v0.2-trt"},{"rune":"J","rune_set":"bacs1","hex":"#f73b6a7A","correct":32,"choice":32,"rt":868.4000000357628,"accuracy":1,"outcome":"-1","keys":[2369.690000079572],"total_keys":1,"block":1,"trial":93,"stimulus":9,"robot":3,"valence":"lose","action":"go","sham":0,"trial_type":"pit-trial","trial_index":126,"time_elapsed":635654,"internal_node_id":"0.0-100.0","task_version":"battery-v0.2-trt"},{"rune":"Z","rune_set":"bacs1","hex":"#f73b6a7A","correct":-1,"choice":-1,"rt":-1,"accuracy":1,"outcome":"-1","keys":[],"total_keys":0,"block":1,"trial":94,"stimulus":10,"robot":4,"valence":"lose","action":"no-go","sham":0,"trial_type":"pit-trial","trial_index":127,"time_elapsed":639666,"internal_node_id":"0.0-101.0","task_version":"battery-v0.2-trt"},{"rune":"R","rune_set":"bacs1","hex":"#f73b6a7A","correct":32,"choice":32,"rt":895.964999916032,"accuracy":1,"outcome":"-10","keys":[2396.8449998646975],"total_keys":1,"block":1,"trial":95,"stimulus":8,"robot":3,"valence":"lose","action":"go","sham":1,"trial_type":"pit-trial","trial_index":128,"time_elapsed":643270,"internal_node_id":"0.0-102.0","task_version":"battery-v0.2-trt"},{"rune":"B","rune_set":"bacs1","hex":"#3366ff99","correct":-1,"choice":32,"rt":594.6299999486655,"accuracy":0,"outcome":"+1","keys":[2095.200000097975],"total_keys":1,"block":1,"trial":96,"stimulus":11,"robot":2,"valence":"win","action":"no-go","sham":0,"trial_type":"pit-trial","trial_index":129,"time_elapsed":646574,"internal_node_id":"0.0-103.0","task_version":"battery-v0.2-trt"},{"rune":"J","rune_set":"bacs1","hex":"#f73b6a7A","correct":32,"choice":32,"rt":952.2799998521805,"accuracy":1,"outcome":"-10","keys":[2453.809999860823],"total_keys":1,"block":1,"trial":97,"stimulus":9,"robot":3,"valence":"lose","action":"go","sham":1,"trial_type":"pit-trial","trial_index":130,"time_elapsed":650238,"internal_node_id":"0.0-104.0","task_version":"battery-v0.2-trt"},{"rune":"B","rune_set":"bacs1","hex":"#3366ff99","correct":-1,"choice":-1,"rt":-1,"accuracy":1,"outcome":"+10","keys":[],"total_keys":0,"block":1,"trial":98,"stimulus":11,"robot":2,"valence":"win","action":"no-go","sham":0,"trial_type":"pit-trial","trial_index":131,"time_elapsed":654247,"internal_node_id":"0.0-105.0","task_version":"battery-v0.2-trt"},{"rune":"Z","rune_set":"bacs1","hex":"#f73b6a7A","correct":-1,"choice":-1,"rt":-1,"accuracy":1,"outcome":"-1","keys":[],"total_keys":0,"block":1,"trial":99,"stimulus":10,"robot":4,"valence":"lose","action":"no-go","sham":0,"trial_type":"pit-trial","trial_index":132,"time_elapsed":658279,"internal_node_id":"0.0-106.0","task_version":"battery-v0.2-trt"},{"rune":"R","rune_set":"bacs1","hex":"#f73b6a7A","correct":32,"choice":-1,"rt":-1,"accuracy":0,"outcome":"-10","keys":[3749.0250000264496],"total_keys":1,"block":1,"trial":100,"stimulus":8,"robot":3,"valence":"lose","action":"go","sham":0,"trial_type":"pit-trial","trial_index":133,"time_elapsed":662289,"internal_node_id":"0.0-107.0","task_version":"battery-v0.2-trt"},{"rune":"B","rune_set":"bacs1","hex":"#3366ff99","correct":-1,"choice":32,"rt":623.844999819994,"accuracy":0,"outcome":"+1","keys":[2124.2150000762194],"total_keys":1,"block":1,"trial":101,"stimulus":11,"robot":2,"valence":"win","action":"no-go","sham":0,"trial_type":"pit-trial","trial_index":134,"time_elapsed":665622,"internal_node_id":"0.0-108.0","task_version":"battery-v0.2-trt"},{"rune":"Z","rune_set":"bacs1","hex":"#f73b6a7A","correct":-1,"choice":-1,"rt":-1,"accuracy":1,"outcome":"-1","keys":[],"total_keys":0,"block":1,"trial":102,"stimulus":10,"robot":4,"valence":"lose","action":"no-go","sham":0,"trial_type":"pit-trial","trial_index":135,"time_elapsed":669631,"internal_node_id":"0.0-109.0","task_version":"battery-v0.2-trt"},{"rune":"R","rune_set":"bacs1","hex":"#f73b6a7A","correct":32,"choice":-1,"rt":-1,"accuracy":0,"outcome":"-10","keys":[],"total_keys":0,"block":1,"trial":103,"stimulus":8,"robot":3,"valence":"lose","action":"go","sham":0,"trial_type":"pit-trial","trial_index":136,"time_elapsed":673640,"internal_node_id":"0.0-110.0","task_version":"battery-v0.2-trt"},{"rune":"J","rune_set":"bacs1","hex":"#f73b6a7A","correct":32,"choice":32,"rt":696.375000057742,"accuracy":1,"outcome":"-1","keys":[2196.974999969825],"total_keys":1,"block":1,"trial":104,"stimulus":9,"robot":3,"valence":"lose","action":"go","sham":0,"trial_type":"pit-trial","trial_index":137,"time_elapsed":677047,"internal_node_id":"0.0-111.0","task_version":"battery-v0.2-trt"},{"rune":"J","rune_set":"bacs1","hex":"#f73b6a7A","correct":32,"choice":32,"rt":504.5549999922514,"accuracy":1,"outcome":"-1","keys":[2005.769999930635],"total_keys":1,"block":1,"trial":105,"stimulus":9,"robot":3,"valence":"lose","action":"go","sham":0,"trial_type":"pit-trial","trial_index":138,"time_elapsed":680269,"internal_node_id":"0.0-112.0","task_version":"battery-v0.2-trt"},{"rune":"B","rune_set":"bacs1","hex":"#3366ff99","correct":-1,"choice":32,"rt":587.2949999757111,"accuracy":0,"outcome":"+1","keys":[2087.559999898076],"total_keys":1,"block":1,"trial":106,"stimulus":11,"robot":2,"valence":"win","action":"no-go","sham":0,"trial_type":"pit-trial","trial_index":139,"time_elapsed":683567,"internal_node_id":"0.0-113.0","task_version":"battery-v0.2-trt"},{"rune":"R","rune_set":"bacs1","hex":"#f73b6a7A","correct":32,"choice":32,"rt":624.3499999400228,"accuracy":1,"outcome":"-1","keys":[2125.149999978021],"total_keys":1,"block":1,"trial":107,"stimulus":8,"robot":3,"valence":"lose","action":"go","sham":0,"trial_type":"pit-trial","trial_index":140,"time_elapsed":686902,"internal_node_id":"0.0-114.0","task_version":"battery-v0.2-trt"},{"rune":"Z","rune_set":"bacs1","hex":"#f73b6a7A","correct":-1,"choice":32,"rt":626.4750000555068,"accuracy":0,"outcome":"-1","keys":[2127.1200000774115],"total_keys":1,"block":1,"trial":108,"stimulus":10,"robot":4,"valence":"lose","action":"no-go","sham":1,"trial_type":"pit-trial","trial_index":141,"time_elapsed":690238,"internal_node_id":"0.0-115.0","task_version":"battery-v0.2-trt"},{"rune":"B","rune_set":"bacs1","hex":"#3366ff99","correct":-1,"choice":32,"rt":546.4100001845509,"accuracy":0,"outcome":"+1","keys":[2047.6349999662489],"total_keys":1,"block":1,"trial":109,"stimulus":11,"robot":2,"valence":"win","action":"no-go","sham":0,"trial_type":"pit-trial","trial_index":142,"time_elapsed":693496,"internal_node_id":"0.0-116.0","task_version":"battery-v0.2-trt"},{"rune":"J","rune_set":"bacs1","hex":"#f73b6a7A","correct":32,"choice":32,"rt":817.1200000215322,"accuracy":1,"outcome":"-1","keys":[2317.3350000288337],"total_keys":1,"block":1,"trial":110,"stimulus":9,"robot":3,"valence":"lose","action":"go","sham":0,"trial_type":"pit-trial","trial_index":143,"time_elapsed":697021,"internal_node_id":"0.0-117.0","task_version":"battery-v0.2-trt"},{"rune":"Z","rune_set":"bacs1","hex":"#f73b6a7A","correct":-1,"choice":32,"rt":701.2400000821799,"accuracy":0,"outcome":"-1","keys":[2201.714999973774],"total_keys":1,"block":1,"trial":111,"stimulus":10,"robot":4,"valence":"lose","action":"no-go","sham":1,"trial_type":"pit-trial","trial_index":144,"time_elapsed":700430,"internal_node_id":"0.0-118.0","task_version":"battery-v0.2-trt"},{"rune":"R","rune_set":"bacs1","hex":"#f73b6a7A","correct":32,"choice":32,"rt":464.780000038445,"accuracy":1,"outcome":"-1","keys":[1966.4799999445677],"total_keys":1,"block":1,"trial":112,"stimulus":8,"robot":3,"valence":"lose","action":"go","sham":0,"trial_type":"pit-trial","trial_index":145,"time_elapsed":703607,"internal_node_id":"0.0-119.0","task_version":"battery-v0.2-trt"},{"rune":"R","rune_set":"bacs1","hex":"#f73b6a7A","correct":32,"choice":32,"rt":538.7800000607967,"accuracy":1,"outcome":"-1","keys":[2039.145000046119],"total_keys":1,"block":1,"trial":113,"stimulus":8,"robot":3,"valence":"lose","action":"go","sham":0,"trial_type":"pit-trial","trial_index":146,"time_elapsed":706854,"internal_node_id":"0.0-120.0","task_version":"battery-v0.2-trt"},{"rune":"B","rune_set":"bacs1","hex":"#3366ff99","correct":-1,"choice":32,"rt":621.0200001951307,"accuracy":0,"outcome":"+1","keys":[2121.7849999666214],"total_keys":1,"block":1,"trial":114,"stimulus":11,"robot":2,"valence":"win","action":"no-go","sham":0,"trial_type":"pit-trial","trial_index":147,"time_elapsed":710182,"internal_node_id":"0.0-121.0","task_version":"battery-v0.2-trt"},{"rune":"J","rune_set":"bacs1","hex":"#f73b6a7A","correct":32,"choice":32,"rt":458.3999998867512,"accuracy":1,"outcome":"-1","keys":[1958.82000005804],"total_keys":1,"block":1,"trial":115,"stimulus":9,"robot":3,"valence":"lose","action":"go","sham":0,"trial_type":"pit-trial","trial_index":148,"time_elapsed":713351,"internal_node_id":"0.0-122.0","task_version":"battery-v0.2-trt"},{"rune":"Z","rune_set":"bacs1","hex":"#f73b6a7A","correct":-1,"choice":32,"rt":506.8500000052154,"accuracy":0,"outcome":"-10","keys":[2007.6649999246001],"total_keys":1,"block":1,"trial":116,"stimulus":10,"robot":4,"valence":"lose","action":"no-go","sham":0,"trial_type":"pit-trial","trial_index":149,"time_elapsed":716566,"internal_node_id":"0.0-123.0","task_version":"battery-v0.2-trt"},{"rune":"Z","rune_set":"bacs1","hex":"#f73b6a7A","correct":-1,"choice":-1,"rt":-1,"accuracy":1,"outcome":"-1","keys":[2903.449999867007],"total_keys":1,"block":1,"trial":117,"stimulus":10,"robot":4,"valence":"lose","action":"no-go","sham":0,"trial_type":"pit-trial","trial_index":150,"time_elapsed":720575,"internal_node_id":"0.0-124.0","task_version":"battery-v0.2-trt"},{"rune":"J","rune_set":"bacs1","hex":"#f73b6a7A","correct":32,"choice":32,"rt":544.1700001247227,"accuracy":1,"outcome":"-1","keys":[2045.7200000528246],"total_keys":1,"block":1,"trial":118,"stimulus":9,"robot":3,"valence":"lose","action":"go","sham":0,"trial_type":"pit-trial","trial_index":151,"time_elapsed":723830,"internal_node_id":"0.0-125.0","task_version":"battery-v0.2-trt"},{"rune":"B","rune_set":"bacs1","hex":"#3366ff99","correct":-1,"choice":-1,"rt":-1,"accuracy":1,"outcome":"+10","keys":[],"total_keys":0,"block":1,"trial":119,"stimulus":11,"robot":2,"valence":"win","action":"no-go","sham":0,"trial_type":"pit-trial","trial_index":152,"time_elapsed":727845,"internal_node_id":"0.0-126.0","task_version":"battery-v0.2-trt"},{"rune":"R","rune_set":"bacs1","hex":"#f73b6a7A","correct":32,"choice":32,"rt":766.1250000819564,"accuracy":1,"outcome":"-1","keys":[2267.3250001389533],"total_keys":1,"block":1,"trial":120,"stimulus":8,"robot":3,"valence":"lose","action":"go","sham":0,"trial_type":"pit-trial","trial_index":153,"time_elapsed":731319,"internal_node_id":"0.0-127.0","task_version":"battery-v0.2-trt"},{"view_history":"[{\"page_index\":0,\"viewing_time\":16589.570000069216},{\"page_index\":1,\"viewing_time\":13148.09999987483}]","rt":29738.03999996744,"trial_type":"pit-instructions","trial_index":154,"time_elapsed":761064,"internal_node_id":"0.0-128.0","task_version":"battery-v0.2-trt"},{"rune":"G","rune_set":"bacs1","hex":"#f73b6a7A","correct":-1,"choice":-1,"rt":-1,"accuracy":1,"outcome":"-1","keys":[],"total_keys":0,"block":2,"trial":121,"stimulus":1,"robot":4,"valence":"lose","action":"no-go","sham":0,"trial_type":"pit-trial","trial_index":155,"time_elapsed":765074,"internal_node_id":"0.0-129.0","task_version":"battery-v0.2-trt"},{"rune":"N","rune_set":"bacs1","hex":"#f73b6a7A","correct":-1,"choice":-1,"rt":-1,"accuracy":1,"outcome":"-10","keys":[],"total_keys":0,"block":2,"trial":122,"stimulus":0,"robot":4,"valence":"lose","action":"no-go","sham":1,"trial_type":"pit-trial","trial_index":156,"time_elapsed":769087,"internal_node_id":"0.0-130.0","task_version":"battery-v0.2-trt"},{"rune":"O","rune_set":"bacs1","hex":"#3366ff99","correct":-1,"choice":32,"rt":635.6450000312179,"accuracy":0,"outcome":"+1","keys":[2136.600000085309],"total_keys":1,"block":2,"trial":123,"stimulus":3,"robot":2,"valence":"win","action":"no-go","sham":0,"trial_type":"pit-trial","trial_index":157,"time_elapsed":772431,"internal_node_id":"0.0-131.0","task_version":"battery-v0.2-trt"},{"rune":"I","rune_set":"bacs1","hex":"#3366ff99","correct":32,"choice":32,"rt":930.119999917224,"accuracy":1,"outcome":"+10","keys":[2430.8700000401586],"total_keys":1,"block":2,"trial":124,"stimulus":2,"robot":1,"valence":"win","action":"go","sham":0,"trial_type":"pit-trial","trial_index":158,"time_elapsed":776070,"internal_node_id":"0.0-132.0","task_version":"battery-v0.2-trt"},{"rune":"G","rune_set":"bacs1","hex":"#f73b6a7A","correct":-1,"choice":-1,"rt":-1,"accuracy":1,"outcome":"-1","keys":[3044.9449999723583],"total_keys":1,"block":2,"trial":125,"stimulus":1,"robot":4,"valence":"lose","action":"no-go","sham":0,"trial_type":"pit-trial","trial_index":159,"time_elapsed":780088,"internal_node_id":"0.0-133.0","task_version":"battery-v0.2-trt"},{"rune":"I","rune_set":"bacs1","hex":"#3366ff99","correct":32,"choice":32,"rt":697.7200000546873,"accuracy":1,"outcome":"+10","keys":[2197.9799999389797],"total_keys":1,"block":2,"trial":126,"stimulus":2,"robot":1,"valence":"win","action":"go","sham":0,"trial_type":"pit-trial","trial_index":160,"time_elapsed":783495,"internal_node_id":"0.0-134.0","task_version":"battery-v0.2-trt"},{"rune":"O","rune_set":"bacs1","hex":"#3366ff99","correct":-1,"choice":32,"rt":817.6150000654161,"accuracy":0,"outcome":"+1","keys":[2318.134999834001],"total_keys":1,"block":2,"trial":127,"stimulus":3,"robot":2,"valence":"win","action":"no-go","sham":0,"trial_type":"pit-trial","trial_index":161,"time_elapsed":787022,"internal_node_id":"0.0-135.0","task_version":"battery-v0.2-trt"},{"rune":"N","rune_set":"bacs1","hex":"#f73b6a7A","correct":-1,"choice":32,"rt":973.4200001694262,"accuracy":0,"outcome":"-10","keys":[2473.814999917522],"total_keys":1,"block":2,"trial":128,"stimulus":0,"robot":4,"valence":"lose","action":"no-go","sham":0,"trial_type":"pit-trial","trial_index":162,"time_elapsed":790702,"internal_node_id":"0.0-136.0","task_version":"battery-v0.2-trt"},{"rune":"G","rune_set":"bacs1","hex":"#f73b6a7A","correct":-1,"choice":32,"rt":531.0499998740852,"accuracy":0,"outcome":"-10","keys":[2032.1500001009554],"total_keys":1,"block":2,"trial":129,"stimulus":1,"robot":4,"valence":"lose","action":"no-go","sham":0,"trial_type":"pit-trial","trial_index":163,"time_elapsed":793941,"internal_node_id":"0.0-137.0","task_version":"battery-v0.2-trt"},{"rune":"N","rune_set":"bacs1","hex":"#f73b6a7A","correct":-1,"choice":-1,"rt":-1,"accuracy":1,"outcome":"-1","keys":[],"total_keys":0,"block":2,"trial":130,"stimulus":0,"robot":4,"valence":"lose","action":"no-go","sham":0,"trial_type":"pit-trial","trial_index":164,"time_elapsed":797951,"internal_node_id":"0.0-138.0","task_version":"battery-v0.2-trt"},{"rune":"I","rune_set":"bacs1","hex":"#3366ff99","correct":32,"choice":32,"rt":599.4249999057502,"accuracy":1,"outcome":"+10","keys":[2100.174999795854],"total_keys":1,"block":2,"trial":131,"stimulus":2,"robot":1,"valence":"win","action":"go","sham":0,"trial_type":"pit-trial","trial_index":165,"time_elapsed":801271,"internal_node_id":"0.0-139.0","task_version":"battery-v0.2-trt"},{"rune":"O","rune_set":"bacs1","hex":"#3366ff99","correct":-1,"choice":32,"rt":712.4799999874085,"accuracy":0,"outcome":"+1","keys":[2214.739999966696],"total_keys":1,"block":2,"trial":132,"stimulus":3,"robot":2,"valence":"win","action":"no-go","sham":0,"trial_type":"pit-trial","trial_index":166,"time_elapsed":804696,"internal_node_id":"0.0-140.0","task_version":"battery-v0.2-trt"},{"rune":"G","rune_set":"bacs1","hex":"#f73b6a7A","correct":-1,"choice":-1,"rt":-1,"accuracy":1,"outcome":"-1","keys":[],"total_keys":0,"block":2,"trial":133,"stimulus":1,"robot":4,"valence":"lose","action":"no-go","sham":0,"trial_type":"pit-trial","trial_index":167,"time_elapsed":808707,"internal_node_id":"0.0-141.0","task_version":"battery-v0.2-trt"},{"rune":"N","rune_set":"bacs1","hex":"#f73b6a7A","correct":-1,"choice":-1,"rt":-1,"accuracy":1,"outcome":"-1","keys":[],"total_keys":0,"block":2,"trial":134,"stimulus":0,"robot":4,"valence":"lose","action":"no-go","sham":0,"trial_type":"pit-trial","trial_index":168,"time_elapsed":812717,"internal_node_id":"0.0-142.0","task_version":"battery-v0.2-trt"},{"rune":"O","rune_set":"bacs1","hex":"#3366ff99","correct":-1,"choice":-1,"rt":-1,"accuracy":1,"outcome":"+10","keys":[],"total_keys":0,"block":2,"trial":135,"stimulus":3,"robot":2,"valence":"win","action":"no-go","sham":0,"trial_type":"pit-trial","trial_index":169,"time_elapsed":816728,"internal_node_id":"0.0-143.0","task_version":"battery-v0.2-trt"},{"rune":"I","rune_set":"bacs1","hex":"#3366ff99","correct":32,"choice":32,"rt":616.0450000315905,"accuracy":1,"outcome":"+10","keys":[2117.9599999450147],"total_keys":1,"block":2,"trial":136,"stimulus":2,"robot":1,"valence":"win","action":"go","sham":0,"trial_type":"pit-trial","trial_index":170,"time_elapsed":820057,"internal_node_id":"0.0-144.0","task_version":"battery-v0.2-trt"},{"rune":"O","rune_set":"bacs1","hex":"#3366ff99","correct":-1,"choice":-1,"rt":-1,"accuracy":1,"outcome":"+10","keys":[],"total_keys":0,"block":2,"trial":137,"stimulus":3,"robot":2,"valence":"win","action":"no-go","sham":0,"trial_type":"pit-trial","trial_index":171,"time_elapsed":824067,"internal_node_id":"0.0-145.0","task_version":"battery-v0.2-trt"},{"rune":"G","rune_set":"bacs1","hex":"#f73b6a7A","correct":-1,"choice":-1,"rt":-1,"accuracy":1,"outcome":"-1","keys":[],"total_keys":0,"block":2,"trial":138,"stimulus":1,"robot":4,"valence":"lose","action":"no-go","sham":0,"trial_type":"pit-trial","trial_index":172,"time_elapsed":828076,"internal_node_id":"0.0-146.0","task_version":"battery-v0.2-trt"},{"rune":"N","rune_set":"bacs1","hex":"#f73b6a7A","correct":-1,"choice":-1,"rt":-1,"accuracy":1,"outcome":"-10","keys":[],"total_keys":0,"block":2,"trial":139,"stimulus":0,"robot":4,"valence":"lose","action":"no-go","sham":1,"trial_type":"pit-trial","trial_index":173,"time_elapsed":832087,"internal_node_id":"0.0-147.0","task_version":"battery-v0.2-trt"},{"rune":"I","rune_set":"bacs1","hex":"#3366ff99","correct":32,"choice":32,"rt":486.9550000876188,"accuracy":1,"outcome":"+10","keys":[1988.4750000201166],"total_keys":1,"block":2,"trial":140,"stimulus":2,"robot":1,"valence":"win","action":"go","sham":0,"trial_type":"pit-trial","trial_index":174,"time_elapsed":835294,"internal_node_id":"0.0-148.0","task_version":"battery-v0.2-trt"},{"rune":"I","rune_set":"bacs1","hex":"#3366ff99","correct":32,"choice":32,"rt":569.9350000359118,"accuracy":1,"outcome":"+1","keys":[2071.334999985993],"total_keys":1,"block":2,"trial":141,"stimulus":2,"robot":1,"valence":"win","action":"go","sham":1,"trial_type":"pit-trial","trial_index":175,"time_elapsed":838575,"internal_node_id":"0.0-149.0","task_version":"battery-v0.2-trt"},{"rune":"N","rune_set":"bacs1","hex":"#f73b6a7A","correct":-1,"choice":32,"rt":1170.1549999415874,"accuracy":0,"outcome":"-10","keys":[2671.1149998009205],"total_keys":1,"block":2,"trial":142,"stimulus":0,"robot":4,"valence":"lose","action":"no-go","sham":0,"trial_type":"pit-trial","trial_index":176,"time_elapsed":842455,"internal_node_id":"0.0-150.0","task_version":"battery-v0.2-trt"},{"rune":"O","rune_set":"bacs1","hex":"#3366ff99","correct":-1,"choice":32,"rt":584.2649999540299,"accuracy":0,"outcome":"+1","keys":[2086.7700001690537],"total_keys":1,"block":2,"trial":143,"stimulus":3,"robot":2,"valence":"win","action":"no-go","sham":0,"trial_type":"pit-trial","trial_index":177,"time_elapsed":845752,"internal_node_id":"0.0-151.0","task_version":"battery-v0.2-trt"},{"rune":"G","rune_set":"bacs1","hex":"#f73b6a7A","correct":-1,"choice":-1,"rt":-1,"accuracy":1,"outcome":"-1","keys":[],"total_keys":0,"block":2,"trial":144,"stimulus":1,"robot":4,"valence":"lose","action":"no-go","sham":0,"trial_type":"pit-trial","trial_index":178,"time_elapsed":849762,"internal_node_id":"0.0-152.0","task_version":"battery-v0.2-trt"},{"rune":"G","rune_set":"bacs1","hex":"#f73b6a7A","correct":-1,"choice":-1,"rt":-1,"accuracy":1,"outcome":"-1","keys":[],"total_keys":0,"block":2,"trial":145,"stimulus":1,"robot":4,"valence":"lose","action":"no-go","sham":0,"trial_type":"pit-trial","trial_index":179,"time_elapsed":853772,"internal_node_id":"0.0-153.0","task_version":"battery-v0.2-trt"},{"rune":"N","rune_set":"bacs1","hex":"#f73b6a7A","correct":-1,"choice":32,"rt":884.3249999918044,"accuracy":0,"outcome":"-10","keys":[2384.594999952242],"total_keys":1,"block":2,"trial":146,"stimulus":0,"robot":4,"valence":"lose","action":"no-go","sham":0,"trial_type":"pit-trial","trial_index":180,"time_elapsed":857376,"internal_node_id":"0.0-154.0","task_version":"battery-v0.2-trt"},{"rune":"I","rune_set":"bacs1","hex":"#3366ff99","correct":32,"choice":32,"rt":448.91000003553927,"accuracy":1,"outcome":"+10","keys":[1949.9500000383705],"total_keys":1,"block":2,"trial":147,"stimulus":2,"robot":1,"valence":"win","action":"go","sham":0,"trial_type":"pit-trial","trial_index":181,"time_elapsed":860536,"internal_node_id":"0.0-155.0","task_version":"battery-v0.2-trt"},{"rune":"O","rune_set":"bacs1","hex":"#3366ff99","correct":-1,"choice":-1,"rt":-1,"accuracy":1,"outcome":"+10","keys":[],"total_keys":0,"block":2,"trial":148,"stimulus":3,"robot":2,"valence":"win","action":"no-go","sham":0,"trial_type":"pit-trial","trial_index":182,"time_elapsed":864545,"internal_node_id":"0.0-156.0","task_version":"battery-v0.2-trt"},{"rune":"O","rune_set":"bacs1","hex":"#3366ff99","correct":-1,"choice":-1,"rt":-1,"accuracy":1,"outcome":"+10","keys":[],"total_keys":0,"block":2,"trial":149,"stimulus":3,"robot":2,"valence":"win","action":"no-go","sham":0,"trial_type":"pit-trial","trial_index":183,"time_elapsed":868553,"internal_node_id":"0.0-157.0","task_version":"battery-v0.2-trt"},{"rune":"N","rune_set":"bacs1","hex":"#f73b6a7A","correct":-1,"choice":32,"rt":1015.6049998477101,"accuracy":0,"outcome":"-10","keys":[2516.010000137612],"total_keys":1,"block":2,"trial":150,"stimulus":0,"robot":4,"valence":"lose","action":"no-go","sham":0,"trial_type":"pit-trial","trial_index":184,"time_elapsed":872287,"internal_node_id":"0.0-158.0","task_version":"battery-v0.2-trt"},{"rune":"G","rune_set":"bacs1","hex":"#f73b6a7A","correct":-1,"choice":-1,"rt":-1,"accuracy":1,"outcome":"-1","keys":[],"total_keys":0,"block":2,"trial":151,"stimulus":1,"robot":4,"valence":"lose","action":"no-go","sham":0,"trial_type":"pit-trial","trial_index":185,"time_elapsed":876297,"internal_node_id":"0.0-159.0","task_version":"battery-v0.2-trt"},{"rune":"I","rune_set":"bacs1","hex":"#3366ff99","correct":32,"choice":-1,"rt":-1,"accuracy":0,"outcome":"+1","keys":[],"total_keys":0,"block":2,"trial":152,"stimulus":2,"robot":1,"valence":"win","action":"go","sham":0,"trial_type":"pit-trial","trial_index":186,"time_elapsed":880306,"internal_node_id":"0.0-160.0","task_version":"battery-v0.2-trt"},{"rune":"O","rune_set":"bacs1","hex":"#3366ff99","correct":-1,"choice":-1,"rt":-1,"accuracy":1,"outcome":"+10","keys":[],"total_keys":0,"block":2,"trial":153,"stimulus":3,"robot":2,"valence":"win","action":"no-go","sham":0,"trial_type":"pit-trial","trial_index":187,"time_elapsed":884313,"internal_node_id":"0.0-161.0","task_version":"battery-v0.2-trt"},{"rune":"I","rune_set":"bacs1","hex":"#3366ff99","correct":32,"choice":32,"rt":686.5000000689179,"accuracy":1,"outcome":"+1","keys":[2186.754999915138],"total_keys":1,"block":2,"trial":154,"stimulus":2,"robot":1,"valence":"win","action":"go","sham":1,"trial_type":"pit-trial","trial_index":188,"time_elapsed":887719,"internal_node_id":"0.0-162.0","task_version":"battery-v0.2-trt"},{"rune":"N","rune_set":"bacs1","hex":"#f73b6a7A","correct":-1,"choice":32,"rt":1072.8200001176447,"accuracy":0,"outcome":"-10","keys":[2574.070000089705],"total_keys":1,"block":2,"trial":155,"stimulus":0,"robot":4,"valence":"lose","action":"no-go","sham":0,"trial_type":"pit-trial","trial_index":189,"time_elapsed":891503,"internal_node_id":"0.0-163.0","task_version":"battery-v0.2-trt"},{"rune":"D","rune_set":"bacs1","hex":"#f73b6a7A","correct":32,"choice":-1,"rt":-1,"accuracy":0,"outcome":"-10","keys":[3980.8800001628697],"total_keys":1,"block":2,"trial":156,"stimulus":4,"robot":3,"valence":"lose","action":"go","sham":0,"trial_type":"pit-trial","trial_index":190,"time_elapsed":895516,"internal_node_id":"0.0-164.0","task_version":"battery-v0.2-trt"},{"rune":"N","rune_set":"bacs1","hex":"#f73b6a7A","correct":-1,"choice":32,"rt":725.550000090152,"accuracy":0,"outcome":"-10","keys":[2225.709999911487],"total_keys":1,"block":2,"trial":157,"stimulus":0,"robot":4,"valence":"lose","action":"no-go","sham":0,"trial_type":"pit-trial","trial_index":191,"time_elapsed":898958,"internal_node_id":"0.0-165.0","task_version":"battery-v0.2-trt"},{"rune":"D","rune_set":"bacs1","hex":"#f73b6a7A","correct":32,"choice":-1,"rt":-1,"accuracy":0,"outcome":"-10","keys":[3855.6200000457466],"total_keys":1,"block":2,"trial":158,"stimulus":4,"robot":3,"valence":"lose","action":"go","sham":0,"trial_type":"pit-trial","trial_index":192,"time_elapsed":902967,"internal_node_id":"0.0-166.0","task_version":"battery-v0.2-trt"},{"rune":"O","rune_set":"bacs1","hex":"#3366ff99","correct":-1,"choice":-1,"rt":-1,"accuracy":1,"outcome":"+1","keys":[3486.3050000276417],"total_keys":1,"block":2,"trial":159,"stimulus":3,"robot":2,"valence":"win","action":"no-go","sham":1,"trial_type":"pit-trial","trial_index":193,"time_elapsed":906984,"internal_node_id":"0.0-167.0","task_version":"battery-v0.2-trt"},{"rune":"I","rune_set":"bacs1","hex":"#3366ff99","correct":32,"choice":32,"rt":607.3549999855459,"accuracy":1,"outcome":"+10","keys":[2108.239999972284],"total_keys":1,"block":2,"trial":160,"stimulus":2,"robot":1,"valence":"win","action":"go","sham":0,"trial_type":"pit-trial","trial_index":194,"time_elapsed":910302,"internal_node_id":"0.0-168.0","task_version":"battery-v0.2-trt"},{"rune":"S","rune_set":"bacs1","hex":"#3366ff99","correct":32,"choice":32,"rt":858.4999998565763,"accuracy":1,"outcome":"+10","keys":[2358.5999999195337],"total_keys":1,"block":2,"trial":161,"stimulus":6,"robot":1,"valence":"win","action":"go","sham":0,"trial_type":"pit-trial","trial_index":195,"time_elapsed":913870,"internal_node_id":"0.0-169.0","task_version":"battery-v0.2-trt"},{"rune":"K","rune_set":"bacs1","hex":"#3366ff99","correct":-1,"choice":32,"rt":499.4350001215935,"accuracy":0,"outcome":"+1","keys":[1999.904999975115],"total_keys":1,"block":2,"trial":162,"stimulus":5,"robot":2,"valence":"win","action":"no-go","sham":0,"trial_type":"pit-trial","trial_index":196,"time_elapsed":917079,"internal_node_id":"0.0-170.0","task_version":"battery-v0.2-trt"},{"rune":"D","rune_set":"bacs1","hex":"#f73b6a7A","correct":32,"choice":-1,"rt":-1,"accuracy":0,"outcome":"-10","keys":[],"total_keys":0,"block":2,"trial":163,"stimulus":4,"robot":3,"valence":"lose","action":"go","sham":0,"trial_type":"pit-trial","trial_index":197,"time_elapsed":921086,"internal_node_id":"0.0-171.0","task_version":"battery-v0.2-trt"},{"rune":"N","rune_set":"bacs1","hex":"#f73b6a7A","correct":-1,"choice":32,"rt":757.2749999817461,"accuracy":0,"outcome":"-10","keys":[2258.4700000006706],"total_keys":1,"block":2,"trial":164,"stimulus":0,"robot":4,"valence":"lose","action":"no-go","sham":0,"trial_type":"pit-trial","trial_index":198,"time_elapsed":924552,"internal_node_id":"0.0-172.0","task_version":"battery-v0.2-trt"},{"rune":"K","rune_set":"bacs1","hex":"#3366ff99","correct":-1,"choice":32,"rt":456.60499995574355,"accuracy":0,"outcome":"+1","keys":[1957.5149999000132],"total_keys":1,"block":2,"trial":165,"stimulus":5,"robot":2,"valence":"win","action":"no-go","sham":0,"trial_type":"pit-trial","trial_index":199,"time_elapsed":927718,"internal_node_id":"0.0-173.0","task_version":"battery-v0.2-trt"},{"rune":"D","rune_set":"bacs1","hex":"#f73b6a7A","correct":32,"choice":-1,"rt":-1,"accuracy":0,"outcome":"-10","keys":[],"total_keys":0,"block":2,"trial":166,"stimulus":4,"robot":3,"valence":"lose","action":"go","sham":0,"trial_type":"pit-trial","trial_index":200,"time_elapsed":931727,"internal_node_id":"0.0-174.0","task_version":"battery-v0.2-trt"},{"rune":"S","rune_set":"bacs1","hex":"#3366ff99","correct":32,"choice":32,"rt":512.9499998874962,"accuracy":1,"outcome":"+10","keys":[2014.8849999532104],"total_keys":1,"block":2,"trial":167,"stimulus":6,"robot":1,"valence":"win","action":"go","sham":0,"trial_type":"pit-trial","trial_index":201,"time_elapsed":934951,"internal_node_id":"0.0-175.0","task_version":"battery-v0.2-trt"},{"rune":"N","rune_set":"bacs1","hex":"#f73b6a7A","correct":-1,"choice":32,"rt":1144.66999983415,"accuracy":0,"outcome":"-10","keys":[2645.265000173822],"total_keys":1,"block":2,"trial":168,"stimulus":0,"robot":4,"valence":"lose","action":"no-go","sham":0,"trial_type":"pit-trial","trial_index":202,"time_elapsed":938807,"internal_node_id":"0.0-176.0","task_version":"battery-v0.2-trt"},{"rune":"D","rune_set":"bacs1","hex":"#f73b6a7A","correct":32,"choice":-1,"rt":-1,"accuracy":0,"outcome":"-10","keys":[3294.0899999812245],"total_keys":1,"block":2,"trial":169,"stimulus":4,"robot":3,"valence":"lose","action":"go","sham":0,"trial_type":"pit-trial","trial_index":203,"time_elapsed":942817,"internal_node_id":"0.0-177.0","task_version":"battery-v0.2-trt"},{"rune":"S","rune_set":"bacs1","hex":"#3366ff99","correct":32,"choice":32,"rt":581.705000018701,"accuracy":1,"outcome":"+10","keys":[2082.2550000157207],"total_keys":1,"block":2,"trial":170,"stimulus":6,"robot":1,"valence":"win","action":"go","sham":0,"trial_type":"pit-trial","trial_index":204,"time_elapsed":946120,"internal_node_id":"0.0-178.0","task_version":"battery-v0.2-trt"},{"rune":"K","rune_set":"bacs1","hex":"#3366ff99","correct":-1,"choice":-1,"rt":-1,"accuracy":1,"outcome":"+10","keys":[],"total_keys":0,"block":2,"trial":171,"stimulus":5,"robot":2,"valence":"win","action":"no-go","sham":0,"trial_type":"pit-trial","trial_index":205,"time_elapsed":950128,"internal_node_id":"0.0-179.0","task_version":"battery-v0.2-trt"},{"rune":"U","rune_set":"bacs1","hex":"#f73b6a7A","correct":-1,"choice":32,"rt":883.9849999640137,"accuracy":0,"outcome":"-10","keys":[2384.645000100136],"total_keys":1,"block":2,"trial":172,"stimulus":7,"robot":4,"valence":"lose","action":"no-go","sham":0,"trial_type":"pit-trial","trial_index":206,"time_elapsed":953719,"internal_node_id":"0.0-180.0","task_version":"battery-v0.2-trt"},{"rune":"U","rune_set":"bacs1","hex":"#f73b6a7A","correct":-1,"choice":-1,"rt":-1,"accuracy":1,"outcome":"-1","keys":[],"total_keys":0,"block":2,"trial":173,"stimulus":7,"robot":4,"valence":"lose","action":"no-go","sham":0,"trial_type":"pit-trial","trial_index":207,"time_elapsed":957730,"internal_node_id":"0.0-181.0","task_version":"battery-v0.2-trt"},{"rune":"S","rune_set":"bacs1","hex":"#3366ff99","correct":32,"choice":32,"rt":831.5950001124293,"accuracy":1,"outcome":"+10","keys":[2332.759999902919],"total_keys":1,"block":2,"trial":174,"stimulus":6,"robot":1,"valence":"win","action":"go","sham":0,"trial_type":"pit-trial","trial_index":208,"time_elapsed":961272,"internal_node_id":"0.0-182.0","task_version":"battery-v0.2-trt"},{"rune":"K","rune_set":"bacs1","hex":"#3366ff99","correct":-1,"choice":32,"rt":849.7249998617917,"accuracy":0,"outcome":"+1","keys":[2350.349999964237],"total_keys":1,"block":2,"trial":175,"stimulus":5,"robot":2,"valence":"win","action":"no-go","sham":0,"trial_type":"pit-trial","trial_index":209,"time_elapsed":964832,"internal_node_id":"0.0-183.0","task_version":"battery-v0.2-trt"},{"rune":"D","rune_set":"bacs1","hex":"#f73b6a7A","correct":32,"choice":-1,"rt":-1,"accuracy":0,"outcome":"-10","keys":[],"total_keys":0,"block":2,"trial":176,"stimulus":4,"robot":3,"valence":"lose","action":"go","sham":0,"trial_type":"pit-trial","trial_index":210,"time_elapsed":968839,"internal_node_id":"0.0-184.0","task_version":"battery-v0.2-trt"},{"rune":"D","rune_set":"bacs1","hex":"#f73b6a7A","correct":32,"choice":32,"rt":1261.570000089705,"accuracy":1,"outcome":"-1","keys":[2762.129999930039],"total_keys":1,"block":2,"trial":177,"stimulus":4,"robot":3,"valence":"lose","action":"go","sham":0,"trial_type":"pit-trial","trial_index":211,"time_elapsed":972808,"internal_node_id":"0.0-185.0","task_version":"battery-v0.2-trt"},{"rune":"K","rune_set":"bacs1","hex":"#3366ff99","correct":-1,"choice":-1,"rt":-1,"accuracy":1,"outcome":"+10","keys":[],"total_keys":0,"block":2,"trial":178,"stimulus":5,"robot":2,"valence":"win","action":"no-go","sham":0,"trial_type":"pit-trial","trial_index":212,"time_elapsed":976817,"internal_node_id":"0.0-186.0","task_version":"battery-v0.2-trt"},{"rune":"S","rune_set":"bacs1","hex":"#3366ff99","correct":32,"choice":32,"rt":678.4200000111014,"accuracy":1,"outcome":"+10","keys":[2179.634999949485],"total_keys":1,"block":2,"trial":179,"stimulus":6,"robot":1,"valence":"win","action":"go","sham":0,"trial_type":"pit-trial","trial_index":213,"time_elapsed":980206,"internal_node_id":"0.0-187.0","task_version":"battery-v0.2-trt"},{"rune":"U","rune_set":"bacs1","hex":"#f73b6a7A","correct":-1,"choice":-1,"rt":-1,"accuracy":1,"outcome":"-10","keys":[],"total_keys":0,"block":2,"trial":180,"stimulus":7,"robot":4,"valence":"lose","action":"no-go","sham":1,"trial_type":"pit-trial","trial_index":214,"time_elapsed":984218,"internal_node_id":"0.0-188.0","task_version":"battery-v0.2-trt"},{"rune":"D","rune_set":"bacs1","hex":"#f73b6a7A","correct":32,"choice":32,"rt":1219.370000064373,"accuracy":1,"outcome":"-1","keys":[2719.740000087768],"total_keys":1,"block":2,"trial":181,"stimulus":4,"robot":3,"valence":"lose","action":"go","sham":0,"trial_type":"pit-trial","trial_index":215,"time_elapsed":988144,"internal_node_id":"0.0-189.0","task_version":"battery-v0.2-trt"},{"rune":"K","rune_set":"bacs1","hex":"#3366ff99","correct":-1,"choice":-1,"rt":-1,"accuracy":1,"outcome":"+1","keys":[],"total_keys":0,"block":2,"trial":182,"stimulus":5,"robot":2,"valence":"win","action":"no-go","sham":1,"trial_type":"pit-trial","trial_index":216,"time_elapsed":992157,"internal_node_id":"0.0-190.0","task_version":"battery-v0.2-trt"},{"rune":"S","rune_set":"bacs1","hex":"#3366ff99","correct":32,"choice":32,"rt":615.5299998354167,"accuracy":1,"outcome":"+10","keys":[2115.9800000023097],"total_keys":1,"block":2,"trial":183,"stimulus":6,"robot":1,"valence":"win","action":"go","sham":0,"trial_type":"pit-trial","trial_index":217,"time_elapsed":995479,"internal_node_id":"0.0-191.0","task_version":"battery-v0.2-trt"},{"rune":"U","rune_set":"bacs1","hex":"#f73b6a7A","correct":-1,"choice":-1,"rt":-1,"accuracy":1,"outcome":"-1","keys":[],"total_keys":0,"block":2,"trial":184,"stimulus":7,"robot":4,"valence":"lose","action":"no-go","sham":0,"trial_type":"pit-trial","trial_index":218,"time_elapsed":999490,"internal_node_id":"0.0-192.0","task_version":"battery-v0.2-trt"},{"rune":"K","rune_set":"bacs1","hex":"#3366ff99","correct":-1,"choice":-1,"rt":-1,"accuracy":1,"outcome":"+10","keys":[],"total_keys":0,"block":2,"trial":185,"stimulus":5,"robot":2,"valence":"win","action":"no-go","sham":0,"trial_type":"pit-trial","trial_index":219,"time_elapsed":1003500,"internal_node_id":"0.0-193.0","task_version":"battery-v0.2-trt"},{"rune":"S","rune_set":"bacs1","hex":"#3366ff99","correct":32,"choice":32,"rt":742.3399998806417,"accuracy":1,"outcome":"+10","keys":[2243.5399999376386],"total_keys":1,"block":2,"trial":186,"stimulus":6,"robot":1,"valence":"win","action":"go","sham":0,"trial_type":"pit-trial","trial_index":220,"time_elapsed":1006952,"internal_node_id":"0.0-194.0","task_version":"battery-v0.2-trt"},{"rune":"U","rune_set":"bacs1","hex":"#f73b6a7A","correct":-1,"choice":-1,"rt":-1,"accuracy":1,"outcome":"-1","keys":[],"total_keys":0,"block":2,"trial":187,"stimulus":7,"robot":4,"valence":"lose","action":"no-go","sham":0,"trial_type":"pit-trial","trial_index":221,"time_elapsed":1010960,"internal_node_id":"0.0-195.0","task_version":"battery-v0.2-trt"},{"rune":"D","rune_set":"bacs1","hex":"#f73b6a7A","correct":32,"choice":-1,"rt":-1,"accuracy":0,"outcome":"-10","keys":[],"total_keys":0,"block":2,"trial":188,"stimulus":4,"robot":3,"valence":"lose","action":"go","sham":0,"trial_type":"pit-trial","trial_index":222,"time_elapsed":1014970,"internal_node_id":"0.0-196.0","task_version":"battery-v0.2-trt"},{"rune":"U","rune_set":"bacs1","hex":"#f73b6a7A","correct":-1,"choice":-1,"rt":-1,"accuracy":1,"outcome":"-1","keys":[],"total_keys":0,"block":2,"trial":189,"stimulus":7,"robot":4,"valence":"lose","action":"no-go","sham":0,"trial_type":"pit-trial","trial_index":223,"time_elapsed":1018978,"internal_node_id":"0.0-197.0","task_version":"battery-v0.2-trt"},{"rune":"K","rune_set":"bacs1","hex":"#3366ff99","correct":-1,"choice":-1,"rt":-1,"accuracy":1,"outcome":"+10","keys":[],"total_keys":0,"block":2,"trial":190,"stimulus":5,"robot":2,"valence":"win","action":"no-go","sham":0,"trial_type":"pit-trial","trial_index":224,"time_elapsed":1023006,"internal_node_id":"0.0-198.0","task_version":"battery-v0.2-trt"},{"rune":"S","rune_set":"bacs1","hex":"#3366ff99","correct":32,"choice":-1,"rt":-1,"accuracy":0,"outcome":"+1","keys":[],"total_keys":0,"block":2,"trial":191,"stimulus":6,"robot":1,"valence":"win","action":"go","sham":0,"trial_type":"pit-trial","trial_index":225,"time_elapsed":1027013,"internal_node_id":"0.0-199.0","task_version":"battery-v0.2-trt"},{"rune":"D","rune_set":"bacs1","hex":"#f73b6a7A","correct":32,"choice":-1,"rt":-1,"accuracy":0,"outcome":"-10","keys":[],"total_keys":0,"block":2,"trial":192,"stimulus":4,"robot":3,"valence":"lose","action":"go","sham":0,"trial_type":"pit-trial","trial_index":226,"time_elapsed":1031020,"internal_node_id":"0.0-200.0","task_version":"battery-v0.2-trt"},{"rune":"K","rune_set":"bacs1","hex":"#3366ff99","correct":-1,"choice":-1,"rt":-1,"accuracy":1,"outcome":"+1","keys":[],"total_keys":0,"block":2,"trial":193,"stimulus":5,"robot":2,"valence":"win","action":"no-go","sham":1,"trial_type":"pit-trial","trial_index":227,"time_elapsed":1035029,"internal_node_id":"0.0-201.0","task_version":"battery-v0.2-trt"},{"rune":"U","rune_set":"bacs1","hex":"#f73b6a7A","correct":-1,"choice":-1,"rt":-1,"accuracy":1,"outcome":"-1","keys":[],"total_keys":0,"block":2,"trial":194,"stimulus":7,"robot":4,"valence":"lose","action":"no-go","sham":0,"trial_type":"pit-trial","trial_index":228,"time_elapsed":1039042,"internal_node_id":"0.0-202.0","task_version":"battery-v0.2-trt"},{"rune":"M","rune_set":"bacs1","hex":"#3366ff99","correct":32,"choice":32,"rt":969.2449998110533,"accuracy":1,"outcome":"+10","keys":[2471.8949999660254],"total_keys":1,"block":2,"trial":195,"stimulus":8,"robot":1,"valence":"win","action":"go","sham":0,"trial_type":"pit-trial","trial_index":229,"time_elapsed":1042720,"internal_node_id":"0.0-203.0","task_version":"battery-v0.2-trt"},{"rune":"P","rune_set":"bacs1","hex":"#f73b6a7A","correct":32,"choice":-1,"rt":-1,"accuracy":0,"outcome":"-10","keys":[],"total_keys":0,"block":2,"trial":196,"stimulus":9,"robot":3,"valence":"lose","action":"go","sham":0,"trial_type":"pit-trial","trial_index":230,"time_elapsed":1046730,"internal_node_id":"0.0-204.0","task_version":"battery-v0.2-trt"},{"rune":"M","rune_set":"bacs1","hex":"#3366ff99","correct":32,"choice":32,"rt":478.2950000371784,"accuracy":1,"outcome":"+10","keys":[1980.2500000223517],"total_keys":1,"block":2,"trial":197,"stimulus":8,"robot":1,"valence":"win","action":"go","sham":0,"trial_type":"pit-trial","trial_index":231,"time_elapsed":1049920,"internal_node_id":"0.0-205.0","task_version":"battery-v0.2-trt"},{"rune":"K","rune_set":"bacs1","hex":"#3366ff99","correct":-1,"choice":-1,"rt":-1,"accuracy":1,"outcome":"+10","keys":[],"total_keys":0,"block":2,"trial":198,"stimulus":5,"robot":2,"valence":"win","action":"no-go","sham":0,"trial_type":"pit-trial","trial_index":232,"time_elapsed":1053934,"internal_node_id":"0.0-206.0","task_version":"battery-v0.2-trt"},{"rune":"P","rune_set":"bacs1","hex":"#f73b6a7A","correct":32,"choice":-1,"rt":-1,"accuracy":0,"outcome":"-10","keys":[],"total_keys":0,"block":2,"trial":199,"stimulus":9,"robot":3,"valence":"lose","action":"go","sham":0,"trial_type":"pit-trial","trial_index":233,"time_elapsed":1057951,"internal_node_id":"0.0-207.0","task_version":"battery-v0.2-trt"},{"rune":"U","rune_set":"bacs1","hex":"#f73b6a7A","correct":-1,"choice":-1,"rt":-1,"accuracy":1,"outcome":"-1","keys":[],"total_keys":0,"block":2,"trial":200,"stimulus":7,"robot":4,"valence":"lose","action":"no-go","sham":0,"trial_type":"pit-trial","trial_index":234,"time_elapsed":1061968,"internal_node_id":"0.0-208.0","task_version":"battery-v0.2-trt"},{"rune":"M","rune_set":"bacs1","hex":"#3366ff99","correct":32,"choice":32,"rt":1062.5150001142174,"accuracy":1,"outcome":"+1","keys":[2563.6449998710304],"total_keys":1,"block":2,"trial":201,"stimulus":8,"robot":1,"valence":"win","action":"go","sham":1,"trial_type":"pit-trial","trial_index":235,"time_elapsed":1065751,"internal_node_id":"0.0-209.0","task_version":"battery-v0.2-trt"},{"rune":"K","rune_set":"bacs1","hex":"#3366ff99","correct":-1,"choice":-1,"rt":-1,"accuracy":1,"outcome":"+10","keys":[],"total_keys":0,"block":2,"trial":202,"stimulus":5,"robot":2,"valence":"win","action":"no-go","sham":0,"trial_type":"pit-trial","trial_index":236,"time_elapsed":1069759,"internal_node_id":"0.0-210.0","task_version":"battery-v0.2-trt"},{"rune":"P","rune_set":"bacs1","hex":"#f73b6a7A","correct":32,"choice":32,"rt":756.0049998573959,"accuracy":1,"outcome":"-1","keys":[2258.5549999494106],"total_keys":1,"block":2,"trial":203,"stimulus":9,"robot":3,"valence":"lose","action":"go","sham":0,"trial_type":"pit-trial","trial_index":237,"time_elapsed":1073224,"internal_node_id":"0.0-211.0","task_version":"battery-v0.2-trt"},{"rune":"U","rune_set":"bacs1","hex":"#f73b6a7A","correct":-1,"choice":-1,"rt":-1,"accuracy":1,"outcome":"-1","keys":[],"total_keys":0,"block":2,"trial":204,"stimulus":7,"robot":4,"valence":"lose","action":"no-go","sham":0,"trial_type":"pit-trial","trial_index":238,"time_elapsed":1077237,"internal_node_id":"0.0-212.0","task_version":"battery-v0.2-trt"},{"rune":"K","rune_set":"bacs1","hex":"#3366ff99","correct":-1,"choice":32,"rt":1019.3799999542534,"accuracy":0,"outcome":"+1","keys":[2520.225000102073],"total_keys":1,"block":2,"trial":205,"stimulus":5,"robot":2,"valence":"win","action":"no-go","sham":0,"trial_type":"pit-trial","trial_index":239,"time_elapsed":1080968,"internal_node_id":"0.0-213.0","task_version":"battery-v0.2-trt"},{"rune":"U","rune_set":"bacs1","hex":"#f73b6a7A","correct":-1,"choice":-1,"rt":-1,"accuracy":1,"outcome":"-1","keys":[],"total_keys":0,"block":2,"trial":206,"stimulus":7,"robot":4,"valence":"lose","action":"no-go","sham":0,"trial_type":"pit-trial","trial_index":240,"time_elapsed":1084978,"internal_node_id":"0.0-214.0","task_version":"battery-v0.2-trt"},{"rune":"P","rune_set":"bacs1","hex":"#f73b6a7A","correct":32,"choice":-1,"rt":-1,"accuracy":0,"outcome":"-10","keys":[],"total_keys":0,"block":2,"trial":207,"stimulus":9,"robot":3,"valence":"lose","action":"go","sham":0,"trial_type":"pit-trial","trial_index":241,"time_elapsed":1088986,"internal_node_id":"0.0-215.0","task_version":"battery-v0.2-trt"},{"rune":"M","rune_set":"bacs1","hex":"#3366ff99","correct":32,"choice":32,"rt":808.0700000282377,"accuracy":1,"outcome":"+10","keys":[2309.784999815747],"total_keys":1,"block":2,"trial":208,"stimulus":8,"robot":1,"valence":"win","action":"go","sham":0,"trial_type":"pit-trial","trial_index":242,"time_elapsed":1092513,"internal_node_id":"0.0-216.0","task_version":"battery-v0.2-trt"},{"rune":"M","rune_set":"bacs1","hex":"#3366ff99","correct":32,"choice":32,"rt":665.8850000239909,"accuracy":1,"outcome":"+10","keys":[2167.0049999374896],"total_keys":1,"block":2,"trial":209,"stimulus":8,"robot":1,"valence":"win","action":"go","sham":0,"trial_type":"pit-trial","trial_index":243,"time_elapsed":1095888,"internal_node_id":"0.0-217.0","task_version":"battery-v0.2-trt"},{"rune":"P","rune_set":"bacs1","hex":"#f73b6a7A","correct":32,"choice":32,"rt":788.8650000095367,"accuracy":1,"outcome":"-1","keys":[2288.979999953881],"total_keys":1,"block":2,"trial":210,"stimulus":9,"robot":3,"valence":"lose","action":"go","sham":0,"trial_type":"pit-trial","trial_index":244,"time_elapsed":1099383,"internal_node_id":"0.0-218.0","task_version":"battery-v0.2-trt"},{"rune":"H","rune_set":"bacs1","hex":"#f73b6a7A","correct":32,"choice":32,"rt":844.2299999296665,"accuracy":1,"outcome":"-1","keys":[2344.4900000467896],"total_keys":1,"block":2,"trial":211,"stimulus":10,"robot":3,"valence":"lose","action":"go","sham":0,"trial_type":"pit-trial","trial_index":245,"time_elapsed":1102935,"internal_node_id":"0.0-219.0","task_version":"battery-v0.2-trt"},{"rune":"Y","rune_set":"bacs1","hex":"#3366ff99","correct":-1,"choice":32,"rt":675.0399998854846,"accuracy":0,"outcome":"+1","keys":[2175.550000043586],"total_keys":1,"block":2,"trial":212,"stimulus":11,"robot":2,"valence":"win","action":"no-go","sham":0,"trial_type":"pit-trial","trial_index":246,"time_elapsed":1106319,"internal_node_id":"0.0-220.0","task_version":"battery-v0.2-trt"},{"rune":"P","rune_set":"bacs1","hex":"#f73b6a7A","correct":32,"choice":32,"rt":571.2099999655038,"accuracy":1,"outcome":"-1","keys":[2072.0200000796467],"total_keys":1,"block":2,"trial":213,"stimulus":9,"robot":3,"valence":"lose","action":"go","sham":0,"trial_type":"pit-trial","trial_index":247,"time_elapsed":1109599,"internal_node_id":"0.0-221.0","task_version":"battery-v0.2-trt"},{"rune":"H","rune_set":"bacs1","hex":"#f73b6a7A","correct":32,"choice":32,"rt":919.4900000002235,"accuracy":1,"outcome":"-1","keys":[2420.60499987565],"total_keys":1,"block":2,"trial":214,"stimulus":10,"robot":3,"valence":"lose","action":"go","sham":0,"trial_type":"pit-trial","trial_index":248,"time_elapsed":1113239,"internal_node_id":"0.0-222.0","task_version":"battery-v0.2-trt"},{"rune":"M","rune_set":"bacs1","hex":"#3366ff99","correct":32,"choice":32,"rt":498.8700000103563,"accuracy":1,"outcome":"+1","keys":[1999.3499999400228],"total_keys":1,"block":2,"trial":215,"stimulus":8,"robot":1,"valence":"win","action":"go","sham":1,"trial_type":"pit-trial","trial_index":249,"time_elapsed":1116448,"internal_node_id":"0.0-223.0","task_version":"battery-v0.2-trt"},{"rune":"Y","rune_set":"bacs1","hex":"#3366ff99","correct":-1,"choice":32,"rt":546.220000134781,"accuracy":0,"outcome":"+1","keys":[2046.4899998623878],"total_keys":1,"block":2,"trial":216,"stimulus":11,"robot":2,"valence":"win","action":"no-go","sham":0,"trial_type":"pit-trial","trial_index":250,"time_elapsed":1119704,"internal_node_id":"0.0-224.0","task_version":"battery-v0.2-trt"},{"rune":"M","rune_set":"bacs1","hex":"#3366ff99","correct":32,"choice":-1,"rt":-1,"accuracy":0,"outcome":"+10","keys":[],"total_keys":0,"block":2,"trial":217,"stimulus":8,"robot":1,"valence":"win","action":"go","sham":1,"trial_type":"pit-trial","trial_index":251,"time_elapsed":1123712,"internal_node_id":"0.0-225.0","task_version":"battery-v0.2-trt"},{"rune":"H","rune_set":"bacs1","hex":"#f73b6a7A","correct":32,"choice":32,"rt":577.1299998741597,"accuracy":1,"outcome":"-1","keys":[2078.7700000219047],"total_keys":1,"block":2,"trial":218,"stimulus":10,"robot":3,"valence":"lose","action":"go","sham":0,"trial_type":"pit-trial","trial_index":252,"time_elapsed":1127000,"internal_node_id":"0.0-226.0","task_version":"battery-v0.2-trt"},{"rune":"Y","rune_set":"bacs1","hex":"#3366ff99","correct":-1,"choice":32,"rt":625.8700001053512,"accuracy":0,"outcome":"+1","keys":[2126.9300000276417],"total_keys":1,"block":2,"trial":219,"stimulus":11,"robot":2,"valence":"win","action":"no-go","sham":0,"trial_type":"pit-trial","trial_index":253,"time_elapsed":1130335,"internal_node_id":"0.0-227.0","task_version":"battery-v0.2-trt"},{"rune":"P","rune_set":"bacs1","hex":"#f73b6a7A","correct":32,"choice":32,"rt":747.7150000631809,"accuracy":1,"outcome":"-1","keys":[2248.2399998698384],"total_keys":1,"block":2,"trial":220,"stimulus":9,"robot":3,"valence":"lose","action":"go","sham":0,"trial_type":"pit-trial","trial_index":254,"time_elapsed":1133791,"internal_node_id":"0.0-228.0","task_version":"battery-v0.2-trt"},{"rune":"Y","rune_set":"bacs1","hex":"#3366ff99","correct":-1,"choice":32,"rt":917.2249999828637,"accuracy":0,"outcome":"+10","keys":[2417.7000001072884],"total_keys":1,"block":2,"trial":221,"stimulus":11,"robot":2,"valence":"win","action":"no-go","sham":1,"trial_type":"pit-trial","trial_index":255,"time_elapsed":1137415,"internal_node_id":"0.0-229.0","task_version":"battery-v0.2-trt"},{"rune":"M","rune_set":"bacs1","hex":"#3366ff99","correct":32,"choice":32,"rt":650.8100000210106,"accuracy":1,"outcome":"+10","keys":[2150.855000130832],"total_keys":1,"block":2,"trial":222,"stimulus":8,"robot":1,"valence":"win","action":"go","sham":0,"trial_type":"pit-trial","trial_index":256,"time_elapsed":1140776,"internal_node_id":"0.0-230.0","task_version":"battery-v0.2-trt"},{"rune":"P","rune_set":"bacs1","hex":"#f73b6a7A","correct":32,"choice":32,"rt":770.3750000800937,"accuracy":1,"outcome":"-1","keys":[2272.649999940768],"total_keys":1,"block":2,"trial":223,"stimulus":9,"robot":3,"valence":"lose","action":"go","sham":0,"trial_type":"pit-trial","trial_index":257,"time_elapsed":1144255,"internal_node_id":"0.0-231.0","task_version":"battery-v0.2-trt"},{"rune":"H","rune_set":"bacs1","hex":"#f73b6a7A","correct":32,"choice":32,"rt":658.9300001505762,"accuracy":1,"outcome":"-1","keys":[2160.334999905899],"total_keys":1,"block":2,"trial":224,"stimulus":10,"robot":3,"valence":"lose","action":"go","sham":0,"trial_type":"pit-trial","trial_index":258,"time_elapsed":1147632,"internal_node_id":"0.0-232.0","task_version":"battery-v0.2-trt"},{"rune":"P","rune_set":"bacs1","hex":"#f73b6a7A","correct":32,"choice":32,"rt":723.9449999760836,"accuracy":1,"outcome":"-1","keys":[2224.225000012666,2304.8400001134723],"total_keys":2,"block":2,"trial":225,"stimulus":9,"robot":3,"valence":"lose","action":"go","sham":0,"trial_type":"pit-trial","trial_index":259,"time_elapsed":1151063,"internal_node_id":"0.0-233.0","task_version":"battery-v0.2-trt"},{"rune":"Y","rune_set":"bacs1","hex":"#3366ff99","correct":-1,"choice":32,"rt":535.8399997930974,"accuracy":0,"outcome":"+1","keys":[2036.989999935031],"total_keys":1,"block":2,"trial":226,"stimulus":11,"robot":2,"valence":"win","action":"no-go","sham":0,"trial_type":"pit-trial","trial_index":260,"time_elapsed":1154319,"internal_node_id":"0.0-234.0","task_version":"battery-v0.2-trt"},{"rune":"H","rune_set":"bacs1","hex":"#f73b6a7A","correct":32,"choice":32,"rt":592.0300001744181,"accuracy":1,"outcome":"-1","keys":[2093.0099999532104],"total_keys":1,"block":2,"trial":227,"stimulus":10,"robot":3,"valence":"lose","action":"go","sham":0,"trial_type":"pit-trial","trial_index":261,"time_elapsed":1157631,"internal_node_id":"0.0-235.0","task_version":"battery-v0.2-trt"},{"rune":"M","rune_set":"bacs1","hex":"#3366ff99","correct":32,"choice":32,"rt":509.5699999947101,"accuracy":1,"outcome":"+10","keys":[2009.8399999551475],"total_keys":1,"block":2,"trial":228,"stimulus":8,"robot":1,"valence":"win","action":"go","sham":0,"trial_type":"pit-trial","trial_index":262,"time_elapsed":1160848,"internal_node_id":"0.0-236.0","task_version":"battery-v0.2-trt"},{"rune":"M","rune_set":"bacs1","hex":"#3366ff99","correct":32,"choice":32,"rt":444.7599998675287,"accuracy":1,"outcome":"+1","keys":[1944.9299999978393],"total_keys":1,"block":2,"trial":229,"stimulus":8,"robot":1,"valence":"win","action":"go","sham":1,"trial_type":"pit-trial","trial_index":263,"time_elapsed":1164001,"internal_node_id":"0.0-237.0","task_version":"battery-v0.2-trt"},{"rune":"P","rune_set":"bacs1","hex":"#f73b6a7A","correct":32,"choice":32,"rt":601.9150000065565,"accuracy":1,"outcome":"-1","keys":[2103.9350000210106],"total_keys":1,"block":2,"trial":230,"stimulus":9,"robot":3,"valence":"lose","action":"go","sham":0,"trial_type":"pit-trial","trial_index":264,"time_elapsed":1167311,"internal_node_id":"0.0-238.0","task_version":"battery-v0.2-trt"},{"rune":"Y","rune_set":"bacs1","hex":"#3366ff99","correct":-1,"choice":32,"rt":723.3450000640005,"accuracy":0,"outcome":"+1","keys":[2224.049999844283],"total_keys":1,"block":2,"trial":231,"stimulus":11,"robot":2,"valence":"win","action":"no-go","sham":0,"trial_type":"pit-trial","trial_index":265,"time_elapsed":1170745,"internal_node_id":"0.0-239.0","task_version":"battery-v0.2-trt"},{"rune":"H","rune_set":"bacs1","hex":"#f73b6a7A","correct":32,"choice":32,"rt":618.5850000474602,"accuracy":1,"outcome":"-10","keys":[2119.639999931678],"total_keys":1,"block":2,"trial":232,"stimulus":10,"robot":3,"valence":"lose","action":"go","sham":1,"trial_type":"pit-trial","trial_index":266,"time_elapsed":1174071,"internal_node_id":"0.0-240.0","task_version":"battery-v0.2-trt"},{"rune":"M","rune_set":"bacs1","hex":"#3366ff99","correct":32,"choice":-1,"rt":-1,"accuracy":0,"outcome":"+1","keys":[],"total_keys":0,"block":2,"trial":233,"stimulus":8,"robot":1,"valence":"win","action":"go","sham":0,"trial_type":"pit-trial","trial_index":267,"time_elapsed":1178081,"internal_node_id":"0.0-241.0","task_version":"battery-v0.2-trt"},{"rune":"Y","rune_set":"bacs1","hex":"#3366ff99","correct":-1,"choice":-1,"rt":-1,"accuracy":1,"outcome":"+10","keys":[],"total_keys":0,"block":2,"trial":234,"stimulus":11,"robot":2,"valence":"win","action":"no-go","sham":0,"trial_type":"pit-trial","trial_index":268,"time_elapsed":1182089,"internal_node_id":"0.0-242.0","task_version":"battery-v0.2-trt"},{"rune":"P","rune_set":"bacs1","hex":"#f73b6a7A","correct":32,"choice":32,"rt":751.4350002165884,"accuracy":1,"outcome":"-1","keys":[2251.864999998361],"total_keys":1,"block":2,"trial":235,"stimulus":9,"robot":3,"valence":"lose","action":"go","sham":0,"trial_type":"pit-trial","trial_index":269,"time_elapsed":1185554,"internal_node_id":"0.0-243.0","task_version":"battery-v0.2-trt"},{"rune":"H","rune_set":"bacs1","hex":"#f73b6a7A","correct":32,"choice":-1,"rt":-1,"accuracy":0,"outcome":"-1","keys":[],"total_keys":0,"block":2,"trial":236,"stimulus":10,"robot":3,"valence":"lose","action":"go","sham":1,"trial_type":"pit-trial","trial_index":270,"time_elapsed":1189562,"internal_node_id":"0.0-244.0","task_version":"battery-v0.2-trt"},{"rune":"H","rune_set":"bacs1","hex":"#f73b6a7A","correct":32,"choice":-1,"rt":-1,"accuracy":0,"outcome":"-10","keys":[3357.9150000587106],"total_keys":1,"block":2,"trial":237,"stimulus":10,"robot":3,"valence":"lose","action":"go","sham":0,"trial_