[{"view_history":"[{\"page_index\":0,\"viewing_time\":5412.000000011176}]","rt":5413.000000175089,"trial_type":"instructions","trial_index":0,"time_elapsed":5437,"internal_node_id":"0.0-0.0","task_version":"battery-v0.2-trt"},{"slider_type":"valence","raw_loc":614.5,"loc":0.729,"trial_type":"affective-slider","trial_index":1,"time_elapsed":12286,"internal_node_id":"0.0-1.0","task_version":"battery-v0.2-trt"},{"responses":{"Q01":"1","Q08":"0","Q02":"0","Q07":"0","Q04":"0","Q05":"0","Q06":"0","Q03":"0"},"rt":106083.00000010058,"item_order":[0,7,1,6,3,4,5,2],"radio_events":[89168.99999999441,92681.00000009872,94344.99999997206,96312.00000015087,98081.00000000559,99712.00000005774,102360.00000010245,104736.99999996461],"key_events":[],"mouse_events":[89168.99999999441,91152.99999993294,92681.00000009872,93648.0000000447,94344.99999997206,96312.00000015087,98081.00000000559,99712.00000005774,101745.00000011176,102360.00000010245,104073.00000009127,104736.99999996461,106081.00000000559],"straightlining":0.875,"zigzagging":0.14285714285714285,"survey":"gad7","trial_type":"survey-template","trial_index":2,"time_elapsed":118376,"internal_node_id":"0.0-2.0","task_version":"battery-v0.2-trt","infrequency":0},{"responses":{"Q07":"3","Q03":"3","Q04":"3","Q01":"1","Q06":"3","Q11":"1","Q09":"1","Q10":"2","Q02":"2","Q08":"2","Q13":"0","Q12":"1","Q05":"2"},"rt":46417.9999998305,"item_order":[6,2,3,0,5,10,8,9,1,7,12,11,4],"radio_events":[3191.999999806285,6311.999999918044,9199.999999953434,12751.999999862164,16295.999999856576,19608.00000000745,22263.999999966472,24231.999999843538,27415.999999968335,30910.999999847263,34912.000000011176,40071.99999992736,45239.99999999069],"key_events":[],"mouse_events":[3191.999999806285,6311.999999918044,9199.999999953434,12751.999999862164,15695.999999996275,16295.999999856576,19608.00000000745,22263.999999966472,24231.999999843538,27415.999999968335,30910.999999847263,34912.000000011176,38902.999999932945,39535.99999984726,40071.99999992736,45239.99999999069,46414.99999980442],"straightlining":0.3076923076923077,"zigzagging":0.25,"survey":"bisbas","trial_type":"survey-template","trial_index":3,"time_elapsed":164800,"internal_node_id":"0.0-3.0","task_version":"battery-v0.2-trt","infrequency":0},{"responses":{"Q03":"0","Q05":"0","Q07":"0","Q02":"0","Q08":"3","Q04":"0","Q06":"0","Q01":"0"},"rt":30128.99999995716,"item_order":[2,4,6,1,7,3,5,0],"radio_events":[9182.999999960884,13175.999999977648,14087.000000057742,17527.000000001863,21095.999999903142,23358.999999938533,24776.00000007078,24959.999999962747,26921.000000089407],"key_events":[],"mouse_events":[9182.999999960884,11272.000000113621,12407.000000122935,13175.999999977648,14087.000000057742,17527.000000001863,20280.00000002794,21095.999999903142,23358.999999938533,24776.00000007078,24959.999999962747,26921.000000089407,30127.000000094995],"straightlining":0.875,"zigzagging":0.2857142857142857,"survey":"dass_d","trial_type":"survey-template","trial_index":4,"time_elapsed":194934,"internal_node_id":"0.0-4.0","task_version":"battery-v0.2-trt","infrequency":0.5},{"value":[0.5,2.0576923076923075,0.6785714285714286],"trial_type":"call-function","trial_index":5,"time_elapsed":194938,"internal_node_id":"0.0-5.0","task_version":"battery-v0.2-trt"},{"view_history":"[{\"page_index\":0,\"viewing_time\":6628.999999957159},{\"page_index\":1,\"viewing_time\":5256.999999983236},{\"page_index\":2,\"viewing_time\":5231.000000145286},{\"page_index\":3,\"viewing_time\":24176.99999990873},{\"page_index\":4,\"viewing_time\":8871.00000004284},{\"page_index\":5,\"viewing_time\":6368.000000016764},{\"page_index\":6,\"viewing_time\":11392.999999923632},{\"page_index\":7,\"viewing_time\":12816.000000108033},{\"page_index\":8,\"viewing_time\":18886.999999871477},{\"page_index\":9,\"viewing_time\":9382.999999914318}]","rt":109013.00000003539,"trial_type":"pit-instructions","trial_index":6,"time_elapsed":303954,"internal_node_id":"0.0-6.0-0.0","task_version":"battery-v0.2-trt"},{"rune":"1","rune_set":"elianto","hex":"#3366ff99","correct":32,"choice":-1,"rt":-1,"accuracy":0,"outcome":"+1","keys":[],"total_keys":0,"block":0,"practice":1,"trial_type":"pit-trial","trial_index":7,"time_elapsed":307959,"internal_node_id":"0.0-6.0-1.0-0.0","task_version":"battery-v0.2-trt"},{"rune":"1","rune_set":"elianto","hex":"#3366ff99","correct":32,"choice":-1,"rt":-1,"accuracy":0,"outcome":"+1","keys":[],"total_keys":0,"block":0,"practice":1,"trial_type":"pit-trial","trial_index":8,"time_elapsed":311963,"internal_node_id":"0.0-6.0-1.1-0.1","task_version":"battery-v0.2-trt"},{"rune":"1","rune_set":"elianto","hex":"#3366ff99","correct":32,"choice":32,"rt":1260.0000000093132,"accuracy":1,"outcome":"+10","keys":[2760.000000009313],"total_keys":1,"block":0,"practice":1,"trial_type":"pit-trial","trial_index":9,"time_elapsed":315926,"internal_node_id":"0.0-6.0-1.2-0.2","task_version":"battery-v0.2-trt"},{"rune":"1","rune_set":"elianto","hex":"#3366ff99","correct":32,"choice":32,"rt":885.0000000093132,"accuracy":1,"outcome":"+10","keys":[2385.000000009313],"total_keys":1,"block":0,"practice":1,"trial_type":"pit-trial","trial_index":10,"time_elapsed":319516,"internal_node_id":"0.0-6.0-1.3-0.3","task_version":"battery-v0.2-trt"},{"rune":"1","rune_set":"elianto","hex":"#3366ff99","correct":32,"choice":32,"rt":406.99999989010394,"accuracy":1,"outcome":"+10","keys":[1906.999999890104],"total_keys":1,"block":0,"practice":1,"trial_type":"pit-trial","trial_index":11,"time_elapsed":322625,"internal_node_id":"0.0-6.0-1.4-0.4","task_version":"battery-v0.2-trt"},{"trial_type":"call-function","trial_index":12,"time_elapsed":322627,"internal_node_id":"0.0-6.0-2.0","task_version":"battery-v0.2-trt"},{"view_history":"[{\"page_index\":0,\"viewing_time\":10304.000000003725},{\"page_index\":1,\"viewing_time\":3918.999999994412}]","rt":14223.99999992922,"trial_type":"pit-instructions","trial_index":13,"time_elapsed":336851,"internal_node_id":"0.0-6.0-3.0","task_version":"battery-v0.2-trt"},{"rune":"2","rune_set":"elianto","hex":"#3366ff99","correct":-1,"choice":-1,"rt":-1,"accuracy":1,"outcome":"+10","keys":[2844.9999999720603],"total_keys":1,"block":0,"practice":2,"trial_type":"pit-trial","trial_index":14,"time_elapsed":340854,"internal_node_id":"0.0-6.0-4.0-0.0","task_version":"battery-v0.2-trt"},{"rune":"2","rune_set":"elianto","hex":"#3366ff99","correct":-1,"choice":32,"rt":554.0000000037253,"accuracy":0,"outcome":"+1","keys":[2054.9999999348074],"total_keys":1,"block":0,"practice":2,"trial_type":"pit-trial","trial_index":15,"time_elapsed":344112,"internal_node_id":"0.0-6.0-4.1-0.1","task_version":"battery-v0.2-trt"},{"rune":"2","rune_set":"elianto","hex":"#3366ff99","correct":-1,"choice":32,"rt":651.0000000707805,"accuracy":0,"outcome":"+1","keys":[2150.0000001396984],"total_keys":1,"block":0,"practice":2,"trial_type":"pit-trial","trial_index":16,"time_elapsed":347466,"internal_node_id":"0.0-6.0-4.2-0.2","task_version":"battery-v0.2-trt"},{"rune":"2","rune_set":"elianto","hex":"#3366ff99","correct":-1,"choice":-1,"rt":-1,"accuracy":1,"outcome":"+10","keys":[],"total_keys":0,"block":0,"practice":2,"trial_type":"pit-trial","trial_index":17,"time_elapsed":351468,"internal_node_id":"0.0-6.0-4.3-0.3","task_version":"battery-v0.2-trt"},{"rune":"2","rune_set":"elianto","hex":"#3366ff99","correct":-1,"choice":-1,"rt":-1,"accuracy":1,"outcome":"+10","keys":[],"total_keys":0,"block":0,"practice":2,"trial_type":"pit-trial","trial_index":18,"time_elapsed":355470,"internal_node_id":"0.0-6.0-4.4-0.4","task_version":"battery-v0.2-trt"},{"rune":"2","rune_set":"elianto","hex":"#3366ff99","correct":-1,"choice":-1,"rt":-1,"accuracy":1,"outcome":"+10","keys":[],"total_keys":0,"block":0,"practice":2,"trial_type":"pit-trial","trial_index":19,"time_elapsed":359472,"internal_node_id":"0.0-6.0-4.5-0.5","task_version":"battery-v0.2-trt"},{"trial_type":"call-function","trial_index":20,"time_elapsed":359474,"internal_node_id":"0.0-6.0-5.0","task_version":"battery-v0.2-trt"},{"view_history":"[{\"page_index\":0,\"viewing_time\":12000.999999931082},{\"page_index\":1,\"viewing_time\":5182.000000029802}]","rt":17183.999999891967,"trial_type":"pit-instructions","trial_index":21,"time_elapsed":376658,"internal_node_id":"0.0-6.0-6.0","task_version":"battery-v0.2-trt"},{"rune":"3","rune_set":"elianto","hex":"#f73b6a7A","correct":-1,"choice":-1,"rt":-1,"accuracy":1,"outcome":"-1","keys":[],"total_keys":0,"block":0,"practice":3,"trial_type":"pit-trial","trial_index":22,"time_elapsed":380661,"internal_node_id":"0.0-6.0-7.0-0.0","task_version":"battery-v0.2-trt"},{"rune":"3","rune_set":"elianto","hex":"#f73b6a7A","correct":-1,"choice":-1,"rt":-1,"accuracy":1,"outcome":"-1","keys":[],"total_keys":0,"block":0,"practice":3,"trial_type":"pit-trial","trial_index":23,"time_elapsed":384663,"internal_node_id":"0.0-6.0-7.1-0.1","task_version":"battery-v0.2-trt"},{"rune":"3","rune_set":"elianto","hex":"#f73b6a7A","correct":-1,"choice":32,"rt":569.0000001341105,"accuracy":0,"outcome":"-10","keys":[2069.0000001341105],"total_keys":1,"block":0,"practice":3,"trial_type":"pit-trial","trial_index":24,"time_elapsed":387938,"internal_node_id":"0.0-6.0-7.2-0.2","task_version":"battery-v0.2-trt"},{"rune":"3","rune_set":"elianto","hex":"#f73b6a7A","correct":-1,"choice":-1,"rt":-1,"accuracy":1,"outcome":"-1","keys":[],"total_keys":0,"block":0,"practice":3,"trial_type":"pit-trial","trial_index":25,"time_elapsed":391940,"internal_node_id":"0.0-6.0-7.3-0.3","task_version":"battery-v0.2-trt"},{"rune":"3","rune_set":"elianto","hex":"#f73b6a7A","correct":-1,"choice":-1,"rt":-1,"accuracy":1,"outcome":"-1","keys":[],"total_keys":0,"block":0,"practice":3,"trial_type":"pit-trial","trial_index":26,"time_elapsed":395944,"internal_node_id":"0.0-6.0-7.4-0.4","task_version":"battery-v0.2-trt"},{"rune":"3","rune_set":"elianto","hex":"#f73b6a7A","correct":-1,"choice":-1,"rt":-1,"accuracy":1,"outcome":"-1","keys":[],"total_keys":0,"block":0,"practice":3,"trial_type":"pit-trial","trial_index":27,"time_elapsed":399946,"internal_node_id":"0.0-6.0-7.5-0.5","task_version":"battery-v0.2-trt"},{"trial_type":"call-function","trial_index":28,"time_elapsed":399948,"internal_node_id":"0.0-6.0-8.0","task_version":"battery-v0.2-trt"},{"view_history":"[{\"page_index\":0,\"viewing_time\":6470.999999903142},{\"page_index\":1,\"viewing_time\":3975.0000000931323}]","rt":10446.999999927357,"trial_type":"pit-instructions","trial_index":29,"time_elapsed":410395,"internal_node_id":"0.0-6.0-9.0","task_version":"battery-v0.2-trt"},{"rune":"4","rune_set":"elianto","hex":"#f73b6a7A","correct":32,"choice":-1,"rt":-1,"accuracy":0,"outcome":"-10","keys":[],"total_keys":0,"block":0,"practice":4,"trial_type":"pit-trial","trial_index":30,"time_elapsed":414398,"internal_node_id":"0.0-6.0-10.0-0.0","task_version":"battery-v0.2-trt"},{"rune":"4","rune_set":"elianto","hex":"#f73b6a7A","correct":32,"choice":32,"rt":517.9999999236315,"accuracy":1,"outcome":"-1","keys":[2019.0000000875443],"total_keys":1,"block":0,"practice":4,"trial_type":"pit-trial","trial_index":31,"time_elapsed":417619,"internal_node_id":"0.0-6.0-10.1-0.1","task_version":"battery-v0.2-trt"},{"rune":"4","rune_set":"elianto","hex":"#f73b6a7A","correct":32,"choice":32,"rt":378.00000002607703,"accuracy":1,"outcome":"-1","keys":[1878.000000026077],"total_keys":1,"block":0,"practice":4,"trial_type":"pit-trial","trial_index":32,"time_elapsed":420700,"internal_node_id":"0.0-6.0-10.2-0.2","task_version":"battery-v0.2-trt"},{"rune":"4","rune_set":"elianto","hex":"#f73b6a7A","correct":32,"choice":32,"rt":352.99999988637865,"accuracy":1,"outcome":"-1","keys":[1851.9999999552965],"total_keys":1,"block":0,"practice":4,"trial_type":"pit-trial","trial_index":33,"time_elapsed":423755,"internal_node_id":"0.0-6.0-10.3-0.3","task_version":"battery-v0.2-trt"},{"trial_type":"call-function","trial_index":34,"time_elapsed":423756,"internal_node_id":"0.0-6.0-11.0","task_version":"battery-v0.2-trt"},{"view_history":"[{\"page_index\":0,\"viewing_time\":2814.0000000130385},{\"page_index\":1,\"viewing_time\":4064.9999999441206},{\"page_index\":2,\"viewing_time\":3968.000000109896},{\"page_index\":3,\"viewing_time\":4168.00000006333},{\"page_index\":4,\"viewing_time\":4064.0000000130385},{\"page_index\":5,\"viewing_time\":2054.9999999348074}]","rt":21134.00000007823,"trial_type":"pit-instructions","trial_index":35,"time_elapsed":444892,"internal_node_id":"0.0-6.0-12.0","task_version":"battery-v0.2-trt"},{"responses":["Press SPACE","+10","-1","True","True"],"num_errors":0,"rt":26980.999999912456,"trial_type":"pit-comprehension","trial_index":36,"time_elapsed":471878,"internal_node_id":"0.0-6.0-13.0","task_version":"battery-v0.2-trt"},{"view_history":"[{\"page_index\":0,\"viewing_time\":2844.000000040978},{\"page_index\":1,\"viewing_time\":4708.000000100583}]","rt":7553.000000072643,"trial_type":"pit-instructions","trial_index":37,"time_elapsed":479435,"internal_node_id":"0.0-7.0","task_version":"battery-v0.2-trt"},{"rune":"Z","rune_set":"bacs1","hex":"#3366ff99","correct":32,"choice":-1,"rt":-1,"accuracy":0,"outcome":"+1","keys":[2881.999999983236],"total_keys":1,"block":1,"trial":1,"stimulus":1,"robot":1,"valence":"win","action":"go","sham":0,"trial_type":"pit-trial","trial_index":38,"time_elapsed":483439,"internal_node_id":"0.0-8.0","task_version":"battery-v0.2-trt"},{"rune":"B","rune_set":"bacs1","hex":"#3366ff99","correct":-1,"choice":32,"rt":636.9999998714775,"accuracy":0,"outcome":"+1","keys":[2136.9999998714775],"total_keys":1,"block":1,"trial":2,"stimulus":0,"robot":2,"valence":"win","action":"no-go","sham":0,"trial_type":"pit-trial","trial_index":39,"time_elapsed":486778,"internal_node_id":"0.0-9.0","task_version":"battery-v0.2-trt"},{"rune":"R","rune_set":"bacs1","hex":"#3366ff99","correct":32,"choice":-1,"rt":-1,"accuracy":0,"outcome":"+1","keys":[],"total_keys":0,"block":1,"trial":3,"stimulus":3,"robot":1,"valence":"win","action":"go","sham":0,"trial_type":"pit-trial","trial_index":40,"time_elapsed":490780,"internal_node_id":"0.0-10.0","task_version":"battery-v0.2-trt"},{"rune":"J","rune_set":"bacs1","hex":"#f73b6a7A","correct":-1,"choice":32,"rt":655.9999999590218,"accuracy":0,"outcome":"-1","keys":[2155.999999959022],"total_keys":1,"block":1,"trial":4,"stimulus":2,"robot":4,"valence":"lose","action":"no-go","sham":1,"trial_type":"pit-trial","trial_index":41,"time_elapsed":494138,"internal_node_id":"0.0-11.0","task_version":"battery-v0.2-trt"},{"rune":"R","rune_set":"bacs1","hex":"#3366ff99","correct":32,"choice":-1,"rt":-1,"accuracy":0,"outcome":"+1","keys":[],"total_keys":0,"block":1,"trial":5,"stimulus":3,"robot":1,"valence":"win","action":"go","sham":0,"trial_type":"pit-trial","trial_index":42,"time_elapsed":498141,"internal_node_id":"0.0-12.0","task_version":"battery-v0.2-trt"},{"rune":"B","rune_set":"bacs1","hex":"#3366ff99","correct":-1,"choice":32,"rt":454.99999984167516,"accuracy":0,"outcome":"+1","keys":[1954.9999998416752],"total_keys":1,"block":1,"trial":6,"stimulus":0,"robot":2,"valence":"win","action":"no-go","sham":0,"trial_type":"pit-trial","trial_index":43,"time_elapsed":501298,"internal_node_id":"0.0-13.0","task_version":"battery-v0.2-trt"},{"rune":"Z","rune_set":"bacs1","hex":"#3366ff99","correct":32,"choice":32,"rt":434.0000001247972,"accuracy":1,"outcome":"+1","keys":[1932.9999999608845],"total_keys":1,"block":1,"trial":7,"stimulus":1,"robot":1,"valence":"win","action":"go","sham":1,"trial_type":"pit-trial","trial_index":44,"time_elapsed":504434,"internal_node_id":"0.0-14.0","task_version":"battery-v0.2-trt"},{"rune":"J","rune_set":"bacs1","hex":"#f73b6a7A","correct":-1,"choice":-1,"rt":-1,"accuracy":1,"outcome":"-1","keys":[],"total_keys":0,"block":1,"trial":8,"stimulus":2,"robot":4,"valence":"lose","action":"no-go","sham":0,"trial_type":"pit-trial","trial_index":45,"time_elapsed":508437,"internal_node_id":"0.0-15.0","task_version":"battery-v0.2-trt"},{"rune":"R","rune_set":"bacs1","hex":"#3366ff99","correct":32,"choice":-1,"rt":-1,"accuracy":0,"outcome":"+1","keys":[],"total_keys":0,"block":1,"trial":9,"stimulus":3,"robot":1,"valence":"win","action":"go","sham":0,"trial_type":"pit-trial","trial_index":46,"time_elapsed":512439,"internal_node_id":"0.0-16.0","task_version":"battery-v0.2-trt"},{"rune":"Z","rune_set":"bacs1","hex":"#3366ff99","correct":32,"choice":-1,"rt":-1,"accuracy":0,"outcome":"+1","keys":[],"total_keys":0,"block":1,"trial":10,"stimulus":1,"robot":1,"valence":"win","action":"go","sham":0,"trial_type":"pit-trial","trial_index":47,"time_elapsed":516442,"internal_node_id":"0.0-17.0","task_version":"battery-v0.2-trt"},{"rune":"J","rune_set":"bacs1","hex":"#f73b6a7A","correct":-1,"choice":-1,"rt":-1,"accuracy":1,"outcome":"-10","keys":[],"total_keys":0,"block":1,"trial":11,"stimulus":2,"robot":4,"valence":"lose","action":"no-go","sham":1,"trial_type":"pit-trial","trial_index":48,"time_elapsed":520444,"internal_node_id":"0.0-18.0","task_version":"battery-v0.2-trt"},{"rune":"B","rune_set":"bacs1","hex":"#3366ff99","correct":-1,"choice":-1,"rt":-1,"accuracy":1,"outcome":"+1","keys":[],"total_keys":0,"block":1,"trial":12,"stimulus":0,"robot":2,"valence":"win","action":"no-go","sham":1,"trial_type":"pit-trial","trial_index":49,"time_elapsed":524446,"internal_node_id":"0.0-19.0","task_version":"battery-v0.2-trt"},{"rune":"B","rune_set":"bacs1","hex":"#3366ff99","correct":-1,"choice":-1,"rt":-1,"accuracy":1,"outcome":"+10","keys":[],"total_keys":0,"block":1,"trial":13,"stimulus":0,"robot":2,"valence":"win","action":"no-go","sham":0,"trial_type":"pit-trial","trial_index":50,"time_elapsed":528448,"internal_node_id":"0.0-20.0","task_version":"battery-v0.2-trt"},{"rune":"J","rune_set":"bacs1","hex":"#f73b6a7A","correct":-1,"choice":32,"rt":500,"accuracy":0,"outcome":"-10","keys":[2000],"total_keys":1,"block":1,"trial":14,"stimulus":2,"robot":4,"valence":"lose","action":"no-go","sham":0,"trial_type":"pit-trial","trial_index":51,"time_elapsed":531650,"internal_node_id":"0.0-21.0","task_version":"battery-v0.2-trt"},{"rune":"Z","rune_set":"bacs1","hex":"#3366ff99","correct":32,"choice":-1,"rt":-1,"accuracy":0,"outcome":"+1","keys":[],"total_keys":0,"block":1,"trial":15,"stimulus":1,"robot":1,"valence":"win","action":"go","sham":0,"trial_type":"pit-trial","trial_index":52,"time_elapsed":535654,"internal_node_id":"0.0-22.0","task_version":"battery-v0.2-trt"},{"rune":"R","rune_set":"bacs1","hex":"#3366ff99","correct":32,"choice":32,"rt":527.0000000018626,"accuracy":1,"outcome":"+10","keys":[2027.0000000018626],"total_keys":1,"block":1,"trial":16,"stimulus":3,"robot":1,"valence":"win","action":"go","sham":0,"trial_type":"pit-trial","trial_index":53,"time_elapsed":538885,"internal_node_id":"0.0-23.0","task_version":"battery-v0.2-trt"},{"rune":"R","rune_set":"bacs1","hex":"#3366ff99","correct":32,"choice":32,"rt":551.9999999087304,"accuracy":1,"outcome":"+10","keys":[2051.9999999087304],"total_keys":1,"block":1,"trial":17,"stimulus":3,"robot":1,"valence":"win","action":"go","sham":0,"trial_type":"pit-trial","trial_index":54,"time_elapsed":542139,"internal_node_id":"0.0-24.0","task_version":"battery-v0.2-trt"},{"rune":"Z","rune_set":"bacs1","hex":"#3366ff99","correct":32,"choice":-1,"rt":-1,"accuracy":0,"outcome":"+1","keys":[],"total_keys":0,"block":1,"trial":18,"stimulus":1,"robot":1,"valence":"win","action":"go","sham":0,"trial_type":"pit-trial","trial_index":55,"time_elapsed":546141,"internal_node_id":"0.0-25.0","task_version":"battery-v0.2-trt"},{"rune":"J","rune_set":"bacs1","hex":"#f73b6a7A","correct":-1,"choice":32,"rt":776.0000000707805,"accuracy":0,"outcome":"-10","keys":[2276.0000000707805],"total_keys":1,"block":1,"trial":19,"stimulus":2,"robot":4,"valence":"lose","action":"no-go","sham":0,"trial_type":"pit-trial","trial_index":56,"time_elapsed":549619,"internal_node_id":"0.0-26.0","task_version":"battery-v0.2-trt"},{"rune":"B","rune_set":"bacs1","hex":"#3366ff99","correct":-1,"choice":32,"rt":554.0000000037253,"accuracy":0,"outcome":"+1","keys":[2054.0000000037253],"total_keys":1,"block":1,"trial":20,"stimulus":0,"robot":2,"valence":"win","action":"no-go","sham":0,"trial_type":"pit-trial","trial_index":57,"time_elapsed":552875,"internal_node_id":"0.0-27.0","task_version":"battery-v0.2-trt"},{"rune":"R","rune_set":"bacs1","hex":"#3366ff99","correct":32,"choice":32,"rt":385.99999994039536,"accuracy":1,"outcome":"+10","keys":[1885.9999999403954],"total_keys":1,"block":1,"trial":21,"stimulus":3,"robot":1,"valence":"win","action":"go","sham":0,"trial_type":"pit-trial","trial_index":58,"time_elapsed":555963,"internal_node_id":"0.0-28.0","task_version":"battery-v0.2-trt"},{"rune":"J","rune_set":"bacs1","hex":"#f73b6a7A","correct":-1,"choice":-1,"rt":-1,"accuracy":1,"outcome":"-1","keys":[],"total_keys":0,"block":1,"trial":22,"stimulus":2,"robot":4,"valence":"lose","action":"no-go","sham":0,"trial_type":"pit-trial","trial_index":59,"time_elapsed":559966,"internal_node_id":"0.0-29.0","task_version":"battery-v0.2-trt"},{"rune":"B","rune_set":"bacs1","hex":"#3366ff99","correct":-1,"choice":32,"rt":718.9999998081475,"accuracy":0,"outcome":"+1","keys":[2218.9999998081475],"total_keys":1,"block":1,"trial":23,"stimulus":0,"robot":2,"valence":"win","action":"no-go","sham":0,"trial_type":"pit-trial","trial_index":60,"time_elapsed":563387,"internal_node_id":"0.0-30.0","task_version":"battery-v0.2-trt"},{"rune":"Z","rune_set":"bacs1","hex":"#3366ff99","correct":32,"choice":-1,"rt":-1,"accuracy":0,"outcome":"+10","keys":[],"total_keys":0,"block":1,"trial":24,"stimulus":1,"robot":1,"valence":"win","action":"go","sham":1,"trial_type":"pit-trial","trial_index":61,"time_elapsed":567390,"internal_node_id":"0.0-31.0","task_version":"battery-v0.2-trt"},{"rune":"R","rune_set":"bacs1","hex":"#3366ff99","correct":32,"choice":32,"rt":502.0000000949949,"accuracy":1,"outcome":"+10","keys":[2002.000000094995],"total_keys":1,"block":1,"trial":25,"stimulus":3,"robot":1,"valence":"win","action":"go","sham":0,"trial_type":"pit-trial","trial_index":62,"time_elapsed":570595,"internal_node_id":"0.0-32.0","task_version":"battery-v0.2-trt"},{"rune":"B","rune_set":"bacs1","hex":"#3366ff99","correct":-1,"choice":-1,"rt":-1,"accuracy":1,"outcome":"+10","keys":[],"total_keys":0,"block":1,"trial":26,"stimulus":0,"robot":2,"valence":"win","action":"no-go","sham":0,"trial_type":"pit-trial","trial_index":63,"time_elapsed":574599,"internal_node_id":"0.0-33.0","task_version":"battery-v0.2-trt"},{"rune":"J","rune_set":"bacs1","hex":"#f73b6a7A","correct":-1,"choice":-1,"rt":-1,"accuracy":1,"outcome":"-1","keys":[],"total_keys":0,"block":1,"trial":27,"stimulus":2,"robot":4,"valence":"lose","action":"no-go","sham":0,"trial_type":"pit-trial","trial_index":64,"time_elapsed":578600,"internal_node_id":"0.0-34.0","task_version":"battery-v0.2-trt"},{"rune":"Z","rune_set":"bacs1","hex":"#3366ff99","correct":32,"choice":-1,"rt":-1,"accuracy":0,"outcome":"+1","keys":[],"total_keys":0,"block":1,"trial":28,"stimulus":1,"robot":1,"valence":"win","action":"go","sham":0,"trial_type":"pit-trial","trial_index":65,"time_elapsed":582604,"internal_node_id":"0.0-35.0","task_version":"battery-v0.2-trt"},{"rune":"B","rune_set":"bacs1","hex":"#3366ff99","correct":-1,"choice":-1,"rt":-1,"accuracy":1,"outcome":"+1","keys":[],"total_keys":0,"block":1,"trial":29,"stimulus":0,"robot":2,"valence":"win","action":"no-go","sham":1,"trial_type":"pit-trial","trial_index":66,"time_elapsed":586606,"internal_node_id":"0.0-36.0","task_version":"battery-v0.2-trt"},{"rune":"Z","rune_set":"bacs1","hex":"#3366ff99","correct":32,"choice":-1,"rt":-1,"accuracy":0,"outcome":"+10","keys":[],"total_keys":0,"block":1,"trial":30,"stimulus":1,"robot":1,"valence":"win","action":"go","sham":1,"trial_type":"pit-trial","trial_index":67,"time_elapsed":590608,"internal_node_id":"0.0-37.0","task_version":"battery-v0.2-trt"},{"rune":"R","rune_set":"bacs1","hex":"#3366ff99","correct":32,"choice":32,"rt":491.99999985285103,"accuracy":1,"outcome":"+10","keys":[1991.999999852851],"total_keys":1,"block":1,"trial":31,"stimulus":3,"robot":1,"valence":"win","action":"go","sham":0,"trial_type":"pit-trial","trial_index":68,"time_elapsed":593802,"internal_node_id":"0.0-38.0","task_version":"battery-v0.2-trt"},{"rune":"J","rune_set":"bacs1","hex":"#f73b6a7A","correct":-1,"choice":-1,"rt":-1,"accuracy":1,"outcome":"-1","keys":[],"total_keys":0,"block":1,"trial":32,"stimulus":2,"robot":4,"valence":"lose","action":"no-go","sham":0,"trial_type":"pit-trial","trial_index":69,"time_elapsed":597803,"internal_node_id":"0.0-39.0","task_version":"battery-v0.2-trt"},{"rune":"B","rune_set":"bacs1","hex":"#3366ff99","correct":-1,"choice":-1,"rt":-1,"accuracy":1,"outcome":"+10","keys":[],"total_keys":0,"block":1,"trial":33,"stimulus":0,"robot":2,"valence":"win","action":"no-go","sham":0,"trial_type":"pit-trial","trial_index":70,"time_elapsed":601806,"internal_node_id":"0.0-40.0","task_version":"battery-v0.2-trt"},{"rune":"J","rune_set":"bacs1","hex":"#f73b6a7A","correct":-1,"choice":-1,"rt":-1,"accuracy":1,"outcome":"-1","keys":[],"total_keys":0,"block":1,"trial":34,"stimulus":2,"robot":4,"valence":"lose","action":"no-go","sham":0,"trial_type":"pit-trial","trial_index":71,"time_elapsed":605808,"internal_node_id":"0.0-41.0","task_version":"battery-v0.2-trt"},{"rune":"R","rune_set":"bacs1","hex":"#3366ff99","correct":32,"choice":32,"rt":483.9999999385327,"accuracy":1,"outcome":"+10","keys":[1983.9999999385327],"total_keys":1,"block":1,"trial":35,"stimulus":3,"robot":1,"valence":"win","action":"go","sham":0,"trial_type":"pit-trial","trial_index":72,"time_elapsed":608995,"internal_node_id":"0.0-42.0","task_version":"battery-v0.2-trt"},{"rune":"V","rune_set":"bacs1","hex":"#3366ff99","correct":32,"choice":-1,"rt":-1,"accuracy":0,"outcome":"+1","keys":[],"total_keys":0,"block":1,"trial":36,"stimulus":4,"robot":1,"valence":"win","action":"go","sham":0,"trial_type":"pit-trial","trial_index":73,"time_elapsed":613009,"internal_node_id":"0.0-43.0","task_version":"battery-v0.2-trt"},{"rune":"B","rune_set":"bacs1","hex":"#3366ff99","correct":-1,"choice":-1,"rt":-1,"accuracy":1,"outcome":"+10","keys":[],"total_keys":0,"block":1,"trial":37,"stimulus":0,"robot":2,"valence":"win","action":"no-go","sham":0,"trial_type":"pit-trial","trial_index":74,"time_elapsed":617025,"internal_node_id":"0.0-44.0","task_version":"battery-v0.2-trt"},{"rune":"R","rune_set":"bacs1","hex":"#3366ff99","correct":32,"choice":32,"rt":408.99999998509884,"accuracy":1,"outcome":"+10","keys":[1910.0000001490116],"total_keys":1,"block":1,"trial":38,"stimulus":3,"robot":1,"valence":"win","action":"go","sham":0,"trial_type":"pit-trial","trial_index":75,"time_elapsed":620137,"internal_node_id":"0.0-45.0","task_version":"battery-v0.2-trt"},{"rune":"V","rune_set":"bacs1","hex":"#3366ff99","correct":32,"choice":-1,"rt":-1,"accuracy":0,"outcome":"+10","keys":[],"total_keys":0,"block":1,"trial":39,"stimulus":4,"robot":1,"valence":"win","action":"go","sham":1,"trial_type":"pit-trial","trial_index":76,"time_elapsed":624139,"internal_node_id":"0.0-46.0","task_version":"battery-v0.2-trt"},{"rune":"J","rune_set":"bacs1","hex":"#f73b6a7A","correct":-1,"choice":-1,"rt":-1,"accuracy":1,"outcome":"-1","keys":[],"total_keys":0,"block":1,"trial":40,"stimulus":2,"robot":4,"valence":"lose","action":"no-go","sham":0,"trial_type":"pit-trial","trial_index":77,"time_elapsed":628142,"internal_node_id":"0.0-47.0","task_version":"battery-v0.2-trt"},{"rune":"T","rune_set":"bacs1","hex":"#f73b6a7A","correct":-1,"choice":-1,"rt":-1,"accuracy":1,"outcome":"-1","keys":[],"total_keys":0,"block":1,"trial":41,"stimulus":6,"robot":4,"valence":"lose","action":"no-go","sham":0,"trial_type":"pit-trial","trial_index":78,"time_elapsed":632144,"internal_node_id":"0.0-48.0","task_version":"battery-v0.2-trt"},{"rune":"E","rune_set":"bacs1","hex":"#f73b6a7A","correct":32,"choice":-1,"rt":-1,"accuracy":0,"outcome":"-10","keys":[],"total_keys":0,"block":1,"trial":42,"stimulus":5,"robot":3,"valence":"lose","action":"go","sham":0,"trial_type":"pit-trial","trial_index":79,"time_elapsed":636146,"internal_node_id":"0.0-49.0","task_version":"battery-v0.2-trt"},{"rune":"B","rune_set":"bacs1","hex":"#3366ff99","correct":-1,"choice":-1,"rt":-1,"accuracy":1,"outcome":"+10","keys":[],"total_keys":0,"block":1,"trial":43,"stimulus":0,"robot":2,"valence":"win","action":"no-go","sham":0,"trial_type":"pit-trial","trial_index":80,"time_elapsed":640151,"internal_node_id":"0.0-50.0","task_version":"battery-v0.2-trt"},{"rune":"V","rune_set":"bacs1","hex":"#3366ff99","correct":32,"choice":-1,"rt":-1,"accuracy":0,"outcome":"+1","keys":[],"total_keys":0,"block":1,"trial":44,"stimulus":4,"robot":1,"valence":"win","action":"go","sham":0,"trial_type":"pit-trial","trial_index":81,"time_elapsed":644154,"internal_node_id":"0.0-51.0","task_version":"battery-v0.2-trt"},{"rune":"E","rune_set":"bacs1","hex":"#f73b6a7A","correct":32,"choice":32,"rt":585.9999998938292,"accuracy":1,"outcome":"-1","keys":[2085.999999893829],"total_keys":1,"block":1,"trial":45,"stimulus":5,"robot":3,"valence":"lose","action":"go","sham":0,"trial_type":"pit-trial","trial_index":82,"time_elapsed":647442,"internal_node_id":"0.0-52.0","task_version":"battery-v0.2-trt"},{"rune":"B","rune_set":"bacs1","hex":"#3366ff99","correct":-1,"choice":-1,"rt":-1,"accuracy":1,"outcome":"+1","keys":[],"total_keys":0,"block":1,"trial":46,"stimulus":0,"robot":2,"valence":"win","action":"no-go","sham":1,"trial_type":"pit-trial","trial_index":83,"time_elapsed":651444,"internal_node_id":"0.0-53.0","task_version":"battery-v0.2-trt"},{"rune":"V","rune_set":"bacs1","hex":"#3366ff99","correct":32,"choice":-1,"rt":-1,"accuracy":0,"outcome":"+1","keys":[],"total_keys":0,"block":1,"trial":47,"stimulus":4,"robot":1,"valence":"win","action":"go","sham":0,"trial_type":"pit-trial","trial_index":84,"time_elapsed":655448,"internal_node_id":"0.0-54.0","task_version":"battery-v0.2-trt"},{"rune":"T","rune_set":"bacs1","hex":"#f73b6a7A","correct":-1,"choice":-1,"rt":-1,"accuracy":1,"outcome":"-10","keys":[],"total_keys":0,"block":1,"trial":48,"stimulus":6,"robot":4,"valence":"lose","action":"no-go","sham":1,"trial_type":"pit-trial","trial_index":85,"time_elapsed":659451,"internal_node_id":"0.0-55.0","task_version":"battery-v0.2-trt"},{"rune":"V","rune_set":"bacs1","hex":"#3366ff99","correct":32,"choice":-1,"rt":-1,"accuracy":0,"outcome":"+1","keys":[],"total_keys":0,"block":1,"trial":49,"stimulus":4,"robot":1,"valence":"win","action":"go","sham":0,"trial_type":"pit-trial","trial_index":86,"time_elapsed":663453,"internal_node_id":"0.0-56.0","task_version":"battery-v0.2-trt"},{"rune":"F","rune_set":"bacs1","hex":"#3366ff99","correct":-1,"choice":-1,"rt":-1,"accuracy":1,"outcome":"+10","keys":[],"total_keys":0,"block":1,"trial":50,"stimulus":7,"robot":2,"valence":"win","action":"no-go","sham":0,"trial_type":"pit-trial","trial_index":87,"time_elapsed":667455,"internal_node_id":"0.0-57.0","task_version":"battery-v0.2-trt"},{"rune":"E","rune_set":"bacs1","hex":"#f73b6a7A","correct":32,"choice":32,"rt":532.9999998211861,"accuracy":1,"outcome":"-1","keys":[2032.999999821186],"total_keys":1,"block":1,"trial":51,"stimulus":5,"robot":3,"valence":"lose","action":"go","sham":0,"trial_type":"pit-trial","trial_index":88,"time_elapsed":670691,"internal_node_id":"0.0-58.0","task_version":"battery-v0.2-trt"},{"rune":"T","rune_set":"bacs1","hex":"#f73b6a7A","correct":-1,"choice":32,"rt":393.0000001564622,"accuracy":0,"outcome":"-10","keys":[1893.0000001564622],"total_keys":1,"block":1,"trial":52,"stimulus":6,"robot":4,"valence":"lose","action":"no-go","sham":0,"trial_type":"pit-trial","trial_index":89,"time_elapsed":673786,"internal_node_id":"0.0-59.0","task_version":"battery-v0.2-trt"},{"rune":"F","rune_set":"bacs1","hex":"#3366ff99","correct":-1,"choice":-1,"rt":-1,"accuracy":1,"outcome":"+10","keys":[],"total_keys":0,"block":1,"trial":53,"stimulus":7,"robot":2,"valence":"win","action":"no-go","sham":0,"trial_type":"pit-trial","trial_index":90,"time_elapsed":677788,"internal_node_id":"0.0-60.0","task_version":"battery-v0.2-trt"},{"rune":"T","rune_set":"bacs1","hex":"#f73b6a7A","correct":-1,"choice":32,"rt":456.00000000558794,"accuracy":0,"outcome":"-10","keys":[1956.000000005588],"total_keys":1,"block":1,"trial":54,"stimulus":6,"robot":4,"valence":"lose","action":"no-go","sham":0,"trial_type":"pit-trial","trial_index":91,"time_elapsed":680947,"internal_node_id":"0.0-61.0","task_version":"battery-v0.2-trt"},{"rune":"E","rune_set":"bacs1","hex":"#f73b6a7A","correct":32,"choice":32,"rt":520.9999999497086,"accuracy":1,"outcome":"-1","keys":[2020.9999999497086],"total_keys":1,"block":1,"trial":55,"stimulus":5,"robot":3,"valence":"lose","action":"go","sham":0,"trial_type":"pit-trial","trial_index":92,"time_elapsed":684172,"internal_node_id":"0.0-62.0","task_version":"battery-v0.2-trt"},{"rune":"V","rune_set":"bacs1","hex":"#3366ff99","correct":32,"choice":-1,"rt":-1,"accuracy":0,"outcome":"+1","keys":[],"total_keys":0,"block":1,"trial":56,"stimulus":4,"robot":1,"valence":"win","action":"go","sham":0,"trial_type":"pit-trial","trial_index":93,"time_elapsed":688173,"internal_node_id":"0.0-63.0","task_version":"battery-v0.2-trt"},{"rune":"T","rune_set":"bacs1","hex":"#f73b6a7A","correct":-1,"choice":-1,"rt":-1,"accuracy":1,"outcome":"-1","keys":[],"total_keys":0,"block":1,"trial":57,"stimulus":6,"robot":4,"valence":"lose","action":"no-go","sham":0,"trial_type":"pit-trial","trial_index":94,"time_elapsed":692184,"internal_node_id":"0.0-64.0","task_version":"battery-v0.2-trt"},{"rune":"E","rune_set":"bacs1","hex":"#f73b6a7A","correct":32,"choice":32,"rt":484.00000017136335,"accuracy":1,"outcome":"-1","keys":[1984.0000001713634],"total_keys":1,"block":1,"trial":58,"stimulus":5,"robot":3,"valence":"lose","action":"go","sham":0,"trial_type":"pit-trial","trial_index":95,"time_elapsed":695370,"internal_node_id":"0.0-65.0","task_version":"battery-v0.2-trt"},{"rune":"F","rune_set":"bacs1","hex":"#3366ff99","correct":-1,"choice":-1,"rt":-1,"accuracy":1,"outcome":"+10","keys":[],"total_keys":0,"block":1,"trial":59,"stimulus":7,"robot":2,"valence":"win","action":"no-go","sham":0,"trial_type":"pit-trial","trial_index":96,"time_elapsed":699373,"internal_node_id":"0.0-66.0","task_version":"battery-v0.2-trt"},{"rune":"V","rune_set":"bacs1","hex":"#3366ff99","correct":32,"choice":-1,"rt":-1,"accuracy":0,"outcome":"+1","keys":[],"total_keys":0,"block":1,"trial":60,"stimulus":4,"robot":1,"valence":"win","action":"go","sham":0,"trial_type":"pit-trial","trial_index":97,"time_elapsed":703374,"internal_node_id":"0.0-67.0","task_version":"battery-v0.2-trt"},{"rune":"V","rune_set":"bacs1","hex":"#3366ff99","correct":32,"choice":32,"rt":908.9999999850988,"accuracy":1,"outcome":"+10","keys":[2409.999999916181],"total_keys":1,"block":1,"trial":61,"stimulus":4,"robot":1,"valence":"win","action":"go","sham":0,"trial_type":"pit-trial","trial_index":98,"time_elapsed":706986,"internal_node_id":"0.0-68.0","task_version":"battery-v0.2-trt"},{"rune":"E","rune_set":"bacs1","hex":"#f73b6a7A","correct":32,"choice":32,"rt":584.9999999627471,"accuracy":1,"outcome":"-1","keys":[2084.999999962747],"total_keys":1,"block":1,"trial":62,"stimulus":5,"robot":3,"valence":"lose","action":"go","sham":0,"trial_type":"pit-trial","trial_index":99,"time_elapsed":710274,"internal_node_id":"0.0-69.0","task_version":"battery-v0.2-trt"},{"rune":"T","rune_set":"bacs1","hex":"#f73b6a7A","correct":-1,"choice":-1,"rt":-1,"accuracy":1,"outcome":"-1","keys":[],"total_keys":0,"block":1,"trial":63,"stimulus":6,"robot":4,"valence":"lose","action":"no-go","sham":0,"trial_type":"pit-trial","trial_index":100,"time_elapsed":714276,"internal_node_id":"0.0-70.0","task_version":"battery-v0.2-trt"},{"rune":"F","rune_set":"bacs1","hex":"#3366ff99","correct":-1,"choice":-1,"rt":-1,"accuracy":1,"outcome":"+10","keys":[],"total_keys":0,"block":1,"trial":64,"stimulus":7,"robot":2,"valence":"win","action":"no-go","sham":0,"trial_type":"pit-trial","trial_index":101,"time_elapsed":718279,"internal_node_id":"0.0-71.0","task_version":"battery-v0.2-trt"},{"rune":"F","rune_set":"bacs1","hex":"#3366ff99","correct":-1,"choice":-1,"rt":-1,"accuracy":1,"outcome":"+10","keys":[],"total_keys":0,"block":1,"trial":65,"stimulus":7,"robot":2,"valence":"win","action":"no-go","sham":0,"trial_type":"pit-trial","trial_index":102,"time_elapsed":722282,"internal_node_id":"0.0-72.0","task_version":"battery-v0.2-trt"},{"rune":"E","rune_set":"bacs1","hex":"#f73b6a7A","correct":32,"choice":32,"rt":627.0000000949949,"accuracy":1,"outcome":"-1","keys":[2127.000000094995],"total_keys":1,"block":1,"trial":66,"stimulus":5,"robot":3,"valence":"lose","action":"go","sham":0,"trial_type":"pit-trial","trial_index":103,"time_elapsed":725610,"internal_node_id":"0.0-73.0","task_version":"battery-v0.2-trt"},{"rune":"T","rune_set":"bacs1","hex":"#f73b6a7A","correct":-1,"choice":-1,"rt":-1,"accuracy":1,"outcome":"-1","keys":[],"total_keys":0,"block":1,"trial":67,"stimulus":6,"robot":4,"valence":"lose","action":"no-go","sham":0,"trial_type":"pit-trial","trial_index":104,"time_elapsed":729613,"internal_node_id":"0.0-74.0","task_version":"battery-v0.2-trt"},{"rune":"V","rune_set":"bacs1","hex":"#3366ff99","correct":32,"choice":32,"rt":374.00000006891787,"accuracy":1,"outcome":"+10","keys":[1874.0000000689179],"total_keys":1,"block":1,"trial":68,"stimulus":4,"robot":1,"valence":"win","action":"go","sham":0,"trial_type":"pit-trial","trial_index":105,"time_elapsed":732689,"internal_node_id":"0.0-75.0","task_version":"battery-v0.2-trt"},{"rune":"T","rune_set":"bacs1","hex":"#f73b6a7A","correct":-1,"choice":-1,"rt":-1,"accuracy":1,"outcome":"-1","keys":[],"total_keys":0,"block":1,"trial":69,"stimulus":6,"robot":4,"valence":"lose","action":"no-go","sham":0,"trial_type":"pit-trial","trial_index":106,"time_elapsed":736693,"internal_node_id":"0.0-76.0","task_version":"battery-v0.2-trt"},{"rune":"V","rune_set":"bacs1","hex":"#3366ff99","correct":32,"choice":32,"rt":527.0000000018626,"accuracy":1,"outcome":"+10","keys":[2027.0000000018626],"total_keys":1,"block":1,"trial":70,"stimulus":4,"robot":1,"valence":"win","action":"go","sham":0,"trial_type":"pit-trial","trial_index":107,"time_elapsed":739922,"internal_node_id":"0.0-77.0","task_version":"battery-v0.2-trt"},{"rune":"E","rune_set":"bacs1","hex":"#f73b6a7A","correct":32,"choice":32,"rt":584.9999999627471,"accuracy":1,"outcome":"-1","keys":[2085.999999893829],"total_keys":1,"block":1,"trial":71,"stimulus":5,"robot":3,"valence":"lose","action":"go","sham":0,"trial_type":"pit-trial","trial_index":108,"time_elapsed":743210,"internal_node_id":"0.0-78.0","task_version":"battery-v0.2-trt"},{"rune":"F","rune_set":"bacs1","hex":"#3366ff99","correct":-1,"choice":-1,"rt":-1,"accuracy":1,"outcome":"+10","keys":[],"total_keys":0,"block":1,"trial":72,"stimulus":7,"robot":2,"valence":"win","action":"no-go","sham":0,"trial_type":"pit-trial","trial_index":109,"time_elapsed":747212,"internal_node_id":"0.0-79.0","task_version":"battery-v0.2-trt"},{"rune":"T","rune_set":"bacs1","hex":"#f73b6a7A","correct":-1,"choice":-1,"rt":-1,"accuracy":1,"outcome":"-10","keys":[],"total_keys":0,"block":1,"trial":73,"stimulus":6,"robot":4,"valence":"lose","action":"no-go","sham":1,"trial_type":"pit-trial","trial_index":110,"time_elapsed":751214,"internal_node_id":"0.0-80.0","task_version":"battery-v0.2-trt"},{"rune":"V","rune_set":"bacs1","hex":"#3366ff99","correct":32,"choice":32,"rt":588.9999999199063,"accuracy":1,"outcome":"+10","keys":[2090.000000083819],"total_keys":1,"block":1,"trial":74,"stimulus":4,"robot":1,"valence":"win","action":"go","sham":0,"trial_type":"pit-trial","trial_index":111,"time_elapsed":754506,"internal_node_id":"0.0-81.0","task_version":"battery-v0.2-trt"},{"rune":"A","rune_set":"bacs1","hex":"#f73b6a7A","correct":32,"choice":-1,"rt":-1,"accuracy":0,"outcome":"-10","keys":[],"total_keys":0,"block":1,"trial":75,"stimulus":8,"robot":3,"valence":"lose","action":"go","sham":0,"trial_type":"pit-trial","trial_index":112,"time_elapsed":758509,"internal_node_id":"0.0-82.0","task_version":"battery-v0.2-trt"},{"rune":"F","rune_set":"bacs1","hex":"#3366ff99","correct":-1,"choice":-1,"rt":-1,"accuracy":1,"outcome":"+10","keys":[],"total_keys":0,"block":1,"trial":76,"stimulus":7,"robot":2,"valence":"win","action":"no-go","sham":0,"trial_type":"pit-trial","trial_index":113,"time_elapsed":762513,"internal_node_id":"0.0-83.0","task_version":"battery-v0.2-trt"},{"rune":"T","rune_set":"bacs1","hex":"#f73b6a7A","correct":-1,"choice":-1,"rt":-1,"accuracy":1,"outcome":"-10","keys":[],"total_keys":0,"block":1,"trial":77,"stimulus":6,"robot":4,"valence":"lose","action":"no-go","sham":1,"trial_type":"pit-trial","trial_index":114,"time_elapsed":766516,"internal_node_id":"0.0-84.0","task_version":"battery-v0.2-trt"},{"rune":"F","rune_set":"bacs1","hex":"#3366ff99","correct":-1,"choice":-1,"rt":-1,"accuracy":1,"outcome":"+10","keys":[],"total_keys":0,"block":1,"trial":78,"stimulus":7,"robot":2,"valence":"win","action":"no-go","sham":0,"trial_type":"pit-trial","trial_index":115,"time_elapsed":770518,"internal_node_id":"0.0-85.0","task_version":"battery-v0.2-trt"},{"rune":"V","rune_set":"bacs1","hex":"#3366ff99","correct":32,"choice":32,"rt":469.9999999720603,"accuracy":1,"outcome":"+10","keys":[1969.9999999720603],"total_keys":1,"block":1,"trial":79,"stimulus":4,"robot":1,"valence":"win","action":"go","sham":0,"trial_type":"pit-trial","trial_index":116,"time_elapsed":773691,"internal_node_id":"0.0-86.0","task_version":"battery-v0.2-trt"},{"rune":"A","rune_set":"bacs1","hex":"#f73b6a7A","correct":32,"choice":32,"rt":606.9999998435378,"accuracy":1,"outcome":"-1","keys":[2108.0000000074506],"total_keys":1,"block":1,"trial":80,"stimulus":8,"robot":3,"valence":"lose","action":"go","sham":0,"trial_type":"pit-trial","trial_index":117,"time_elapsed":777003,"internal_node_id":"0.0-87.0","task_version":"battery-v0.2-trt"},{"rune":"T","rune_set":"bacs1","hex":"#f73b6a7A","correct":-1,"choice":32,"rt":489.00000005960464,"accuracy":0,"outcome":"-10","keys":[1989.0000000596046],"total_keys":1,"block":1,"trial":81,"stimulus":6,"robot":4,"valence":"lose","action":"no-go","sham":0,"trial_type":"pit-trial","trial_index":118,"time_elapsed":780194,"internal_node_id":"0.0-88.0","task_version":"battery-v0.2-trt"},{"rune":"A","rune_set":"bacs1","hex":"#f73b6a7A","correct":32,"choice":32,"rt":584.000000031665,"accuracy":1,"outcome":"-1","keys":[2085.0000001955777],"total_keys":1,"block":1,"trial":82,"stimulus":8,"robot":3,"valence":"lose","action":"go","sham":0,"trial_type":"pit-trial","trial_index":119,"time_elapsed":783481,"internal_node_id":"0.0-89.0","task_version":"battery-v0.2-trt"},{"rune":"F","rune_set":"bacs1","hex":"#3366ff99","correct":-1,"choice":-1,"rt":-1,"accuracy":1,"outcome":"+10","keys":[],"total_keys":0,"block":1,"trial":83,"stimulus":7,"robot":2,"valence":"win","action":"no-go","sham":0,"trial_type":"pit-trial","trial_index":120,"time_elapsed":787483,"internal_node_id":"0.0-90.0","task_version":"battery-v0.2-trt"},{"rune":"C","rune_set":"bacs1","hex":"#f73b6a7A","correct":32,"choice":-1,"rt":-1,"accuracy":0,"outcome":"-10","keys":[],"total_keys":0,"block":1,"trial":84,"stimulus":9,"robot":3,"valence":"lose","action":"go","sham":0,"trial_type":"pit-trial","trial_index":121,"time_elapsed":791486,"internal_node_id":"0.0-91.0","task_version":"battery-v0.2-trt"},{"rune":"T","rune_set":"bacs1","hex":"#f73b6a7A","correct":-1,"choice":-1,"rt":-1,"accuracy":1,"outcome":"-1","keys":[],"total_keys":0,"block":1,"trial":85,"stimulus":6,"robot":4,"valence":"lose","action":"no-go","sham":0,"trial_type":"pit-trial","trial_index":122,"time_elapsed":795490,"internal_node_id":"0.0-92.0","task_version":"battery-v0.2-trt"},{"rune":"A","rune_set":"bacs1","hex":"#f73b6a7A","correct":32,"choice":32,"rt":546.000000089407,"accuracy":1,"outcome":"-1","keys":[2046.000000089407],"total_keys":1,"block":1,"trial":86,"stimulus":8,"robot":3,"valence":"lose","action":"go","sham":0,"trial_type":"pit-trial","trial_index":123,"time_elapsed":798738,"internal_node_id":"0.0-93.0","task_version":"battery-v0.2-trt"},{"rune":"C","rune_set":"bacs1","hex":"#f73b6a7A","correct":32,"choice":-1,"rt":-1,"accuracy":0,"outcome":"-1","keys":[],"total_keys":0,"block":1,"trial":87,"stimulus":9,"robot":3,"valence":"lose","action":"go","sham":1,"trial_type":"pit-trial","trial_index":124,"time_elapsed":802741,"internal_node_id":"0.0-94.0","task_version":"battery-v0.2-trt"},{"rune":"F","rune_set":"bacs1","hex":"#3366ff99","correct":-1,"choice":-1,"rt":-1,"accuracy":1,"outcome":"+10","keys":[],"total_keys":0,"block":1,"trial":88,"stimulus":7,"robot":2,"valence":"win","action":"no-go","sham":0,"trial_type":"pit-trial","trial_index":125,"time_elapsed":806743,"internal_node_id":"0.0-95.0","task_version":"battery-v0.2-trt"},{"rune":"A","rune_set":"bacs1","hex":"#f73b6a7A","correct":32,"choice":32,"rt":596.0000001359731,"accuracy":1,"outcome":"-1","keys":[2097.000000067055],"total_keys":1,"block":1,"trial":89,"stimulus":8,"robot":3,"valence":"lose","action":"go","sham":0,"trial_type":"pit-trial","trial_index":126,"time_elapsed":810042,"internal_node_id":"0.0-96.0","task_version":"battery-v0.2-trt"},{"rune":"L","rune_set":"bacs1","hex":"#f73b6a7A","correct":-1,"choice":-1,"rt":-1,"accuracy":1,"outcome":"-1","keys":[],"total_keys":0,"block":1,"trial":90,"stimulus":10,"robot":4,"valence":"lose","action":"no-go","sham":0,"trial_type":"pit-trial","trial_index":127,"time_elapsed":814044,"internal_node_id":"0.0-97.0","task_version":"battery-v0.2-trt"},{"rune":"C","rune_set":"bacs1","hex":"#f73b6a7A","correct":32,"choice":-1,"rt":-1,"accuracy":0,"outcome":"-10","keys":[],"total_keys":0,"block":1,"trial":91,"stimulus":9,"robot":3,"valence":"lose","action":"go","sham":0,"trial_type":"pit-trial","trial_index":128,"time_elapsed":818046,"internal_node_id":"0.0-98.0","task_version":"battery-v0.2-trt"},{"rune":"Q","rune_set":"bacs1","hex":"#3366ff99","correct":-1,"choice":-1,"rt":-1,"accuracy":1,"outcome":"+10","keys":[],"total_keys":0,"block":1,"trial":92,"stimulus":11,"robot":2,"valence":"win","action":"no-go","sham":0,"trial_type":"pit-trial","trial_index":129,"time_elapsed":822050,"internal_node_id":"0.0-99.0","task_version":"battery-v0.2-trt"},{"rune":"A","rune_set":"bacs1","hex":"#f73b6a7A","correct":32,"choice":32,"rt":576.0000001173466,"accuracy":1,"outcome":"-1","keys":[2077.000000048429],"total_keys":1,"block":1,"trial":93,"stimulus":8,"robot":3,"valence":"lose","action":"go","sham":0,"trial_type":"pit-trial","trial_index":130,"time_elapsed":825329,"internal_node_id":"0.0-100.0","task_version":"battery-v0.2-trt"},{"rune":"L","rune_set":"bacs1","hex":"#f73b6a7A","correct":-1,"choice":-1,"rt":-1,"accuracy":1,"outcome":"-1","keys":[],"total_keys":0,"block":1,"trial":94,"stimulus":10,"robot":4,"valence":"lose","action":"no-go","sham":0,"trial_type":"pit-trial","trial_index":131,"time_elapsed":829334,"internal_node_id":"0.0-101.0","task_version":"battery-v0.2-trt"},{"rune":"C","rune_set":"bacs1","hex":"#f73b6a7A","correct":32,"choice":32,"rt":669.9999999254942,"accuracy":1,"outcome":"-10","keys":[2169.999999925494],"total_keys":1,"block":1,"trial":95,"stimulus":9,"robot":3,"valence":"lose","action":"go","sham":1,"trial_type":"pit-trial","trial_index":132,"time_elapsed":832706,"internal_node_id":"0.0-102.0","task_version":"battery-v0.2-trt"},{"rune":"Q","rune_set":"bacs1","hex":"#3366ff99","correct":-1,"choice":-1,"rt":-1,"accuracy":1,"outcome":"+10","keys":[],"total_keys":0,"block":1,"trial":96,"stimulus":11,"robot":2,"valence":"win","action":"no-go","sham":0,"trial_type":"pit-trial","trial_index":133,"time_elapsed":836708,"internal_node_id":"0.0-103.0","task_version":"battery-v0.2-trt"},{"rune":"A","rune_set":"bacs1","hex":"#f73b6a7A","correct":32,"choice":32,"rt":518.9999998547137,"accuracy":1,"outcome":"-1","keys":[2018.9999998547137],"total_keys":1,"block":1,"trial":97,"stimulus":8,"robot":3,"valence":"lose","action":"go","sham":0,"trial_type":"pit-trial","trial_index":134,"time_elapsed":839929,"internal_node_id":"0.0-104.0","task_version":"battery-v0.2-trt"},{"rune":"Q","rune_set":"bacs1","hex":"#3366ff99","correct":-1,"choice":-1,"rt":-1,"accuracy":1,"outcome":"+10","keys":[],"total_keys":0,"block":1,"trial":98,"stimulus":11,"robot":2,"valence":"win","action":"no-go","sham":0,"trial_type":"pit-trial","trial_index":135,"time_elapsed":843932,"internal_node_id":"0.0-105.0","task_version":"battery-v0.2-trt"},{"rune":"L","rune_set":"bacs1","hex":"#f73b6a7A","correct":-1,"choice":-1,"rt":-1,"accuracy":1,"outcome":"-1","keys":[],"total_keys":0,"block":1,"trial":99,"stimulus":10,"robot":4,"valence":"lose","action":"no-go","sham":0,"trial_type":"pit-trial","trial_index":136,"time_elapsed":847935,"internal_node_id":"0.0-106.0","task_version":"battery-v0.2-trt"},{"rune":"C","rune_set":"bacs1","hex":"#f73b6a7A","correct":32,"choice":-1,"rt":-1,"accuracy":0,"outcome":"-10","keys":[],"total_keys":0,"block":1,"trial":100,"stimulus":9,"robot":3,"valence":"lose","action":"go","sham":0,"trial_type":"pit-trial","trial_index":137,"time_elapsed":851939,"internal_node_id":"0.0-107.0","task_version":"battery-v0.2-trt"},{"rune":"Q","rune_set":"bacs1","hex":"#3366ff99","correct":-1,"choice":-1,"rt":-1,"accuracy":1,"outcome":"+10","keys":[],"total_keys":0,"block":1,"trial":101,"stimulus":11,"robot":2,"valence":"win","action":"no-go","sham":0,"trial_type":"pit-trial","trial_index":138,"time_elapsed":855942,"internal_node_id":"0.0-108.0","task_version":"battery-v0.2-trt"},{"rune":"L","rune_set":"bacs1","hex":"#f73b6a7A","correct":-1,"choice":-1,"rt":-1,"accuracy":1,"outcome":"-1","keys":[],"total_keys":0,"block":1,"trial":102,"stimulus":10,"robot":4,"valence":"lose","action":"no-go","sham":0,"trial_type":"pit-trial","trial_index":139,"time_elapsed":859950,"internal_node_id":"0.0-109.0","task_version":"battery-v0.2-trt"},{"rune":"C","rune_set":"bacs1","hex":"#f73b6a7A","correct":32,"choice":-1,"rt":-1,"accuracy":0,"outcome":"-10","keys":[],"total_keys":0,"block":1,"trial":103,"stimulus":9,"robot":3,"valence":"lose","action":"go","sham":0,"trial_type":"pit-trial","trial_index":140,"time_elapsed":863952,"internal_node_id":"0.0-110.0","task_version":"battery-v0.2-trt"},{"rune":"A","rune_set":"bacs1","hex":"#f73b6a7A","correct":32,"choice":32,"rt":619.9999998789281,"accuracy":1,"outcome":"-1","keys":[2119.999999878928],"total_keys":1,"block":1,"trial":104,"stimulus":8,"robot":3,"valence":"lose","action":"go","sham":0,"trial_type":"pit-trial","trial_index":141,"time_elapsed":867274,"internal_node_id":"0.0-111.0","task_version":"battery-v0.2-trt"},{"rune":"C","rune_set":"bacs1","hex":"#f73b6a7A","correct":32,"choice":32,"rt":713.9999999199063,"accuracy":1,"outcome":"-1","keys":[2213.9999999199063],"total_keys":1,"block":1,"trial":105,"stimulus":9,"robot":3,"valence":"lose","action":"go","sham":0,"trial_type":"pit-trial","trial_index":142,"time_elapsed":870690,"internal_node_id":"0.0-112.0","task_version":"battery-v0.2-trt"},{"rune":"A","rune_set":"bacs1","hex":"#f73b6a7A","correct":32,"choice":32,"rt":568.0000002030283,"accuracy":1,"outcome":"-1","keys":[2069.0000001341105],"total_keys":1,"block":1,"trial":106,"stimulus":8,"robot":3,"valence":"lose","action":"go","sham":0,"trial_type":"pit-trial","trial_index":143,"time_elapsed":873961,"internal_node_id":"0.0-113.0","task_version":"battery-v0.2-trt"},{"rune":"Q","rune_set":"bacs1","hex":"#3366ff99","correct":-1,"choice":-1,"rt":-1,"accuracy":1,"outcome":"+10","keys":[],"total_keys":0,"block":1,"trial":107,"stimulus":11,"robot":2,"valence":"win","action":"no-go","sham":0,"trial_type":"pit-trial","trial_index":144,"time_elapsed":877963,"internal_node_id":"0.0-114.0","task_version":"battery-v0.2-trt"},{"rune":"L","rune_set":"bacs1","hex":"#f73b6a7A","correct":-1,"choice":32,"rt":753.000000026077,"accuracy":0,"outcome":"-10","keys":[2253.000000026077],"total_keys":1,"block":1,"trial":108,"stimulus":10,"robot":4,"valence":"lose","action":"no-go","sham":0,"trial_type":"pit-trial","trial_index":145,"time_elapsed":881418,"internal_node_id":"0.0-115.0","task_version":"battery-v0.2-trt"},{"rune":"Q","rune_set":"bacs1","hex":"#3366ff99","correct":-1,"choice":-1,"rt":-1,"accuracy":1,"outcome":"+10","keys":[],"total_keys":0,"block":1,"trial":109,"stimulus":11,"robot":2,"valence":"win","action":"no-go","sham":0,"trial_type":"pit-trial","trial_index":146,"time_elapsed":885420,"internal_node_id":"0.0-116.0","task_version":"battery-v0.2-trt"},{"rune":"L","rune_set":"bacs1","hex":"#f73b6a7A","correct":-1,"choice":32,"rt":751.0000001639128,"accuracy":0,"outcome":"-1","keys":[2251.000000163913],"total_keys":1,"block":1,"trial":110,"stimulus":10,"robot":4,"valence":"lose","action":"no-go","sham":1,"trial_type":"pit-trial","trial_index":147,"time_elapsed":888874,"internal_node_id":"0.0-117.0","task_version":"battery-v0.2-trt"},{"rune":"A","rune_set":"bacs1","hex":"#f73b6a7A","correct":32,"choice":32,"rt":537.999999942258,"accuracy":1,"outcome":"-10","keys":[2037.999999942258],"total_keys":1,"block":1,"trial":111,"stimulus":8,"robot":3,"valence":"lose","action":"go","sham":1,"trial_type":"pit-trial","trial_index":148,"time_elapsed":892114,"internal_node_id":"0.0-118.0","task_version":"battery-v0.2-trt"},{"rune":"C","rune_set":"bacs1","hex":"#f73b6a7A","correct":32,"choice":32,"rt":585.9999998938292,"accuracy":1,"outcome":"-1","keys":[2085.999999893829],"total_keys":1,"block":1,"trial":112,"stimulus":9,"robot":3,"valence":"lose","action":"go","sham":0,"trial_type":"pit-trial","trial_index":149,"time_elapsed":895402,"internal_node_id":"0.0-119.0","task_version":"battery-v0.2-trt"},{"rune":"C","rune_set":"bacs1","hex":"#f73b6a7A","correct":32,"choice":32,"rt":680.0000001676381,"accuracy":1,"outcome":"-1","keys":[2181.00000009872],"total_keys":1,"block":1,"trial":113,"stimulus":9,"robot":3,"valence":"lose","action":"go","sham":0,"trial_type":"pit-trial","trial_index":150,"time_elapsed":898786,"internal_node_id":"0.0-120.0","task_version":"battery-v0.2-trt"},{"rune":"A","rune_set":"bacs1","hex":"#f73b6a7A","correct":32,"choice":32,"rt":511.9999998714775,"accuracy":1,"outcome":"-1","keys":[2011.9999998714775],"total_keys":1,"block":1,"trial":114,"stimulus":8,"robot":3,"valence":"lose","action":"go","sham":0,"trial_type":"pit-trial","trial_index":151,"time_elapsed":902001,"internal_node_id":"0.0-121.0","task_version":"battery-v0.2-trt"},{"rune":"Q","rune_set":"bacs1","hex":"#3366ff99","correct":-1,"choice":-1,"rt":-1,"accuracy":1,"outcome":"+10","keys":[],"total_keys":0,"block":1,"trial":115,"stimulus":11,"robot":2,"valence":"win","action":"no-go","sham":0,"trial_type":"pit-trial","trial_index":152,"time_elapsed":906003,"internal_node_id":"0.0-122.0","task_version":"battery-v0.2-trt"},{"rune":"L","rune_set":"bacs1","hex":"#f73b6a7A","correct":-1,"choice":-1,"rt":-1,"accuracy":1,"outcome":"-10","keys":[],"total_keys":0,"block":1,"trial":116,"stimulus":10,"robot":4,"valence":"lose","action":"no-go","sham":1,"trial_type":"pit-trial","trial_index":153,"time_elapsed":910005,"internal_node_id":"0.0-123.0","task_version":"battery-v0.2-trt"},{"rune":"Q","rune_set":"bacs1","hex":"#3366ff99","correct":-1,"choice":-1,"rt":-1,"accuracy":1,"outcome":"+10","keys":[],"total_keys":0,"block":1,"trial":117,"stimulus":11,"robot":2,"valence":"win","action":"no-go","sham":0,"trial_type":"pit-trial","trial_index":154,"time_elapsed":914008,"internal_node_id":"0.0-124.0","task_version":"battery-v0.2-trt"},{"rune":"L","rune_set":"bacs1","hex":"#f73b6a7A","correct":-1,"choice":32,"rt":706.9999999366701,"accuracy":0,"outcome":"-10","keys":[2208.000000100583],"total_keys":1,"block":1,"trial":118,"stimulus":10,"robot":4,"valence":"lose","action":"no-go","sham":0,"trial_type":"pit-trial","trial_index":155,"time_elapsed":917418,"internal_node_id":"0.0-125.0","task_version":"battery-v0.2-trt"},{"rune":"A","rune_set":"bacs1","hex":"#f73b6a7A","correct":32,"choice":32,"rt":527.9999999329448,"accuracy":1,"outcome":"-1","keys":[2028.999999864027],"total_keys":1,"block":1,"trial":119,"stimulus":8,"robot":3,"valence":"lose","action":"go","sham":0,"trial_type":"pit-trial","trial_index":156,"time_elapsed":920650,"internal_node_id":"0.0-126.0","task_version":"battery-v0.2-trt"},{"rune":"C","rune_set":"bacs1","hex":"#f73b6a7A","correct":32,"choice":32,"rt":618.0000000167638,"accuracy":1,"outcome":"-1","keys":[2118.000000016764],"total_keys":1,"block":1,"trial":120,"stimulus":9,"robot":3,"valence":"lose","action":"go","sham":0,"trial_type":"pit-trial","trial_index":157,"time_elapsed":923970,"internal_node_id":"0.0-127.0","task_version":"battery-v0.2-trt"},{"view_history":"[{\"page_index\":0,\"viewing_time\":38215.00000008382},{\"page_index\":1,\"viewing_time\":5710.999999893829}]","rt":43926.99999990873,"trial_type":"pit-instructions","trial_index":158,"time_elapsed":967899,"internal_node_id":"0.0-128.0","task_version":"battery-v0.2-trt"},{"rune":"O","rune_set":"bacs1","hex":"#3366ff99","correct":-1,"choice":-1,"rt":-1,"accuracy":1,"outcome":"+10","keys":[],"total_keys":0,"block":2,"trial":121,"stimulus":3,"robot":2,"valence":"win","action":"no-go","sham":0,"trial_type":"pit-trial","trial_index":159,"time_elapsed":971902,"internal_node_id":"0.0-129.0","task_version":"battery-v0.2-trt"},{"rune":"G","rune_set":"bacs1","hex":"#f73b6a7A","correct":-1,"choice":-1,"rt":-1,"accuracy":1,"outcome":"-10","keys":[],"total_keys":0,"block":2,"trial":122,"stimulus":1,"robot":4,"valence":"lose","action":"no-go","sham":1,"trial_type":"pit-trial","trial_index":160,"time_elapsed":975904,"internal_node_id":"0.0-130.0","task_version":"battery-v0.2-trt"},{"rune":"I","rune_set":"bacs1","hex":"#3366ff99","correct":32,"choice":32,"rt":754.9999998882413,"accuracy":1,"outcome":"+10","keys":[2254.9999998882413],"total_keys":1,"block":2,"trial":123,"stimulus":2,"robot":1,"valence":"win","action":"go","sham":0,"trial_type":"pit-trial","trial_index":161,"time_elapsed":979362,"internal_node_id":"0.0-131.0","task_version":"battery-v0.2-trt"},{"rune":"N","rune_set":"bacs1","hex":"#f73b6a7A","correct":-1,"choice":-1,"rt":-1,"accuracy":1,"outcome":"-1","keys":[],"total_keys":0,"block":2,"trial":124,"stimulus":0,"robot":4,"valence":"lose","action":"no-go","sham":0,"trial_type":"pit-trial","trial_index":162,"time_elapsed":983364,"internal_node_id":"0.0-132.0","task_version":"battery-v0.2-trt"},{"rune":"N","rune_set":"bacs1","hex":"#f73b6a7A","correct":-1,"choice":-1,"rt":-1,"accuracy":1,"outcome":"-1","keys":[],"total_keys":0,"block":2,"trial":125,"stimulus":0,"robot":4,"valence":"lose","action":"no-go","sham":0,"trial_type":"pit-trial","trial_index":163,"time_elapsed":987366,"internal_node_id":"0.0-133.0","task_version":"battery-v0.2-trt"},{"rune":"I","rune_set":"bacs1","hex":"#3366ff99","correct":32,"choice":32,"rt":756.0000000521541,"accuracy":1,"outcome":"+10","keys":[2258.000000147149],"total_keys":1,"block":2,"trial":126,"stimulus":2,"robot":1,"valence":"win","action":"go","sham":0,"trial_type":"pit-trial","trial_index":164,"time_elapsed":990827,"internal_node_id":"0.0-134.0","task_version":"battery-v0.2-trt"},{"rune":"G","rune_set":"bacs1","hex":"#f73b6a7A","correct":-1,"choice":32,"rt":840.000000083819,"accuracy":0,"outcome":"-10","keys":[2339.9999998509884],"total_keys":1,"block":2,"trial":127,"stimulus":1,"robot":4,"valence":"lose","action":"no-go","sham":0,"trial_type":"pit-trial","trial_index":165,"time_elapsed":994370,"internal_node_id":"0.0-135.0","task_version":"battery-v0.2-trt"},{"rune":"O","rune_set":"bacs1","hex":"#3366ff99","correct":-1,"choice":-1,"rt":-1,"accuracy":1,"outcome":"+10","keys":[],"total_keys":0,"block":2,"trial":128,"stimulus":3,"robot":2,"valence":"win","action":"no-go","sham":0,"trial_type":"pit-trial","trial_index":166,"time_elapsed":998373,"internal_node_id":"0.0-136.0","task_version":"battery-v0.2-trt"},{"rune":"O","rune_set":"bacs1","hex":"#3366ff99","correct":-1,"choice":32,"rt":966.0000000149012,"accuracy":0,"outcome":"+1","keys":[2466.000000014901],"total_keys":1,"block":2,"trial":129,"stimulus":3,"robot":2,"valence":"win","action":"no-go","sham":0,"trial_type":"pit-trial","trial_index":167,"time_elapsed":1002042,"internal_node_id":"0.0-137.0","task_version":"battery-v0.2-trt"},{"rune":"G","rune_set":"bacs1","hex":"#f73b6a7A","correct":-1,"choice":-1,"rt":-1,"accuracy":1,"outcome":"-1","keys":[],"total_keys":0,"block":2,"trial":130,"stimulus":1,"robot":4,"valence":"lose","action":"no-go","sham":0,"trial_type":"pit-trial","trial_index":168,"time_elapsed":1006044,"internal_node_id":"0.0-138.0","task_version":"battery-v0.2-trt"},{"rune":"N","rune_set":"bacs1","hex":"#f73b6a7A","correct":-1,"choice":32,"rt":824.0000000223517,"accuracy":0,"outcome":"-10","keys":[2323.0000000912696],"total_keys":1,"block":2,"trial":131,"stimulus":0,"robot":4,"valence":"lose","action":"no-go","sham":0,"trial_type":"pit-trial","trial_index":169,"time_elapsed":1009570,"internal_node_id":"0.0-139.0","task_version":"battery-v0.2-trt"},{"rune":"I","rune_set":"bacs1","hex":"#3366ff99","correct":32,"choice":32,"rt":594.0000000409782,"accuracy":1,"outcome":"+10","keys":[2094.000000040978],"total_keys":1,"block":2,"trial":132,"stimulus":2,"robot":1,"valence":"win","action":"go","sham":0,"trial_type":"pit-trial","trial_index":170,"time_elapsed":1012868,"internal_node_id":"0.0-140.0","task_version":"battery-v0.2-trt"},{"rune":"I","rune_set":"bacs1","hex":"#3366ff99","correct":32,"choice":32,"rt":607.0000000763685,"accuracy":1,"outcome":"+10","keys":[2107.0000000763685],"total_keys":1,"block":2,"trial":133,"stimulus":2,"robot":1,"valence":"win","action":"go","sham":0,"trial_type":"pit-trial","trial_index":171,"time_elapsed":1016178,"internal_node_id":"0.0-141.0","task_version":"battery-v0.2-trt"},{"rune":"O","rune_set":"bacs1","hex":"#3366ff99","correct":-1,"choice":32,"rt":665.999999968335,"accuracy":0,"outcome":"+1","keys":[2165.999999968335],"total_keys":1,"block":2,"trial":134,"stimulus":3,"robot":2,"valence":"win","action":"no-go","sham":0,"trial_type":"pit-trial","trial_index":172,"time_elapsed":1019546,"internal_node_id":"0.0-142.0","task_version":"battery-v0.2-trt"},{"rune":"G","rune_set":"bacs1","hex":"#f73b6a7A","correct":-1,"choice":-1,"rt":-1,"accuracy":1,"outcome":"-1","keys":[],"total_keys":0,"block":2,"trial":135,"stimulus":1,"robot":4,"valence":"lose","action":"no-go","sham":0,"trial_type":"pit-trial","trial_index":173,"time_elapsed":1023548,"internal_node_id":"0.0-143.0","task_version":"battery-v0.2-trt"},{"rune":"N","rune_set":"bacs1","hex":"#f73b6a7A","correct":-1,"choice":-1,"rt":-1,"accuracy":1,"outcome":"-1","keys":[],"total_keys":0,"block":2,"trial":136,"stimulus":0,"robot":4,"valence":"lose","action":"no-go","sham":0,"trial_type":"pit-trial","trial_index":174,"time_elapsed":1027550,"internal_node_id":"0.0-144.0","task_version":"battery-v0.2-trt"},{"rune":"G","rune_set":"bacs1","hex":"#f73b6a7A","correct":-1,"choice":-1,"rt":-1,"accuracy":1,"outcome":"-1","keys":[],"total_keys":0,"block":2,"trial":137,"stimulus":1,"robot":4,"valence":"lose","action":"no-go","sham":0,"trial_type":"pit-trial","trial_index":175,"time_elapsed":1031552,"internal_node_id":"0.0-145.0","task_version":"battery-v0.2-trt"},{"rune":"O","rune_set":"bacs1","hex":"#3366ff99","correct":-1,"choice":32,"rt":684.0000001247972,"accuracy":0,"outcome":"+1","keys":[2184.000000124797],"total_keys":1,"block":2,"trial":138,"stimulus":3,"robot":2,"valence":"win","action":"no-go","sham":0,"trial_type":"pit-trial","trial_index":176,"time_elapsed":1034938,"internal_node_id":"0.0-146.0","task_version":"battery-v0.2-trt"},{"rune":"N","rune_set":"bacs1","hex":"#f73b6a7A","correct":-1,"choice":-1,"rt":-1,"accuracy":1,"outcome":"-1","keys":[],"total_keys":0,"block":2,"trial":139,"stimulus":0,"robot":4,"valence":"lose","action":"no-go","sham":0,"trial_type":"pit-trial","trial_index":177,"time_elapsed":1038940,"internal_node_id":"0.0-147.0","task_version":"battery-v0.2-trt"},{"rune":"I","rune_set":"bacs1","hex":"#3366ff99","correct":32,"choice":32,"rt":575.0000001862645,"accuracy":1,"outcome":"+10","keys":[2076.0000001173466],"total_keys":1,"block":2,"trial":140,"stimulus":2,"robot":1,"valence":"win","action":"go","sham":0,"trial_type":"pit-trial","trial_index":178,"time_elapsed":1042219,"internal_node_id":"0.0-148.0","task_version":"battery-v0.2-trt"},{"rune":"I","rune_set":"bacs1","hex":"#3366ff99","correct":32,"choice":32,"rt":655.9999999590218,"accuracy":1,"outcome":"+10","keys":[2156.999999890104],"total_keys":1,"block":2,"trial":141,"stimulus":2,"robot":1,"valence":"win","action":"go","sham":0,"trial_type":"pit-trial","trial_index":179,"time_elapsed":1045578,"internal_node_id":"0.0-149.0","task_version":"battery-v0.2-trt"},{"rune":"G","rune_set":"bacs1","hex":"#f73b6a7A","correct":-1,"choice":-1,"rt":-1,"accuracy":1,"outcome":"-10","keys":[],"total_keys":0,"block":2,"trial":142,"stimulus":1,"robot":4,"valence":"lose","action":"no-go","sham":1,"trial_type":"pit-trial","trial_index":180,"time_elapsed":1049580,"internal_node_id":"0.0-150.0","task_version":"battery-v0.2-trt"},{"rune":"O","rune_set":"bacs1","hex":"#3366ff99","correct":-1,"choice":32,"rt":729.0000000502914,"accuracy":0,"outcome":"+1","keys":[2229.0000000502914],"total_keys":1,"block":2,"trial":143,"stimulus":3,"robot":2,"valence":"win","action":"no-go","sham":0,"trial_type":"pit-trial","trial_index":181,"time_elapsed":1053010,"internal_node_id":"0.0-151.0","task_version":"battery-v0.2-trt"},{"rune":"N","rune_set":"bacs1","hex":"#f73b6a7A","correct":-1,"choice":-1,"rt":-1,"accuracy":1,"outcome":"-10","keys":[],"total_keys":0,"block":2,"trial":144,"stimulus":0,"robot":4,"valence":"lose","action":"no-go","sham":1,"trial_type":"pit-trial","trial_index":182,"time_elapsed":1057012,"internal_node_id":"0.0-152.0","task_version":"battery-v0.2-trt"},{"rune":"I","rune_set":"bacs1","hex":"#3366ff99","correct":32,"choice":32,"rt":599.9999998603016,"accuracy":1,"outcome":"+10","keys":[2099.9999998603016],"total_keys":1,"block":2,"trial":145,"stimulus":2,"robot":1,"valence":"win","action":"go","sham":0,"trial_type":"pit-trial","trial_index":183,"time_elapsed":1060314,"internal_node_id":"0.0-153.0","task_version":"battery-v0.2-trt"},{"rune":"G","rune_set":"bacs1","hex":"#f73b6a7A","correct":-1,"choice":-1,"rt":-1,"accuracy":1,"outcome":"-1","keys":[],"total_keys":0,"block":2,"trial":146,"stimulus":1,"robot":4,"valence":"lose","action":"no-go","sham":0,"trial_type":"pit-trial","trial_index":184,"time_elapsed":1064317,"internal_node_id":"0.0-154.0","task_version":"battery-v0.2-trt"},{"rune":"N","rune_set":"bacs1","hex":"#f73b6a7A","correct":-1,"choice":-1,"rt":-1,"accuracy":1,"outcome":"-1","keys":[],"total_keys":0,"block":2,"trial":147,"stimulus":0,"robot":4,"valence":"lose","action":"no-go","sham":0,"trial_type":"pit-trial","trial_index":185,"time_elapsed":1068320,"internal_node_id":"0.0-155.0","task_version":"battery-v0.2-trt"},{"rune":"O","rune_set":"bacs1","hex":"#3366ff99","correct":-1,"choice":-1,"rt":-1,"accuracy":1,"outcome":"+10","keys":[],"total_keys":0,"block":2,"trial":148,"stimulus":3,"robot":2,"valence":"win","action":"no-go","sham":0,"trial_type":"pit-trial","trial_index":186,"time_elapsed":1072322,"internal_node_id":"0.0-156.0","task_version":"battery-v0.2-trt"},{"rune":"O","rune_set":"bacs1","hex":"#3366ff99","correct":-1,"choice":-1,"rt":-1,"accuracy":1,"outcome":"+1","keys":[],"total_keys":0,"block":2,"trial":149,"stimulus":3,"robot":2,"valence":"win","action":"no-go","sham":1,"trial_type":"pit-trial","trial_index":187,"time_elapsed":1076325,"internal_node_id":"0.0-157.0","task_version":"battery-v0.2-trt"},{"rune":"I","rune_set":"bacs1","hex":"#3366ff99","correct":32,"choice":32,"rt":614.0000000596046,"accuracy":1,"outcome":"+1","keys":[2114.0000000596046],"total_keys":1,"block":2,"trial":150,"stimulus":2,"robot":1,"valence":"win","action":"go","sham":1,"trial_type":"pit-trial","trial_index":188,"time_elapsed":1079642,"internal_node_id":"0.0-158.0","task_version":"battery-v0.2-trt"},{"rune":"G","rune_set":"bacs1","hex":"#f73b6a7A","correct":-1,"choice":-1,"rt":-1,"accuracy":1,"outcome":"-1","keys":[],"total_keys":0,"block":2,"trial":151,"stimulus":1,"robot":4,"valence":"lose","action":"no-go","sham":0,"trial_type":"pit-trial","trial_index":189,"time_elapsed":1083644,"internal_node_id":"0.0-159.0","task_version":"battery-v0.2-trt"},{"rune":"N","rune_set":"bacs1","hex":"#f73b6a7A","correct":-1,"choice":-1,"rt":-1,"accuracy":1,"outcome":"-1","keys":[],"total_keys":0,"block":2,"trial":152,"stimulus":0,"robot":4,"valence":"lose","action":"no-go","sham":0,"trial_type":"pit-trial","trial_index":190,"time_elapsed":1087647,"internal_node_id":"0.0-160.0","task_version":"battery-v0.2-trt"},{"rune":"N","rune_set":"bacs1","hex":"#f73b6a7A","correct":-1,"choice":-1,"rt":-1,"accuracy":1,"outcome":"-1","keys":[],"total_keys":0,"block":2,"trial":153,"stimulus":0,"robot":4,"valence":"lose","action":"no-go","sham":0,"trial_type":"pit-trial","trial_index":191,"time_elapsed":1091651,"internal_node_id":"0.0-161.0","task_version":"battery-v0.2-trt"},{"rune":"D","rune_set":"bacs1","hex":"#f73b6a7A","correct":32,"choice":-1,"rt":-1,"accuracy":0,"outcome":"-1","keys":[],"total_keys":0,"block":2,"trial":154,"stimulus":4,"robot":3,"valence":"lose","action":"go","sham":1,"trial_type":"pit-trial","trial_index":192,"time_elapsed":1095655,"internal_node_id":"0.0-162.0","task_version":"battery-v0.2-trt"},{"rune":"O","rune_set":"bacs1","hex":"#3366ff99","correct":-1,"choice":-1,"rt":-1,"accuracy":1,"outcome":"+1","keys":[],"total_keys":0,"block":2,"trial":155,"stimulus":3,"robot":2,"valence":"win","action":"no-go","sham":1,"trial_type":"pit-trial","trial_index":193,"time_elapsed":1099657,"internal_node_id":"0.0-163.0","task_version":"battery-v0.2-trt"},{"rune":"I","rune_set":"bacs1","hex":"#3366ff99","correct":32,"choice":32,"rt":627.0000000949949,"accuracy":1,"outcome":"+10","keys":[2127.000000094995],"total_keys":1,"block":2,"trial":156,"stimulus":2,"robot":1,"valence":"win","action":"go","sham":0,"trial_type":"pit-trial","trial_index":194,"time_elapsed":1102986,"internal_node_id":"0.0-164.0","task_version":"battery-v0.2-trt"},{"rune":"N","rune_set":"bacs1","hex":"#f73b6a7A","correct":-1,"choice":-1,"rt":-1,"accuracy":1,"outcome":"-1","keys":[],"total_keys":0,"block":2,"trial":157,"stimulus":0,"robot":4,"valence":"lose","action":"no-go","sham":0,"trial_type":"pit-trial","trial_index":195,"time_elapsed":1106988,"internal_node_id":"0.0-165.0","task_version":"battery-v0.2-trt"},{"rune":"O","rune_set":"bacs1","hex":"#3366ff99","correct":-1,"choice":32,"rt":688.0000000819564,"accuracy":0,"outcome":"+1","keys":[2188.0000000819564],"total_keys":1,"block":2,"trial":158,"stimulus":3,"robot":2,"valence":"win","action":"no-go","sham":0,"trial_type":"pit-trial","trial_index":196,"time_elapsed":1110378,"internal_node_id":"0.0-166.0","task_version":"battery-v0.2-trt"},{"rune":"I","rune_set":"bacs1","hex":"#3366ff99","correct":32,"choice":32,"rt":506.00000005215406,"accuracy":1,"outcome":"+10","keys":[2006.000000052154],"total_keys":1,"block":2,"trial":159,"stimulus":2,"robot":1,"valence":"win","action":"go","sham":0,"trial_type":"pit-trial","trial_index":197,"time_elapsed":1113586,"internal_node_id":"0.0-167.0","task_version":"battery-v0.2-trt"},{"rune":"D","rune_set":"bacs1","hex":"#f73b6a7A","correct":32,"choice":-1,"rt":-1,"accuracy":0,"outcome":"-1","keys":[],"total_keys":0,"block":2,"trial":160,"stimulus":4,"robot":3,"valence":"lose","action":"go","sham":1,"trial_type":"pit-trial","trial_index":198,"time_elapsed":1117589,"internal_node_id":"0.0-168.0","task_version":"battery-v0.2-trt"},{"rune":"N","rune_set":"bacs1","hex":"#f73b6a7A","correct":-1,"choice":-1,"rt":-1,"accuracy":1,"outcome":"-1","keys":[],"total_keys":0,"block":2,"trial":161,"stimulus":0,"robot":4,"valence":"lose","action":"no-go","sham":0,"trial_type":"pit-trial","trial_index":199,"time_elapsed":1121591,"internal_node_id":"0.0-169.0","task_version":"battery-v0.2-trt"},{"rune":"D","rune_set":"bacs1","hex":"#f73b6a7A","correct":32,"choice":-1,"rt":-1,"accuracy":0,"outcome":"-10","keys":[],"total_keys":0,"block":2,"trial":162,"stimulus":4,"robot":3,"valence":"lose","action":"go","sham":0,"trial_type":"pit-trial","trial_index":200,"time_elapsed":1125593,"internal_node_id":"0.0-170.0","task_version":"battery-v0.2-trt"},{"rune":"S","rune_set":"bacs1","hex":"#3366ff99","correct":32,"choice":-1,"rt":-1,"accuracy":0,"outcome":"+1","keys":[],"total_keys":0,"block":2,"trial":163,"stimulus":6,"robot":1,"valence":"win","action":"go","sham":0,"trial_type":"pit-trial","trial_index":201,"time_elapsed":1129595,"internal_node_id":"0.0-171.0","task_version":"battery-v0.2-trt"},{"rune":"K","rune_set":"bacs1","hex":"#3366ff99","correct":-1,"choice":-1,"rt":-1,"accuracy":1,"outcome":"+10","keys":[],"total_keys":0,"block":2,"trial":164,"stimulus":5,"robot":2,"valence":"win","action":"no-go","sham":0,"trial_type":"pit-trial","trial_index":202,"time_elapsed":1133597,"internal_node_id":"0.0-172.0","task_version":"battery-v0.2-trt"},{"rune":"N","rune_set":"bacs1","hex":"#f73b6a7A","correct":-1,"choice":-1,"rt":-1,"accuracy":1,"outcome":"-1","keys":[],"total_keys":0,"block":2,"trial":165,"stimulus":0,"robot":4,"valence":"lose","action":"no-go","sham":0,"trial_type":"pit-trial","trial_index":203,"time_elapsed":1137601,"internal_node_id":"0.0-173.0","task_version":"battery-v0.2-trt"},{"rune":"D","rune_set":"bacs1","hex":"#f73b6a7A","correct":32,"choice":32,"rt":713.9999999199063,"accuracy":1,"outcome":"-1","keys":[2214.9999998509884],"total_keys":1,"block":2,"trial":166,"stimulus":4,"robot":3,"valence":"lose","action":"go","sham":0,"trial_type":"pit-trial","trial_index":204,"time_elapsed":1141019,"internal_node_id":"0.0-174.0","task_version":"battery-v0.2-trt"},{"rune":"S","rune_set":"bacs1","hex":"#3366ff99","correct":32,"choice":32,"rt":647.9999998118728,"accuracy":1,"outcome":"+10","keys":[2147.999999811873],"total_keys":1,"block":2,"trial":167,"stimulus":6,"robot":1,"valence":"win","action":"go","sham":0,"trial_type":"pit-trial","trial_index":205,"time_elapsed":1144370,"internal_node_id":"0.0-175.0","task_version":"battery-v0.2-trt"},{"rune":"K","rune_set":"bacs1","hex":"#3366ff99","correct":-1,"choice":32,"rt":657.0000001229346,"accuracy":0,"outcome":"+1","keys":[2157.0000001229346],"total_keys":1,"block":2,"trial":168,"stimulus":5,"robot":2,"valence":"win","action":"no-go","sham":0,"trial_type":"pit-trial","trial_index":206,"time_elapsed":1147730,"internal_node_id":"0.0-176.0","task_version":"battery-v0.2-trt"},{"rune":"S","rune_set":"bacs1","hex":"#3366ff99","correct":32,"choice":32,"rt":698.0000000912696,"accuracy":1,"outcome":"+10","keys":[2198.0000000912696],"total_keys":1,"block":2,"trial":169,"stimulus":6,"robot":1,"valence":"win","action":"go","sham":0,"trial_type":"pit-trial","trial_index":207,"time_elapsed":1151130,"internal_node_id":"0.0-177.0","task_version":"battery-v0.2-trt"},{"rune":"D","rune_set":"bacs1","hex":"#f73b6a7A","correct":32,"choice":32,"rt":745.0000001117587,"accuracy":1,"outcome":"-10","keys":[2245.0000001117587],"total_keys":1,"block":2,"trial":170,"stimulus":4,"robot":3,"valence":"lose","action":"go","sham":1,"trial_type":"pit-trial","trial_index":208,"time_elapsed":1154577,"internal_node_id":"0.0-178.0","task_version":"battery-v0.2-trt"},{"rune":"K","rune_set":"bacs1","hex":"#3366ff99","correct":-1,"choice":32,"rt":778.9999998640269,"accuracy":0,"outcome":"+10","keys":[2278.999999864027],"total_keys":1,"block":2,"trial":171,"stimulus":5,"robot":2,"valence":"win","action":"no-go","sham":1,"trial_type":"pit-trial","trial_index":209,"time_elapsed":1158059,"internal_node_id":"0.0-179.0","task_version":"battery-v0.2-trt"},{"rune":"U","rune_set":"bacs1","hex":"#f73b6a7A","correct":-1,"choice":-1,"rt":-1,"accuracy":1,"outcome":"-1","keys":[],"total_keys":0,"block":2,"trial":172,"stimulus":7,"robot":4,"valence":"lose","action":"no-go","sham":0,"trial_type":"pit-trial","trial_index":210,"time_elapsed":1162062,"internal_node_id":"0.0-180.0","task_version":"battery-v0.2-trt"},{"rune":"S","rune_set":"bacs1","hex":"#3366ff99","correct":32,"choice":32,"rt":660.9999998472631,"accuracy":1,"outcome":"+1","keys":[2162.000000011176],"total_keys":1,"block":2,"trial":173,"stimulus":6,"robot":1,"valence":"win","action":"go","sham":1,"trial_type":"pit-trial","trial_index":211,"time_elapsed":1165426,"internal_node_id":"0.0-181.0","task_version":"battery-v0.2-trt"},{"rune":"D","rune_set":"bacs1","hex":"#f73b6a7A","correct":32,"choice":32,"rt":1137.0000001043081,"accuracy":1,"outcome":"-1","keys":[2638.0000000353903],"total_keys":1,"block":2,"trial":174,"stimulus":4,"robot":3,"valence":"lose","action":"go","sham":0,"trial_type":"pit-trial","trial_index":212,"time_elapsed":1169266,"internal_node_id":"0.0-182.0","task_version":"battery-v0.2-trt"},{"rune":"U","rune_set":"bacs1","hex":"#f73b6a7A","correct":-1,"choice":-1,"rt":-1,"accuracy":1,"outcome":"-1","keys":[],"total_keys":0,"block":2,"trial":175,"stimulus":7,"robot":4,"valence":"lose","action":"no-go","sham":0,"trial_type":"pit-trial","trial_index":213,"time_elapsed":1173267,"internal_node_id":"0.0-183.0","task_version":"battery-v0.2-trt"},{"rune":"K","rune_set":"bacs1","hex":"#3366ff99","correct":-1,"choice":32,"rt":656.9999998901039,"accuracy":0,"outcome":"+1","keys":[2156.999999890104],"total_keys":1,"block":2,"trial":176,"stimulus":5,"robot":2,"valence":"win","action":"no-go","sham":0,"trial_type":"pit-trial","trial_index":214,"time_elapsed":1176627,"internal_node_id":"0.0-184.0","task_version":"battery-v0.2-trt"},{"rune":"D","rune_set":"bacs1","hex":"#f73b6a7A","correct":32,"choice":32,"rt":929.0000000037253,"accuracy":1,"outcome":"-1","keys":[2429.0000000037253],"total_keys":1,"block":2,"trial":177,"stimulus":4,"robot":3,"valence":"lose","action":"go","sham":0,"trial_type":"pit-trial","trial_index":215,"time_elapsed":1180258,"internal_node_id":"0.0-185.0","task_version":"battery-v0.2-trt"},{"rune":"K","rune_set":"bacs1","hex":"#3366ff99","correct":-1,"choice":-1,"rt":-1,"accuracy":1,"outcome":"+10","keys":[],"total_keys":0,"block":2,"trial":178,"stimulus":5,"robot":2,"valence":"win","action":"no-go","sham":0,"trial_type":"pit-trial","trial_index":216,"time_elapsed":1184262,"internal_node_id":"0.0-186.0","task_version":"battery-v0.2-trt"},{"rune":"U","rune_set":"bacs1","hex":"#f73b6a7A","correct":-1,"choice":-1,"rt":-1,"accuracy":1,"outcome":"-10","keys":[],"total_keys":0,"block":2,"trial":179,"stimulus":7,"robot":4,"valence":"lose","action":"no-go","sham":1,"trial_type":"pit-trial","trial_index":217,"time_elapsed":1188263,"internal_node_id":"0.0-187.0","task_version":"battery-v0.2-trt"},{"rune":"S","rune_set":"bacs1","hex":"#3366ff99","correct":32,"choice":-1,"rt":-1,"accuracy":0,"outcome":"+1","keys":[],"total_keys":0,"block":2,"trial":180,"stimulus":6,"robot":1,"valence":"win","action":"go","sham":0,"trial_type":"pit-trial","trial_index":218,"time_elapsed":1192265,"internal_node_id":"0.0-188.0","task_version":"battery-v0.2-trt"},{"rune":"D","rune_set":"bacs1","hex":"#f73b6a7A","correct":32,"choice":-1,"rt":-1,"accuracy":0,"outcome":"-10","keys":[],"total_keys":0,"block":2,"trial":181,"stimulus":4,"robot":3,"valence":"lose","action":"go","sham":0,"trial_type":"pit-trial","trial_index":219,"time_elapsed":1196267,"internal_node_id":"0.0-189.0","task_version":"battery-v0.2-trt"},{"rune":"K","rune_set":"bacs1","hex":"#3366ff99","correct":-1,"choice":32,"rt":824.0000000223517,"accuracy":0,"outcome":"+10","keys":[2324.0000000223517],"total_keys":1,"block":2,"trial":182,"stimulus":5,"robot":2,"valence":"win","action":"no-go","sham":1,"trial_type":"pit-trial","trial_index":220,"time_elapsed":1199793,"internal_node_id":"0.0-190.0","task_version":"battery-v0.2-trt"},{"rune":"U","rune_set":"bacs1","hex":"#f73b6a7A","correct":-1,"choice":32,"rt":649.9999999068677,"accuracy":0,"outcome":"-1","keys":[2148.9999999757856],"total_keys":1,"block":2,"trial":183,"stimulus":7,"robot":4,"valence":"lose","action":"no-go","sham":1,"trial_type":"pit-trial","trial_index":221,"time_elapsed":1203146,"internal_node_id":"0.0-191.0","task_version":"battery-v0.2-trt"},{"rune":"S","rune_set":"bacs1","hex":"#3366ff99","correct":32,"choice":32,"rt":610.0000001024455,"accuracy":1,"outcome":"+10","keys":[2110.0000001024455],"total_keys":1,"block":2,"trial":184,"stimulus":6,"robot":1,"valence":"win","action":"go","sham":0,"trial_type":"pit-trial","trial_index":222,"time_elapsed":1206458,"internal_node_id":"0.0-192.0","task_version":"battery-v0.2-trt"},{"rune":"D","rune_set":"bacs1","hex":"#f73b6a7A","correct":32,"choice":32,"rt":847.9999999981374,"accuracy":1,"outcome":"-1","keys":[2349.9999998603016],"total_keys":1,"block":2,"trial":185,"stimulus":4,"robot":3,"valence":"lose","action":"go","sham":0,"trial_type":"pit-trial","trial_index":223,"time_elapsed":1210010,"internal_node_id":"0.0-193.0","task_version":"battery-v0.2-trt"},{"rune":"S","rune_set":"bacs1","hex":"#3366ff99","correct":32,"choice":32,"rt":527.0000000018626,"accuracy":1,"outcome":"+10","keys":[2029.0000000968575],"total_keys":1,"block":2,"trial":186,"stimulus":6,"robot":1,"valence":"win","action":"go","sham":0,"trial_type":"pit-trial","trial_index":224,"time_elapsed":1213242,"internal_node_id":"0.0-194.0","task_version":"battery-v0.2-trt"},{"rune":"U","rune_set":"bacs1","hex":"#f73b6a7A","correct":-1,"choice":32,"rt":616.999999852851,"accuracy":0,"outcome":"-1","keys":[2116.999999852851],"total_keys":1,"block":2,"trial":187,"stimulus":7,"robot":4,"valence":"lose","action":"no-go","sham":1,"trial_type":"pit-trial","trial_index":225,"time_elapsed":1216562,"internal_node_id":"0.0-195.0","task_version":"battery-v0.2-trt"},{"rune":"K","rune_set":"bacs1","hex":"#3366ff99","correct":-1,"choice":32,"rt":736.9999999646097,"accuracy":0,"outcome":"+1","keys":[2236.9999999646097],"total_keys":1,"block":2,"trial":188,"stimulus":5,"robot":2,"valence":"win","action":"no-go","sham":0,"trial_type":"pit-trial","trial_index":226,"time_elapsed":1220003,"internal_node_id":"0.0-196.0","task_version":"battery-v0.2-trt"},{"rune":"D","rune_set":"bacs1","hex":"#f73b6a7A","correct":32,"choice":32,"rt":552.000000141561,"accuracy":1,"outcome":"-1","keys":[2053.000000072643],"total_keys":1,"block":2,"trial":189,"stimulus":4,"robot":3,"valence":"lose","action":"go","sham":0,"trial_type":"pit-trial","trial_index":227,"time_elapsed":1223259,"internal_node_id":"0.0-197.0","task_version":"battery-v0.2-trt"},{"rune":"K","rune_set":"bacs1","hex":"#3366ff99","correct":-1,"choice":32,"rt":512.9999998025596,"accuracy":0,"outcome":"+10","keys":[2011.9999998714775],"total_keys":1,"block":2,"trial":190,"stimulus":5,"robot":2,"valence":"win","action":"no-go","sham":1,"trial_type":"pit-trial","trial_index":228,"time_elapsed":1226474,"internal_node_id":"0.0-198.0","task_version":"battery-v0.2-trt"},{"rune":"S","rune_set":"bacs1","hex":"#3366ff99","correct":32,"choice":32,"rt":543.9999999944121,"accuracy":1,"outcome":"+10","keys":[2045.0000001583248],"total_keys":1,"block":2,"trial":191,"stimulus":6,"robot":1,"valence":"win","action":"go","sham":0,"trial_type":"pit-trial","trial_index":229,"time_elapsed":1229723,"internal_node_id":"0.0-199.0","task_version":"battery-v0.2-trt"},{"rune":"U","rune_set":"bacs1","hex":"#f73b6a7A","correct":-1,"choice":32,"rt":631.9999999832362,"accuracy":0,"outcome":"-10","keys":[2131.999999983236],"total_keys":1,"block":2,"trial":192,"stimulus":7,"robot":4,"valence":"lose","action":"no-go","sham":0,"trial_type":"pit-trial","trial_index":230,"time_elapsed":1233059,"internal_node_id":"0.0-200.0","task_version":"battery-v0.2-trt"},{"rune":"U","rune_set":"bacs1","hex":"#f73b6a7A","correct":-1,"choice":32,"rt":615.9999999217689,"accuracy":0,"outcome":"-1","keys":[2117.0000000856817],"total_keys":1,"block":2,"trial":193,"stimulus":7,"robot":4,"valence":"lose","action":"no-go","sham":1,"trial_type":"pit-trial","trial_index":231,"time_elapsed":1236378,"internal_node_id":"0.0-201.0","task_version":"battery-v0.2-trt"},{"rune":"K","rune_set":"bacs1","hex":"#3366ff99","correct":-1,"choice":32,"rt":536.0000000800937,"accuracy":0,"outcome":"+1","keys":[2037.0000000111759],"total_keys":1,"block":2,"trial":194,"stimulus":5,"robot":2,"valence":"win","action":"no-go","sham":0,"trial_type":"pit-trial","trial_index":232,"time_elapsed":1239617,"internal_node_id":"0.0-202.0","task_version":"battery-v0.2-trt"},{"rune":"M","rune_set":"bacs1","hex":"#3366ff99","correct":32,"choice":32,"rt":810.0000000558794,"accuracy":1,"outcome":"+1","keys":[2309.9999998230487],"total_keys":1,"block":2,"trial":195,"stimulus":8,"robot":1,"valence":"win","action":"go","sham":1,"trial_type":"pit-trial","trial_index":233,"time_elapsed":1243130,"internal_node_id":"0.0-203.0","task_version":"battery-v0.2-trt"},{"rune":"P","rune_set":"bacs1","hex":"#f73b6a7A","correct":32,"choice":32,"rt":706.0000000055879,"accuracy":1,"outcome":"-1","keys":[2206.000000005588],"total_keys":1,"block":2,"trial":196,"stimulus":9,"robot":3,"valence":"lose","action":"go","sham":0,"trial_type":"pit-trial","trial_index":234,"time_elapsed":1246538,"internal_node_id":"0.0-204.0","task_version":"battery-v0.2-trt"},{"rune":"K","rune_set":"bacs1","hex":"#3366ff99","correct":-1,"choice":32,"rt":760.9999999403954,"accuracy":0,"outcome":"+1","keys":[2260.9999999403954],"total_keys":1,"block":2,"trial":197,"stimulus":5,"robot":2,"valence":"win","action":"no-go","sham":0,"trial_type":"pit-trial","trial_index":235,"time_elapsed":1250002,"internal_node_id":"0.0-205.0","task_version":"battery-v0.2-trt"},{"rune":"P","rune_set":"bacs1","hex":"#f73b6a7A","correct":32,"choice":32,"rt":601.9999999552965,"accuracy":1,"outcome":"-1","keys":[2101.9999999552965],"total_keys":1,"block":2,"trial":198,"stimulus":9,"robot":3,"valence":"lose","action":"go","sham":0,"trial_type":"pit-trial","trial_index":236,"time_elapsed":1253306,"internal_node_id":"0.0-206.0","task_version":"battery-v0.2-trt"},{"rune":"M","rune_set":"bacs1","hex":"#3366ff99","correct":32,"choice":32,"rt":729.9999999813735,"accuracy":1,"outcome":"+10","keys":[2229.9999999813735],"total_keys":1,"block":2,"trial":199,"stimulus":8,"robot":1,"valence":"win","action":"go","sham":0,"trial_type":"pit-trial","trial_index":237,"time_elapsed":1256739,"internal_node_id":"0.0-207.0","task_version":"battery-v0.2-trt"},{"rune":"U","rune_set":"bacs1","hex":"#f73b6a7A","correct":-1,"choice":32,"rt":736.9999999646097,"accuracy":0,"outcome":"-1","keys":[2236.9999999646097],"total_keys":1,"block":2,"trial":200,"stimulus":7,"robot":4,"valence":"lose","action":"no-go","sham":1,"trial_type":"pit-trial","trial_index":238,"time_elapsed":1260179,"internal_node_id":"0.0-208.0","task_version":"battery-v0.2-trt"},{"rune":"M","rune_set":"bacs1","hex":"#3366ff99","correct":32,"choice":-1,"rt":-1,"accuracy":0,"outcome":"+1","keys":[],"total_keys":0,"block":2,"trial":201,"stimulus":8,"robot":1,"valence":"win","action":"go","sham":0,"trial_type":"pit-trial","trial_index":239,"time_elapsed":1264182,"internal_node_id":"0.0-209.0","task_version":"battery-v0.2-trt"},{"rune":"U","rune_set":"bacs1","hex":"#f73b6a7A","correct":-1,"choice":32,"rt":679.0000000037253,"accuracy":0,"outcome":"-10","keys":[2179.0000000037253],"total_keys":1,"block":2,"trial":202,"stimulus":7,"robot":4,"valence":"lose","action":"no-go","sham":0,"trial_type":"pit-trial","trial_index":240,"time_elapsed":1267563,"internal_node_id":"0.0-210.0","task_version":"battery-v0.2-trt"},{"rune":"P","rune_set":"bacs1","hex":"#f73b6a7A","correct":32,"choice":32,"rt":616.999999852851,"accuracy":1,"outcome":"-1","keys":[2116.999999852851],"total_keys":1,"block":2,"trial":203,"stimulus":9,"robot":3,"valence":"lose","action":"go","sham":0,"trial_type":"pit-trial","trial_index":241,"time_elapsed":1270882,"internal_node_id":"0.0-211.0","task_version":"battery-v0.2-trt"},{"rune":"K","rune_set":"bacs1","hex":"#3366ff99","correct":-1,"choice":-1,"rt":-1,"accuracy":1,"outcome":"+10","keys":[],"total_keys":0,"block":2,"trial":204,"stimulus":5,"robot":2,"valence":"win","action":"no-go","sham":0,"trial_type":"pit-trial","trial_index":242,"time_elapsed":1274884,"internal_node_id":"0.0-212.0","task_version":"battery-v0.2-trt"},{"rune":"U","rune_set":"bacs1","hex":"#f73b6a7A","correct":-1,"choice":32,"rt":567.9999999701977,"accuracy":0,"outcome":"-10","keys":[2067.9999999701977],"total_keys":1,"block":2,"trial":205,"stimulus":7,"robot":4,"valence":"lose","action":"no-go","sham":0,"trial_type":"pit-trial","trial_index":243,"time_elapsed":1278154,"internal_node_id":"0.0-213.0","task_version":"battery-v0.2-trt"},{"rune":"P","rune_set":"bacs1","hex":"#f73b6a7A","correct":32,"choice":32,"rt":537.999999942258,"accuracy":1,"outcome":"-1","keys":[2037.999999942258],"total_keys":1,"block":2,"trial":206,"stimulus":9,"robot":3,"valence":"lose","action":"go","sham":0,"trial_type":"pit-trial","trial_index":244,"time_elapsed":1281394,"internal_node_id":"0.0-214.0","task_version":"battery-v0.2-trt"},{"rune":"K","rune_set":"bacs1","hex":"#3366ff99","correct":-1,"choice":-1,"rt":-1,"accuracy":1,"outcome":"+10","keys":[],"total_keys":0,"block":2,"trial":207,"stimulus":5,"robot":2,"valence":"win","action":"no-go","sham":0,"trial_type":"pit-trial","trial_index":245,"time_elapsed":1285397,"internal_node_id":"0.0-215.0","task_version":"battery-v0.2-trt"},{"rune":"M","rune_set":"bacs1","hex":"#3366ff99","correct":32,"choice":32,"rt":655.0000000279397,"accuracy":1,"outcome":"+10","keys":[2155.0000000279397],"total_keys":1,"block":2,"trial":208,"stimulus":8,"robot":1,"valence":"win","action":"go","sham":0,"trial_type":"pit-trial","trial_index":246,"time_elapsed":1288754,"internal_node_id":"0.0-216.0","task_version":"battery-v0.2-trt"},{"rune":"M","rune_set":"bacs1","hex":"#3366ff99","correct":32,"choice":-1,"rt":-1,"accuracy":0,"outcome":"+1","keys":[],"total_keys":0,"block":2,"trial":209,"stimulus":8,"robot":1,"valence":"win","action":"go","sham":0,"trial_type":"pit-trial","trial_index":247,"time_elapsed":1292756,"internal_node_id":"0.0-217.0","task_version":"battery-v0.2-trt"},{"rune":"H","rune_set":"bacs1","hex":"#f73b6a7A","correct":32,"choice":-1,"rt":-1,"accuracy":0,"outcome":"-10","keys":[],"total_keys":0,"block":2,"trial":210,"stimulus":10,"robot":3,"valence":"lose","action":"go","sham":0,"trial_type":"pit-trial","trial_index":248,"time_elapsed":1296760,"internal_node_id":"0.0-218.0","task_version":"battery-v0.2-trt"},{"rune":"P","rune_set":"bacs1","hex":"#f73b6a7A","correct":32,"choice":32,"rt":644.0000000875443,"accuracy":1,"outcome":"-1","keys":[2144.0000000875443],"total_keys":1,"block":2,"trial":211,"stimulus":9,"robot":3,"valence":"lose","action":"go","sham":0,"trial_type":"pit-trial","trial_index":249,"time_elapsed":1300106,"internal_node_id":"0.0-219.0","task_version":"battery-v0.2-trt"},{"rune":"Y","rune_set":"bacs1","hex":"#3366ff99","correct":-1,"choice":-1,"rt":-1,"accuracy":1,"outcome":"+10","keys":[],"total_keys":0,"block":2,"trial":212,"stimulus":11,"robot":2,"valence":"win","action":"no-go","sham":0,"trial_type":"pit-trial","trial_index":250,"time_elapsed":1304108,"internal_node_id":"0.0-220.0","task_version":"battery-v0.2-trt"},{"rune":"P","rune_set":"bacs1","hex":"#f73b6a7A","correct":32,"choice":32,"rt":630.0000001210719,"accuracy":1,"outcome":"-10","keys":[2131.000000052154],"total_keys":1,"block":2,"trial":213,"stimulus":9,"robot":3,"valence":"lose","action":"go","sham":1,"trial_type":"pit-trial","trial_index":251,"time_elapsed":1307443,"internal_node_id":"0.0-221.0","task_version":"battery-v0.2-trt"},{"rune":"M","rune_set":"bacs1","hex":"#3366ff99","correct":32,"choice":-1,"rt":-1,"accuracy":0,"outcome":"+1","keys":[],"total_keys":0,"block":2,"trial":214,"stimulus":8,"robot":1,"valence":"win","action":"go","sham":0,"trial_type":"pit-trial","trial_index":252,"time_elapsed":1311446,"internal_node_id":"0.0-222.0","task_version":"battery-v0.2-trt"},{"rune":"Y","rune_set":"bacs1","hex":"#3366ff99","correct":-1,"choice":32,"rt":781.9999998901039,"accuracy":0,"outcome":"+1","keys":[2281.999999890104],"total_keys":1,"block":2,"trial":215,"stimulus":11,"robot":2,"valence":"win","action":"no-go","sham":0,"trial_type":"pit-trial","trial_index":253,"time_elapsed":1314931,"internal_node_id":"0.0-223.0","task_version":"battery-v0.2-trt"},{"rune":"H","rune_set":"bacs1","hex":"#f73b6a7A","correct":32,"choice":32,"rt":744.9999998789281,"accuracy":1,"outcome":"-1","keys":[2243.999999947846],"total_keys":1,"block":2,"trial":216,"stimulus":10,"robot":3,"valence":"lose","action":"go","sham":0,"trial_type":"pit-trial","trial_index":254,"time_elapsed":1318379,"internal_node_id":"0.0-224.0","task_version":"battery-v0.2-trt"},{"rune":"M","rune_set":"bacs1","hex":"#3366ff99","correct":32,"choice":32,"rt":790.0000000372529,"accuracy":1,"outcome":"+10","keys":[2293.00000006333],"total_keys":1,"block":2,"trial":217,"stimulus":8,"robot":1,"valence":"win","action":"go","sham":0,"trial_type":"pit-trial","trial_index":255,"time_elapsed":1321874,"internal_node_id":"0.0-225.0","task_version":"battery-v0.2-trt"},{"rune":"Y","rune_set":"bacs1","hex":"#3366ff99","correct":-1,"choice":-1,"rt":-1,"accuracy":1,"outcome":"+10","keys":[],"total_keys":0,"block":2,"trial":218,"stimulus":11,"robot":2,"valence":"win","action":"no-go","sham":0,"trial_type":"pit-trial","trial_index":256,"time_elapsed":1325876,"internal_node_id":"0.0-226.0","task_version":"battery-v0.2-trt"},{"rune":"P","rune_set":"bacs1","hex":"#f73b6a7A","correct":32,"choice":32,"rt":608.0000000074506,"accuracy":1,"outcome":"-1","keys":[2108.0000000074506],"total_keys":1,"block":2,"trial":219,"stimulus":9,"robot":3,"valence":"lose","action":"go","sham":0,"trial_type":"pit-trial","trial_index":257,"time_elapsed":1329187,"internal_node_id":"0.0-227.0","task_version":"battery-v0.2-trt"},{"rune":"H","rune_set":"bacs1","hex":"#f73b6a7A","correct":32,"choice":32,"rt":657.0000001229346,"accuracy":1,"outcome":"-1","keys":[2157.0000001229346],"total_keys":1,"block":2,"trial":220,"stimulus":10,"robot":3,"valence":"lose","action":"go","sham":0,"trial_type":"pit-trial","trial_index":258,"time_elapsed":1332546,"internal_node_id":"0.0-228.0","task_version":"battery-v0.2-trt"},{"rune":"H","rune_set":"bacs1","hex":"#f73b6a7A","correct":32,"choice":32,"rt":569.9999998323619,"accuracy":1,"outcome":"-1","keys":[2069.999999832362],"total_keys":1,"block":2,"trial":221,"stimulus":10,"robot":3,"valence":"lose","action":"go","sham":0,"trial_type":"pit-trial","trial_index":259,"time_elapsed":1335819,"internal_node_id":"0.0-229.0","task_version":"battery-v0.2-trt"},{"rune":"Y","rune_set":"bacs1","hex":"#3366ff99","correct":-1,"choice":-1,"rt":-1,"accuracy":1,"outcome":"+10","keys":[],"total_keys":0,"block":2,"trial":222,"stimulus":11,"robot":2,"valence":"win","action":"no-go","sham":0,"trial_type":"pit-trial","trial_index":260,"time_elapsed":1339834,"internal_node_id":"0.0-230.0","task_version":"battery-v0.2-trt"},{"rune":"P","rune_set":"bacs1","hex":"#f73b6a7A","correct":32,"choice":32,"rt":570.9999999962747,"accuracy":1,"outcome":"-1","keys":[2070.0000000651926],"total_keys":1,"block":2,"trial":223,"stimulus":9,"robot":3,"valence":"lose","action":"go","sham":0,"trial_type":"pit-trial","trial_index":261,"time_elapsed":1343106,"internal_node_id":"0.0-231.0","task_version":"battery-v0.2-trt"},{"rune":"M","rune_set":"bacs1","hex":"#3366ff99","correct":32,"choice":-1,"rt":-1,"accuracy":0,"outcome":"+1","keys":[],"total_keys":0,"block":2,"trial":224,"stimulus":8,"robot":1,"valence":"win","action":"go","sham":0,"trial_type":"pit-trial","trial_index":262,"time_elapsed":1347108,"internal_node_id":"0.0-232.0","task_version":"battery-v0.2-trt"},{"rune":"M","rune_set":"bacs1","hex":"#3366ff99","correct":32,"choice":32,"rt":672.0000000204891,"accuracy":1,"outcome":"+10","keys":[2172.000000020489],"total_keys":1,"block":2,"trial":225,"stimulus":8,"robot":1,"valence":"win","action":"go","sham":0,"trial_type":"pit-trial","trial_index":263,"time_elapsed":1350483,"internal_node_id":"0.0-233.0","task_version":"battery-v0.2-trt"},{"rune":"P","rune_set":"bacs1","hex":"#f73b6a7A","correct":32,"choice":32,"rt":536.0000000800937,"accuracy":1,"outcome":"-1","keys":[2036.0000000800937],"total_keys":1,"block":2,"trial":226,"stimulus":9,"robot":3,"valence":"lose","action":"go","sham":0,"trial_type":"pit-trial","trial_index":264,"time_elapsed":1353727,"internal_node_id":"0.0-234.0","task_version":"battery-v0.2-trt"},{"rune":"H","rune_set":"bacs1","hex":"#f73b6a7A","correct":32,"choice":32,"rt":540.0000000372529,"accuracy":1,"outcome":"-10","keys":[2040.999999968335],"total_keys":1,"block":2,"trial":227,"stimulus":10,"robot":3,"valence":"lose","action":"go","sham":1,"trial_type":"pit-trial","trial_index":265,"time_elapsed":1356970,"internal_node_id":"0.0-235.0","task_version":"battery-v0.2-trt"},{"rune":"Y","rune_set":"bacs1","hex":"#3366ff99","correct":-1,"choice":32,"rt":665.999999968335,"accuracy":0,"outcome":"+10","keys":[2165.000000037253],"total_keys":1,"block":2,"trial":228,"stimulus":11,"robot":2,"valence":"win","action":"no-go","sham":1,"trial_type":"pit-trial","trial_index":266,"time_elapsed":1360338,"internal_node_id":"0.0-236.0","task_version":"battery-v0.2-trt"},{"rune":"H","rune_set":"bacs1","hex":"#f73b6a7A","correct":32,"choice":32,"rt":530.0000000279397,"accuracy":1,"outcome":"-1","keys":[2030.0000000279397],"total_keys":1,"block":2,"trial":229,"stimulus":10,"robot":3,"valence":"lose","action":"go","sham":0,"trial_type":"pit-trial","trial_index":267,"time_elapsed":1363570,"internal_node_id":"0.0-237.0","task_version":"battery-v0.2-trt"},{"rune":"P","rune_set":"bacs1","hex":"#f73b6a7A","correct":32,"choice":32,"rt":569.9999998323619,"accuracy":1,"outcome":"-1","keys":[2069.999999832362],"total_keys":1,"block":2,"trial":230,"stimulus":9,"robot":3,"valence":"lose","action":"go","sham":0,"trial_type":"pit-trial","trial_index":268,"time_elapsed":1366842,"internal_node_id":"0.0-238.0","task_version":"battery-v0.2-trt"},{"rune":"Y","rune_set":"bacs1","hex":"#3366ff99","correct":-1,"choice":32,"rt":674.000000115484,"accuracy":0,"outcome":"+1","keys":[2174.000000115484],"total_keys":1,"block":2,"trial":231,"stimulus":11,"robot":2,"valence":"win","action":"no-go","sham":0,"trial_type":"pit-trial","trial_index":269,"time_elapsed":1370218,"internal_node_id":"0.0-239.0","task_version":"battery-v0.2-trt"},{"rune":"M","rune_set":"bacs1","hex":"#3366ff99","correct":32,"choice":32,"rt":551.9999999087304,"accuracy":1,"outcome":"+10","keys":[2053.000000072643],"total_keys":1,"block":2,"trial":232,"stimulus":8,"robot":1,"valence":"win","action":"go","sham":0,"trial_type":"pit-trial","trial_index":270,"time_elapsed":1373474,"internal_node_id":"0.0-240.0","task_version":"battery-v0.2-trt"},{"rune":"P","rune_set":"bacs1","hex":"#f73b6a7A","correct":32,"choice":32,"rt":584.9999999627471,"accuracy":1,"outcome":"-1","keys":[2084.999999962747],"total_keys":1,"block":2,"trial":233,"stimulus":9,"robot":3,"valence":"lose","action":"go","sham":0,"trial_type":"pit-trial","trial_index":271,"time_elapsed":1376761,"internal_node_id":"0.0-241.0","task_version":"battery-v0.2-trt"},{"rune":"Y","rune_set":"bacs1","hex":"#3366ff99","correct":-1,"choice":-1,"rt":-1,"accuracy":1,"outcome":"+10","keys":[],"total_keys":0,"block":2,"trial":234,"stimulus":11,"robot":2,"valence":"win","action":"no-go","sham":0,"trial_type":"pit-trial","trial_index":272,"time_elapsed":1380763,"internal_node_id":"0.0-242.0","task_version":"battery-v0.2-trt"},{"rune":"M","rune_set":"bacs1","hex":"#3366ff99","correct":32,"choice":32,"rt":625,"accuracy":1,"outcome":"+1","keys":[2125],"total_keys":1,"block":2,"trial":235,"stimulus":8,"robot":1,"valence":"win","action":"go","sham":1,"trial_type":"pit-trial","trial_index":273,"time_elapsed":1384090,"internal_node_id":"0.0-243.0","task_version":"battery-v0.2-trt"},{"rune":"H","rune_set":"bacs1","hex":"#f73b6a7A","correct":32,"choice":32,"rt":641.0000000614673,"accuracy":1,"outcome":"-1","keys":[2141.9999999925494],"total_keys":1,"block":2,"trial