[{"view_history":"[{\"page_index\":0,\"viewing_time\":2039.6450000116602}]","rt":2039.92000001017,"trial_type":"instructions","trial_index":0,"time_elapsed":2071,"internal_node_id":"0.0-0.0","task_version":"battery-v0.2-trt"},{"slider_type":"valence","raw_loc":519.5,"loc":0.539,"trial_type":"affective-slider","trial_index":1,"time_elapsed":5875,"internal_node_id":"0.0-1.0","task_version":"battery-v0.2-trt"},{"responses":{"Q11":"2","Q12":"2","Q04":"1","Q03":"1","Q01":"2","Q06":"2","Q13":"2","Q07":"1","Q08":"1","Q10":"2","Q02":"0","Q09":"0","Q05":"1"},"rt":28696.705000009388,"item_order":[10,11,3,2,0,5,12,6,7,9,1,8,4],"radio_events":[9759.100000024773,10823.08500004001,12406.94999997504,14247.045000083745,16863.040000083856,17703.025000053458,19030.849999981,21295.01000000164,21990.99500000011,23303.290000068955,25766.92500000354,26590.889999992214,27566.935000009835],"key_events":[],"mouse_events":[647.0350000308827,8119.000000064261,9759.100000024773,10823.08500004001,12406.94999997504,14247.045000083745,16391.130000003614,16863.040000083856,17703.025000053458,19030.849999981,21295.01000000164,21990.99500000011,22807.06000002101,23303.290000068955,25766.92500000354,26590.889999992214,27566.935000009835,28695.034999982454],"straightlining":0.46153846153846156,"zigzagging":0.4166666666666667,"survey":"bisbas","trial_type":"survey-template","trial_index":2,"time_elapsed":34577,"internal_node_id":"0.0-2.0","task_version":"battery-v0.2-trt","infrequency":1},{"responses":{"Q06":"2","Q01":"1","Q07":"1","Q08":"0","Q05":"0","Q03":"1","Q02":"1","Q04":"1"},"rt":23572.234999970533,"item_order":[5,0,6,7,4,2,1,3],"radio_events":[2051.39500007499,2803.3650000579655,4923.350000055507,8923.350000055507,15283.350000041537,19675.204999977723,20435.889999964274,21203.27499997802],"key_events":[],"mouse_events":[2051.39500007499,2803.3650000579655,3459.430000046268,3987.2299999697134,4923.350000055507,8923.350000055507,15283.350000041537,19675.204999977723,20435.889999964274,21203.27499997802,23571.340000024065],"straightlining":0.625,"zigzagging":0.42857142857142855,"survey":"gad7","trial_type":"survey-template","trial_index":3,"time_elapsed":58152,"internal_node_id":"0.0-3.0","task_version":"battery-v0.2-trt","infrequency":0},{"responses":{"Q06":"1","Q05":"1","Q01":"0","Q02":"1","Q07":"1","Q03":"1","Q04":"2","Q08":"3"},"rt":29541.540000005625,"item_order":[5,4,0,1,6,2,3,7],"radio_events":[2396.7449999181554,3525.000000023283,10884.710000013001,13420.59499991592,16148.659999947995,17820.69500000216,20660.634999978356,24700.539999990724,27948.619999922812,28740.484999958426],"key_events":[],"mouse_events":[2396.7449999181554,3525.000000023283,10884.710000013001,13420.59499991592,14532.62499999255,15324.544999981299,16148.659999947995,17036.669999943115,17820.69500000216,20660.634999978356,23100.684999953955,24700.539999990724,27948.619999922812,28740.484999958426,29540.644999942742],"straightlining":0.625,"zigzagging":0.5714285714285714,"survey":"dass_d","trial_type":"survey-template","trial_index":4,"time_elapsed":87696,"internal_node_id":"0.0-4.0","task_version":"battery-v0.2-trt","infrequency":0.5},{"value":[1.5,1.7115384615384617,1.4166666666666665],"trial_type":"call-function","trial_index":5,"time_elapsed":87698,"internal_node_id":"0.0-5.0","task_version":"battery-v0.2-trt"},{"view_history":"[{\"page_index\":0,\"viewing_time\":2105.930000077933},{\"page_index\":1,\"viewing_time\":2183.924999902956},{\"page_index\":2,\"viewing_time\":3727.9900000430644},{\"page_index\":3,\"viewing_time\":6935.97500002943},{\"page_index\":4,\"viewing_time\":32735.95000000205},{\"page_index\":5,\"viewing_time\":2591.9299999950454},{\"page_index\":6,\"viewing_time\":4344.004999962635},{\"page_index\":7,\"viewing_time\":5591.920000035316},{\"page_index\":8,\"viewing_time\":10376.040000002831},{\"page_index\":9,\"viewing_time\":3696.0350000299513}]","rt":74290.15000001527,"trial_type":"pit-instructions","trial_index":6,"time_elapsed":161990,"internal_node_id":"0.0-6.0-0.0","task_version":"battery-v0.2-trt"},{"rune":"1","rune_set":"elianto","hex":"#3366ff99","correct":32,"choice":-1,"rt":-1,"accuracy":0,"outcome":"+1","keys":[],"total_keys":0,"block":0,"practice":1,"trial_type":"pit-trial","trial_index":7,"time_elapsed":165995,"internal_node_id":"0.0-6.0-1.0-0.0","task_version":"battery-v0.2-trt"},{"rune":"1","rune_set":"elianto","hex":"#3366ff99","correct":32,"choice":-1,"rt":-1,"accuracy":0,"outcome":"+1","keys":[],"total_keys":0,"block":0,"practice":1,"trial_type":"pit-trial","trial_index":8,"time_elapsed":170002,"internal_node_id":"0.0-6.0-1.1-0.1","task_version":"battery-v0.2-trt"},{"rune":"1","rune_set":"elianto","hex":"#3366ff99","correct":32,"choice":32,"rt":625.4349999362603,"accuracy":1,"outcome":"+10","keys":[2126.634999993257],"total_keys":1,"block":0,"practice":1,"trial_type":"pit-trial","trial_index":9,"time_elapsed":173331,"internal_node_id":"0.0-6.0-1.2-0.2","task_version":"battery-v0.2-trt"},{"rune":"1","rune_set":"elianto","hex":"#3366ff99","correct":32,"choice":32,"rt":413.2100000279024,"accuracy":1,"outcome":"+10","keys":[1913.5399999795482],"total_keys":1,"block":0,"practice":1,"trial_type":"pit-trial","trial_index":10,"time_elapsed":176447,"internal_node_id":"0.0-6.0-1.3-0.3","task_version":"battery-v0.2-trt"},{"rune":"1","rune_set":"elianto","hex":"#3366ff99","correct":32,"choice":32,"rt":383.56999994721264,"accuracy":1,"outcome":"+10","keys":[1884.0799999888986],"total_keys":1,"block":0,"practice":1,"trial_type":"pit-trial","trial_index":11,"time_elapsed":179536,"internal_node_id":"0.0-6.0-1.4-0.4","task_version":"battery-v0.2-trt"},{"trial_type":"call-function","trial_index":12,"time_elapsed":179539,"internal_node_id":"0.0-6.0-2.0","task_version":"battery-v0.2-trt"},{"view_history":"[{\"page_index\":0,\"viewing_time\":4801.394999958575},{\"page_index\":1,\"viewing_time\":3655.864999978803}]","rt":8457.590000005439,"trial_type":"pit-instructions","trial_index":13,"time_elapsed":187998,"internal_node_id":"0.0-6.0-3.0","task_version":"battery-v0.2-trt"},{"rune":"2","rune_set":"elianto","hex":"#3366ff99","correct":-1,"choice":32,"rt":977.3450000211596,"accuracy":0,"outcome":"+1","keys":[2478.7149999756366],"total_keys":1,"block":0,"practice":2,"trial_type":"pit-trial","trial_index":14,"time_elapsed":191680,"internal_node_id":"0.0-6.0-4.0-0.0","task_version":"battery-v0.2-trt"},{"rune":"2","rune_set":"elianto","hex":"#3366ff99","correct":-1,"choice":32,"rt":663.1000000052154,"accuracy":0,"outcome":"+1","keys":[2163.315000012517],"total_keys":1,"block":0,"practice":2,"trial_type":"pit-trial","trial_index":15,"time_elapsed":195049,"internal_node_id":"0.0-6.0-4.1-0.1","task_version":"battery-v0.2-trt"},{"rune":"2","rune_set":"elianto","hex":"#3366ff99","correct":-1,"choice":-1,"rt":-1,"accuracy":1,"outcome":"+10","keys":[],"total_keys":0,"block":0,"practice":2,"trial_type":"pit-trial","trial_index":16,"time_elapsed":199065,"internal_node_id":"0.0-6.0-4.2-0.2","task_version":"battery-v0.2-trt"},{"rune":"2","rune_set":"elianto","hex":"#3366ff99","correct":-1,"choice":-1,"rt":-1,"accuracy":1,"outcome":"+10","keys":[],"total_keys":0,"block":0,"practice":2,"trial_type":"pit-trial","trial_index":17,"time_elapsed":203070,"internal_node_id":"0.0-6.0-4.3-0.3","task_version":"battery-v0.2-trt"},{"rune":"2","rune_set":"elianto","hex":"#3366ff99","correct":-1,"choice":-1,"rt":-1,"accuracy":1,"outcome":"+10","keys":[],"total_keys":0,"block":0,"practice":2,"trial_type":"pit-trial","trial_index":18,"time_elapsed":207075,"internal_node_id":"0.0-6.0-4.4-0.4","task_version":"battery-v0.2-trt"},{"trial_type":"call-function","trial_index":19,"time_elapsed":207077,"internal_node_id":"0.0-6.0-5.0","task_version":"battery-v0.2-trt"},{"view_history":"[{\"page_index\":0,\"viewing_time\":14576.140000019222},{\"page_index\":1,\"viewing_time\":3087.984999991022}]","rt":17664.44500000216,"trial_type":"pit-instructions","trial_index":20,"time_elapsed":224742,"internal_node_id":"0.0-6.0-6.0","task_version":"battery-v0.2-trt"},{"rune":"3","rune_set":"elianto","hex":"#f73b6a7A","correct":-1,"choice":-1,"rt":-1,"accuracy":1,"outcome":"-1","keys":[],"total_keys":0,"block":0,"practice":3,"trial_type":"pit-trial","trial_index":21,"time_elapsed":228746,"internal_node_id":"0.0-6.0-7.0-0.0","task_version":"battery-v0.2-trt"},{"rune":"3","rune_set":"elianto","hex":"#f73b6a7A","correct":-1,"choice":-1,"rt":-1,"accuracy":1,"outcome":"-1","keys":[2873.520000022836],"total_keys":1,"block":0,"practice":3,"trial_type":"pit-trial","trial_index":22,"time_elapsed":232752,"internal_node_id":"0.0-6.0-7.1-0.1","task_version":"battery-v0.2-trt"},{"rune":"3","rune_set":"elianto","hex":"#f73b6a7A","correct":-1,"choice":32,"rt":1037.0700000785291,"accuracy":0,"outcome":"-10","keys":[2539.64500001166],"total_keys":1,"block":0,"practice":3,"trial_type":"pit-trial","trial_index":23,"time_elapsed":236496,"internal_node_id":"0.0-6.0-7.2-0.2","task_version":"battery-v0.2-trt"},{"rune":"3","rune_set":"elianto","hex":"#f73b6a7A","correct":-1,"choice":-1,"rt":-1,"accuracy":1,"outcome":"-1","keys":[],"total_keys":0,"block":0,"practice":3,"trial_type":"pit-trial","trial_index":24,"time_elapsed":240502,"internal_node_id":"0.0-6.0-7.3-0.3","task_version":"battery-v0.2-trt"},{"rune":"3","rune_set":"elianto","hex":"#f73b6a7A","correct":-1,"choice":32,"rt":1218.1199999758974,"accuracy":0,"outcome":"-10","keys":[2718.20999996271],"total_keys":1,"block":0,"practice":3,"trial_type":"pit-trial","trial_index":25,"time_elapsed":244424,"internal_node_id":"0.0-6.0-7.4-0.4","task_version":"battery-v0.2-trt"},{"rune":"3","rune_set":"elianto","hex":"#f73b6a7A","correct":-1,"choice":-1,"rt":-1,"accuracy":1,"outcome":"-1","keys":[],"total_keys":0,"block":0,"practice":3,"trial_type":"pit-trial","trial_index":26,"time_elapsed":248430,"internal_node_id":"0.0-6.0-7.5-0.5","task_version":"battery-v0.2-trt"},{"rune":"3","rune_set":"elianto","hex":"#f73b6a7A","correct":-1,"choice":-1,"rt":-1,"accuracy":1,"outcome":"-1","keys":[],"total_keys":0,"block":0,"practice":3,"trial_type":"pit-trial","trial_index":27,"time_elapsed":252434,"internal_node_id":"0.0-6.0-7.6-0.6","task_version":"battery-v0.2-trt"},{"rune":"3","rune_set":"elianto","hex":"#f73b6a7A","correct":-1,"choice":-1,"rt":-1,"accuracy":1,"outcome":"-1","keys":[],"total_keys":0,"block":0,"practice":3,"trial_type":"pit-trial","trial_index":28,"time_elapsed":256440,"internal_node_id":"0.0-6.0-7.7-0.7","task_version":"battery-v0.2-trt"},{"trial_type":"call-function","trial_index":29,"time_elapsed":256442,"internal_node_id":"0.0-6.0-8.0","task_version":"battery-v0.2-trt"},{"view_history":"[{\"page_index\":0,\"viewing_time\":4898.795000044629},{\"page_index\":1,\"viewing_time\":3399.959999951534}]","rt":8299.074999988079,"trial_type":"pit-instructions","trial_index":30,"time_elapsed":264742,"internal_node_id":"0.0-6.0-9.0","task_version":"battery-v0.2-trt"},{"rune":"4","rune_set":"elianto","hex":"#f73b6a7A","correct":32,"choice":-1,"rt":-1,"accuracy":0,"outcome":"-10","keys":[],"total_keys":0,"block":0,"practice":4,"trial_type":"pit-trial","trial_index":31,"time_elapsed":268746,"internal_node_id":"0.0-6.0-10.0-0.0","task_version":"battery-v0.2-trt"},{"rune":"4","rune_set":"elianto","hex":"#f73b6a7A","correct":32,"choice":32,"rt":188.65000002551824,"accuracy":1,"outcome":"-1","keys":[1689.269999973476],"total_keys":1,"block":0,"practice":4,"trial_type":"pit-trial","trial_index":32,"time_elapsed":271640,"internal_node_id":"0.0-6.0-10.1-0.1","task_version":"battery-v0.2-trt"},{"rune":"4","rune_set":"elianto","hex":"#f73b6a7A","correct":32,"choice":32,"rt":558.2050000084564,"accuracy":1,"outcome":"-1","keys":[1459.3800000147894,2059.265000047162],"total_keys":2,"block":0,"practice":4,"trial_type":"pit-trial","trial_index":33,"time_elapsed":274905,"internal_node_id":"0.0-6.0-10.2-0.2","task_version":"battery-v0.2-trt"},{"rune":"4","rune_set":"elianto","hex":"#f73b6a7A","correct":32,"choice":32,"rt":12.779999990016222,"accuracy":1,"outcome":"-1","keys":[1514.1299999086186],"total_keys":1,"block":0,"practice":4,"trial_type":"pit-trial","trial_index":34,"time_elapsed":277623,"internal_node_id":"0.0-6.0-10.3-0.3","task_version":"battery-v0.2-trt"},{"trial_type":"call-function","trial_index":35,"time_elapsed":277625,"internal_node_id":"0.0-6.0-11.0","task_version":"battery-v0.2-trt"},{"view_history":"[{\"page_index\":0,\"viewing_time\":1947.5199999287724},{\"page_index\":1,\"viewing_time\":1863.9700000640005},{\"page_index\":2,\"viewing_time\":2831.929999985732},{\"page_index\":3,\"viewing_time\":1839.990000007674},{\"page_index\":4,\"viewing_time\":1504.0299999527633},{\"page_index\":5,\"viewing_time\":983.9700000593439}]","rt":10971.739999949932,"trial_type":"pit-instructions","trial_index":36,"time_elapsed":288598,"internal_node_id":"0.0-6.0-12.0","task_version":"battery-v0.2-trt"},{"responses":["Press SPACE","+10","-1","True","True"],"num_errors":0,"rt":13782.385000027716,"trial_type":"pit-comprehension","trial_index":37,"time_elapsed":302383,"internal_node_id":"0.0-6.0-13.0","task_version":"battery-v0.2-trt"},{"view_history":"[{\"page_index\":0,\"viewing_time\":2660.0300000282004},{\"page_index\":1,\"viewing_time\":2904.0449999738485}]","rt":5564.419999951497,"trial_type":"pit-instructions","trial_index":38,"time_elapsed":307950,"internal_node_id":"0.0-7.0","task_version":"battery-v0.2-trt"},{"rune":"T","rune_set":"bacs2","hex":"#f73b6a7A","correct":-1,"choice":-1,"rt":-1,"accuracy":1,"outcome":"-1","keys":[],"total_keys":0,"block":1,"trial":1,"stimulus":1,"robot":4,"valence":"lose","action":"no-go","sham":0,"trial_type":"pit-trial","trial_index":39,"time_elapsed":311954,"internal_node_id":"0.0-8.0","task_version":"battery-v0.2-trt"},{"rune":"H","rune_set":"bacs2","hex":"#3366ff99","correct":-1,"choice":-1,"rt":-1,"accuracy":1,"outcome":"+10","keys":[3017.299999948591],"total_keys":1,"block":1,"trial":2,"stimulus":3,"robot":2,"valence":"win","action":"no-go","sham":0,"trial_type":"pit-trial","trial_index":40,"time_elapsed":315960,"internal_node_id":"0.0-9.0","task_version":"battery-v0.2-trt"},{"rune":"Q","rune_set":"bacs2","hex":"#3366ff99","correct":32,"choice":-1,"rt":-1,"accuracy":0,"outcome":"+1","keys":[],"total_keys":0,"block":1,"trial":3,"stimulus":2,"robot":1,"valence":"win","action":"go","sham":0,"trial_type":"pit-trial","trial_index":41,"time_elapsed":319963,"internal_node_id":"0.0-10.0","task_version":"battery-v0.2-trt"},{"rune":"Y","rune_set":"bacs2","hex":"#f73b6a7A","correct":-1,"choice":32,"rt":588.5400000261143,"accuracy":0,"outcome":"-1","keys":[2088.9299999689683],"total_keys":1,"block":1,"trial":4,"stimulus":0,"robot":4,"valence":"lose","action":"no-go","sham":1,"trial_type":"pit-trial","trial_index":42,"time_elapsed":323256,"internal_node_id":"0.0-11.0","task_version":"battery-v0.2-trt"},{"rune":"T","rune_set":"bacs2","hex":"#f73b6a7A","correct":-1,"choice":32,"rt":719.2649999633431,"accuracy":0,"outcome":"-10","keys":[2219.760000007227],"total_keys":1,"block":1,"trial":5,"stimulus":1,"robot":4,"valence":"lose","action":"no-go","sham":0,"trial_type":"pit-trial","trial_index":43,"time_elapsed":326680,"internal_node_id":"0.0-12.0","task_version":"battery-v0.2-trt"},{"rune":"Q","rune_set":"bacs2","hex":"#3366ff99","correct":32,"choice":-1,"rt":-1,"accuracy":0,"outcome":"+10","keys":[],"total_keys":0,"block":1,"trial":6,"stimulus":2,"robot":1,"valence":"win","action":"go","sham":1,"trial_type":"pit-trial","trial_index":44,"time_elapsed":330686,"internal_node_id":"0.0-13.0","task_version":"battery-v0.2-trt"},{"rune":"H","rune_set":"bacs2","hex":"#3366ff99","correct":-1,"choice":32,"rt":1065.5450000194833,"accuracy":0,"outcome":"+1","keys":[2565.650000004098],"total_keys":1,"block":1,"trial":7,"stimulus":3,"robot":2,"valence":"win","action":"no-go","sham":0,"trial_type":"pit-trial","trial_index":45,"time_elapsed":334457,"internal_node_id":"0.0-14.0","task_version":"battery-v0.2-trt"},{"rune":"Y","rune_set":"bacs2","hex":"#f73b6a7A","correct":-1,"choice":-1,"rt":-1,"accuracy":1,"outcome":"-1","keys":[],"total_keys":0,"block":1,"trial":8,"stimulus":0,"robot":4,"valence":"lose","action":"no-go","sham":0,"trial_type":"pit-trial","trial_index":46,"time_elapsed":338462,"internal_node_id":"0.0-15.0","task_version":"battery-v0.2-trt"},{"rune":"Q","rune_set":"bacs2","hex":"#3366ff99","correct":32,"choice":-1,"rt":-1,"accuracy":0,"outcome":"+1","keys":[],"total_keys":0,"block":1,"trial":9,"stimulus":2,"robot":1,"valence":"win","action":"go","sham":0,"trial_type":"pit-trial","trial_index":47,"time_elapsed":342466,"internal_node_id":"0.0-16.0","task_version":"battery-v0.2-trt"},{"rune":"T","rune_set":"bacs2","hex":"#f73b6a7A","correct":-1,"choice":32,"rt":884.2999999178573,"accuracy":0,"outcome":"-10","keys":[2385.3100000414997],"total_keys":1,"block":1,"trial":10,"stimulus":1,"robot":4,"valence":"lose","action":"no-go","sham":0,"trial_type":"pit-trial","trial_index":48,"time_elapsed":346058,"internal_node_id":"0.0-17.0","task_version":"battery-v0.2-trt"},{"rune":"H","rune_set":"bacs2","hex":"#3366ff99","correct":-1,"choice":32,"rt":804.5599999604747,"accuracy":0,"outcome":"+1","keys":[2306.044999975711],"total_keys":1,"block":1,"trial":11,"stimulus":3,"robot":2,"valence":"win","action":"no-go","sham":0,"trial_type":"pit-trial","trial_index":49,"time_elapsed":349567,"internal_node_id":"0.0-18.0","task_version":"battery-v0.2-trt"},{"rune":"Y","rune_set":"bacs2","hex":"#f73b6a7A","correct":-1,"choice":-1,"rt":-1,"accuracy":1,"outcome":"-1","keys":[],"total_keys":0,"block":1,"trial":12,"stimulus":0,"robot":4,"valence":"lose","action":"no-go","sham":0,"trial_type":"pit-trial","trial_index":50,"time_elapsed":353573,"internal_node_id":"0.0-19.0","task_version":"battery-v0.2-trt"},{"rune":"H","rune_set":"bacs2","hex":"#3366ff99","correct":-1,"choice":-1,"rt":-1,"accuracy":1,"outcome":"+10","keys":[],"total_keys":0,"block":1,"trial":13,"stimulus":3,"robot":2,"valence":"win","action":"no-go","sham":0,"trial_type":"pit-trial","trial_index":51,"time_elapsed":357579,"internal_node_id":"0.0-20.0","task_version":"battery-v0.2-trt"},{"rune":"T","rune_set":"bacs2","hex":"#f73b6a7A","correct":-1,"choice":-1,"rt":-1,"accuracy":1,"outcome":"-10","keys":[],"total_keys":0,"block":1,"trial":14,"stimulus":1,"robot":4,"valence":"lose","action":"no-go","sham":1,"trial_type":"pit-trial","trial_index":52,"time_elapsed":361584,"internal_node_id":"0.0-21.0","task_version":"battery-v0.2-trt"},{"rune":"Y","rune_set":"bacs2","hex":"#f73b6a7A","correct":-1,"choice":-1,"rt":-1,"accuracy":1,"outcome":"-1","keys":[],"total_keys":0,"block":1,"trial":15,"stimulus":0,"robot":4,"valence":"lose","action":"no-go","sham":0,"trial_type":"pit-trial","trial_index":53,"time_elapsed":365590,"internal_node_id":"0.0-22.0","task_version":"battery-v0.2-trt"},{"rune":"Q","rune_set":"bacs2","hex":"#3366ff99","correct":32,"choice":32,"rt":648.8850000314415,"accuracy":1,"outcome":"+10","keys":[2150.3400000510737],"total_keys":1,"block":1,"trial":16,"stimulus":2,"robot":1,"valence":"win","action":"go","sham":0,"trial_type":"pit-trial","trial_index":54,"time_elapsed":368945,"internal_node_id":"0.0-23.0","task_version":"battery-v0.2-trt"},{"rune":"H","rune_set":"bacs2","hex":"#3366ff99","correct":-1,"choice":32,"rt":783.0700000049546,"accuracy":0,"outcome":"+1","keys":[2283.04999996908],"total_keys":1,"block":1,"trial":17,"stimulus":3,"robot":2,"valence":"win","action":"no-go","sham":0,"trial_type":"pit-trial","trial_index":55,"time_elapsed":372431,"internal_node_id":"0.0-24.0","task_version":"battery-v0.2-trt"},{"rune":"Y","rune_set":"bacs2","hex":"#f73b6a7A","correct":-1,"choice":-1,"rt":-1,"accuracy":1,"outcome":"-10","keys":[],"total_keys":0,"block":1,"trial":18,"stimulus":0,"robot":4,"valence":"lose","action":"no-go","sham":1,"trial_type":"pit-trial","trial_index":56,"time_elapsed":376436,"internal_node_id":"0.0-25.0","task_version":"battery-v0.2-trt"},{"rune":"Q","rune_set":"bacs2","hex":"#3366ff99","correct":32,"choice":32,"rt":658.9900000253692,"accuracy":1,"outcome":"+10","keys":[2159.455000073649],"total_keys":1,"block":1,"trial":19,"stimulus":2,"robot":1,"valence":"win","action":"go","sham":0,"trial_type":"pit-trial","trial_index":57,"time_elapsed":379801,"internal_node_id":"0.0-26.0","task_version":"battery-v0.2-trt"},{"rune":"T","rune_set":"bacs2","hex":"#f73b6a7A","correct":-1,"choice":-1,"rt":-1,"accuracy":1,"outcome":"-1","keys":[],"total_keys":0,"block":1,"trial":20,"stimulus":1,"robot":4,"valence":"lose","action":"no-go","sham":0,"trial_type":"pit-trial","trial_index":58,"time_elapsed":383806,"internal_node_id":"0.0-27.0","task_version":"battery-v0.2-trt"},{"rune":"H","rune_set":"bacs2","hex":"#3366ff99","correct":-1,"choice":32,"rt":601.3399999355897,"accuracy":0,"outcome":"+10","keys":[2102.019999991171],"total_keys":1,"block":1,"trial":21,"stimulus":3,"robot":2,"valence":"win","action":"no-go","sham":1,"trial_type":"pit-trial","trial_index":59,"time_elapsed":387112,"internal_node_id":"0.0-28.0","task_version":"battery-v0.2-trt"},{"rune":"T","rune_set":"bacs2","hex":"#f73b6a7A","correct":-1,"choice":32,"rt":840.0649999966845,"accuracy":0,"outcome":"-10","keys":[2340.15000006184],"total_keys":1,"block":1,"trial":22,"stimulus":1,"robot":4,"valence":"lose","action":"no-go","sham":0,"trial_type":"pit-trial","trial_index":60,"time_elapsed":390657,"internal_node_id":"0.0-29.0","task_version":"battery-v0.2-trt"},{"rune":"Q","rune_set":"bacs2","hex":"#3366ff99","correct":32,"choice":32,"rt":629.9450000515208,"accuracy":1,"outcome":"+10","keys":[2130.709999939427],"total_keys":1,"block":1,"trial":23,"stimulus":2,"robot":1,"valence":"win","action":"go","sham":0,"trial_type":"pit-trial","trial_index":61,"time_elapsed":393992,"internal_node_id":"0.0-30.0","task_version":"battery-v0.2-trt"},{"rune":"Y","rune_set":"bacs2","hex":"#f73b6a7A","correct":-1,"choice":32,"rt":660.2799999527633,"accuracy":0,"outcome":"-10","keys":[2160.8499999856576],"total_keys":1,"block":1,"trial":24,"stimulus":0,"robot":4,"valence":"lose","action":"no-go","sham":0,"trial_type":"pit-trial","trial_index":62,"time_elapsed":397360,"internal_node_id":"0.0-31.0","task_version":"battery-v0.2-trt"},{"rune":"T","rune_set":"bacs2","hex":"#f73b6a7A","correct":-1,"choice":-1,"rt":-1,"accuracy":1,"outcome":"-1","keys":[],"total_keys":0,"block":1,"trial":25,"stimulus":1,"robot":4,"valence":"lose","action":"no-go","sham":0,"trial_type":"pit-trial","trial_index":63,"time_elapsed":401366,"internal_node_id":"0.0-32.0","task_version":"battery-v0.2-trt"},{"rune":"H","rune_set":"bacs2","hex":"#3366ff99","correct":-1,"choice":32,"rt":545.3599999891594,"accuracy":0,"outcome":"+10","keys":[2047.3300000885502],"total_keys":1,"block":1,"trial":26,"stimulus":3,"robot":2,"valence":"win","action":"no-go","sham":1,"trial_type":"pit-trial","trial_index":64,"time_elapsed":404616,"internal_node_id":"0.0-33.0","task_version":"battery-v0.2-trt"},{"rune":"Q","rune_set":"bacs2","hex":"#3366ff99","correct":32,"choice":32,"rt":390.26999997440726,"accuracy":1,"outcome":"+10","keys":[1891.230000066571],"total_keys":1,"block":1,"trial":27,"stimulus":2,"robot":1,"valence":"win","action":"go","sham":0,"trial_type":"pit-trial","trial_index":65,"time_elapsed":407712,"internal_node_id":"0.0-34.0","task_version":"battery-v0.2-trt"},{"rune":"Y","rune_set":"bacs2","hex":"#f73b6a7A","correct":-1,"choice":32,"rt":686.0950000118464,"accuracy":0,"outcome":"-10","keys":[2187.3399999458343],"total_keys":1,"block":1,"trial":28,"stimulus":0,"robot":4,"valence":"lose","action":"no-go","sham":0,"trial_type":"pit-trial","trial_index":66,"time_elapsed":411104,"internal_node_id":"0.0-35.0","task_version":"battery-v0.2-trt"},{"rune":"H","rune_set":"bacs2","hex":"#3366ff99","correct":-1,"choice":32,"rt":430.5650000460446,"accuracy":0,"outcome":"+1","keys":[1931.760000064969],"total_keys":1,"block":1,"trial":29,"stimulus":3,"robot":2,"valence":"win","action":"no-go","sham":0,"trial_type":"pit-trial","trial_index":67,"time_elapsed":414240,"internal_node_id":"0.0-36.0","task_version":"battery-v0.2-trt"},{"rune":"Y","rune_set":"bacs2","hex":"#f73b6a7A","correct":-1,"choice":-1,"rt":-1,"accuracy":1,"outcome":"-1","keys":[],"total_keys":0,"block":1,"trial":30,"stimulus":0,"robot":4,"valence":"lose","action":"no-go","sham":0,"trial_type":"pit-trial","trial_index":68,"time_elapsed":418245,"internal_node_id":"0.0-37.0","task_version":"battery-v0.2-trt"},{"rune":"T","rune_set":"bacs2","hex":"#f73b6a7A","correct":-1,"choice":-1,"rt":-1,"accuracy":1,"outcome":"-1","keys":[],"total_keys":0,"block":1,"trial":31,"stimulus":1,"robot":4,"valence":"lose","action":"no-go","sham":0,"trial_type":"pit-trial","trial_index":69,"time_elapsed":422251,"internal_node_id":"0.0-38.0","task_version":"battery-v0.2-trt"},{"rune":"Q","rune_set":"bacs2","hex":"#3366ff99","correct":32,"choice":32,"rt":506.32500008214265,"accuracy":1,"outcome":"+10","keys":[2008.254999993369],"total_keys":1,"block":1,"trial":32,"stimulus":2,"robot":1,"valence":"win","action":"go","sham":0,"trial_type":"pit-trial","trial_index":70,"time_elapsed":425463,"internal_node_id":"0.0-39.0","task_version":"battery-v0.2-trt"},{"rune":"H","rune_set":"bacs2","hex":"#3366ff99","correct":-1,"choice":32,"rt":495.69000001065433,"accuracy":0,"outcome":"+1","keys":[1996.129999984987],"total_keys":1,"block":1,"trial":33,"stimulus":3,"robot":2,"valence":"win","action":"no-go","sham":0,"trial_type":"pit-trial","trial_index":71,"time_elapsed":428664,"internal_node_id":"0.0-40.0","task_version":"battery-v0.2-trt"},{"rune":"Y","rune_set":"bacs2","hex":"#f73b6a7A","correct":-1,"choice":-1,"rt":-1,"accuracy":1,"outcome":"-1","keys":[],"total_keys":0,"block":1,"trial":34,"stimulus":0,"robot":4,"valence":"lose","action":"no-go","sham":0,"trial_type":"pit-trial","trial_index":72,"time_elapsed":432668,"internal_node_id":"0.0-41.0","task_version":"battery-v0.2-trt"},{"rune":"Q","rune_set":"bacs2","hex":"#3366ff99","correct":32,"choice":32,"rt":901.2400000356138,"accuracy":1,"outcome":"+10","keys":[2401.2349999975413],"total_keys":1,"block":1,"trial":35,"stimulus":2,"robot":1,"valence":"win","action":"go","sham":0,"trial_type":"pit-trial","trial_index":73,"time_elapsed":436271,"internal_node_id":"0.0-42.0","task_version":"battery-v0.2-trt"},{"rune":"E","rune_set":"bacs2","hex":"#f73b6a7A","correct":32,"choice":-1,"rt":-1,"accuracy":0,"outcome":"-10","keys":[],"total_keys":0,"block":1,"trial":36,"stimulus":4,"robot":3,"valence":"lose","action":"go","sham":0,"trial_type":"pit-trial","trial_index":74,"time_elapsed":440277,"internal_node_id":"0.0-43.0","task_version":"battery-v0.2-trt"},{"rune":"H","rune_set":"bacs2","hex":"#3366ff99","correct":-1,"choice":-1,"rt":-1,"accuracy":1,"outcome":"+1","keys":[],"total_keys":0,"block":1,"trial":37,"stimulus":3,"robot":2,"valence":"win","action":"no-go","sham":1,"trial_type":"pit-trial","trial_index":75,"time_elapsed":444281,"internal_node_id":"0.0-44.0","task_version":"battery-v0.2-trt"},{"rune":"Q","rune_set":"bacs2","hex":"#3366ff99","correct":32,"choice":32,"rt":693.8950000330806,"accuracy":1,"outcome":"+10","keys":[2194.8600000469014],"total_keys":1,"block":1,"trial":38,"stimulus":2,"robot":1,"valence":"win","action":"go","sham":0,"trial_type":"pit-trial","trial_index":76,"time_elapsed":447680,"internal_node_id":"0.0-45.0","task_version":"battery-v0.2-trt"},{"rune":"E","rune_set":"bacs2","hex":"#f73b6a7A","correct":32,"choice":32,"rt":781.7700000014156,"accuracy":1,"outcome":"-10","keys":[2283.2899999339134],"total_keys":1,"block":1,"trial":39,"stimulus":4,"robot":3,"valence":"lose","action":"go","sham":1,"trial_type":"pit-trial","trial_index":77,"time_elapsed":451167,"internal_node_id":"0.0-46.0","task_version":"battery-v0.2-trt"},{"rune":"Y","rune_set":"bacs2","hex":"#f73b6a7A","correct":-1,"choice":-1,"rt":-1,"accuracy":1,"outcome":"-1","keys":[],"total_keys":0,"block":1,"trial":40,"stimulus":0,"robot":4,"valence":"lose","action":"no-go","sham":0,"trial_type":"pit-trial","trial_index":78,"time_elapsed":455173,"internal_node_id":"0.0-47.0","task_version":"battery-v0.2-trt"},{"rune":"O","rune_set":"bacs2","hex":"#3366ff99","correct":32,"choice":-1,"rt":-1,"accuracy":0,"outcome":"+1","keys":[2878.580000018701],"total_keys":1,"block":1,"trial":41,"stimulus":6,"robot":1,"valence":"win","action":"go","sham":0,"trial_type":"pit-trial","trial_index":79,"time_elapsed":459178,"internal_node_id":"0.0-48.0","task_version":"battery-v0.2-trt"},{"rune":"Y","rune_set":"bacs2","hex":"#f73b6a7A","correct":-1,"choice":-1,"rt":-1,"accuracy":1,"outcome":"-10","keys":[],"total_keys":0,"block":1,"trial":42,"stimulus":0,"robot":4,"valence":"lose","action":"no-go","sham":1,"trial_type":"pit-trial","trial_index":80,"time_elapsed":463185,"internal_node_id":"0.0-49.0","task_version":"battery-v0.2-trt"},{"rune":"C","rune_set":"bacs2","hex":"#3366ff99","correct":-1,"choice":32,"rt":1188.8800000306219,"accuracy":0,"outcome":"+1","keys":[2690.004999982193],"total_keys":1,"block":1,"trial":43,"stimulus":5,"robot":2,"valence":"win","action":"no-go","sham":0,"trial_type":"pit-trial","trial_index":81,"time_elapsed":467080,"internal_node_id":"0.0-50.0","task_version":"battery-v0.2-trt"},{"rune":"E","rune_set":"bacs2","hex":"#f73b6a7A","correct":32,"choice":-1,"rt":-1,"accuracy":0,"outcome":"-10","keys":[],"total_keys":0,"block":1,"trial":44,"stimulus":4,"robot":3,"valence":"lose","action":"go","sham":0,"trial_type":"pit-trial","trial_index":82,"time_elapsed":471084,"internal_node_id":"0.0-51.0","task_version":"battery-v0.2-trt"},{"rune":"E","rune_set":"bacs2","hex":"#f73b6a7A","correct":32,"choice":-1,"rt":-1,"accuracy":0,"outcome":"-10","keys":[],"total_keys":0,"block":1,"trial":45,"stimulus":4,"robot":3,"valence":"lose","action":"go","sham":0,"trial_type":"pit-trial","trial_index":83,"time_elapsed":475090,"internal_node_id":"0.0-52.0","task_version":"battery-v0.2-trt"},{"rune":"O","rune_set":"bacs2","hex":"#3366ff99","correct":32,"choice":-1,"rt":-1,"accuracy":0,"outcome":"+1","keys":[],"total_keys":0,"block":1,"trial":46,"stimulus":6,"robot":1,"valence":"win","action":"go","sham":0,"trial_type":"pit-trial","trial_index":84,"time_elapsed":479095,"internal_node_id":"0.0-53.0","task_version":"battery-v0.2-trt"},{"rune":"C","rune_set":"bacs2","hex":"#3366ff99","correct":-1,"choice":32,"rt":694.5200000191107,"accuracy":0,"outcome":"+1","keys":[2196.5199999976903],"total_keys":1,"block":1,"trial":47,"stimulus":5,"robot":2,"valence":"win","action":"no-go","sham":0,"trial_type":"pit-trial","trial_index":85,"time_elapsed":482495,"internal_node_id":"0.0-54.0","task_version":"battery-v0.2-trt"},{"rune":"Y","rune_set":"bacs2","hex":"#f73b6a7A","correct":-1,"choice":-1,"rt":-1,"accuracy":1,"outcome":"-1","keys":[],"total_keys":0,"block":1,"trial":48,"stimulus":0,"robot":4,"valence":"lose","action":"no-go","sham":0,"trial_type":"pit-trial","trial_index":86,"time_elapsed":486501,"internal_node_id":"0.0-55.0","task_version":"battery-v0.2-trt"},{"rune":"C","rune_set":"bacs2","hex":"#3366ff99","correct":-1,"choice":-1,"rt":-1,"accuracy":1,"outcome":"+10","keys":[],"total_keys":0,"block":1,"trial":49,"stimulus":5,"robot":2,"valence":"win","action":"no-go","sham":0,"trial_type":"pit-trial","trial_index":87,"time_elapsed":490507,"internal_node_id":"0.0-56.0","task_version":"battery-v0.2-trt"},{"rune":"G","rune_set":"bacs2","hex":"#f73b6a7A","correct":-1,"choice":32,"rt":634.7850000020117,"accuracy":0,"outcome":"-10","keys":[2136.4000000758097],"total_keys":1,"block":1,"trial":50,"stimulus":7,"robot":4,"valence":"lose","action":"no-go","sham":0,"trial_type":"pit-trial","trial_index":88,"time_elapsed":493848,"internal_node_id":"0.0-57.0","task_version":"battery-v0.2-trt"},{"rune":"O","rune_set":"bacs2","hex":"#3366ff99","correct":32,"choice":-1,"rt":-1,"accuracy":0,"outcome":"+1","keys":[],"total_keys":0,"block":1,"trial":51,"stimulus":6,"robot":1,"valence":"win","action":"go","sham":0,"trial_type":"pit-trial","trial_index":89,"time_elapsed":497853,"internal_node_id":"0.0-58.0","task_version":"battery-v0.2-trt"},{"rune":"E","rune_set":"bacs2","hex":"#f73b6a7A","correct":32,"choice":32,"rt":666.2999999243766,"accuracy":1,"outcome":"-1","keys":[2168.08500001207],"total_keys":1,"block":1,"trial":52,"stimulus":4,"robot":3,"valence":"lose","action":"go","sham":0,"trial_type":"pit-trial","trial_index":90,"time_elapsed":501224,"internal_node_id":"0.0-59.0","task_version":"battery-v0.2-trt"},{"rune":"E","rune_set":"bacs2","hex":"#f73b6a7A","correct":32,"choice":-1,"rt":-1,"accuracy":0,"outcome":"-10","keys":[],"total_keys":0,"block":1,"trial":53,"stimulus":4,"robot":3,"valence":"lose","action":"go","sham":0,"trial_type":"pit-trial","trial_index":91,"time_elapsed":505228,"internal_node_id":"0.0-60.0","task_version":"battery-v0.2-trt"},{"rune":"G","rune_set":"bacs2","hex":"#f73b6a7A","correct":-1,"choice":32,"rt":730.2200000267476,"accuracy":0,"outcome":"-10","keys":[2231.2449999153614],"total_keys":1,"block":1,"trial":54,"stimulus":7,"robot":4,"valence":"lose","action":"no-go","sham":0,"trial_type":"pit-trial","trial_index":92,"time_elapsed":508663,"internal_node_id":"0.0-61.0","task_version":"battery-v0.2-trt"},{"rune":"C","rune_set":"bacs2","hex":"#3366ff99","correct":-1,"choice":-1,"rt":-1,"accuracy":1,"outcome":"+10","keys":[],"total_keys":0,"block":1,"trial":55,"stimulus":5,"robot":2,"valence":"win","action":"no-go","sham":0,"trial_type":"pit-trial","trial_index":93,"time_elapsed":512669,"internal_node_id":"0.0-62.0","task_version":"battery-v0.2-trt"},{"rune":"O","rune_set":"bacs2","hex":"#3366ff99","correct":32,"choice":-1,"rt":-1,"accuracy":0,"outcome":"+1","keys":[],"total_keys":0,"block":1,"trial":56,"stimulus":6,"robot":1,"valence":"win","action":"go","sham":0,"trial_type":"pit-trial","trial_index":94,"time_elapsed":516674,"internal_node_id":"0.0-63.0","task_version":"battery-v0.2-trt"},{"rune":"O","rune_set":"bacs2","hex":"#3366ff99","correct":32,"choice":32,"rt":380.17999997828156,"accuracy":1,"outcome":"+10","keys":[1881.0350000858307],"total_keys":1,"block":1,"trial":57,"stimulus":6,"robot":1,"valence":"win","action":"go","sham":0,"trial_type":"pit-trial","trial_index":95,"time_elapsed":519759,"internal_node_id":"0.0-64.0","task_version":"battery-v0.2-trt"},{"rune":"E","rune_set":"bacs2","hex":"#f73b6a7A","correct":32,"choice":-1,"rt":-1,"accuracy":0,"outcome":"-10","keys":[],"total_keys":0,"block":1,"trial":58,"stimulus":4,"robot":3,"valence":"lose","action":"go","sham":0,"trial_type":"pit-trial","trial_index":96,"time_elapsed":523763,"internal_node_id":"0.0-65.0","task_version":"battery-v0.2-trt"},{"rune":"C","rune_set":"bacs2","hex":"#3366ff99","correct":-1,"choice":-1,"rt":-1,"accuracy":1,"outcome":"+10","keys":[],"total_keys":0,"block":1,"trial":59,"stimulus":5,"robot":2,"valence":"win","action":"no-go","sham":0,"trial_type":"pit-trial","trial_index":97,"time_elapsed":527766,"internal_node_id":"0.0-66.0","task_version":"battery-v0.2-trt"},{"rune":"G","rune_set":"bacs2","hex":"#f73b6a7A","correct":-1,"choice":-1,"rt":-1,"accuracy":1,"outcome":"-10","keys":[],"total_keys":0,"block":1,"trial":60,"stimulus":7,"robot":4,"valence":"lose","action":"no-go","sham":1,"trial_type":"pit-trial","trial_index":98,"time_elapsed":531770,"internal_node_id":"0.0-67.0","task_version":"battery-v0.2-trt"},{"rune":"C","rune_set":"bacs2","hex":"#3366ff99","correct":-1,"choice":-1,"rt":-1,"accuracy":1,"outcome":"+10","keys":[],"total_keys":0,"block":1,"trial":61,"stimulus":5,"robot":2,"valence":"win","action":"no-go","sham":0,"trial_type":"pit-trial","trial_index":99,"time_elapsed":535776,"internal_node_id":"0.0-68.0","task_version":"battery-v0.2-trt"},{"rune":"E","rune_set":"bacs2","hex":"#f73b6a7A","correct":32,"choice":-1,"rt":-1,"accuracy":0,"outcome":"-10","keys":[],"total_keys":0,"block":1,"trial":62,"stimulus":4,"robot":3,"valence":"lose","action":"go","sham":0,"trial_type":"pit-trial","trial_index":100,"time_elapsed":539781,"internal_node_id":"0.0-69.0","task_version":"battery-v0.2-trt"},{"rune":"O","rune_set":"bacs2","hex":"#3366ff99","correct":32,"choice":32,"rt":1018.3049999177456,"accuracy":1,"outcome":"+1","keys":[2518.775000004098],"total_keys":1,"block":1,"trial":63,"stimulus":6,"robot":1,"valence":"win","action":"go","sham":1,"trial_type":"pit-trial","trial_index":101,"time_elapsed":543504,"internal_node_id":"0.0-70.0","task_version":"battery-v0.2-trt"},{"rune":"G","rune_set":"bacs2","hex":"#f73b6a7A","correct":-1,"choice":-1,"rt":-1,"accuracy":1,"outcome":"-1","keys":[],"total_keys":0,"block":1,"trial":64,"stimulus":7,"robot":4,"valence":"lose","action":"no-go","sham":0,"trial_type":"pit-trial","trial_index":102,"time_elapsed":547510,"internal_node_id":"0.0-71.0","task_version":"battery-v0.2-trt"},{"rune":"G","rune_set":"bacs2","hex":"#f73b6a7A","correct":-1,"choice":-1,"rt":-1,"accuracy":1,"outcome":"-1","keys":[],"total_keys":0,"block":1,"trial":65,"stimulus":7,"robot":4,"valence":"lose","action":"no-go","sham":0,"trial_type":"pit-trial","trial_index":103,"time_elapsed":551513,"internal_node_id":"0.0-72.0","task_version":"battery-v0.2-trt"},{"rune":"C","rune_set":"bacs2","hex":"#3366ff99","correct":-1,"choice":32,"rt":508.6100000189617,"accuracy":0,"outcome":"+1","keys":[2009.0649999910966],"total_keys":1,"block":1,"trial":66,"stimulus":5,"robot":2,"valence":"win","action":"no-go","sham":0,"trial_type":"pit-trial","trial_index":104,"time_elapsed":554726,"internal_node_id":"0.0-73.0","task_version":"battery-v0.2-trt"},{"rune":"O","rune_set":"bacs2","hex":"#3366ff99","correct":32,"choice":-1,"rt":-1,"accuracy":0,"outcome":"+1","keys":[],"total_keys":0,"block":1,"trial":67,"stimulus":6,"robot":1,"valence":"win","action":"go","sham":0,"trial_type":"pit-trial","trial_index":105,"time_elapsed":558729,"internal_node_id":"0.0-74.0","task_version":"battery-v0.2-trt"},{"rune":"E","rune_set":"bacs2","hex":"#f73b6a7A","correct":32,"choice":-1,"rt":-1,"accuracy":0,"outcome":"-10","keys":[],"total_keys":0,"block":1,"trial":68,"stimulus":4,"robot":3,"valence":"lose","action":"go","sham":0,"trial_type":"pit-trial","trial_index":106,"time_elapsed":562734,"internal_node_id":"0.0-75.0","task_version":"battery-v0.2-trt"},{"rune":"G","rune_set":"bacs2","hex":"#f73b6a7A","correct":-1,"choice":32,"rt":712.0550000108778,"accuracy":0,"outcome":"-10","keys":[2214.2349999630824],"total_keys":1,"block":1,"trial":69,"stimulus":7,"robot":4,"valence":"lose","action":"no-go","sham":0,"trial_type":"pit-trial","trial_index":107,"time_elapsed":566152,"internal_node_id":"0.0-76.0","task_version":"battery-v0.2-trt"},{"rune":"C","rune_set":"bacs2","hex":"#3366ff99","correct":-1,"choice":32,"rt":999.864999903366,"accuracy":0,"outcome":"+1","keys":[2501.300000003539],"total_keys":1,"block":1,"trial":70,"stimulus":5,"robot":2,"valence":"win","action":"no-go","sham":0,"trial_type":"pit-trial","trial_index":108,"time_elapsed":569856,"internal_node_id":"0.0-77.0","task_version":"battery-v0.2-trt"},{"rune":"E","rune_set":"bacs2","hex":"#f73b6a7A","correct":32,"choice":-1,"rt":-1,"accuracy":0,"outcome":"-10","keys":[],"total_keys":0,"block":1,"trial":71,"stimulus":4,"robot":3,"valence":"lose","action":"go","sham":0,"trial_type":"pit-trial","trial_index":109,"time_elapsed":573862,"internal_node_id":"0.0-78.0","task_version":"battery-v0.2-trt"},{"rune":"O","rune_set":"bacs2","hex":"#3366ff99","correct":32,"choice":-1,"rt":-1,"accuracy":0,"outcome":"+1","keys":[],"total_keys":0,"block":1,"trial":72,"stimulus":6,"robot":1,"valence":"win","action":"go","sham":0,"trial_type":"pit-trial","trial_index":110,"time_elapsed":577868,"internal_node_id":"0.0-79.0","task_version":"battery-v0.2-trt"},{"rune":"C","rune_set":"bacs2","hex":"#3366ff99","correct":-1,"choice":-1,"rt":-1,"accuracy":1,"outcome":"+10","keys":[],"total_keys":0,"block":1,"trial":73,"stimulus":5,"robot":2,"valence":"win","action":"no-go","sham":0,"trial_type":"pit-trial","trial_index":111,"time_elapsed":581873,"internal_node_id":"0.0-80.0","task_version":"battery-v0.2-trt"},{"rune":"X","rune_set":"bacs2","hex":"#f73b6a7A","correct":32,"choice":-1,"rt":-1,"accuracy":0,"outcome":"-10","keys":[],"total_keys":0,"block":1,"trial":74,"stimulus":9,"robot":3,"valence":"lose","action":"go","sham":0,"trial_type":"pit-trial","trial_index":112,"time_elapsed":585879,"internal_node_id":"0.0-81.0","task_version":"battery-v0.2-trt"},{"rune":"G","rune_set":"bacs2","hex":"#f73b6a7A","correct":-1,"choice":-1,"rt":-1,"accuracy":1,"outcome":"-1","keys":[],"total_keys":0,"block":1,"trial":75,"stimulus":7,"robot":4,"valence":"lose","action":"no-go","sham":0,"trial_type":"pit-trial","trial_index":113,"time_elapsed":589885,"internal_node_id":"0.0-82.0","task_version":"battery-v0.2-trt"},{"rune":"Z","rune_set":"bacs2","hex":"#3366ff99","correct":32,"choice":-1,"rt":-1,"accuracy":0,"outcome":"+10","keys":[],"total_keys":0,"block":1,"trial":76,"stimulus":8,"robot":1,"valence":"win","action":"go","sham":1,"trial_type":"pit-trial","trial_index":114,"time_elapsed":593889,"internal_node_id":"0.0-83.0","task_version":"battery-v0.2-trt"},{"rune":"C","rune_set":"bacs2","hex":"#3366ff99","correct":-1,"choice":-1,"rt":-1,"accuracy":1,"outcome":"+10","keys":[],"total_keys":0,"block":1,"trial":77,"stimulus":5,"robot":2,"valence":"win","action":"no-go","sham":0,"trial_type":"pit-trial","trial_index":115,"time_elapsed":597895,"internal_node_id":"0.0-84.0","task_version":"battery-v0.2-trt"},{"rune":"G","rune_set":"bacs2","hex":"#f73b6a7A","correct":-1,"choice":-1,"rt":-1,"accuracy":1,"outcome":"-1","keys":[],"total_keys":0,"block":1,"trial":78,"stimulus":7,"robot":4,"valence":"lose","action":"no-go","sham":0,"trial_type":"pit-trial","trial_index":116,"time_elapsed":601900,"internal_node_id":"0.0-85.0","task_version":"battery-v0.2-trt"},{"rune":"X","rune_set":"bacs2","hex":"#f73b6a7A","correct":32,"choice":-1,"rt":-1,"accuracy":0,"outcome":"-10","keys":[],"total_keys":0,"block":1,"trial":79,"stimulus":9,"robot":3,"valence":"lose","action":"go","sham":0,"trial_type":"pit-trial","trial_index":117,"time_elapsed":605905,"internal_node_id":"0.0-86.0","task_version":"battery-v0.2-trt"},{"rune":"Z","rune_set":"bacs2","hex":"#3366ff99","correct":32,"choice":32,"rt":628.1850000377744,"accuracy":1,"outcome":"+10","keys":[2129.5149999205023],"total_keys":1,"block":1,"trial":80,"stimulus":8,"robot":1,"valence":"win","action":"go","sham":0,"trial_type":"pit-trial","trial_index":118,"time_elapsed":609239,"internal_node_id":"0.0-87.0","task_version":"battery-v0.2-trt"},{"rune":"Z","rune_set":"bacs2","hex":"#3366ff99","correct":32,"choice":32,"rt":503.1650000018999,"accuracy":1,"outcome":"+10","keys":[2004.0299999527633],"total_keys":1,"block":1,"trial":81,"stimulus":8,"robot":1,"valence":"win","action":"go","sham":0,"trial_type":"pit-trial","trial_index":119,"time_elapsed":612447,"internal_node_id":"0.0-88.0","task_version":"battery-v0.2-trt"},{"rune":"X","rune_set":"bacs2","hex":"#f73b6a7A","correct":32,"choice":-1,"rt":-1,"accuracy":0,"outcome":"-10","keys":[],"total_keys":0,"block":1,"trial":82,"stimulus":9,"robot":3,"valence":"lose","action":"go","sham":0,"trial_type":"pit-trial","trial_index":120,"time_elapsed":616451,"internal_node_id":"0.0-89.0","task_version":"battery-v0.2-trt"},{"rune":"G","rune_set":"bacs2","hex":"#f73b6a7A","correct":-1,"choice":-1,"rt":-1,"accuracy":1,"outcome":"-1","keys":[],"total_keys":0,"block":1,"trial":83,"stimulus":7,"robot":4,"valence":"lose","action":"no-go","sham":0,"trial_type":"pit-trial","trial_index":121,"time_elapsed":620456,"internal_node_id":"0.0-90.0","task_version":"battery-v0.2-trt"},{"rune":"C","rune_set":"bacs2","hex":"#3366ff99","correct":-1,"choice":-1,"rt":-1,"accuracy":1,"outcome":"+10","keys":[],"total_keys":0,"block":1,"trial":84,"stimulus":5,"robot":2,"valence":"win","action":"no-go","sham":0,"trial_type":"pit-trial","trial_index":122,"time_elapsed":624460,"internal_node_id":"0.0-91.0","task_version":"battery-v0.2-trt"},{"rune":"C","rune_set":"bacs2","hex":"#3366ff99","correct":-1,"choice":-1,"rt":-1,"accuracy":1,"outcome":"+1","keys":[],"total_keys":0,"block":1,"trial":85,"stimulus":5,"robot":2,"valence":"win","action":"no-go","sham":1,"trial_type":"pit-trial","trial_index":123,"time_elapsed":628465,"internal_node_id":"0.0-92.0","task_version":"battery-v0.2-trt"},{"rune":"Z","rune_set":"bacs2","hex":"#3366ff99","correct":32,"choice":-1,"rt":-1,"accuracy":0,"outcome":"+1","keys":[],"total_keys":0,"block":1,"trial":86,"stimulus":8,"robot":1,"valence":"win","action":"go","sham":0,"trial_type":"pit-trial","trial_index":124,"time_elapsed":632469,"internal_node_id":"0.0-93.0","task_version":"battery-v0.2-trt"},{"rune":"X","rune_set":"bacs2","hex":"#f73b6a7A","correct":32,"choice":-1,"rt":-1,"accuracy":0,"outcome":"-10","keys":[],"total_keys":0,"block":1,"trial":87,"stimulus":9,"robot":3,"valence":"lose","action":"go","sham":0,"trial_type":"pit-trial","trial_index":125,"time_elapsed":636473,"internal_node_id":"0.0-94.0","task_version":"battery-v0.2-trt"},{"rune":"G","rune_set":"bacs2","hex":"#f73b6a7A","correct":-1,"choice":-1,"rt":-1,"accuracy":1,"outcome":"-1","keys":[],"total_keys":0,"block":1,"trial":88,"stimulus":7,"robot":4,"valence":"lose","action":"no-go","sham":0,"trial_type":"pit-trial","trial_index":126,"time_elapsed":640480,"internal_node_id":"0.0-95.0","task_version":"battery-v0.2-trt"},{"rune":"X","rune_set":"bacs2","hex":"#f73b6a7A","correct":32,"choice":-1,"rt":-1,"accuracy":0,"outcome":"-10","keys":[],"total_keys":0,"block":1,"trial":89,"stimulus":9,"robot":3,"valence":"lose","action":"go","sham":0,"trial_type":"pit-trial","trial_index":127,"time_elapsed":644486,"internal_node_id":"0.0-96.0","task_version":"battery-v0.2-trt"},{"rune":"Z","rune_set":"bacs2","hex":"#3366ff99","correct":32,"choice":-1,"rt":-1,"accuracy":0,"outcome":"+1","keys":[],"total_keys":0,"block":1,"trial":90,"stimulus":8,"robot":1,"valence":"win","action":"go","sham":0,"trial_type":"pit-trial","trial_index":128,"time_elapsed":648489,"internal_node_id":"0.0-97.0","task_version":"battery-v0.2-trt"},{"rune":"W","rune_set":"bacs2","hex":"#f73b6a7A","correct":32,"choice":-1,"rt":-1,"accuracy":0,"outcome":"-10","keys":[],"total_keys":0,"block":1,"trial":91,"stimulus":10,"robot":3,"valence":"lose","action":"go","sham":0,"trial_type":"pit-trial","trial_index":129,"time_elapsed":652494,"internal_node_id":"0.0-98.0","task_version":"battery-v0.2-trt"},{"rune":"J","rune_set":"bacs2","hex":"#3366ff99","correct":-1,"choice":32,"rt":817.174999974668,"accuracy":0,"outcome":"+1","keys":[2317.725000088103],"total_keys":1,"block":1,"trial":92,"stimulus":11,"robot":2,"valence":"win","action":"no-go","sham":0,"trial_type":"pit-trial","trial_index":130,"time_elapsed":656015,"internal_node_id":"0.0-99.0","task_version":"battery-v0.2-trt"},{"rune":"W","rune_set":"bacs2","hex":"#f73b6a7A","correct":32,"choice":-1,"rt":-1,"accuracy":0,"outcome":"-10","keys":[],"total_keys":0,"block":1,"trial":93,"stimulus":10,"robot":3,"valence":"lose","action":"go","sham":0,"trial_type":"pit-trial","trial_index":131,"time_elapsed":660021,"internal_node_id":"0.0-100.0","task_version":"battery-v0.2-trt"},{"rune":"Z","rune_set":"bacs2","hex":"#3366ff99","correct":32,"choice":32,"rt":385.7350000180304,"accuracy":1,"outcome":"+10","keys":[1886.8849999271333],"total_keys":1,"block":1,"trial":94,"stimulus":8,"robot":1,"valence":"win","action":"go","sham":0,"trial_type":"pit-trial","trial_index":132,"time_elapsed":663112,"internal_node_id":"0.0-101.0","task_version":"battery-v0.2-trt"},{"rune":"X","rune_set":"bacs2","hex":"#f73b6a7A","correct":32,"choice":-1,"rt":-1,"accuracy":0,"outcome":"-10","keys":[],"total_keys":0,"block":1,"trial":95,"stimulus":9,"robot":3,"valence":"lose","action":"go","sham":0,"trial_type":"pit-trial","trial_index":133,"time_elapsed":667118,"internal_node_id":"0.0-102.0","task_version":"battery-v0.2-trt"},{"rune":"J","rune_set":"bacs2","hex":"#3366ff99","correct":-1,"choice":-1,"rt":-1,"accuracy":1,"outcome":"+10","keys":[3093.404999934137],"total_keys":1,"block":1,"trial":96,"stimulus":11,"robot":2,"valence":"win","action":"no-go","sham":0,"trial_type":"pit-trial","trial_index":134,"time_elapsed":671123,"internal_node_id":"0.0-103.0","task_version":"battery-v0.2-trt"},{"rune":"W","rune_set":"bacs2","hex":"#f73b6a7A","correct":32,"choice":-1,"rt":-1,"accuracy":0,"outcome":"-10","keys":[],"total_keys":0,"block":1,"trial":97,"stimulus":10,"robot":3,"valence":"lose","action":"go","sham":0,"trial_type":"pit-trial","trial_index":135,"time_elapsed":675127,"internal_node_id":"0.0-104.0","task_version":"battery-v0.2-trt"},{"rune":"X","rune_set":"bacs2","hex":"#f73b6a7A","correct":32,"choice":-1,"rt":-1,"accuracy":0,"outcome":"-10","keys":[3.8949999725446105],"total_keys":1,"block":1,"trial":98,"stimulus":9,"robot":3,"valence":"lose","action":"go","sham":0,"trial_type":"pit-trial","trial_index":136,"time_elapsed":679132,"internal_node_id":"0.0-105.0","task_version":"battery-v0.2-trt"},{"rune":"Z","rune_set":"bacs2","hex":"#3366ff99","correct":32,"choice":32,"rt":323.5850000055507,"accuracy":1,"outcome":"+10","keys":[1823.6699999542907],"total_keys":1,"block":1,"trial":99,"stimulus":8,"robot":1,"valence":"win","action":"go","sham":0,"trial_type":"pit-trial","trial_index":137,"time_elapsed":682160,"internal_node_id":"0.0-106.0","task_version":"battery-v0.2-trt"},{"rune":"J","rune_set":"bacs2","hex":"#3366ff99","correct":-1,"choice":-1,"rt":-1,"accuracy":1,"outcome":"+10","keys":[2980.9699999168515],"total_keys":1,"block":1,"trial":100,"stimulus":11,"robot":2,"valence":"win","action":"no-go","sham":0,"trial_type":"pit-trial","trial_index":138,"time_elapsed":686164,"internal_node_id":"0.0-107.0","task_version":"battery-v0.2-trt"},{"rune":"J","rune_set":"bacs2","hex":"#3366ff99","correct":-1,"choice":32,"rt":586.1049999948591,"accuracy":0,"outcome":"+1","keys":[2086.505000013858],"total_keys":1,"block":1,"trial":101,"stimulus":11,"robot":2,"valence":"win","action":"no-go","sham":0,"trial_type":"pit-trial","trial_index":139,"time_elapsed":689456,"internal_node_id":"0.0-108.0","task_version":"battery-v0.2-trt"},{"rune":"X","rune_set":"bacs2","hex":"#f73b6a7A","correct":32,"choice":-1,"rt":-1,"accuracy":0,"outcome":"-1","keys":[],"total_keys":0,"block":1,"trial":102,"stimulus":9,"robot":3,"valence":"lose","action":"go","sham":1,"trial_type":"pit-trial","trial_index":140,"time_elapsed":693460,"internal_node_id":"0.0-109.0","task_version":"battery-v0.2-trt"},{"rune":"W","rune_set":"bacs2","hex":"#f73b6a7A","correct":32,"choice":32,"rt":650.205000070855,"accuracy":1,"outcome":"-1","keys":[2150.8199999807402],"total_keys":1,"block":1,"trial":103,"stimulus":10,"robot":3,"valence":"lose","action":"go","sham":0,"trial_type":"pit-trial","trial_index":141,"time_elapsed":696815,"internal_node_id":"0.0-110.0","task_version":"battery-v0.2-trt"},{"rune":"Z","rune_set":"bacs2","hex":"#3366ff99","correct":32,"choice":32,"rt":655.2999999839813,"accuracy":1,"outcome":"+10","keys":[2155.8400000212714],"total_keys":1,"block":1,"trial":104,"stimulus":8,"robot":1,"valence":"win","action":"go","sham":0,"trial_type":"pit-trial","trial_index":142,"time_elapsed":700175,"internal_node_id":"0.0-111.0","task_version":"battery-v0.2-trt"},{"rune":"W","rune_set":"bacs2","hex":"#f73b6a7A","correct":32,"choice":32,"rt":744.1200000466779,"accuracy":1,"outcome":"-10","keys":[2244.204999995418],"total_keys":1,"block":1,"trial":105,"stimulus":10,"robot":3,"valence":"lose","action":"go","sham":1,"trial_type":"pit-trial","trial_index":143,"time_elapsed":703622,"internal_node_id":"0.0-112.0","task_version":"battery-v0.2-trt"},{"rune":"X","rune_set":"bacs2","hex":"#f73b6a7A","correct":32,"choice":32,"rt":409.65499996673316,"accuracy":1,"outcome":"-1","keys":[1910.1899999659508],"total_keys":1,"block":1,"trial":106,"stimulus":9,"robot":3,"valence":"lose","action":"go","sham":0,"trial_type":"pit-trial","trial_index":144,"time_elapsed":706735,"internal_node_id":"0.0-113.0","task_version":"battery-v0.2-trt"},{"rune":"J","rune_set":"bacs2","hex":"#3366ff99","correct":-1,"choice":32,"rt":718.445000005886,"accuracy":0,"outcome":"+10","keys":[2219.7200000518933],"total_keys":1,"block":1,"trial":107,"stimulus":11,"robot":2,"valence":"win","action":"no-go","sham":1,"trial_type":"pit-trial","trial_index":145,"time_elapsed":710159,"internal_node_id":"0.0-114.0","task_version":"battery-v0.2-trt"},{"rune":"Z","rune_set":"bacs2","hex":"#3366ff99","correct":32,"choice":32,"rt":576.3449999503791,"accuracy":1,"outcome":"+1","keys":[2076.420000055805],"total_keys":1,"block":1,"trial":108,"stimulus":8,"robot":1,"valence":"win","action":"go","sham":1,"trial_type":"pit-trial","trial_index":146,"time_elapsed":713440,"internal_node_id":"0.0-115.0","task_version":"battery-v0.2-trt"},{"rune":"X","rune_set":"bacs2","hex":"#f73b6a7A","correct":32,"choice":32,"rt":822.359999991022,"accuracy":1,"outcome":"-1","keys":[2323.480000020936],"total_keys":1,"block":1,"trial":109,"stimulus":9,"robot":3,"valence":"lose","action":"go","sham":0,"trial_type":"pit-trial","trial_index":147,"time_elapsed":716967,"internal_node_id":"0.0-116.0","task_version":"battery-v0.2-trt"},{"rune":"W","rune_set":"bacs2","hex":"#f73b6a7A","correct":32,"choice":32,"rt":445.78500010538846,"accuracy":1,"outcome":"-1","keys":[1946.25499995891],"total_keys":1,"block":1,"trial":110,"stimulus":10,"robot":3,"valence":"lose","action":"go","sham":0,"trial_type":"pit-trial","trial_index":148,"time_elapsed":720118,"internal_node_id":"0.0-117.0","task_version":"battery-v0.2-trt"},{"rune":"Z","rune_set":"bacs2","hex":"#3366ff99","correct":32,"choice":32,"rt":488.4700000984594,"accuracy":1,"outcome":"+10","keys":[1988.8049999717623],"total_keys":1,"block":1,"trial":111,"stimulus":8,"robot":1,"valence":"win","action":"go","sham":0,"trial_type":"pit-trial","trial_index":149,"time_elapsed":723311,"internal_node_id":"0.0-118.0","task_version":"battery-v0.2-trt"},{"rune":"J","rune_set":"bacs2","hex":"#3366ff99","correct":-1,"choice":32,"rt":646.4949999935925,"accuracy":0,"outcome":"+1","keys":[1370.809999993071,2146.7349999584258],"total_keys":2,"block":1,"trial":112,"stimulus":11,"robot":2,"valence":"win","action":"no-go","sham":0,"trial_type":"pit-trial","trial_index":150,"time_elapsed":726663,"internal_node_id":"0.0-119.0","task_version":"battery-v0.2-trt"},{"rune":"W","rune_set":"bacs2","hex":"#f73b6a7A","correct":32,"choice":32,"rt":559.9299999885261,"accuracy":1,"outcome":"-1","keys":[2061.500000068918],"total_keys":1,"block":1,"trial":113,"stimulus":10,"robot":3,"valence":"lose","action":"go","sham":0,"trial_type":"pit-trial","trial_index":151,"time_elapsed":729927,"internal_node_id":"0.0-120.0","task_version":"battery-v0.2-trt"},{"rune":"X","rune_set":"bacs2","hex":"#f73b6a7A","correct":32,"choice":32,"rt":612.6500000245869,"accuracy":1,"outcome":"-10","keys":[2114.25500002224],"total_keys":1,"block":1,"trial":114,"stimulus":9,"robot":3,"valence":"lose","action":"go","sham":1,"trial_type":"pit-trial","trial_index":152,"time_elapsed":733245,"internal_node_id":"0.0-121.0","task_version":"battery-v0.2-trt"},{"rune":"J","rune_set":"bacs2","hex":"#3366ff99","correct":-1,"choice":-1,"rt":-1,"accuracy":1,"outcome":"+10","keys":[],"total_keys":0,"block":1,"trial":115,"stimulus":11,"robot":2,"valence":"win","action":"no-go","sham":0,"trial_type":"pit-trial","trial_index":153,"time_elapsed":737251,"internal_node_id":"0.0-122.0","task_version":"battery-v0.2-trt"},{"rune":"Z","rune_set":"bacs2","hex":"#3366ff99","correct":32,"choice":32,"rt":971.1799999931827,"accuracy":1,"outcome":"+10","keys":[46.86000000219792,2471.3699999265373],"total_keys":2,"block":1,"trial":116,"stimulus":8,"robot":1,"valence":"win","action":"go","sham":0,"trial_type":"pit-trial","trial_index":154,"time_elapsed":740927,"internal_node_id":"0.0-123.0","task_version":"battery-v0.2-trt"},{"rune":"W","rune_set":"bacs2","hex":"#f73b6a7A","correct":32,"choice":-1,"rt":-1,"accuracy":0,"outcome":"-10","keys":[],"total_keys":0,"block":1,"trial":117,"stimulus":10,"robot":3,"valence":"lose","action":"go","sham":0,"trial_type":"pit-trial","trial_index":155,"time_elapsed":744932,"internal_node_id":"0.0-124.0","task_version":"battery-v0.2-trt"},{"rune":"J","rune_set":"bacs2","hex":"#3366ff99","correct":-1,"choice":32,"rt":208.94500007852912,"accuracy":0,"outcome":"+1","keys":[1709.290000027977],"total_keys":1,"block":1,"trial":118,"stimulus":11,"robot":2,"valence":"win","action":"no-go","sham":0,"trial_type":"pit-trial","trial_index":156,"time_elapsed":747847,"internal_node_id":"0.0-125.0","task_version":"battery-v0.2-trt"},{"rune":"Z","rune_set":"bacs2","hex":"#3366ff99","correct":32,"choice":32,"rt":447.82000000122935,"accuracy":1,"outcome":"+1","keys":[1947.9999999748543],"total_keys":1,"block":1,"trial":119,"stimulus":8,"robot":1,"valence":"win","action":"go","sham":1,"trial_type":"pit-trial","trial_index":157,"time_elapsed":750999,"internal_node_id":"0.0-126.0","task_version":"battery-v0.2-trt"},{"rune":"X","rune_set":"bacs2","hex":"#f73b6a7A","correct":32,"choice":32,"rt":303.50999999791384,"accuracy":1,"outcome":"-1","keys":[1803.55499999132],"total_keys":1,"block":1,"trial":120,"stimulus":9,"robot":3,"valence":"lose","action":"go","sham":0,"trial_type":"pit-trial","trial_index":158,"time_elapsed":754007,"internal_node_id":"0.0-127.0","task_version":"battery-v0.2-trt"},{"view_history":"[{\"page_index\":0,\"viewing_time\":12889.859999995679},{\"page_index\":1,\"viewing_time\":3912.000000011176}]","rt":16802.200000034645,"trial_type":"pit-instructions","trial_index":159,"time_elapsed":770812,"internal_node_id":"0.0-128.0","task_version":"battery-v0.2-trt"},{"rune":"K","rune_set":"bacs2","hex":"#f73b6a7A","correct":-1,"choice":-1,"rt":-1,"accuracy":1,"outcome":"-10","keys":[],"total_keys":0,"block":2,"trial":121,"stimulus":2,"robot":4,"valence":"lose","action":"no-go","sham":1,"trial_type":"pit-trial","trial_index":160,"time_elapsed":774818,"internal_node_id":"0.0-129.0","task_version":"battery-v0.2-trt"},{"rune":"B","rune_set":"bacs2","hex":"#3366ff99","correct":32,"choice":32,"rt":1179.8199999611825,"accuracy":1,"outcome":"+10","keys":[2679.8900000285357],"total_keys":1,"block":2,"trial":122,"stimulus":1,"robot":1,"valence":"win","action":"go","sham":0,"trial_type":"pit-trial","trial_index":161,"time_elapsed":778702,"internal_node_id":"0.0-130.0","task_version":"battery-v0.2-trt"},{"rune":"V","rune_set":"bacs2","hex":"#3366ff99","correct":32,"choice":32,"rt":358.9399999473244,"accuracy":1,"outcome":"+1","keys":[1860.0050000241026],"total_keys":1,"block":2,"trial":123,"stimulus":3,"robot":1,"valence":"win","action":"go","sham":1,"trial_type":"pit-trial","trial_index":162,"time_elapsed":781767,"internal_node_id":"0.0-131.0","task_version":"battery-v0.2-trt"},{"rune":"M","rune_set":"bacs2","hex":"#3366ff99","correct":-1,"choice":32,"rt":478.8249999983236,"accuracy":0,"outcome":"+1","keys":[1979.5400000875816],"total_keys":1,"block":2,"trial":124,"stimulus":0,"robot":2,"valence":"win","action":"no-go","sham":0,"trial_type":"pit-trial","trial_index":163,"time_elapsed":784951,"internal_node_id":"0.0-132.0","task_version":"battery-v0.2-trt"},{"rune":"B","rune_set":"bacs2","hex":"#3366ff99","correct":32,"choice":32,"rt":541.3499999558553,"accuracy":1,"outcome":"+10","keys":[2042.3249999294057],"total_keys":1,"block":2,"trial":125,"stimulus":1,"robot":1,"valence":"win","action":"go","sham":0,"trial_type":"pit-trial","trial_index":164,"time_elapsed":788197,"internal_node_id":"0.0-133.0","task_version":"battery-v0.2-trt"},{"rune":"K","rune_set":"bacs2","hex":"#f73b6a7A","correct":-1,"choice":-1,"rt":-1,"accuracy":1,"outcome":"-1","keys":[],"total_keys":0,"block":2,"trial":126,"stimulus":2,"robot":4,"valence":"lose","action":"no-go","sham":0,"trial_type":"pit-trial","trial_index":165,"time_elapsed":792201,"internal_node_id":"0.0-134.0","task_version":"battery-v0.2-trt"},{"rune":"V","rune_set":"bacs2","hex":"#3366ff99","correct":32,"choice":32,"rt":452.74500001687557,"accuracy":1,"outcome":"+10","keys":[1952.8649999992922],"total_keys":1,"block":2,"trial":127,"stimulus":3,"robot":1,"valence":"win","action":"go","sham":0,"trial_type":"pit-trial","trial_index":166,"time_elapsed":795358,"internal_node_id":"0.0-135.0","task_version":"battery-v0.2-trt"},{"rune":"M","rune_set":"bacs2","hex":"#3366ff99","correct":-1,"choice":32,"rt":263.2950000697747,"accuracy":0,"outcome":"+1","keys":[1764.2449999693781],"total_keys":1,"block":2,"trial":128,"stimulus":0,"robot":2,"valence":"win","action":"no-go","sham":0,"trial_type":"pit-trial","trial_index":167,"time_elapsed":798326,"internal_node_id":"0.0-136.0","task_version":"battery-v0.2-trt"},{"rune":"M","rune_set":"bacs2","hex":"#3366ff99","correct":-1,"choice":32,"rt":664.8149999091402,"accuracy":0,"outcome":"+1","keys":[2165.529999998398],"total_keys":1,"block":2,"trial":129,"stimulus":0,"robot":2,"valence":"win","action":"no-go","sham":0,"trial_type":"pit-trial","trial_index":168,"time_elapsed":801695,"internal_node_id":"0.0-137.0","task_version":"battery-v0.2-trt"},{"rune":"V","rune_set":"bacs2","hex":"#3366ff99","correct":32,"choice":32,"rt":359.21000002417713,"accuracy":1,"outcome":"+1","keys":[1859.7399999853224],"total_keys":1,"block":2,"trial":130,"stimulus":3,"robot":1,"valence":"win","action":"go","sham":1,"trial_type":"pit-trial","trial_index":169,"time_elapsed":804759,"internal_node_id":"0.0-138.0","task_version":"battery-v0.2-trt"},{"rune":"B","rune_set":"bacs2","hex":"#3366ff99","correct":32,"choice":32,"rt":341.7849999386817,"accuracy":1,"outcome":"+10","keys":[1843.349999981001],"total_keys":1,"block":2,"trial":131,"stimulus":1,"robot":1,"valence":"win","action":"go","sham":0,"trial_type":"pit-trial","trial_index":170,"time_elapsed":807807,"internal_node_id":"0.0-139.0","task_version":"battery-v0.2-trt"},{"rune":"K","rune_set":"bacs2","hex":"#f73b6a7A","correct":-1,"choice":-1,"rt":-1,"accuracy":1,"outcome":"-1","keys":[],"total_keys":0,"block":2,"trial":132,"stimulus":2,"robot":4,"valence":"lose","action":"no-go","sham":0,"trial_type":"pit-trial","trial_index":171,"time_elapsed":811812,"internal_node_id":"0.0-140.0","task_version":"battery-v0.2-trt"},{"rune":"M","rune_set":"bacs2","hex":"#3366ff99","correct":-1,"choice":32,"rt":561.1400000052527,"accuracy":0,"outcome":"+10","keys":[2062.480000080541],"total_keys":1,"block":2,"trial":133,"stimulus":0,"robot":2,"valence":"win","action":"no-go","sham":1,"trial_type":"pit-trial","trial_index":172,"time_elapsed":815079,"internal_node_id":"0.0-141.0","task_version":"battery-v0.2-trt"},{"rune":"K","rune_set":"bacs2","hex":"#f73b6a7A","correct":-1,"choice":-1,"rt":-1,"accuracy":1,"outcome":"-1","keys":[1276.5200000721961],"total_keys":1,"block":2,"trial":134,"stimulus":2,"robot":4,"valence":"lose","action":"no-go","sham":0,"trial_type":"pit-trial","trial_index":173,"time_elapsed":819082,"internal_node_id":"0.0-142.0","task_version":"battery-v0.2-trt"},{"rune":"V","rune_set":"bacs2","hex":"#3366ff99","correct":32,"choice":32,"rt":301.27499997615814,"accuracy":1,"outcome":"+1","keys":[1802.1850000368431],"total_keys":1,"block":2,"trial":135,"stimulus":3,"robot":1,"valence":"win","action":"go","sham":1,"trial_type":"pit-trial","trial_index":174,"time_elapsed":822087,"internal_node_id":"0.0-143.0","task_version":"battery-v0.2-trt"},{"rune":"B","rune_set":"bacs2","hex":"#3366ff99","correct":32,"choice":32,"rt":598.1799999717623,"accuracy":1,"outcome":"+10","keys":[2099.705000058748],"total_keys":1,"block":2,"trial":136,"stimulus":1,"robot":1,"valence":"win","action":"go","sham":0,"trial_type":"pit-trial","trial_index":175,"time_elapsed":825391,"internal_node_id":"0.0-144.0","task_version":"battery-v0.2-trt"},{"rune":"K","rune_set":"bacs2","hex":"#f73b6a7A","correct":-1,"choice":-1,"rt":-1,"accuracy":1,"outcome":"-1","keys":[],"total_keys":0,"block":2,"trial":137,"stimulus":2,"robot":4,"valence":"lose","action":"no-go","sham":0,"trial_type":"pit-trial","trial_index":176,"time_elapsed":829395,"internal_node_id":"0.0-145.0","task_version":"battery-v0.2-trt"},{"rune":"B","rune_set":"bacs2","hex":"#3366ff99","correct":32,"choice":32,"rt":323.4199999133125,"accuracy":1,"outcome":"+10","keys":[1823.6000000033528],"total_keys":1,"block":2,"trial":138,"stimulus":1,"robot":1,"valence":"win","action":"go","sham":0,"trial_type":"pit-trial","trial_index":177,"time_elapsed":832423,"internal_node_id":"0.0-146.0","task_version":"battery-v0.2-trt"},{"rune":"V","rune_set":"bacs2","hex":"#3366ff99","correct":32,"choice":32,"rt":349.309999961406,"accuracy":1,"outcome":"+1","keys":[1850.319999968633],"total_keys":1,"block":2,"trial":139,"stimulus":3,"robot":1,"valence":"win","action":"go","sham":1,"trial_type":"pit-trial","trial_index":178,"time_elapsed":835478,"internal_node_id":"0.0-147.0","task_version":"battery-v0.2-trt"},{"rune":"M","rune_set":"bacs2","hex":"#3366ff99","correct":-1,"choice":32,"rt":488.7200000230223,"accuracy":0,"outcome":"+10","keys":[1988.7749999761581],"total_keys":1,"block":2,"trial":140,"stimulus":0,"robot":2,"valence":"win","action":"no-go","sham":1,"trial_type":"pit-trial","trial_index":179,"time_elapsed":838671,"internal_node_id":"0.0-148.0","task_version":"battery-v0.2-trt"},{"rune":"K","rune_set":"bacs2","hex":"#f73b6a7A","correct":-1,"choice":-1,"rt":-1,"accuracy":1,"outcome":"-10","keys":[],"total_keys":0,"block":2,"trial":141,"stimulus":2,"robot":4,"valence":"lose","action":"no-go","sham":1,"trial_type":"pit-trial","trial_index":180,"time_elapsed":842677,"internal_node_id":"0.0-149.0","task_version":"battery-v0.2-trt"},{"rune":"M","rune_set":"bacs2","hex":"#3366ff99","correct":-1,"choice":32,"rt":481.39000008814037,"accuracy":0,"outcome":"+1","keys":[1981.764999916777],"total_keys":1,"block":2,"trial":142,"stimulus":0,"robot":2,"valence":"win","action":"no-go","sham":0,"trial_type":"pit-trial","trial_index":181,"time_elapsed":845863,"internal_node_id":"0.0-150.0","task_version":"battery-v0.2-trt"},{"rune":"B","rune_set":"bacs2","hex":"#3366ff99","correct":32,"choice":32,"rt":575.1649999292567,"accuracy":1,"outcome":"+10","keys":[2076.329999952577],"total_keys":1,"block":2,"trial":143,"stimulus":1,"robot":1,"valence":"win","action":"go","sham":0,"trial_type":"pit-trial","trial_index":182,"time_elapsed":849144,"internal_node_id":"0.0-151.0","task_version":"battery-v0.2-trt"},{"rune":"V","rune_set":"bacs2","hex":"#3366ff99","correct":32,"choice":32,"rt":308.99499997030944,"accuracy":1,"outcome":"+10","keys":[1810.3050000499934],"total_keys":1,"block":2,"trial":144,"stimulus":3,"robot":1,"valence":"win","action":"go","sham":0,"trial_type":"pit-trial","trial_index":183,"time_elapsed":852159,"internal_node_id":"0.0-152.0","task_version":"battery-v0.2-trt"},{"rune":"M","rune_set":"bacs2","hex":"#3366ff99","correct":-1,"choice":32,"rt":356.4750000368804,"accuracy":0,"outcome":"+10","keys":[1857.2299999650568],"total_keys":1,"block":2,"trial":145,"stimulus":0,"robot":2,"valence":"win","action":"no-go","sham":1,"trial_type":"pit-trial","trial_index":184,"time_elapsed":855222,"internal_node_id":"0.0-153.0","task_version":"battery-v0.2-trt"},{"rune":"V","rune_set":"bacs2","hex":"#3366ff99","correct":32,"choice":32,"rt":351.5549999428913,"accuracy":1,"outcome":"+10","keys":[1852.2050000028685],"total_keys":1,"block":2,"trial":146,"stimulus":3,"robot":1,"valence":"win","action":"go","sham":0,"trial_type":"pit-trial","trial_index":185,"time_elapsed":858279,"internal_node_id":"0.0-154.0","task_version":"battery-v0.2-trt"},{"rune":"K","rune_set":"bacs2","hex":"#f73b6a7A","correct":-1,"choice":32,"rt":550.2349999733269,"accuracy":0,"outcome":"-10","keys":[2051.0000000940636],"total_keys":1,"block":2,"trial":147,"stimulus":2,"robot":4,"valence":"lose","action":"no-go","sham":0,"trial_type":"pit-trial","trial_index":186,"time_elapsed":861535,"internal_node_id":"0.0-155.0","task_version":"battery-v0.2-trt"},{"rune":"B","rune_set":"bacs2","hex":"#3366ff99","correct":32,"choice":32,"rt":438.2549999281764,"accuracy":1,"outcome":"+10","keys":[1938.5199999669567],"total_keys":1,"block":2,"trial":148,"stimulus":1,"robot":1,"valence":"win","action":"go","sham":0,"trial_type":"pit-trial","trial_index":187,"time_elapsed":864678,"internal_node_id":"0.0-156.0","task_version":"battery-v0.2-trt"},{"rune":"B","rune_set":"bacs2","hex":"#3366ff99","correct":32,"choice":32,"rt":407.5749999610707,"accuracy":1,"outcome":"+10","keys":[1907.9749999800697],"total_keys":1,"block":2,"trial":149,"stimulus":1,"robot":1,"valence":"win","action":"go","sham":0,"trial_type":"pit-trial","trial_index":188,"time_elapsed":867791,"internal_node_id":"0.0-157.0","task_version":"battery-v0.2-trt"},{"rune":"M","rune_set":"bacs2","hex":"#3366ff99","correct":-1,"choice":32,"rt":334.8599999444559,"accuracy":0,"outcome":"+1","keys":[1836.5149999735877],"total_keys":1,"block":2,"trial":150,"stimulus":0,"robot":2,"valence":"win","action":"no-go","sham":0,"trial_type":"pit-trial","trial_index":189,"time_elapsed":870832,"internal_node_id":"0.0-158.0","task_version":"battery-v0.2-trt"},{"rune":"K","rune_set":"bacs2","hex":"#f73b6a7A","correct":-1,"choice":32,"rt":468.4000000124797,"accuracy":0,"outcome":"-10","keys":[1970.145000028424],"total_keys":1,"block":2,"trial":151,"stimulus":2,"robot":4,"valence":"lose","action":"no-go","sham":0,"trial_type":"pit-trial","trial_index":190,"time_elapsed":874009,"internal_node_id":"0.0-159.0","task_version":"battery-v0.2-trt"},{"rune":"V","rune_set":"bacs2","hex":"#3366ff99","correct":32,"choice":32,"rt":370.9650000091642,"accuracy":1,"outcome":"+10","keys":[1872.4649999057874],"total_keys":1,"block":2,"trial":152,"stimulus":3,"robot":1,"valence":"win","action":"go","sham":0,"trial_type":"pit-trial","trial_index":191,"time_elapsed":877087,"internal_node_id":"0.0-160.0","task_version":"battery-v0.2-trt"},{"rune":"K","rune_set":"bacs2","hex":"#f73b6a7A","correct":-1,"choice":-1,"rt":-1,"accuracy":1,"outcome":"-1","keys":[],"total_keys":0,"block":2,"trial":153,"stimulus":2,"robot":4,"valence":"lose","action":"no-go","sham":0,"trial_type":"pit-trial","trial_index":192,"time_elapsed":881092,"internal_node_id":"0.0-161.0","task_version":"battery-v0.2-trt"},{"rune":"R","rune_set":"bacs2","hex":"#3366ff99","correct":32,"choice":32,"rt":489.72000007051975,"accuracy":1,"outcome":"+10","keys":[1334.000000031665,1989.9150000419468],"total_keys":2,"block":2,"trial":154,"stimulus":4,"robot":1,"valence":"win","action":"go","sham":0,"trial_type":"pit-trial","trial_index":193,"time_elapsed":884286,"internal_node_id":"0.0-162.0","task_version":"battery-v0.2-trt"},{"rune":"V","rune_set":"bacs2","hex":"#3366ff99","correct":32,"choice":32,"rt":718.6049999436364,"accuracy":1,"outcome":"+10","keys":[2218.830000027083],"total_keys":1,"block":2,"trial":155,"stimulus":3,"robot":1,"valence":"win","action":"go","sham":0,"trial_type":"pit-trial","trial_index":194,"time_elapsed":887710,"internal_node_id":"0.0-163.0","task_version":"battery-v0.2-trt"},{"rune":"M","rune_set":"bacs2","hex":"#3366ff99","correct":-1,"choice":-1,"rt":-1,"accuracy":1,"outcome":"+10","keys":[],"total_keys":0,"block":2,"trial":156,"stimulus":0,"robot":2,"valence":"win","action":"no-go","sham":0,"trial_type":"pit-trial","trial_index":195,"time_elapsed":891715,"internal_node_id":"0.0-164.0","task_version":"battery-v0.2-trt"},{"rune":"K","rune_set":"bacs2","hex":"#f73b6a7A","correct":-1,"choice":-1,"rt":-1,"accuracy":1,"outcome":"-1","keys":[],"total_keys":0,"block":2,"trial":157,"stimulus":2,"robot":4,"valence":"lose","action":"no-go","sham":0,"trial_type":"pit-trial","trial_index":196,"time_elapsed":895720,"internal_node_id":"0.0-165.0","task_version":"battery-v0.2-trt"},{"rune":"M","rune_set":"bacs2","hex":"#3366ff99","correct":-1,"choice":-1,"rt":-1,"accuracy":1,"outcome":"+1","keys":[],"total_keys":0,"block":2,"trial":158,"stimulus":0,"robot":2,"valence":"win","action":"no-go","sham":1,"trial_type":"pit-trial","trial_index":197,"time_elapsed":899725,"internal_node_id":"0.0-166.0","task_version":"battery-v0.2-trt"},{"rune":"R","rune_set":"bacs2","hex":"#3366ff99","correct":32,"choice":32,"rt":641.3250000914559,"accuracy":1,"outcome":"+10","keys":[2141.8350000167266],"total_keys":1,"block":2,"trial":159,"stimulus":4,"robot":1,"valence":"win","action":"go","sham":0,"trial_type":"pit-trial","trial_index":198,"time_elapsed":903071,"internal_node_id":"0.0-167.0","task_version":"battery-v0.2-trt"},{"rune":"V","rune_set":"bacs2","hex":"#3366ff99","correct":32,"choice":32,"rt":686.5399999078363,"accuracy":1,"outcome":"+10","keys":[2186.805000063032],"total_keys":1,"block":2,"trial":160,"stimulus":3,"robot":1,"valence":"win","action":"go","sham":0,"trial_type":"pit-trial","trial_index":199,"time_elapsed":906463,"internal_node_id":"0.0-168.0","task_version":"battery-v0.2-trt"},{"rune":"M","rune_set":"bacs2","hex":"#3366ff99","correct":-1,"choice":-1,"rt":-1,"accuracy":1,"outcome":"+1","keys":[],"total_keys":0,"block":2,"trial":161,"stimulus":0,"robot":2,"valence":"win","action":"no-go","sham":1,"trial_type":"pit-trial","trial_index":200,"time_elapsed":910467,"internal_node_id":"0.0-169.0","task_version":"battery-v0.2-trt"},{"rune":"R","rune_set":"bacs2","hex":"#3366ff99","correct":32,"choice":32,"rt":587.5450000166893,"accuracy":1,"outcome":"+10","keys":[2088.6550000868738],"total_keys":1,"block":2,"trial":162,"stimulus":4,"robot":1,"valence":"win","action":"go","sham":0,"trial_type":"pit-trial","trial_index":201,"time_elapsed":913758,"internal_node_id":"0.0-170.0","task_version":"battery-v0.2-trt"},{"rune":"P","rune_set":"bacs2","hex":"#f73b6a7A","correct":32,"choice":-1,"rt":-1,"accuracy":0,"outcome":"-10","keys":[],"total_keys":0,"block":2,"trial":163,"stimulus":5,"robot":3,"valence":"lose","action":"go","sham":0,"trial_type":"pit-trial","trial_index":202,"time_elapsed":917763,"internal_node_id":"0.0-171.0","task_version":"battery-v0.2-trt"},{"rune":"L","rune_set":"bacs2","hex":"#f73b6a7A","correct":-1,"choice":32,"rt":1036.3000000361353,"accuracy":0,"outcome":"-10","keys":[2537.1749999467283],"total_keys":1,"block":2,"trial":164,"stimulus":6,"robot":4,"valence":"lose","action":"no-go","sham":0,"trial_type":"pit-trial","trial_index":203,"time_elapsed":921502,"internal_node_id":"0.0-172.0","task_version":"battery-v0.2-trt"},{"rune":"R","rune_set":"bacs2","hex":"#3366ff99","correct":32,"choice":32,"rt":502.60999996680766,"accuracy":1,"outcome":"+10","keys":[2003.8499999791384],"total_keys":1,"block":2,"trial":165,"stimulus":4,"robot":1,"valence":"win","action":"go","sham":0,"trial_type":"pit-trial","trial_index":204,"time_elapsed":924712,"internal_node_id":"0.0-173.0","task_version":"battery-v0.2-trt"},{"rune":"M","rune_set":"bacs2","hex":"#3366ff99","correct":-1,"choice":32,"rt":940.6150000868365,"accuracy":0,"outcome":"+1","keys":[2442.475000047125],"total_keys":1,"block":2,"trial":166,"stimulus":0,"robot":2,"valence":"win","action":"no-go","sham":0,"trial_type":"pit-trial","trial_index":205,"time_elapsed":928359,"internal_node_id":"0.0-174.0","task_version":"battery-v0.2-trt"},{"rune":"L","rune_set":"bacs2","hex":"#f73b6a7A","correct":-1,"choice":-1,"rt":-1,"accuracy":1,"outcome":"-10","keys":[],"total_keys":0,"block":2,"trial":167,"stimulus":6,"robot":4,"valence":"lose","action":"no-go","sham":1,"trial_type":"pit-trial","trial_index":206,"time_elapsed":932366,"internal_node_id":"0.0-175.0","task_version":"battery-v0.2-trt"},{"rune":"P","rune_set":"bacs2","hex":"#f73b6a7A","correct":32,"choice":32,"rt":863.6300000362098,"accuracy":1,"outcome":"-10","keys":[2364.7199999541044],"total_keys":1,"block":2,"trial":168,"stimulus":5,"robot":3,"valence":"lose","action":"go","sham":1,"trial_type":"pit-trial","trial_index":207,"time_elapsed":935935,"internal_node_id":"0.0-176.0","task_version":"battery-v0.2-trt"},{"rune":"R","rune_set":"bacs2","hex":"#3366ff99","correct":32,"choice":32,"rt":565.085000009276,"accuracy":1,"outcome":"+10","keys":[2066.825000103563],"total_keys":1,"block":2,"trial":169,"stimulus":4,"robot":1,"valence":"win","action":"go","sham":0,"trial_type":"pit-trial","trial_index":208,"time_elapsed":939207,"internal_node_id":"0.0-177.0","task_version":"battery-v0.2-trt"},{"rune":"P","rune_set":"bacs2","hex":"#f73b6a7A","correct":32,"choice":-1,"rt":-1,"accuracy":0,"outcome":"-10","keys":[],"total_keys":0,"block":2,"trial":170,"stimulus":5,"robot":3,"valence":"lose","action":"go","sham":0,"trial_type":"pit-trial","trial_index":209,"time_elapsed":943213,"internal_node_id":"0.0-178.0","task_version":"battery-v0.2-trt"},{"rune":"L","rune_set":"bacs2","hex":"#f73b6a7A","correct":-1,"choice":32,"rt":1169.2800000309944,"accuracy":0,"outcome":"-10","keys":[2669.4249999709427],"total_keys":1,"block":2,"trial":171,"stimulus":6,"robot":4,"valence":"lose","action":"no-go","sham":0,"trial_type":"pit-trial","trial_index":210,"time_elapsed":947089,"internal_node_id":"0.0-179.0","task_version":"battery-v0.2-trt"},{"rune":"S","rune_set":"bacs2","hex":"#3366ff99","correct":-1,"choice":32,"rt":619.150000042282,"accuracy":0,"outcome":"+10","keys":[2120.435000048019],"total_keys":1,"block":2,"trial":172,"stimulus":7,"robot":2,"valence":"win","action":"no-go","sham":1,"trial_type":"pit-trial","trial_index":211,"time_elapsed":950415,"internal_node_id":"0.0-180.0","task_version":"battery-v0.2-trt"},{"rune":"P","rune_set":"bacs2","hex":"#f73b6a7A","correct":32,"choice":-1,"rt":-1,"accuracy":0,"outcome":"-10","keys":[],"total_keys":0,"block":2,"trial":173,"stimulus":5,"robot":3,"valence":"lose","action":"go","sham":0,"trial_type":"pit-trial","trial_index":212,"time_elapsed":954419,"internal_node_id":"0.0-181.0","task_version":"battery-v0.2-trt"},{"rune":"L","rune_set":"bacs2","hex":"#f73b6a7A","correct":-1,"choice":32,"rt":474.1099999519065,"accuracy":0,"outcome":"-10","keys":[1975.609999964945],"total_keys":1,"block":2,"trial":174,"stimulus":6,"robot":4,"valence":"lose","action":"no-go","sham":0,"trial_type":"pit-trial","trial_index":213,"time_elapsed":957599,"internal_node_id":"0.0-182.0","task_version":"battery-v0.2-trt"},{"rune":"R","rune_set":"bacs2","hex":"#3366ff99","correct":32,"choice":32,"rt":398.19999993778765,"accuracy":1,"outcome":"+10","keys":[1898.8700000336394],"total_keys":1,"block":2,"trial":175,"stimulus":4,"robot":1,"valence":"win","action":"go","sham":0,"trial_type":"pit-trial","trial_index":214,"time_elapsed":960703,"internal_node_id":"0.0-183.0","task_version":"battery-v0.2-trt"},{"rune":"S","rune_set":"bacs2","hex":"#3366ff99","correct":-1,"choice":32,"rt":965.7599999336526,"accuracy":0,"outcome":"+1","keys":[2466.8100000126287],"total_keys":1,"block":2,"trial":176,"stimulus":7,"robot":2,"valence":"win","action":"no-go","sham":0,"trial_type":"pit-trial","trial_index":215,"time_elapsed":964374,"internal_node_id":"0.0-184.0","task_version":"battery-v0.2-trt"},{"rune":"L","rune_set":"bacs2","hex":"#f73b6a7A","correct":-1,"choice":-1,"rt":-1,"accuracy":1,"outcome":"-1","keys":[],"total_keys":0,"block":2,"trial":177,"stimulus":6,"robot":4,"valence":"lose","action":"no-go","sham":0,"trial_type":"pit-trial","trial_index":216,"time_elapsed":968379,"internal_node_id":"0.0-185.0","task_version":"battery-v0.2-trt"},{"rune":"P","rune_set":"bacs2","hex":"#f73b6a7A","correct":32,"choice":32,"rt":410.840000025928,"accuracy":1,"outcome":"-1","keys":[1911.0100000398234],"total_keys":1,"block":2,"trial":178,"stimulus":5,"robot":3,"valence":"lose","action":"go","sham":0,"trial_type":"pit-trial","trial_index":217,"time_elapsed":971495,"internal_node_id":"0.0-186.0","task_version":"battery-v0.2-trt"},{"rune":"S","rune_set":"bacs2","hex":"#3366ff99","correct":-1,"choice":-1,"rt":-1,"accuracy":1,"outcome":"+10","keys":[],"total_keys":0,"block":2,"trial":179,"stimulus":7,"robot":2,"valence":"win","action":"no-go","sham":0,"trial_type":"pit-trial","trial_index":218,"time_elapsed":975500,"internal_node_id":"0.0-187.0","task_version":"battery-v0.2-trt"},{"rune":"R","rune_set":"bacs2","hex":"#3366ff99","correct":32,"choice":32,"rt":490.10999989695847,"accuracy":1,"outcome":"+10","keys":[1990.4800000367686],"total_keys":1,"block":2,"trial":180,"stimulus":4,"robot":1,"valence":"win","action":"go","sham":0,"trial_type":"pit-trial","trial_index":219,"time_elapsed":978694,"internal_node_id":"0.0-188.0","task_version":"battery-v0.2-trt"},{"rune":"S","rune_set":"bacs2","hex":"#3366ff99","correct":-1,"choice":-1,"rt":-1,"accuracy":1,"outcome":"+10","keys":[],"total_keys":0,"block":2,"trial":181,"stimulus":7,"robot":2,"valence":"win","action":"no-go","sham":0,"trial_type":"pit-trial","trial_index":220,"time_elapsed":982696,"internal_node_id":"0.0-189.0","task_version":"battery-v0.2-trt"},{"rune":"R","rune_set":"bacs2","hex":"#3366ff99","correct":32,"choice":32,"rt":470.60499992221594,"accuracy":1,"outcome":"+10","keys":[1971.4249999960884],"total_keys":1,"block":2,"trial":182,"stimulus":4,"robot":1,"valence":"win","action":"go","sham":0,"trial_type":"pit-trial","trial_index":221,"time_elapsed":985871,"internal_node_id":"0.0-190.0","task_version":"battery-v0.2-trt"},{"rune":"L","rune_set":"bacs2","hex":"#f73b6a7A","correct":-1,"choice":-1,"rt":-1,"accuracy":1,"outcome":"-1","keys":[],"total_keys":0,"block":2,"trial":183,"stimulus":6,"robot":4,"valence":"lose","action":"no-go","sham":0,"trial_type":"pit-trial","trial_index":222,"time_elapsed":989877,"internal_node_id":"0.0-191.0","task_version":"battery-v0.2-trt"},{"rune":"P","rune_set":"bacs2","hex":"#f73b6a7A","correct":32,"choice":32,"rt":992.8150000050664,"accuracy":1,"outcome":"-1","keys":[2492.8950000321493],"total_keys":1,"block":2,"trial":184,"stimulus":5,"robot":3,"valence":"lose","action":"go","sham":0,"trial_type":"pit-trial","trial_index":223,"time_elapsed":993574,"internal_node_id":"0.0-192.0","task_version":"battery-v0.2-trt"},{"rune":"L","rune_set":"bacs2","hex":"#f73b6a7A","correct":-1,"choice":-1,"rt":-1,"accuracy":1,"outcome":"-1","keys":[],"total_keys":0,"block":2,"trial":185,"stimulus":6,"robot":4,"valence":"lose","action":"no-go","sham":0,"trial_type":"pit-trial","trial_index":224,"time_elapsed":997580,"internal_node_id":"0.0-193.0","task_version":"battery-v0.2-trt"},{"rune":"R","rune_set":"bacs2","hex":"#3366ff99","correct":32,"choice":32,"rt":601.7449999926612,"accuracy":1,"outcome":"+1","keys":[2102.1050000563264],"total_keys":1,"block":2,"trial":186,"stimulus":4,"robot":1,"valence":"win","action":"go","sham":1,"trial_type":"pit-trial","trial_index":225,"time_elapsed":1000886,"internal_node_id":"0.0-194.0","task_version":"battery-v0.2-trt"},{"rune":"S","rune_set":"bacs2","hex":"#3366ff99","correct":-1,"choice":32,"rt":807.245000032708,"accuracy":0,"outcome":"+10","keys":[2307.8649999806657],"total_keys":1,"block":2,"trial":187,"stimulus":7,"robot":2,"valence":"win","action":"no-go","sham":1,"trial_type":"pit-trial","trial_index":226,"time_elapsed":1004399,"internal_node_id":"0.0-195.0","task_version":"battery-v0.2-trt"},{"rune":"P","rune_set":"bacs2","hex":"#f73b6a7A","correct":32,"choice":32,"rt":1150.565000018105,"accuracy":1,"outcome":"-1","keys":[2650.844999938272],"total_keys":1,"block":2,"trial":188,"stimulus":5,"robot":3,"valence":"lose","action":"go","sham":0,"trial_type":"pit-trial","trial_index":227,"time_elapsed":1008254,"internal_node_id":"0.0-196.0","task_version":"battery-v0.2-trt"},{"rune":"P","rune_set":"bacs2","hex":"#f73b6a7A","correct":32,"choice":-1,"rt":-1,"accuracy":0,"outcome":"-10","keys":[],"total_keys":0,"block":2,"trial":189,"stimulus":5,"robot":3,"valence":"lose","action":"go","sham":0,"trial_type":"pit-trial","trial_index":228,"time_elapsed":1012259,"internal_node_id":"0.0-197.0","task_version":"battery-v0.2-trt"},{"rune":"L","rune_set":"bacs2","hex":"#f73b6a7A","correct":-1,"choice":32,"rt":553.0649999855086,"accuracy":0,"outcome":"-10","keys":[2055.0500000827014],"total_keys":1,"block":2,"trial":190,"stimulus":6,"robot":4,"valence":"lose","action":"no-go","sham":0,"trial_type":"pit-trial","trial_index":229,"time_elapsed":1015518,"internal_node_id":"0.0-198.0","task_version":"battery-v0.2-trt"},{"rune":"R","rune_set":"bacs2","hex":"#3366ff99","correct":32,"choice":32,"rt":518.1549999397248,"accuracy":1,"outcome":"+1","keys":[2018.8449999550357],"total_keys":1,"block":2,"trial":191,"stimulus":4,"robot":1,"valence":"win","action":"go","sham":1,"trial_type":"pit-trial","trial_index":230,"time_elapsed":1018741,"internal_node_id":"0.0-199.0","task_version":"battery-v0.2-trt"},{"rune":"S","rune_set":"bacs2","hex":"#3366ff99","correct":-1,"choice":32,"rt":744.3149999016896,"accuracy":0,"outcome":"+1","keys":[2245.9100000560284],"total_keys":1,"block":2,"trial":192,"stimulus":7,"robot":2,"valence":"win","action":"no-go","sham":0,"trial_type":"pit-trial","trial_index":231,"time_elapsed":1022190,"internal_node_id":"0.0-200.0","task_version":"battery-v0.2-trt"},{"rune":"U","rune_set":"bacs2","hex":"#f73b6a7A","correct":32,"choice":-1,"rt":-1,"accuracy":0,"outcome":"-1","keys":[3013.154999935068],"total_keys":1,"block":2,"trial":193,"stimulus":8,"robot":3,"valence":"lose","action":"go","sham":1,"trial_type":"pit-trial","trial_index":232,"time_elapsed":1026194,"internal_node_id":"0.0-201.0","task_version":"battery-v0.2-trt"},{"rune":"S","rune_set":"bacs2","hex":"#3366ff99","correct":-1,"choice":32,"rt":1056.9799999939278,"accuracy":0,"outcome":"+10","keys":[2558.9400000171736],"total_keys":1,"block":2,"trial":194,"stimulus":7,"robot":2,"valence":"win","action":"no-go","sham":1,"trial_type":"pit-trial","trial_index":233,"time_elapsed":1029958,"internal_node_id":"0.0-202.0","task_version":"battery-v0.2-trt"},{"rune":"L","rune_set":"bacs2","hex":"#f73b6a7A","correct":-1,"choice":32,"rt":974.0000000456348,"accuracy":0,"outcome":"-1","keys":[2475.6449999986216],"total_keys":1,"block":2,"trial":195,"stimulus":6,"robot":4,"valence":"lose","action":"no-go","sham":1,"trial_type":"pit-trial","trial_index":234,"time_elapsed":1033638,"internal_node_id":"0.0-203.0","task_version":"battery-v0.2-trt"},{"rune":"R","rune_set":"bacs2","hex":"#3366ff99","correct":32,"choice":32,"rt":853.8149999221787,"accuracy":1,"outcome":"+10","keys":[2355.630000005476],"total_keys":1,"block":2,"trial":196,"stimulus":4,"robot":1,"valence":"win","action":"go","sham":0,"trial_type":"pit-trial","trial_index":235,"time_elapsed":1037198,"internal_node_id":"0.0-204.0","task_version":"battery-v0.2-trt"},{"rune":"S","rune_set":"bacs2","hex":"#3366ff99","correct":-1,"choice":32,"rt":1237.3849999858066,"accuracy":0,"outcome":"+1","keys":[2738.63000003621],"total_keys":1,"block":2,"trial":197,"stimulus":7,"robot":2,"valence":"win","action":"no-go","sham":0,"trial_type":"pit-trial","trial_index":236,"time_elapsed":1041141,"internal_node_id":"0.0-205.0","task_version":"battery-v0.2-trt"},{"rune":"U","rune_set":"bacs2","hex":"#f73b6a7A","correct":32,"choice":-1,"rt":-1,"accuracy":0,"outcome":"-10","keys":[],"total_keys":0,"block":2,"trial":198,"stimulus":8,"robot":3,"valence":"lose","action":"go","sham":0,"trial_type":"pit-trial","trial_index":237,"time_elapsed":1045146,"internal_node_id":"0.0-206.0","task_version":"battery-v0.2-trt"},{"rune":"L","rune_set":"bacs2","hex":"#f73b6a7A","correct":-1,"choice":-1,"rt":-1,"accuracy":1,"outcome":"-1","keys":[],"total_keys":0,"block":2,"trial":199,"stimulus":6,"robot":4,"valence":"lose","action":"no-go","sham":0,"trial_type":"pit-trial","trial_index":238,"time_elapsed":1049152,"internal_node_id":"0.0-207.0","task_version":"battery-v0.2-trt"},{"rune":"R","rune_set":"bacs2","hex":"#3366ff99","correct":32,"choice":-1,"rt":-1,"accuracy":0,"outcome":"+1","keys":[],"total_keys":0,"block":2,"trial":200,"stimulus":4,"robot":1,"valence":"win","action":"go","sham":0,"trial_type":"pit-trial","trial_index":239,"time_elapsed":1053156,"internal_node_id":"0.0-208.0","task_version":"battery-v0.2-trt"},{"rune":"L","rune_set":"bacs2","hex":"#f73b6a7A","correct":-1,"choice":-1,"rt":-1,"accuracy":1,"outcome":"-1","keys":[],"total_keys":0,"block":2,"trial":201,"stimulus":6,"robot":4,"valence":"lose","action":"no-go","sham":0,"trial_type":"pit-trial","trial_index":240,"time_elapsed":1057161,"internal_node_id":"0.0-209.0","task_version":"battery-v0.2-trt"},{"rune":"A","rune_set":"bacs2","hex":"#f73b6a7A","correct":32,"choice":-1,"rt":-1,"accuracy":0,"outcome":"-10","keys":[],"total_keys":0,"block":2,"trial":202,"stimulus":9,"robot":3,"valence":"lose","action":"go","sham":0,"trial_type":"pit-trial","trial_index":241,"time_elapsed":1061167,"internal_node_id":"0.0-210.0","task_version":"battery-v0.2-trt"},{"rune":"U","rune_set":"bacs2","hex":"#f73b6a7A","correct":32,"choice":-1,"rt":-1,"accuracy":0,"outcome":"-10","keys":[],"total_keys":0,"block":2,"trial":203,"stimulus":8,"robot":3,"valence":"lose","action":"go","sham":0,"trial_type":"pit-trial","trial_index":242,"time_elapsed":1065172,"internal_node_id":"0.0-211.0","task_version":"battery-v0.2-trt"},{"rune":"S","rune_set":"bacs2","hex":"#3366ff99","correct":-1,"choice":32,"rt":1176.3499999651685,"accuracy":0,"outcome":"+10","keys":[2677.224999992177],"total_keys":1,"block":2,"trial":204,"stimulus":7,"robot":2,"valence":"win","action":"no-go","sham":1,"trial_type":"pit-trial","trial_index":243,"time_elapsed":1069054,"internal_node_id":"0.0-212.0","task_version":"battery-v0.2-trt"},{"rune":"A","rune_set":"bacs2","hex":"#f73b6a7A","correct":32,"choice":-1,"rt":-1,"accuracy":0,"outcome":"-10","keys":[],"total_keys":0,"block":2,"trial":205,"stimulus":9,"robot":3,"valence":"lose","action":"go","sham":0,"trial_type":"pit-trial","trial_index":244,"time_elapsed":1073059,"internal_node_id":"0.0-213.0","task_version":"battery-v0.2-trt"},{"rune":"L","rune_set":"bacs2","hex":"#f73b6a7A","correct":-1,"choice":-1,"rt":-1,"accuracy":1,"outcome":"-1","keys":[],"total_keys":0,"block":2,"trial":206,"stimulus":6,"robot":4,"valence":"lose","action":"no-go","sham":0,"trial_type":"pit-trial","trial_index":245,"time_elapsed":1077064,"internal_node_id":"0.0-214.0","task_version":"battery-v0.2-trt"},{"rune":"S","rune_set":"bacs2","hex":"#3366ff99","correct":-1,"choice":32,"rt":1052.559999981895,"accuracy":0,"outcome":"+10","keys":[2553.6550000542775],"total_keys":1,"block":2,"trial":207,"stimulus":7,"robot":2,"valence":"win","action":"no-go","sham":1,"trial_type":"pit-trial","trial_index":246,"time_elapsed":1080822,"internal_node_id":"0.0-215.0","task_version":"battery-v0.2-trt"},{"rune":"U","rune_set":"bacs2","hex":"#f73b6a7A","correct":32,"choice":-1,"rt":-1,"accuracy":0,"outcome":"-10","keys":[],"total_keys":0,"block":2,"trial":208,"stimulus":8,"robot":3,"valence":"lose","action":"go","sham":0,"trial_type":"pit-trial","trial_index":247,"time_elapsed":1084828,"internal_node_id":"0.0-216.0","task_version":"battery-v0.2-trt"},{"rune":"A","rune_set":"bacs2","hex":"#f73b6a7A","correct":32,"choice":-1,"rt":-1,"accuracy":0,"outcome":"-10","keys":[],"total_keys":0,"block":2,"trial":209,"stimulus":9,"robot":3,"valence":"lose","action":"go","sham":0,"trial_type":"pit-trial","trial_index":248,"time_elapsed":1088833,"internal_node_id":"0.0-217.0","task_version":"battery-v0.2-trt"},{"rune":"F","rune_set":"bacs2","hex":"#f73b6a7A","correct":-1,"choice":32,"rt":531.2649999978021,"accuracy":0,"outcome":"-10","keys":[2032.9149999888614],"total_keys":1,"block":2,"trial":210,"stimulus":10,"robot":4,"valence":"lose","action":"no-go","sham":0,"trial_type":"pit-trial","trial_index":249,"time_elapsed":1092070,"internal_node_id":"0.0-218.0","task_version":"battery-v0.2-trt"},{"rune":"N","rune_set":"bacs2","hex":"#3366ff99","correct":-1,"choice":32,"rt":478.1199999852106,"accuracy":0,"outcome":"+1","keys":[1979.4599999440834],"total_keys":1,"block":2,"trial":211,"stimulus":11,"robot":2,"valence":"win","action":"no-go","sham":0,"trial_type":"pit-trial","trial_index":250,"time_elapsed":1095254,"internal_node_id":"0.0-219.0","task_version":"battery-v0.2-trt"},{"rune":"U","rune_set":"bacs2","hex":"#f73b6a7A","correct":32,"choice":-1,"rt":-1,"accuracy":0,"outcome":"-10","keys":[],"total_keys":0,"block":2,"trial":212,"stimulus":8,"robot":3,"valence":"lose","action":"go","sham":0,"trial_type":"pit-trial","trial_index":251,"time_elapsed":1099259,"internal_node_id":"0.0-220.0","task_version":"battery-v0.2-trt"},{"rune":"N","rune_set":"bacs2","hex":"#3366ff99","correct":-1,"choice":32,"rt":473.740000044927,"accuracy":0,"outcome":"+10","keys":[1974.8499999986961],"total_keys":1,"block":2,"trial":213,"stimulus":11,"robot":2,"valence":"win","action":"no-go","sham":1,"trial_type":"pit-trial","trial_index":252,"time_elapsed":1102439,"internal_node_id":"0.0-221.0","task_version":"battery-v0.2-trt"},{"rune":"F","rune_set":"bacs2","hex":"#f73b6a7A","correct":-1,"choice":32,"rt":911.4149999804795,"accuracy":0,"outcome":"-10","keys":[2411.619999911636],"total_keys":1,"block":2,"trial":214,"stimulus":10,"robot":4,"valence":"lose","action":"no-go","sham":0,"trial_type":"pit-trial","trial_index":253,"time_elapsed":1106054,"internal_node_id":"0.0-222.0","task_version":"battery-v0.2-trt"},{"rune":"U","rune_set":"bacs2","hex":"#f73b6a7A","correct":32,"choice":-1,"rt":-1,"accuracy":0,"outcome":"-1","keys":[],"total_keys":0,"block":2,"trial":215,"stimulus":8,"robot":3,"valence":"lose","action":"go","sham":1,"trial_type":"pit-trial","trial_index":254,"time_elapsed":1110059,"internal_node_id":"0.0-223.0","task_version":"battery-v0.2-trt"},{"rune":"A","rune_set":"bacs2","hex":"#f73b6a7A","correct":32,"choice":32,"rt":601.8149999435991,"accuracy":1,"outcome":"-1","keys":[2102.919999975711],"total_keys":1,"block":2,"trial":216,"stimulus":9,"robot":3,"valence":"lose","action":"go","sham":0,"trial_type":"pit-trial","trial_index":255,"time_elapsed":1113366,"internal_node_id":"0.0-224.0","task_version":"battery-v0.2-trt"},{"rune":"A","rune_set":"bacs2","hex":"#f73b6a7A","correct":32,"choice":-1,"rt":-1,"accuracy":0,"outcome":"-1","keys":[3387.8549999790266],"total_keys":1,"block":2,"trial":217,"stimulus":9,"robot":3,"valence":"lose","action":"go","sham":1,"trial_type":"pit-trial","trial_index":256,"time_elapsed":1117374,"internal_node_id":"0.0-225.0","task_version":"battery-v0.2-trt"},{"rune":"N","rune_set":"bacs2","hex":"#3366ff99","correct":-1,"choice":32,"rt":398.1299999868497,"accuracy":0,"outcome":"+1","keys":[1899.184999987483],"total_keys":1,"block":2,"trial":218,"stimulus":11,"robot":2,"valence":"win","action":"no-go","sham":0,"trial_type":"pit-trial","trial_index":257,"time_elapsed":1120477,"internal_node_id":"0.0-226.0","task_version":"battery-v0.2-trt"},{"rune":"U","rune_set":"bacs2","hex":"#f73b6a7A","correct":32,"choice":32,"rt":706.0300000011921,"accuracy":1,"outcome":"-10","keys":[2206.5500000026077],"total_keys":1,"block":2,"trial":219,"stimulus":8,"robot":3,"valence":"lose","action":"go","sham":1,"trial_type":"pit-trial","trial_index":258,"time_elapsed":1123886,"internal_node_id":"0.0-227.0","task_version":"battery-v0.2-trt"},{"rune":"F","rune_set":"bacs2","hex":"#f73b6a7A","correct":-1,"choice":32,"rt":711.185000021942,"accuracy":0,"outcome":"-10","keys":[2211.4299999084324],"total_keys":1,"block":2,"trial":220,"stimulus":10,"robot":4,"valence":"lose","action":"no-go","sham":0,"trial_type":"pit-trial","trial_index":259,"time_elapsed":1127303,"internal_node_id":"0.0-228.0","task_version":"battery-v0.2-trt"},{"rune":"A","rune_set":"bacs2","hex":"#f73b6a7A","correct":32,"choice":32,"rt":300.80500000622123,"accuracy":1,"outcome":"-1","keys":[1802.1650000009686],"total_keys":1,"block":2,"trial":221,"stimulus":9,"robot":3,"valence":"lose","action":"go","sham":0,"trial_type":"pit-trial","trial_index":260,"time_elapsed":1130309,"internal_node_id":"0.0-229.0","task_version":"battery-v0.2-trt"},{"rune":"F","rune_set":"bacs2","hex":"#f73b6a7A","correct":-1,"choice":32,"rt":958.8049999438226,"accuracy":0,"outcome":"-10","keys":[2460.4449999751523],"total_keys":1,"block":2,"trial":222,"stimulus":10,"robot":4,"valence":"lose","action":"no-go","sham":0,"trial_type":"pit-trial","trial_index":261,"time_elapsed":1133974,"internal_node_id":"0.0-230.0","task_version":"battery-v0.2-trt"},{"rune":"U","rune_set":"bacs2","hex":"#f73b6a7A","correct":32,"choice":32,"rt":967.2400000272319,"accuracy":1,"outcome":"-1","keys":[2467.449999996461],"total_keys":1,"block":2,"trial":223,"stimulus":8,"robot":3,"valence":"lose","action":"go","sham":0,"trial_type":"pit-trial","trial_index":262,"time_elapsed":1137646,"internal_node_id":"0.0-231.0","task_version":"battery-v0.2-trt"},{"rune":"N","rune_set":"bacs2","hex":"#3366ff99","correct":-1,"choice":32,"rt":541.0099999280646,"accuracy":0,"outcome":"+10","keys":[2043.0700000142679],"total_keys":1,"block":2,"trial":224,"stimulus":11,"robot":2,"valence":"win","action":"no-go","sham":1,"trial_type":"pit-trial","trial_index":263,"time_elapsed":1140894,"internal_node_id":"0.0-232.0","task_version":"battery-v0.2-trt"},{"rune":"F","rune_set":"bacs2","hex":"#f73b6a7A","correct":-1,"choice":32,"rt":373.4199999598786,"accuracy":0,"outcome":"-10","keys":[1874.4400000432506],"total_keys":1,"block":2,"trial":225,"stimulus":10,"robot":4,"valence":"lose","action":"no-go","sham":0,"trial_type":"pit-trial","trial_index":264,"time_elapsed":1143974,"internal_node_id":"0.0-233.0","task_version":"battery-v0.2-trt"},{"rune":"U","rune_set":"bacs2","hex":"#f73b6a7A","correct":32,"choice":-1,"rt":-1,"accuracy":0,"outcome":"-10","keys":[],"total_keys":0,"block":2,"trial":226,"stimulus":8,"robot":3,"valence":"lose","action":"go","sham":0,"trial_type":"pit-trial","trial_index":265,"time_elapsed":1147979,"internal_node_id":"0.0-234.0","task_version":"battery-v0.2-trt"},{"rune":"N","rune_set":"bacs2","hex":"#3366ff99","correct":-1,"choice":32,"rt":183.97000001277775,"accuracy":0,"outcome":"+1","keys":[1685.8299999730662],"total_keys":1,"block":2,"trial":227,"stimulus":11,"robot":2,"valence":"win","action":"no-go","sham":0,"trial_type":"pit-trial","trial_index":266,"time_elapsed":1150870,"internal_node_id":"0.0-235.0","task_version":"battery-v0.2-trt"},{"rune":"A","rune_set":"bacs2","hex":"#f73b6a7A","correct":32,"choice":32,"rt":798.490000073798,"accuracy":1,"outcome":"-1","keys":[2299.4999999646097],"total_keys":1,"block":2,"trial":228,"stimulus":9,"robot":3,"valence":"lose","action":"go","sham":0,"trial_type":"pit-trial","trial_index":267,"time_elapsed":1154374,"internal_node_id":"0.0-236.0","task_version":"battery-v0.2-trt"},{"rune":"N","rune_set":"bacs2","hex":"#3366ff99","correct":-1,"choice":32,"rt":190.53500005975366,"accuracy":0,"outcome":"+1","keys":[1691.4349999278784],"total_keys":1,"block":2,"trial":229,"stimulus":11,"robot":2,"valence":"win","action":"no-go","sham":0,"trial_type":"pit-trial","trial_index":268,"time_elapsed":1157269,"internal_node_id":"0.0-237.0","task_version":"battery-v0.2-trt"},{"rune":"U","rune_set":"bacs2","hex":"#f73b6a7A","correct":32,"choice":32,"rt":855.2999999374151,"accuracy":1,"outcome":"-10","keys":[1340.0499999988824,2356.114999973215],"total_keys":2,"block":2,"trial":230,"stimulus":8,"robot":3,"valence":"lose","action":"go","sham":1,"trial_type":"pit-trial","trial_index":269,"time_elapsed":1160829,"internal_node_id":"0.0-238.0","task_version":"battery-v0.2-trt"},{"rune":"A","rune_set":"bacs2","hex":"#f73b6a7A","correct":32,"choice":32,"rt":213.9099999330938,"accuracy":1,"outcome":"-10","keys":[1716.0500000463799],"total_keys":1,"block":2,"trial":231,"stimulus":9,"robot":3,"valence":"lose","action":"go","sham":1,"trial_type":"pit-trial","trial_index":270,"time_elapsed":1163749,"internal_node_id":"0.0-239.0","task_version":"battery-v0.2-trt"},{"rune":"F","rune_set":"bacs2","hex":"#f73b6a7A","correct":-1,"choice":-1,"rt":-1,"accuracy":1,"outcome":"-10","keys":[],"total_keys":0,"block":2,"trial":232,"stimulus":10,"robot":4,"valence":"lose","action":"no-go","sham":1,"trial_type":"pit-trial","trial_index":271,"time_elapsed":1167752,"internal_node_id":"0.0-240.0","task_version":"battery-v0.2-trt"},{"rune":"N","rune_set":"bacs2","hex":"#3366ff99","correct":-1,"choice":-1,"rt":-1,"accuracy":1,"outcome":"+10","keys":[3002.6749999960884],"total_keys":1,"block":2,"trial":233,"stimulus":11,"robot":2,"valence":"win","action":"no-go","sham":0,"trial_type":"pit-trial","trial_index":272,"time_elapsed":1171755,"internal_no