[{"view_history":"[{\"page_index\":0,\"viewing_time\":4834.365000016987}]","rt":4835.1849999744445,"trial_type":"instructions","trial_index":0,"time_elapsed":4844,"internal_node_id":"0.0-0.0","task_version":"battery-v0.2-trt"},{"slider_type":"valence","raw_loc":693,"loc":0.886,"trial_type":"affective-slider","trial_index":1,"time_elapsed":14435,"internal_node_id":"0.0-1.0","task_version":"battery-v0.2-trt"},{"responses":{"Q03":"1","Q07":"0","Q02":"0","Q08":"0","Q04":"1","Q01":"1","Q05":"0","Q06":"1"},"rt":47768.68000021204,"item_order":[2,6,1,7,3,0,4,5],"radio_events":[6707.525000208989,8847.950000083074,10977.570000104606,12835.369999986142,14724.430000176653,18748.22499998845,20702.875000191852,22234.125000191852],"key_events":[],"mouse_events":[6707.525000208989,8847.950000083074,10977.570000104606,12835.369999986142,14724.430000176653,18748.22499998845,20702.875000191852,22234.125000191852,47766.99500018731],"straightlining":0.5,"zigzagging":0.5714285714285714,"survey":"gad7","trial_type":"survey-template","trial_index":2,"time_elapsed":62210,"internal_node_id":"0.0-2.0","task_version":"battery-v0.2-trt","infrequency":0},{"responses":{"Q01":"0","Q07":"0","Q06":"0","Q04":"1","Q02":"0","Q05":"0","Q03":"0","Q08":"3"},"rt":32541.549999965355,"item_order":[0,6,5,3,1,4,2,7],"radio_events":[11230.615000007674,14324.104999890551,14877.744999947026,18103.589999955148,21233.59499988146,23825.419999891892,25540.31000006944,31296.289999969304],"key_events":[],"mouse_events":[10308.43500001356,11230.615000007674,13066.20500003919,14324.104999890551,14877.744999947026,18103.589999955148,21233.59499988146,23825.419999891892,25540.31000006944,31296.289999969304,32539.385000010952],"straightlining":0.75,"zigzagging":0.42857142857142855,"survey":"dass_d","trial_type":"survey-template","trial_index":3,"time_elapsed":94764,"internal_node_id":"0.0-3.0","task_version":"battery-v0.2-trt","infrequency":0.5},{"responses":{"Q06":"3","Q01":"2","Q12":"3","Q02":"1","Q04":"3","Q03":"1","Q10":"3","Q05":"3","Q11":"2","Q09":"3","Q07":"3","Q08":"2","Q13":"0"},"rt":90085.59499983676,"item_order":[5,0,11,1,3,2,9,4,10,8,6,7,12],"radio_events":[6205.254999920726,10420.854999916628,15355.279999785125,20667.21999994479,27492.639999836683,37171.13999999128,40630.84499980323,44338.44999992289,47929.20499993488,50280.139999929816,52428.429999854416,58100.219999905676,63174.35499979183],"key_events":[],"mouse_events":[6205.254999920726,10420.854999916628,15355.279999785125,20667.21999994479,27492.639999836683,37171.13999999128,40630.84499980323,44338.44999992289,47929.20499993488,50280.139999929816,52428.429999854416,58100.219999905676,63174.35499979183,90083.07499997318],"straightlining":0.5384615384615384,"zigzagging":0.4166666666666667,"survey":"bisbas","trial_type":"survey-template","trial_index":4,"time_elapsed":184860,"internal_node_id":"0.0-4.0","task_version":"battery-v0.2-trt","infrequency":0},{"value":[0.5,1.7884615384615383,1.4166666666666667],"trial_type":"call-function","trial_index":5,"time_elapsed":184865,"internal_node_id":"0.0-5.0","task_version":"battery-v0.2-trt"},{"view_history":"[{\"page_index\":0,\"viewing_time\":111357.3950000573},{\"page_index\":1,\"viewing_time\":4161.8149999994785},{\"page_index\":2,\"viewing_time\":8130.839999997988},{\"page_index\":3,\"viewing_time\":6813.829999882728},{\"page_index\":4,\"viewing_time\":7927.3449999745935},{\"page_index\":5,\"viewing_time\":5325.5700001027435},{\"page_index\":6,\"viewing_time\":7465.009999927133},{\"page_index\":7,\"viewing_time\":20002.09999992512},{\"page_index\":8,\"viewing_time\":9762.240000069141},{\"page_index\":9,\"viewing_time\":6164.959999965504}]","rt":187111.79500003345,"trial_type":"pit-instructions","trial_index":6,"time_elapsed":371981,"internal_node_id":"0.0-6.0-0.0","task_version":"battery-v0.2-trt"},{"rune":"1","rune_set":"elianto","hex":"#3366ff99","correct":32,"choice":-1,"rt":-1,"accuracy":0,"outcome":"+1","keys":[2805.6099999230355],"total_keys":1,"block":0,"practice":1,"trial_type":"pit-trial","trial_index":7,"time_elapsed":375992,"internal_node_id":"0.0-6.0-1.0-0.0","task_version":"battery-v0.2-trt"},{"rune":"1","rune_set":"elianto","hex":"#3366ff99","correct":32,"choice":-1,"rt":-1,"accuracy":0,"outcome":"+1","keys":[],"total_keys":0,"block":0,"practice":1,"trial_type":"pit-trial","trial_index":8,"time_elapsed":380001,"internal_node_id":"0.0-6.0-1.1-0.1","task_version":"battery-v0.2-trt"},{"rune":"1","rune_set":"elianto","hex":"#3366ff99","correct":32,"choice":32,"rt":718.5450000688434,"accuracy":1,"outcome":"+10","keys":[2219.38499994576],"total_keys":1,"block":0,"practice":1,"trial_type":"pit-trial","trial_index":9,"time_elapsed":383435,"internal_node_id":"0.0-6.0-1.2-0.2","task_version":"battery-v0.2-trt"},{"rune":"1","rune_set":"elianto","hex":"#3366ff99","correct":32,"choice":32,"rt":621.2750000413507,"accuracy":1,"outcome":"+10","keys":[2122.1749999094754],"total_keys":1,"block":0,"practice":1,"trial_type":"pit-trial","trial_index":10,"time_elapsed":386778,"internal_node_id":"0.0-6.0-1.3-0.3","task_version":"battery-v0.2-trt"},{"rune":"1","rune_set":"elianto","hex":"#3366ff99","correct":32,"choice":32,"rt":862.3449997976422,"accuracy":1,"outcome":"+10","keys":[2362.554999999702],"total_keys":1,"block":0,"practice":1,"trial_type":"pit-trial","trial_index":11,"time_elapsed":390354,"internal_node_id":"0.0-6.0-1.4-0.4","task_version":"battery-v0.2-trt"},{"trial_type":"call-function","trial_index":12,"time_elapsed":390365,"internal_node_id":"0.0-6.0-2.0","task_version":"battery-v0.2-trt"},{"view_history":"[{\"page_index\":0,\"viewing_time\":9676.725000143051},{\"page_index\":1,\"viewing_time\":1749.9549998901784}]","rt":11427.374999970198,"trial_type":"pit-instructions","trial_index":13,"time_elapsed":401793,"internal_node_id":"0.0-6.0-3.0","task_version":"battery-v0.2-trt"},{"rune":"2","rune_set":"elianto","hex":"#3366ff99","correct":-1,"choice":32,"rt":966.0950000397861,"accuracy":0,"outcome":"+1","keys":[2466.48499998264],"total_keys":1,"block":0,"practice":2,"trial_type":"pit-trial","trial_index":14,"time_elapsed":405469,"internal_node_id":"0.0-6.0-4.0-0.0","task_version":"battery-v0.2-trt"},{"rune":"2","rune_set":"elianto","hex":"#3366ff99","correct":-1,"choice":32,"rt":698.1250001117587,"accuracy":0,"outcome":"+1","keys":[2200.345000019297],"total_keys":1,"block":0,"practice":2,"trial_type":"pit-trial","trial_index":15,"time_elapsed":408884,"internal_node_id":"0.0-6.0-4.1-0.1","task_version":"battery-v0.2-trt"},{"rune":"2","rune_set":"elianto","hex":"#3366ff99","correct":-1,"choice":-1,"rt":-1,"accuracy":1,"outcome":"+10","keys":[],"total_keys":0,"block":0,"practice":2,"trial_type":"pit-trial","trial_index":16,"time_elapsed":412899,"internal_node_id":"0.0-6.0-4.2-0.2","task_version":"battery-v0.2-trt"},{"rune":"2","rune_set":"elianto","hex":"#3366ff99","correct":-1,"choice":-1,"rt":-1,"accuracy":1,"outcome":"+10","keys":[],"total_keys":0,"block":0,"practice":2,"trial_type":"pit-trial","trial_index":17,"time_elapsed":416912,"internal_node_id":"0.0-6.0-4.3-0.3","task_version":"battery-v0.2-trt"},{"rune":"2","rune_set":"elianto","hex":"#3366ff99","correct":-1,"choice":-1,"rt":-1,"accuracy":1,"outcome":"+10","keys":[],"total_keys":0,"block":0,"practice":2,"trial_type":"pit-trial","trial_index":18,"time_elapsed":420928,"internal_node_id":"0.0-6.0-4.4-0.4","task_version":"battery-v0.2-trt"},{"trial_type":"call-function","trial_index":19,"time_elapsed":420939,"internal_node_id":"0.0-6.0-5.0","task_version":"battery-v0.2-trt"},{"view_history":"[{\"page_index\":0,\"viewing_time\":9336.535000009462},{\"page_index\":1,\"viewing_time\":7137.060000095516}]","rt":16476.03500005789,"trial_type":"pit-instructions","trial_index":20,"time_elapsed":437416,"internal_node_id":"0.0-6.0-6.0","task_version":"battery-v0.2-trt"},{"rune":"3","rune_set":"elianto","hex":"#f73b6a7A","correct":-1,"choice":32,"rt":882.5149999465793,"accuracy":0,"outcome":"-10","keys":[2383.21499992162],"total_keys":1,"block":0,"practice":3,"trial_type":"pit-trial","trial_index":21,"time_elapsed":441007,"internal_node_id":"0.0-6.0-7.0-0.0","task_version":"battery-v0.2-trt"},{"rune":"3","rune_set":"elianto","hex":"#f73b6a7A","correct":-1,"choice":-1,"rt":-1,"accuracy":1,"outcome":"-1","keys":[],"total_keys":0,"block":0,"practice":3,"trial_type":"pit-trial","trial_index":22,"time_elapsed":445021,"internal_node_id":"0.0-6.0-7.1-0.1","task_version":"battery-v0.2-trt"},{"rune":"3","rune_set":"elianto","hex":"#f73b6a7A","correct":-1,"choice":-1,"rt":-1,"accuracy":1,"outcome":"-1","keys":[],"total_keys":0,"block":0,"practice":3,"trial_type":"pit-trial","trial_index":23,"time_elapsed":449035,"internal_node_id":"0.0-6.0-7.2-0.2","task_version":"battery-v0.2-trt"},{"rune":"3","rune_set":"elianto","hex":"#f73b6a7A","correct":-1,"choice":-1,"rt":-1,"accuracy":1,"outcome":"-1","keys":[],"total_keys":0,"block":0,"practice":3,"trial_type":"pit-trial","trial_index":24,"time_elapsed":453050,"internal_node_id":"0.0-6.0-7.3-0.3","task_version":"battery-v0.2-trt"},{"trial_type":"call-function","trial_index":25,"time_elapsed":453061,"internal_node_id":"0.0-6.0-8.0","task_version":"battery-v0.2-trt"},{"view_history":"[{\"page_index\":0,\"viewing_time\":4101.664999965578},{\"page_index\":1,\"viewing_time\":2047.9749999940395}]","rt":6151.450000004843,"trial_type":"pit-instructions","trial_index":26,"time_elapsed":459213,"internal_node_id":"0.0-6.0-9.0","task_version":"battery-v0.2-trt"},{"rune":"4","rune_set":"elianto","hex":"#f73b6a7A","correct":32,"choice":32,"rt":410.2949998341501,"accuracy":1,"outcome":"-1","keys":[1910.7099999673665],"total_keys":1,"block":0,"practice":4,"trial_type":"pit-trial","trial_index":27,"time_elapsed":462335,"internal_node_id":"0.0-6.0-10.0-0.0","task_version":"battery-v0.2-trt"},{"rune":"4","rune_set":"elianto","hex":"#f73b6a7A","correct":32,"choice":32,"rt":276.66500001214445,"accuracy":1,"outcome":"-1","keys":[1776.8550000619143],"total_keys":1,"block":0,"practice":4,"trial_type":"pit-trial","trial_index":28,"time_elapsed":465325,"internal_node_id":"0.0-6.0-10.1-0.1","task_version":"battery-v0.2-trt"},{"rune":"4","rune_set":"elianto","hex":"#f73b6a7A","correct":32,"choice":32,"rt":189.7799998987466,"accuracy":1,"outcome":"-1","keys":[1689.930000109598],"total_keys":1,"block":0,"practice":4,"trial_type":"pit-trial","trial_index":29,"time_elapsed":468226,"internal_node_id":"0.0-6.0-10.2-0.2","task_version":"battery-v0.2-trt"},{"rune":"4","rune_set":"elianto","hex":"#f73b6a7A","correct":32,"choice":32,"rt":316.08000001870096,"accuracy":1,"outcome":"-1","keys":[1817.479999968782],"total_keys":1,"block":0,"practice":4,"trial_type":"pit-trial","trial_index":30,"time_elapsed":471257,"internal_node_id":"0.0-6.0-10.3-0.3","task_version":"battery-v0.2-trt"},{"trial_type":"call-function","trial_index":31,"time_elapsed":471268,"internal_node_id":"0.0-6.0-11.0","task_version":"battery-v0.2-trt"},{"view_history":"[{\"page_index\":0,\"viewing_time\":4409.549999982119},{\"page_index\":1,\"viewing_time\":5493.680000072345},{\"page_index\":2,\"viewing_time\":5852.824999950826},{\"page_index\":3,\"viewing_time\":4113.16499998793},{\"page_index\":4,\"viewing_time\":3333.9200001209974},{\"page_index\":5,\"viewing_time\":1750.779999885708}]","rt":24954.430000158027,"trial_type":"pit-instructions","trial_index":32,"time_elapsed":496223,"internal_node_id":"0.0-6.0-12.0","task_version":"battery-v0.2-trt"},{"responses":["Press SPACE","+10","-1","True","True"],"num_errors":0,"rt":23384.010000154376,"trial_type":"pit-comprehension","trial_index":33,"time_elapsed":519616,"internal_node_id":"0.0-6.0-13.0","task_version":"battery-v0.2-trt"},{"view_history":"[{\"page_index\":0,\"viewing_time\":3377.1000001579523},{\"page_index\":1,\"viewing_time\":8873.394999885932}]","rt":12251.200000056997,"trial_type":"pit-instructions","trial_index":34,"time_elapsed":531877,"internal_node_id":"0.0-7.0","task_version":"battery-v0.2-trt"},{"rune":"L","rune_set":"elianto","hex":"#f73b6a7A","correct":-1,"choice":32,"rt":533.4999999031425,"accuracy":0,"outcome":"-10","keys":[2033.8699999265373],"total_keys":1,"block":1,"trial":1,"stimulus":1,"robot":4,"valence":"lose","action":"no-go","sham":0,"trial_type":"pit-trial","trial_index":35,"time_elapsed":535124,"internal_node_id":"0.0-8.0","task_version":"battery-v0.2-trt"},{"rune":"G","rune_set":"elianto","hex":"#3366ff99","correct":-1,"choice":32,"rt":615.7199998851866,"accuracy":0,"outcome":"+1","keys":[2116.1950000096112],"total_keys":1,"block":1,"trial":2,"stimulus":3,"robot":2,"valence":"win","action":"no-go","sham":0,"trial_type":"pit-trial","trial_index":36,"time_elapsed":538453,"internal_node_id":"0.0-9.0","task_version":"battery-v0.2-trt"},{"rune":"A","rune_set":"elianto","hex":"#3366ff99","correct":32,"choice":32,"rt":610.8349999412894,"accuracy":1,"outcome":"+1","keys":[2111.2899999134243],"total_keys":1,"block":1,"trial":3,"stimulus":2,"robot":1,"valence":"win","action":"go","sham":1,"trial_type":"pit-trial","trial_index":37,"time_elapsed":541779,"internal_node_id":"0.0-10.0","task_version":"battery-v0.2-trt"},{"rune":"U","rune_set":"elianto","hex":"#f73b6a7A","correct":-1,"choice":32,"rt":486.26499995589256,"accuracy":0,"outcome":"-10","keys":[1987.2449999675155],"total_keys":1,"block":1,"trial":4,"stimulus":0,"robot":4,"valence":"lose","action":"no-go","sham":0,"trial_type":"pit-trial","trial_index":38,"time_elapsed":544979,"internal_node_id":"0.0-11.0","task_version":"battery-v0.2-trt"},{"rune":"A","rune_set":"elianto","hex":"#3366ff99","correct":32,"choice":32,"rt":520.1099999248981,"accuracy":1,"outcome":"+1","keys":[2020.5450002104044],"total_keys":1,"block":1,"trial":5,"stimulus":2,"robot":1,"valence":"win","action":"go","sham":1,"trial_type":"pit-trial","trial_index":39,"time_elapsed":548216,"internal_node_id":"0.0-12.0","task_version":"battery-v0.2-trt"},{"rune":"G","rune_set":"elianto","hex":"#3366ff99","correct":-1,"choice":32,"rt":528.9050000719726,"accuracy":0,"outcome":"+10","keys":[2030.4250000044703],"total_keys":1,"block":1,"trial":6,"stimulus":3,"robot":2,"valence":"win","action":"no-go","sham":1,"trial_type":"pit-trial","trial_index":40,"time_elapsed":551460,"internal_node_id":"0.0-13.0","task_version":"battery-v0.2-trt"},{"rune":"U","rune_set":"elianto","hex":"#f73b6a7A","correct":-1,"choice":-1,"rt":-1,"accuracy":1,"outcome":"-1","keys":[],"total_keys":0,"block":1,"trial":7,"stimulus":0,"robot":4,"valence":"lose","action":"no-go","sham":0,"trial_type":"pit-trial","trial_index":41,"time_elapsed":555475,"internal_node_id":"0.0-14.0","task_version":"battery-v0.2-trt"},{"rune":"L","rune_set":"elianto","hex":"#f73b6a7A","correct":-1,"choice":32,"rt":509.0899998322129,"accuracy":0,"outcome":"-10","keys":[2010.6050001922995],"total_keys":1,"block":1,"trial":8,"stimulus":1,"robot":4,"valence":"lose","action":"no-go","sham":0,"trial_type":"pit-trial","trial_index":42,"time_elapsed":558699,"internal_node_id":"0.0-15.0","task_version":"battery-v0.2-trt"},{"rune":"U","rune_set":"elianto","hex":"#f73b6a7A","correct":-1,"choice":32,"rt":651.3049998320639,"accuracy":0,"outcome":"-10","keys":[2151.509999996051],"total_keys":1,"block":1,"trial":9,"stimulus":0,"robot":4,"valence":"lose","action":"no-go","sham":0,"trial_type":"pit-trial","trial_index":43,"time_elapsed":562069,"internal_node_id":"0.0-16.0","task_version":"battery-v0.2-trt"},{"rune":"L","rune_set":"elianto","hex":"#f73b6a7A","correct":-1,"choice":32,"rt":683.0949999857694,"accuracy":0,"outcome":"-10","keys":[2183.8150001131],"total_keys":1,"block":1,"trial":10,"stimulus":1,"robot":4,"valence":"lose","action":"no-go","sham":0,"trial_type":"pit-trial","trial_index":44,"time_elapsed":565462,"internal_node_id":"0.0-17.0","task_version":"battery-v0.2-trt"},{"rune":"A","rune_set":"elianto","hex":"#3366ff99","correct":32,"choice":32,"rt":674.2849999573082,"accuracy":1,"outcome":"+10","keys":[2174.864999949932],"total_keys":1,"block":1,"trial":11,"stimulus":2,"robot":1,"valence":"win","action":"go","sham":0,"trial_type":"pit-trial","trial_index":45,"time_elapsed":568860,"internal_node_id":"0.0-18.0","task_version":"battery-v0.2-trt"},{"rune":"G","rune_set":"elianto","hex":"#3366ff99","correct":-1,"choice":32,"rt":401.14500001072884,"accuracy":0,"outcome":"+1","keys":[1901.4650001190603],"total_keys":1,"block":1,"trial":12,"stimulus":3,"robot":2,"valence":"win","action":"no-go","sham":0,"trial_type":"pit-trial","trial_index":46,"time_elapsed":571968,"internal_node_id":"0.0-19.0","task_version":"battery-v0.2-trt"},{"rune":"G","rune_set":"elianto","hex":"#3366ff99","correct":-1,"choice":-1,"rt":-1,"accuracy":1,"outcome":"+10","keys":[],"total_keys":0,"block":1,"trial":13,"stimulus":3,"robot":2,"valence":"win","action":"no-go","sham":0,"trial_type":"pit-trial","trial_index":47,"time_elapsed":575983,"internal_node_id":"0.0-20.0","task_version":"battery-v0.2-trt"},{"rune":"L","rune_set":"elianto","hex":"#f73b6a7A","correct":-1,"choice":32,"rt":801.3450000435114,"accuracy":0,"outcome":"-10","keys":[2302.1100000478327],"total_keys":1,"block":1,"trial":14,"stimulus":1,"robot":4,"valence":"lose","action":"no-go","sham":0,"trial_type":"pit-trial","trial_index":48,"time_elapsed":579499,"internal_node_id":"0.0-21.0","task_version":"battery-v0.2-trt"},{"rune":"U","rune_set":"elianto","hex":"#f73b6a7A","correct":-1,"choice":32,"rt":785.3399999439716,"accuracy":0,"outcome":"-10","keys":[2285.6850000098348],"total_keys":1,"block":1,"trial":15,"stimulus":0,"robot":4,"valence":"lose","action":"no-go","sham":0,"trial_type":"pit-trial","trial_index":49,"time_elapsed":582993,"internal_node_id":"0.0-22.0","task_version":"battery-v0.2-trt"},{"rune":"A","rune_set":"elianto","hex":"#3366ff99","correct":32,"choice":32,"rt":475.0899998471141,"accuracy":1,"outcome":"+10","keys":[1975.269999820739],"total_keys":1,"block":1,"trial":16,"stimulus":2,"robot":1,"valence":"win","action":"go","sham":0,"trial_type":"pit-trial","trial_index":50,"time_elapsed":586181,"internal_node_id":"0.0-23.0","task_version":"battery-v0.2-trt"},{"rune":"L","rune_set":"elianto","hex":"#f73b6a7A","correct":-1,"choice":-1,"rt":-1,"accuracy":1,"outcome":"-1","keys":[],"total_keys":0,"block":1,"trial":17,"stimulus":1,"robot":4,"valence":"lose","action":"no-go","sham":0,"trial_type":"pit-trial","trial_index":51,"time_elapsed":590205,"internal_node_id":"0.0-24.0","task_version":"battery-v0.2-trt"},{"rune":"G","rune_set":"elianto","hex":"#3366ff99","correct":-1,"choice":32,"rt":666.5199999697506,"accuracy":0,"outcome":"+1","keys":[2166.5849999990314],"total_keys":1,"block":1,"trial":18,"stimulus":3,"robot":2,"valence":"win","action":"no-go","sham":0,"trial_type":"pit-trial","trial_index":52,"time_elapsed":593585,"internal_node_id":"0.0-25.0","task_version":"battery-v0.2-trt"},{"rune":"U","rune_set":"elianto","hex":"#f73b6a7A","correct":-1,"choice":-1,"rt":-1,"accuracy":1,"outcome":"-10","keys":[],"total_keys":0,"block":1,"trial":19,"stimulus":0,"robot":4,"valence":"lose","action":"no-go","sham":1,"trial_type":"pit-trial","trial_index":53,"time_elapsed":597609,"internal_node_id":"0.0-26.0","task_version":"battery-v0.2-trt"},{"rune":"A","rune_set":"elianto","hex":"#3366ff99","correct":32,"choice":32,"rt":762.4900001101196,"accuracy":1,"outcome":"+10","keys":[2262.7950001042336],"total_keys":1,"block":1,"trial":20,"stimulus":2,"robot":1,"valence":"win","action":"go","sham":0,"trial_type":"pit-trial","trial_index":54,"time_elapsed":601086,"internal_node_id":"0.0-27.0","task_version":"battery-v0.2-trt"},{"rune":"G","rune_set":"elianto","hex":"#3366ff99","correct":-1,"choice":32,"rt":1016.414999961853,"accuracy":0,"outcome":"+1","keys":[2516.9850001111627],"total_keys":1,"block":1,"trial":21,"stimulus":3,"robot":2,"valence":"win","action":"no-go","sham":0,"trial_type":"pit-trial","trial_index":55,"time_elapsed":604816,"internal_node_id":"0.0-28.0","task_version":"battery-v0.2-trt"},{"rune":"U","rune_set":"elianto","hex":"#f73b6a7A","correct":-1,"choice":32,"rt":1170.3850000631064,"accuracy":0,"outcome":"-10","keys":[2671.5349999722093],"total_keys":1,"block":1,"trial":22,"stimulus":0,"robot":4,"valence":"lose","action":"no-go","sham":0,"trial_type":"pit-trial","trial_index":56,"time_elapsed":608702,"internal_node_id":"0.0-29.0","task_version":"battery-v0.2-trt"},{"rune":"L","rune_set":"elianto","hex":"#f73b6a7A","correct":-1,"choice":32,"rt":726.1749999597669,"accuracy":0,"outcome":"-10","keys":[2227.1600000094622],"total_keys":1,"block":1,"trial":23,"stimulus":1,"robot":4,"valence":"lose","action":"no-go","sham":0,"trial_type":"pit-trial","trial_index":57,"time_elapsed":612142,"internal_node_id":"0.0-30.0","task_version":"battery-v0.2-trt"},{"rune":"A","rune_set":"elianto","hex":"#3366ff99","correct":32,"choice":32,"rt":441.6199999395758,"accuracy":1,"outcome":"+10","keys":[1941.9050000142306],"total_keys":1,"block":1,"trial":24,"stimulus":2,"robot":1,"valence":"win","action":"go","sham":0,"trial_type":"pit-trial","trial_index":58,"time_elapsed":615298,"internal_node_id":"0.0-31.0","task_version":"battery-v0.2-trt"},{"rune":"G","rune_set":"elianto","hex":"#3366ff99","correct":-1,"choice":32,"rt":600.6100000813603,"accuracy":0,"outcome":"+1","keys":[2102.180000161752],"total_keys":1,"block":1,"trial":25,"stimulus":3,"robot":2,"valence":"win","action":"no-go","sham":0,"trial_type":"pit-trial","trial_index":59,"time_elapsed":618614,"internal_node_id":"0.0-32.0","task_version":"battery-v0.2-trt"},{"rune":"A","rune_set":"elianto","hex":"#3366ff99","correct":32,"choice":32,"rt":591.3050000090152,"accuracy":1,"outcome":"+10","keys":[2092.0299999415874],"total_keys":1,"block":1,"trial":26,"stimulus":2,"robot":1,"valence":"win","action":"go","sham":0,"trial_type":"pit-trial","trial_index":60,"time_elapsed":621918,"internal_node_id":"0.0-33.0","task_version":"battery-v0.2-trt"},{"rune":"U","rune_set":"elianto","hex":"#f73b6a7A","correct":-1,"choice":-1,"rt":-1,"accuracy":1,"outcome":"-1","keys":[],"total_keys":0,"block":1,"trial":27,"stimulus":0,"robot":4,"valence":"lose","action":"no-go","sham":0,"trial_type":"pit-trial","trial_index":61,"time_elapsed":625929,"internal_node_id":"0.0-34.0","task_version":"battery-v0.2-trt"},{"rune":"L","rune_set":"elianto","hex":"#f73b6a7A","correct":-1,"choice":-1,"rt":-1,"accuracy":1,"outcome":"-1","keys":[],"total_keys":0,"block":1,"trial":28,"stimulus":1,"robot":4,"valence":"lose","action":"no-go","sham":0,"trial_type":"pit-trial","trial_index":62,"time_elapsed":629943,"internal_node_id":"0.0-35.0","task_version":"battery-v0.2-trt"},{"rune":"A","rune_set":"elianto","hex":"#3366ff99","correct":32,"choice":32,"rt":562.6149999443442,"accuracy":1,"outcome":"+10","keys":[2063.0200000014156],"total_keys":1,"block":1,"trial":29,"stimulus":2,"robot":1,"valence":"win","action":"go","sham":0,"trial_type":"pit-trial","trial_index":63,"time_elapsed":633220,"internal_node_id":"0.0-36.0","task_version":"battery-v0.2-trt"},{"rune":"L","rune_set":"elianto","hex":"#f73b6a7A","correct":-1,"choice":-1,"rt":-1,"accuracy":1,"outcome":"-10","keys":[],"total_keys":0,"block":1,"trial":30,"stimulus":1,"robot":4,"valence":"lose","action":"no-go","sham":1,"trial_type":"pit-trial","trial_index":64,"time_elapsed":637234,"internal_node_id":"0.0-37.0","task_version":"battery-v0.2-trt"},{"rune":"G","rune_set":"elianto","hex":"#3366ff99","correct":-1,"choice":-1,"rt":-1,"accuracy":1,"outcome":"+10","keys":[],"total_keys":0,"block":1,"trial":31,"stimulus":3,"robot":2,"valence":"win","action":"no-go","sham":0,"trial_type":"pit-trial","trial_index":65,"time_elapsed":641249,"internal_node_id":"0.0-38.0","task_version":"battery-v0.2-trt"},{"rune":"U","rune_set":"elianto","hex":"#f73b6a7A","correct":-1,"choice":32,"rt":995.1850001234561,"accuracy":0,"outcome":"-10","keys":[2495.429999893531],"total_keys":1,"block":1,"trial":32,"stimulus":0,"robot":4,"valence":"lose","action":"no-go","sham":0,"trial_type":"pit-trial","trial_index":66,"time_elapsed":644959,"internal_node_id":"0.0-39.0","task_version":"battery-v0.2-trt"},{"rune":"A","rune_set":"elianto","hex":"#3366ff99","correct":32,"choice":32,"rt":488.6999998707324,"accuracy":1,"outcome":"+10","keys":[1988.9700000640005],"total_keys":1,"block":1,"trial":33,"stimulus":2,"robot":1,"valence":"win","action":"go","sham":0,"trial_type":"pit-trial","trial_index":67,"time_elapsed":648163,"internal_node_id":"0.0-40.0","task_version":"battery-v0.2-trt"},{"rune":"U","rune_set":"elianto","hex":"#f73b6a7A","correct":-1,"choice":-1,"rt":-1,"accuracy":1,"outcome":"-1","keys":[],"total_keys":0,"block":1,"trial":34,"stimulus":0,"robot":4,"valence":"lose","action":"no-go","sham":0,"trial_type":"pit-trial","trial_index":68,"time_elapsed":652177,"internal_node_id":"0.0-41.0","task_version":"battery-v0.2-trt"},{"rune":"P","rune_set":"elianto","hex":"#f73b6a7A","correct":32,"choice":32,"rt":923.735000193119,"accuracy":1,"outcome":"-1","keys":[2425.96000013873],"total_keys":1,"block":1,"trial":35,"stimulus":4,"robot":3,"valence":"lose","action":"go","sham":0,"trial_type":"pit-trial","trial_index":69,"time_elapsed":655818,"internal_node_id":"0.0-42.0","task_version":"battery-v0.2-trt"},{"rune":"G","rune_set":"elianto","hex":"#3366ff99","correct":-1,"choice":-1,"rt":-1,"accuracy":1,"outcome":"+10","keys":[],"total_keys":0,"block":1,"trial":36,"stimulus":3,"robot":2,"valence":"win","action":"no-go","sham":0,"trial_type":"pit-trial","trial_index":70,"time_elapsed":659831,"internal_node_id":"0.0-43.0","task_version":"battery-v0.2-trt"},{"rune":"G","rune_set":"elianto","hex":"#3366ff99","correct":-1,"choice":-1,"rt":-1,"accuracy":1,"outcome":"+10","keys":[],"total_keys":0,"block":1,"trial":37,"stimulus":3,"robot":2,"valence":"win","action":"no-go","sham":0,"trial_type":"pit-trial","trial_index":71,"time_elapsed":663848,"internal_node_id":"0.0-44.0","task_version":"battery-v0.2-trt"},{"rune":"A","rune_set":"elianto","hex":"#3366ff99","correct":32,"choice":32,"rt":627.0200000144541,"accuracy":1,"outcome":"+1","keys":[2127.9949999880046],"total_keys":1,"block":1,"trial":38,"stimulus":2,"robot":1,"valence":"win","action":"go","sham":1,"trial_type":"pit-trial","trial_index":72,"time_elapsed":667193,"internal_node_id":"0.0-45.0","task_version":"battery-v0.2-trt"},{"rune":"P","rune_set":"elianto","hex":"#f73b6a7A","correct":32,"choice":32,"rt":1261.6249998100102,"accuracy":1,"outcome":"-1","keys":[2762.159999925643],"total_keys":1,"block":1,"trial":39,"stimulus":4,"robot":3,"valence":"lose","action":"go","sham":0,"trial_type":"pit-trial","trial_index":73,"time_elapsed":671169,"internal_node_id":"0.0-46.0","task_version":"battery-v0.2-trt"},{"rune":"U","rune_set":"elianto","hex":"#f73b6a7A","correct":-1,"choice":-1,"rt":-1,"accuracy":1,"outcome":"-1","keys":[],"total_keys":0,"block":1,"trial":40,"stimulus":0,"robot":4,"valence":"lose","action":"no-go","sham":0,"trial_type":"pit-trial","trial_index":74,"time_elapsed":675183,"internal_node_id":"0.0-47.0","task_version":"battery-v0.2-trt"},{"rune":"S","rune_set":"elianto","hex":"#3366ff99","correct":-1,"choice":32,"rt":994.3699999712408,"accuracy":0,"outcome":"+10","keys":[2494.4450000766665],"total_keys":1,"block":1,"trial":41,"stimulus":5,"robot":2,"valence":"win","action":"no-go","sham":1,"trial_type":"pit-trial","trial_index":75,"time_elapsed":678891,"internal_node_id":"0.0-48.0","task_version":"battery-v0.2-trt"},{"rune":"W","rune_set":"elianto","hex":"#3366ff99","correct":32,"choice":32,"rt":649.2749999742955,"accuracy":1,"outcome":"+1","keys":[2150.099999969825],"total_keys":1,"block":1,"trial":42,"stimulus":6,"robot":1,"valence":"win","action":"go","sham":1,"trial_type":"pit-trial","trial_index":76,"time_elapsed":682255,"internal_node_id":"0.0-49.0","task_version":"battery-v0.2-trt"},{"rune":"P","rune_set":"elianto","hex":"#f73b6a7A","correct":32,"choice":-1,"rt":-1,"accuracy":0,"outcome":"-10","keys":[],"total_keys":0,"block":1,"trial":43,"stimulus":4,"robot":3,"valence":"lose","action":"go","sham":0,"trial_type":"pit-trial","trial_index":77,"time_elapsed":686270,"internal_node_id":"0.0-50.0","task_version":"battery-v0.2-trt"},{"rune":"U","rune_set":"elianto","hex":"#f73b6a7A","correct":-1,"choice":32,"rt":670.5000000074506,"accuracy":0,"outcome":"-10","keys":[2170.9049998316914],"total_keys":1,"block":1,"trial":44,"stimulus":0,"robot":4,"valence":"lose","action":"no-go","sham":0,"trial_type":"pit-trial","trial_index":78,"time_elapsed":689656,"internal_node_id":"0.0-51.0","task_version":"battery-v0.2-trt"},{"rune":"U","rune_set":"elianto","hex":"#f73b6a7A","correct":-1,"choice":32,"rt":807.7950000297278,"accuracy":0,"outcome":"-10","keys":[2309.0299998875707],"total_keys":1,"block":1,"trial":45,"stimulus":0,"robot":4,"valence":"lose","action":"no-go","sham":0,"trial_type":"pit-trial","trial_index":79,"time_elapsed":693179,"internal_node_id":"0.0-52.0","task_version":"battery-v0.2-trt"},{"rune":"W","rune_set":"elianto","hex":"#3366ff99","correct":32,"choice":32,"rt":720.424999948591,"accuracy":1,"outcome":"+10","keys":[2221.159999957308],"total_keys":1,"block":1,"trial":46,"stimulus":6,"robot":1,"valence":"win","action":"go","sham":0,"trial_type":"pit-trial","trial_index":80,"time_elapsed":696613,"internal_node_id":"0.0-53.0","task_version":"battery-v0.2-trt"},{"rune":"P","rune_set":"elianto","hex":"#f73b6a7A","correct":32,"choice":-1,"rt":-1,"accuracy":0,"outcome":"-10","keys":[],"total_keys":0,"block":1,"trial":47,"stimulus":4,"robot":3,"valence":"lose","action":"go","sham":0,"trial_type":"pit-trial","trial_index":81,"time_elapsed":700623,"internal_node_id":"0.0-54.0","task_version":"battery-v0.2-trt"},{"rune":"S","rune_set":"elianto","hex":"#3366ff99","correct":-1,"choice":32,"rt":790.7399998512119,"accuracy":0,"outcome":"+1","keys":[2291.6599998716265],"total_keys":1,"block":1,"trial":48,"stimulus":5,"robot":2,"valence":"win","action":"no-go","sham":0,"trial_type":"pit-trial","trial_index":82,"time_elapsed":704129,"internal_node_id":"0.0-55.0","task_version":"battery-v0.2-trt"},{"rune":"W","rune_set":"elianto","hex":"#3366ff99","correct":32,"choice":32,"rt":717.0499998610467,"accuracy":1,"outcome":"+1","keys":[2217.930000042543],"total_keys":1,"block":1,"trial":49,"stimulus":6,"robot":1,"valence":"win","action":"go","sham":1,"trial_type":"pit-trial","trial_index":83,"time_elapsed":707560,"internal_node_id":"0.0-56.0","task_version":"battery-v0.2-trt"},{"rune":"E","rune_set":"elianto","hex":"#f73b6a7A","correct":-1,"choice":-1,"rt":-1,"accuracy":1,"outcome":"-1","keys":[],"total_keys":0,"block":1,"trial":50,"stimulus":7,"robot":4,"valence":"lose","action":"no-go","sham":0,"trial_type":"pit-trial","trial_index":84,"time_elapsed":711575,"internal_node_id":"0.0-57.0","task_version":"battery-v0.2-trt"},{"rune":"P","rune_set":"elianto","hex":"#f73b6a7A","correct":32,"choice":-1,"rt":-1,"accuracy":0,"outcome":"-10","keys":[],"total_keys":0,"block":1,"trial":51,"stimulus":4,"robot":3,"valence":"lose","action":"go","sham":0,"trial_type":"pit-trial","trial_index":85,"time_elapsed":715592,"internal_node_id":"0.0-58.0","task_version":"battery-v0.2-trt"},{"rune":"S","rune_set":"elianto","hex":"#3366ff99","correct":-1,"choice":32,"rt":407.6900000218302,"accuracy":0,"outcome":"+1","keys":[1908.8399999309331],"total_keys":1,"block":1,"trial":52,"stimulus":5,"robot":2,"valence":"win","action":"no-go","sham":0,"trial_type":"pit-trial","trial_index":86,"time_elapsed":718715,"internal_node_id":"0.0-59.0","task_version":"battery-v0.2-trt"},{"rune":"E","rune_set":"elianto","hex":"#f73b6a7A","correct":-1,"choice":32,"rt":950.4899999592453,"accuracy":0,"outcome":"-1","keys":[2451.6399998683482],"total_keys":1,"block":1,"trial":53,"stimulus":7,"robot":4,"valence":"lose","action":"no-go","sham":1,"trial_type":"pit-trial","trial_index":87,"time_elapsed":722380,"internal_node_id":"0.0-60.0","task_version":"battery-v0.2-trt"},{"rune":"P","rune_set":"elianto","hex":"#f73b6a7A","correct":32,"choice":-1,"rt":-1,"accuracy":0,"outcome":"-10","keys":[],"total_keys":0,"block":1,"trial":54,"stimulus":4,"robot":3,"valence":"lose","action":"go","sham":0,"trial_type":"pit-trial","trial_index":88,"time_elapsed":726394,"internal_node_id":"0.0-61.0","task_version":"battery-v0.2-trt"},{"rune":"S","rune_set":"elianto","hex":"#3366ff99","correct":-1,"choice":32,"rt":698.1699999887496,"accuracy":0,"outcome":"+1","keys":[2198.240000056103],"total_keys":1,"block":1,"trial":55,"stimulus":5,"robot":2,"valence":"win","action":"no-go","sham":0,"trial_type":"pit-trial","trial_index":89,"time_elapsed":729805,"internal_node_id":"0.0-62.0","task_version":"battery-v0.2-trt"},{"rune":"W","rune_set":"elianto","hex":"#3366ff99","correct":32,"choice":32,"rt":1024.449999909848,"accuracy":1,"outcome":"+10","keys":[2525.9199999272823],"total_keys":1,"block":1,"trial":56,"stimulus":6,"robot":1,"valence":"win","action":"go","sham":0,"trial_type":"pit-trial","trial_index":90,"time_elapsed":733543,"internal_node_id":"0.0-63.0","task_version":"battery-v0.2-trt"},{"rune":"E","rune_set":"elianto","hex":"#f73b6a7A","correct":-1,"choice":-1,"rt":-1,"accuracy":1,"outcome":"-1","keys":[],"total_keys":0,"block":1,"trial":57,"stimulus":7,"robot":4,"valence":"lose","action":"no-go","sham":0,"trial_type":"pit-trial","trial_index":91,"time_elapsed":737557,"internal_node_id":"0.0-64.0","task_version":"battery-v0.2-trt"},{"rune":"P","rune_set":"elianto","hex":"#f73b6a7A","correct":32,"choice":32,"rt":721.2649998255074,"accuracy":1,"outcome":"-1","keys":[2222.1450000070035],"total_keys":1,"block":1,"trial":58,"stimulus":4,"robot":3,"valence":"lose","action":"go","sham":0,"trial_type":"pit-trial","trial_index":92,"time_elapsed":740992,"internal_node_id":"0.0-65.0","task_version":"battery-v0.2-trt"},{"rune":"W","rune_set":"elianto","hex":"#3366ff99","correct":32,"choice":32,"rt":1072.165000019595,"accuracy":1,"outcome":"+10","keys":[2572.6699999067932],"total_keys":1,"block":1,"trial":59,"stimulus":6,"robot":1,"valence":"win","action":"go","sham":0,"trial_type":"pit-trial","trial_index":93,"time_elapsed":744778,"internal_node_id":"0.0-66.0","task_version":"battery-v0.2-trt"},{"rune":"S","rune_set":"elianto","hex":"#3366ff99","correct":-1,"choice":-1,"rt":-1,"accuracy":1,"outcome":"+10","keys":[],"total_keys":0,"block":1,"trial":60,"stimulus":5,"robot":2,"valence":"win","action":"no-go","sham":0,"trial_type":"pit-trial","trial_index":94,"time_elapsed":748792,"internal_node_id":"0.0-67.0","task_version":"battery-v0.2-trt"},{"rune":"S","rune_set":"elianto","hex":"#3366ff99","correct":-1,"choice":-1,"rt":-1,"accuracy":1,"outcome":"+1","keys":[],"total_keys":0,"block":1,"trial":61,"stimulus":5,"robot":2,"valence":"win","action":"no-go","sham":1,"trial_type":"pit-trial","trial_index":95,"time_elapsed":752806,"internal_node_id":"0.0-68.0","task_version":"battery-v0.2-trt"},{"rune":"W","rune_set":"elianto","hex":"#3366ff99","correct":32,"choice":32,"rt":611.0799999441952,"accuracy":1,"outcome":"+10","keys":[2111.5500000305474],"total_keys":1,"block":1,"trial":62,"stimulus":6,"robot":1,"valence":"win","action":"go","sham":0,"trial_type":"pit-trial","trial_index":96,"time_elapsed":756132,"internal_node_id":"0.0-69.0","task_version":"battery-v0.2-trt"},{"rune":"E","rune_set":"elianto","hex":"#f73b6a7A","correct":-1,"choice":32,"rt":1162.6850001048297,"accuracy":0,"outcome":"-10","keys":[2662.849999964237],"total_keys":1,"block":1,"trial":63,"stimulus":7,"robot":4,"valence":"lose","action":"no-go","sham":0,"trial_type":"pit-trial","trial_index":97,"time_elapsed":760011,"internal_node_id":"0.0-70.0","task_version":"battery-v0.2-trt"},{"rune":"P","rune_set":"elianto","hex":"#f73b6a7A","correct":32,"choice":-1,"rt":-1,"accuracy":0,"outcome":"-10","keys":[],"total_keys":0,"block":1,"trial":64,"stimulus":4,"robot":3,"valence":"lose","action":"go","sham":0,"trial_type":"pit-trial","trial_index":98,"time_elapsed":764024,"internal_node_id":"0.0-71.0","task_version":"battery-v0.2-trt"},{"rune":"P","rune_set":"elianto","hex":"#f73b6a7A","correct":32,"choice":32,"rt":895.8499999716878,"accuracy":1,"outcome":"-1","keys":[2395.984999835491],"total_keys":1,"block":1,"trial":65,"stimulus":4,"robot":3,"valence":"lose","action":"go","sham":0,"trial_type":"pit-trial","trial_index":99,"time_elapsed":767633,"internal_node_id":"0.0-72.0","task_version":"battery-v0.2-trt"},{"rune":"E","rune_set":"elianto","hex":"#f73b6a7A","correct":-1,"choice":-1,"rt":-1,"accuracy":1,"outcome":"-1","keys":[],"total_keys":0,"block":1,"trial":66,"stimulus":7,"robot":4,"valence":"lose","action":"no-go","sham":0,"trial_type":"pit-trial","trial_index":100,"time_elapsed":771647,"internal_node_id":"0.0-73.0","task_version":"battery-v0.2-trt"},{"rune":"W","rune_set":"elianto","hex":"#3366ff99","correct":32,"choice":32,"rt":575.3699999768287,"accuracy":1,"outcome":"+10","keys":[2076.7700001597404],"total_keys":1,"block":1,"trial":67,"stimulus":6,"robot":1,"valence":"win","action":"go","sham":0,"trial_type":"pit-trial","trial_index":101,"time_elapsed":774936,"internal_node_id":"0.0-74.0","task_version":"battery-v0.2-trt"},{"rune":"S","rune_set":"elianto","hex":"#3366ff99","correct":-1,"choice":-1,"rt":-1,"accuracy":1,"outcome":"+10","keys":[],"total_keys":0,"block":1,"trial":68,"stimulus":5,"robot":2,"valence":"win","action":"no-go","sham":0,"trial_type":"pit-trial","trial_index":102,"time_elapsed":778950,"internal_node_id":"0.0-75.0","task_version":"battery-v0.2-trt"},{"rune":"E","rune_set":"elianto","hex":"#f73b6a7A","correct":-1,"choice":32,"rt":1009.1099999845028,"accuracy":0,"outcome":"-1","keys":[2510.850000195205],"total_keys":1,"block":1,"trial":69,"stimulus":7,"robot":4,"valence":"lose","action":"no-go","sham":1,"trial_type":"pit-trial","trial_index":103,"time_elapsed":782675,"internal_node_id":"0.0-76.0","task_version":"battery-v0.2-trt"},{"rune":"P","rune_set":"elianto","hex":"#f73b6a7A","correct":32,"choice":-1,"rt":-1,"accuracy":0,"outcome":"-1","keys":[],"total_keys":0,"block":1,"trial":70,"stimulus":4,"robot":3,"valence":"lose","action":"go","sham":1,"trial_type":"pit-trial","trial_index":104,"time_elapsed":786688,"internal_node_id":"0.0-77.0","task_version":"battery-v0.2-trt"},{"rune":"W","rune_set":"elianto","hex":"#3366ff99","correct":32,"choice":32,"rt":431.23000022023916,"accuracy":1,"outcome":"+10","keys":[1932.0900000166148],"total_keys":1,"block":1,"trial":71,"stimulus":6,"robot":1,"valence":"win","action":"go","sham":0,"trial_type":"pit-trial","trial_index":105,"time_elapsed":789834,"internal_node_id":"0.0-78.0","task_version":"battery-v0.2-trt"},{"rune":"S","rune_set":"elianto","hex":"#3366ff99","correct":-1,"choice":32,"rt":544.5700001437217,"accuracy":0,"outcome":"+1","keys":[2045.5649998039007],"total_keys":1,"block":1,"trial":72,"stimulus":5,"robot":2,"valence":"win","action":"no-go","sham":0,"trial_type":"pit-trial","trial_index":106,"time_elapsed":793094,"internal_node_id":"0.0-79.0","task_version":"battery-v0.2-trt"},{"rune":"S","rune_set":"elianto","hex":"#3366ff99","correct":-1,"choice":-1,"rt":-1,"accuracy":1,"outcome":"+10","keys":[],"total_keys":0,"block":1,"trial":73,"stimulus":5,"robot":2,"valence":"win","action":"no-go","sham":0,"trial_type":"pit-trial","trial_index":107,"time_elapsed":797109,"internal_node_id":"0.0-80.0","task_version":"battery-v0.2-trt"},{"rune":"E","rune_set":"elianto","hex":"#f73b6a7A","correct":-1,"choice":32,"rt":944.2200001794845,"accuracy":0,"outcome":"-1","keys":[2444.2549999803305],"total_keys":1,"block":1,"trial":74,"stimulus":7,"robot":4,"valence":"lose","action":"no-go","sham":1,"trial_type":"pit-trial","trial_index":108,"time_elapsed":800766,"internal_node_id":"0.0-81.0","task_version":"battery-v0.2-trt"},{"rune":"K","rune_set":"elianto","hex":"#3366ff99","correct":32,"choice":32,"rt":1185.7950000558048,"accuracy":1,"outcome":"+10","keys":[2685.8949998859316],"total_keys":1,"block":1,"trial":75,"stimulus":8,"robot":1,"valence":"win","action":"go","sham":0,"trial_type":"pit-trial","trial_index":109,"time_elapsed":804665,"internal_node_id":"0.0-82.0","task_version":"battery-v0.2-trt"},{"rune":"D","rune_set":"elianto","hex":"#f73b6a7A","correct":32,"choice":-1,"rt":-1,"accuracy":0,"outcome":"-10","keys":[],"total_keys":0,"block":1,"trial":76,"stimulus":9,"robot":3,"valence":"lose","action":"go","sham":0,"trial_type":"pit-trial","trial_index":110,"time_elapsed":808679,"internal_node_id":"0.0-83.0","task_version":"battery-v0.2-trt"},{"rune":"K","rune_set":"elianto","hex":"#3366ff99","correct":32,"choice":32,"rt":765.4750000219792,"accuracy":1,"outcome":"+10","keys":[2266.509999986738],"total_keys":1,"block":1,"trial":77,"stimulus":8,"robot":1,"valence":"win","action":"go","sham":0,"trial_type":"pit-trial","trial_index":111,"time_elapsed":812159,"internal_node_id":"0.0-84.0","task_version":"battery-v0.2-trt"},{"rune":"D","rune_set":"elianto","hex":"#f73b6a7A","correct":32,"choice":32,"rt":857.9899999313056,"accuracy":1,"outcome":"-10","keys":[2358.8650000747293],"total_keys":1,"block":1,"trial":78,"stimulus":9,"robot":3,"valence":"lose","action":"go","sham":1,"trial_type":"pit-trial","trial_index":112,"time_elapsed":815731,"internal_node_id":"0.0-85.0","task_version":"battery-v0.2-trt"},{"rune":"E","rune_set":"elianto","hex":"#f73b6a7A","correct":-1,"choice":-1,"rt":-1,"accuracy":1,"outcome":"-1","keys":[],"total_keys":0,"block":1,"trial":79,"stimulus":7,"robot":4,"valence":"lose","action":"no-go","sham":0,"trial_type":"pit-trial","trial_index":113,"time_elapsed":819745,"internal_node_id":"0.0-86.0","task_version":"battery-v0.2-trt"},{"rune":"S","rune_set":"elianto","hex":"#3366ff99","correct":-1,"choice":32,"rt":586.0500000417233,"accuracy":0,"outcome":"+10","keys":[2086.519999895245],"total_keys":1,"block":1,"trial":80,"stimulus":5,"robot":2,"valence":"win","action":"no-go","sham":1,"trial_type":"pit-trial","trial_index":114,"time_elapsed":823045,"internal_node_id":"0.0-87.0","task_version":"battery-v0.2-trt"},{"rune":"D","rune_set":"elianto","hex":"#f73b6a7A","correct":32,"choice":32,"rt":870.1349999755621,"accuracy":1,"outcome":"-1","keys":[2370.304999873042],"total_keys":1,"block":1,"trial":81,"stimulus":9,"robot":3,"valence":"lose","action":"go","sham":0,"trial_type":"pit-trial","trial_index":115,"time_elapsed":826629,"internal_node_id":"0.0-88.0","task_version":"battery-v0.2-trt"},{"rune":"K","rune_set":"elianto","hex":"#3366ff99","correct":32,"choice":-1,"rt":-1,"accuracy":0,"outcome":"+10","keys":[],"total_keys":0,"block":1,"trial":82,"stimulus":8,"robot":1,"valence":"win","action":"go","sham":1,"trial_type":"pit-trial","trial_index":116,"time_elapsed":830642,"internal_node_id":"0.0-89.0","task_version":"battery-v0.2-trt"},{"rune":"E","rune_set":"elianto","hex":"#f73b6a7A","correct":-1,"choice":32,"rt":857.7499999664724,"accuracy":0,"outcome":"-1","keys":[2358.10499987565],"total_keys":1,"block":1,"trial":83,"stimulus":7,"robot":4,"valence":"lose","action":"no-go","sham":1,"trial_type":"pit-trial","trial_index":117,"time_elapsed":834213,"internal_node_id":"0.0-90.0","task_version":"battery-v0.2-trt"},{"rune":"S","rune_set":"elianto","hex":"#3366ff99","correct":-1,"choice":32,"rt":602.3999999742955,"accuracy":0,"outcome":"+1","keys":[2102.7450000401586],"total_keys":1,"block":1,"trial":84,"stimulus":5,"robot":2,"valence":"win","action":"no-go","sham":0,"trial_type":"pit-trial","trial_index":118,"time_elapsed":837529,"internal_node_id":"0.0-91.0","task_version":"battery-v0.2-trt"},{"rune":"E","rune_set":"elianto","hex":"#f73b6a7A","correct":-1,"choice":32,"rt":1027.155000017956,"accuracy":0,"outcome":"-10","keys":[2527.4400000926107],"total_keys":1,"block":1,"trial":85,"stimulus":7,"robot":4,"valence":"lose","action":"no-go","sham":0,"trial_type":"pit-trial","trial_index":119,"time_elapsed":841270,"internal_node_id":"0.0-92.0","task_version":"battery-v0.2-trt"},{"rune":"S","rune_set":"elianto","hex":"#3366ff99","correct":-1,"choice":32,"rt":851.1000000871718,"accuracy":0,"outcome":"+1","keys":[2351.500000106171],"total_keys":1,"block":1,"trial":86,"stimulus":5,"robot":2,"valence":"win","action":"no-go","sham":0,"trial_type":"pit-trial","trial_index":120,"time_elapsed":844836,"internal_node_id":"0.0-93.0","task_version":"battery-v0.2-trt"},{"rune":"K","rune_set":"elianto","hex":"#3366ff99","correct":32,"choice":-1,"rt":-1,"accuracy":0,"outcome":"+1","keys":[],"total_keys":0,"block":1,"trial":87,"stimulus":8,"robot":1,"valence":"win","action":"go","sham":0,"trial_type":"pit-trial","trial_index":121,"time_elapsed":848849,"internal_node_id":"0.0-94.0","task_version":"battery-v0.2-trt"},{"rune":"D","rune_set":"elianto","hex":"#f73b6a7A","correct":32,"choice":32,"rt":863.4699999820441,"accuracy":1,"outcome":"-1","keys":[2364.2399997916073],"total_keys":1,"block":1,"trial":88,"stimulus":9,"robot":3,"valence":"lose","action":"go","sham":0,"trial_type":"pit-trial","trial_index":122,"time_elapsed":852428,"internal_node_id":"0.0-95.0","task_version":"battery-v0.2-trt"},{"rune":"J","rune_set":"elianto","hex":"#f73b6a7A","correct":32,"choice":-1,"rt":-1,"accuracy":0,"outcome":"-10","keys":[],"total_keys":0,"block":1,"trial":89,"stimulus":10,"robot":3,"valence":"lose","action":"go","sham":0,"trial_type":"pit-trial","trial_index":123,"time_elapsed":856442,"internal_node_id":"0.0-96.0","task_version":"battery-v0.2-trt"},{"rune":"V","rune_set":"elianto","hex":"#3366ff99","correct":-1,"choice":32,"rt":637.2899999842048,"accuracy":0,"outcome":"+10","keys":[2138.0749999079853],"total_keys":1,"block":1,"trial":90,"stimulus":11,"robot":2,"valence":"win","action":"no-go","sham":1,"trial_type":"pit-trial","trial_index":124,"time_elapsed":859794,"internal_node_id":"0.0-97.0","task_version":"battery-v0.2-trt"},{"rune":"K","rune_set":"elianto","hex":"#3366ff99","correct":32,"choice":32,"rt":603.984999936074,"accuracy":1,"outcome":"+10","keys":[2104.784999974072],"total_keys":1,"block":1,"trial":91,"stimulus":8,"robot":1,"valence":"win","action":"go","sham":0,"trial_type":"pit-trial","trial_index":125,"time_elapsed":863112,"internal_node_id":"0.0-98.0","task_version":"battery-v0.2-trt"},{"rune":"D","rune_set":"elianto","hex":"#f73b6a7A","correct":32,"choice":32,"rt":872.8750001173466,"accuracy":1,"outcome":"-1","keys":[2373.3949998859316],"total_keys":1,"block":1,"trial":92,"stimulus":9,"robot":3,"valence":"lose","action":"go","sham":0,"trial_type":"pit-trial","trial_index":126,"time_elapsed":866699,"internal_node_id":"0.0-99.0","task_version":"battery-v0.2-trt"},{"rune":"K","rune_set":"elianto","hex":"#3366ff99","correct":32,"choice":32,"rt":611.7249999660999,"accuracy":1,"outcome":"+10","keys":[2113.279999932274],"total_keys":1,"block":1,"trial":93,"stimulus":8,"robot":1,"valence":"win","action":"go","sham":0,"trial_type":"pit-trial","trial_index":127,"time_elapsed":870025,"internal_node_id":"0.0-100.0","task_version":"battery-v0.2-trt"},{"rune":"V","rune_set":"elianto","hex":"#3366ff99","correct":-1,"choice":32,"rt":614.934999961406,"accuracy":0,"outcome":"+1","keys":[2115.525000030175],"total_keys":1,"block":1,"trial":94,"stimulus":11,"robot":2,"valence":"win","action":"no-go","sham":0,"trial_type":"pit-trial","trial_index":128,"time_elapsed":873354,"internal_node_id":"0.0-101.0","task_version":"battery-v0.2-trt"},{"rune":"J","rune_set":"elianto","hex":"#f73b6a7A","correct":32,"choice":-1,"rt":-1,"accuracy":0,"outcome":"-10","keys":[],"total_keys":0,"block":1,"trial":95,"stimulus":10,"robot":3,"valence":"lose","action":"go","sham":0,"trial_type":"pit-trial","trial_index":129,"time_elapsed":877369,"internal_node_id":"0.0-102.0","task_version":"battery-v0.2-trt"},{"rune":"D","rune_set":"elianto","hex":"#f73b6a7A","correct":32,"choice":32,"rt":729.0199999697506,"accuracy":1,"outcome":"-1","keys":[2230.1799999549985],"total_keys":1,"block":1,"trial":96,"stimulus":9,"robot":3,"valence":"lose","action":"go","sham":0,"trial_type":"pit-trial","trial_index":130,"time_elapsed":880813,"internal_node_id":"0.0-103.0","task_version":"battery-v0.2-trt"},{"rune":"V","rune_set":"elianto","hex":"#3366ff99","correct":-1,"choice":-1,"rt":-1,"accuracy":1,"outcome":"+10","keys":[],"total_keys":0,"block":1,"trial":97,"stimulus":11,"robot":2,"valence":"win","action":"no-go","sham":0,"trial_type":"pit-trial","trial_index":131,"time_elapsed":884827,"internal_node_id":"0.0-104.0","task_version":"battery-v0.2-trt"},{"rune":"K","rune_set":"elianto","hex":"#3366ff99","correct":32,"choice":32,"rt":910.2000000420958,"accuracy":1,"outcome":"+10","keys":[2410.7900001108646],"total_keys":1,"block":1,"trial":98,"stimulus":8,"robot":1,"valence":"win","action":"go","sham":0,"trial_type":"pit-trial","trial_index":132,"time_elapsed":888451,"internal_node_id":"0.0-105.0","task_version":"battery-v0.2-trt"},{"rune":"J","rune_set":"elianto","hex":"#f73b6a7A","correct":32,"choice":32,"rt":1128.5349999088794,"accuracy":1,"outcome":"-1","keys":[2629.315000027418],"total_keys":1,"block":1,"trial":99,"stimulus":10,"robot":3,"valence":"lose","action":"go","sham":0,"trial_type":"pit-trial","trial_index":133,"time_elapsed":892293,"internal_node_id":"0.0-106.0","task_version":"battery-v0.2-trt"},{"rune":"D","rune_set":"elianto","hex":"#f73b6a7A","correct":32,"choice":-1,"rt":-1,"accuracy":0,"outcome":"-1","keys":[],"total_keys":0,"block":1,"trial":100,"stimulus":9,"robot":3,"valence":"lose","action":"go","sham":1,"trial_type":"pit-trial","trial_index":134,"time_elapsed":896307,"internal_node_id":"0.0-107.0","task_version":"battery-v0.2-trt"},{"rune":"J","rune_set":"elianto","hex":"#f73b6a7A","correct":32,"choice":32,"rt":704.7500000335276,"accuracy":1,"outcome":"-10","keys":[2204.9700000789016],"total_keys":1,"block":1,"trial":101,"stimulus":10,"robot":3,"valence":"lose","action":"go","sham":1,"trial_type":"pit-trial","trial_index":135,"time_elapsed":899726,"internal_node_id":"0.0-108.0","task_version":"battery-v0.2-trt"},{"rune":"D","rune_set":"elianto","hex":"#f73b6a7A","correct":32,"choice":-1,"rt":-1,"accuracy":0,"outcome":"-10","keys":[3430.6050001177937],"total_keys":1,"block":1,"trial":102,"stimulus":9,"robot":3,"valence":"lose","action":"go","sham":0,"trial_type":"pit-trial","trial_index":136,"time_elapsed":903740,"internal_node_id":"0.0-109.0","task_version":"battery-v0.2-trt"},{"rune":"K","rune_set":"elianto","hex":"#3366ff99","correct":32,"choice":32,"rt":995.1349999755621,"accuracy":1,"outcome":"+10","keys":[2496.0199999623],"total_keys":1,"block":1,"trial":103,"stimulus":8,"robot":1,"valence":"win","action":"go","sham":0,"trial_type":"pit-trial","trial_index":137,"time_elapsed":907449,"internal_node_id":"0.0-110.0","task_version":"battery-v0.2-trt"},{"rune":"V","rune_set":"elianto","hex":"#3366ff99","correct":-1,"choice":32,"rt":582.545000128448,"accuracy":0,"outcome":"+10","keys":[2082.8350000083447],"total_keys":1,"block":1,"trial":104,"stimulus":11,"robot":2,"valence":"win","action":"no-go","sham":1,"trial_type":"pit-trial","trial_index":138,"time_elapsed":910745,"internal_node_id":"0.0-111.0","task_version":"battery-v0.2-trt"},{"rune":"V","rune_set":"elianto","hex":"#3366ff99","correct":-1,"choice":32,"rt":725.1699999906123,"accuracy":0,"outcome":"+1","keys":[2225.580000085756],"total_keys":1,"block":1,"trial":105,"stimulus":11,"robot":2,"valence":"win","action":"no-go","sham":0,"trial_type":"pit-trial","trial_index":139,"time_elapsed":914183,"internal_node_id":"0.0-112.0","task_version":"battery-v0.2-trt"},{"rune":"D","rune_set":"elianto","hex":"#f73b6a7A","correct":32,"choice":-1,"rt":-1,"accuracy":0,"outcome":"-10","keys":[],"total_keys":0,"block":1,"trial":106,"stimulus":9,"robot":3,"valence":"lose","action":"go","sham":0,"trial_type":"pit-trial","trial_index":140,"time_elapsed":918197,"internal_node_id":"0.0-113.0","task_version":"battery-v0.2-trt"},{"rune":"J","rune_set":"elianto","hex":"#f73b6a7A","correct":32,"choice":32,"rt":978.3050001133233,"accuracy":1,"outcome":"-1","keys":[2478.3999999053776],"total_keys":1,"block":1,"trial":107,"stimulus":10,"robot":3,"valence":"lose","action":"go","sham":0,"trial_type":"pit-trial","trial_index":141,"time_elapsed":921889,"internal_node_id":"0.0-114.0","task_version":"battery-v0.2-trt"},{"rune":"K","rune_set":"elianto","hex":"#3366ff99","correct":32,"choice":32,"rt":770.530000096187,"accuracy":1,"outcome":"+10","keys":[2270.534999901429],"total_keys":1,"block":1,"trial":108,"stimulus":8,"robot":1,"valence":"win","action":"go","sham":0,"trial_type":"pit-trial","trial_index":142,"time_elapsed":925373,"internal_node_id":"0.0-115.0","task_version":"battery-v0.2-trt"},{"rune":"K","rune_set":"elianto","hex":"#3366ff99","correct":32,"choice":32,"rt":601.1250000447035,"accuracy":1,"outcome":"+10","keys":[2101.2300001457334],"total_keys":1,"block":1,"trial":109,"stimulus":8,"robot":1,"valence":"win","action":"go","sham":0,"trial_type":"pit-trial","trial_index":143,"time_elapsed":928687,"internal_node_id":"0.0-116.0","task_version":"battery-v0.2-trt"},{"rune":"J","rune_set":"elianto","hex":"#f73b6a7A","correct":32,"choice":32,"rt":922.9500000365078,"accuracy":1,"outcome":"-1","keys":[2424.684999976307],"total_keys":1,"block":1,"trial":110,"stimulus":10,"robot":3,"valence":"lose","action":"go","sham":0,"trial_type":"pit-trial","trial_index":144,"time_elapsed":932319,"internal_node_id":"0.0-117.0","task_version":"battery-v0.2-trt"},{"rune":"V","rune_set":"elianto","hex":"#3366ff99","correct":-1,"choice":32,"rt":711.7500000167638,"accuracy":0,"outcome":"+10","keys":[2212.0350000914186],"total_keys":1,"block":1,"trial":111,"stimulus":11,"robot":2,"valence":"win","action":"no-go","sham":1,"trial_type":"pit-trial","trial_index":145,"time_elapsed":935745,"internal_node_id":"0.0-118.0","task_version":"battery-v0.2-trt"},{"rune":"D","rune_set":"elianto","hex":"#f73b6a7A","correct":32,"choice":32,"rt":894.3799999542534,"accuracy":1,"outcome":"-1","keys":[2394.950000103563],"total_keys":1,"block":1,"trial":112,"stimulus":9,"robot":3,"valence":"lose","action":"go","sham":0,"trial_type":"pit-trial","trial_index":146,"time_elapsed":939353,"internal_node_id":"0.0-119.0","task_version":"battery-v0.2-trt"},{"rune":"V","rune_set":"elianto","hex":"#3366ff99","correct":-1,"choice":32,"rt":652.1350000984967,"accuracy":0,"outcome":"+1","keys":[2152.585000032559],"total_keys":1,"block":1,"trial":113,"stimulus":11,"robot":2,"valence":"win","action":"no-go","sham":0,"trial_type":"pit-trial","trial_index":147,"time_elapsed":942719,"internal_node_id":"0.0-120.0","task_version":"battery-v0.2-trt"},{"rune":"J","rune_set":"elianto","hex":"#f73b6a7A","correct":32,"choice":32,"rt":831.8900000303984,"accuracy":1,"outcome":"-1","keys":[2332.590000005439],"total_keys":1,"block":1,"trial":114,"stimulus":10,"robot":3,"valence":"lose","action":"go","sham":0,"trial_type":"pit-trial","trial_index":148,"time_elapsed":946264,"internal_node_id":"0.0-121.0","task_version":"battery-v0.2-trt"},{"rune":"D","rune_set":"elianto","hex":"#f73b6a7A","correct":32,"choice":32,"rt":615.470000077039,"accuracy":1,"outcome":"-10","keys":[2116.9300000183284],"total_keys":1,"block":1,"trial":115,"stimulus":9,"robot":3,"valence":"lose","action":"go","sham":1,"trial_type":"pit-trial","trial_index":149,"time_elapsed":949595,"internal_node_id":"0.0-122.0","task_version":"battery-v0.2-trt"},{"rune":"K","rune_set":"elianto","hex":"#3366ff99","correct":32,"choice":32,"rt":811.1450001597404,"accuracy":1,"outcome":"+10","keys":[2311.2749999854714],"total_keys":1,"block":1,"trial":116,"stimulus":8,"robot":1,"valence":"win","action":"go","sham":0,"trial_type":"pit-trial","trial_index":150,"time_elapsed":953115,"internal_node_id":"0.0-123.0","task_version":"battery-v0.2-trt"},{"rune":"K","rune_set":"elianto","hex":"#3366ff99","correct":32,"choice":32,"rt":447.2700001206249,"accuracy":1,"outcome":"+10","keys":[1947.2650000825524],"total_keys":1,"block":1,"trial":117,"stimulus":8,"robot":1,"valence":"win","action":"go","sham":0,"trial_type":"pit-trial","trial_index":151,"time_elapsed":956277,"internal_node_id":"0.0-124.0","task_version":"battery-v0.2-trt"},{"rune":"J","rune_set":"elianto","hex":"#f73b6a7A","correct":32,"choice":-1,"rt":-1,"accuracy":0,"outcome":"-10","keys":[],"total_keys":0,"block":1,"trial":118,"stimulus":10,"robot":3,"valence":"lose","action":"go","sham":0,"trial_type":"pit-trial","trial_index":152,"time_elapsed":960291,"internal_node_id":"0.0-125.0","task_version":"battery-v0.2-trt"},{"rune":"D","rune_set":"elianto","hex":"#f73b6a7A","correct":32,"choice":32,"rt":745.3799999784678,"accuracy":1,"outcome":"-10","keys":[2246.1249998304993],"total_keys":1,"block":1,"trial":119,"stimulus":9,"robot":3,"valence":"lose","action":"go","sham":1,"trial_type":"pit-trial","trial_index":153,"time_elapsed":963751,"internal_node_id":"0.0-126.0","task_version":"battery-v0.2-trt"},{"rune":"V","rune_set":"elianto","hex":"#3366ff99","correct":-1,"choice":32,"rt":566.2799999117851,"accuracy":0,"outcome":"+10","keys":[2066.425000084564],"total_keys":1,"block":1,"trial":120,"stimulus":11,"robot":2,"valence":"win","action":"no-go","sham":1,"trial_type":"pit-trial","trial_index":154,"time_elapsed":967031,"internal_node_id":"0.0-127.0","task_version":"battery-v0.2-trt"},{"view_history":"[{\"page_index\":0,\"viewing_time\":115664.01499998756},{\"page_index\":1,\"viewing_time\":1750.0249999575317}]","rt":117415.15000001527,"trial_type":"pit-instructions","trial_index":155,"time_elapsed":1084457,"internal_node_id":"0.0-128.0","task_version":"battery-v0.2-trt"},{"rune":"Y","rune_set":"elianto","hex":"#f73b6a7A","correct":-1,"choice":32,"rt":865.2049999218434,"accuracy":0,"outcome":"-10","keys":[2365.815000142902],"total_keys":1,"block":2,"trial":121,"stimulus":2,"robot":4,"valence":"lose","action":"no-go","sham":0,"trial_type":"pit-trial","trial_index":156,"time_elapsed":1088036,"internal_node_id":"0.0-129.0","task_version":"battery-v0.2-trt"},{"rune":"R","rune_set":"elianto","hex":"#3366ff99","correct":32,"choice":32,"rt":962.7349998336285,"accuracy":1,"outcome":"+1","keys":[2462.8650001250207],"total_keys":1,"block":2,"trial":122,"stimulus":1,"robot":1,"valence":"win","action":"go","sham":1,"trial_type":"pit-trial","trial_index":157,"time_elapsed":1091713,"internal_node_id":"0.0-130.0","task_version":"battery-v0.2-trt"},{"rune":"H","rune_set":"elianto","hex":"#3366ff99","correct":32,"choice":-1,"rt":-1,"accuracy":0,"outcome":"+1","keys":[],"total_keys":0,"block":2,"trial":123,"stimulus":3,"robot":1,"valence":"win","action":"go","sham":0,"trial_type":"pit-trial","trial_index":158,"time_elapsed":1095726,"internal_node_id":"0.0-131.0","task_version":"battery-v0.2-trt"},{"rune":"M","rune_set":"elianto","hex":"#3366ff99","correct":-1,"choice":32,"rt":650.5249999463558,"accuracy":0,"outcome":"+10","keys":[2151.5399999916553],"total_keys":1,"block":2,"trial":124,"stimulus":0,"robot":2,"valence":"win","action":"no-go","sham":1,"trial_type":"pit-trial","trial_index":159,"time_elapsed":1099091,"internal_node_id":"0.0-132.0","task_version":"battery-v0.2-trt"},{"rune":"M","rune_set":"elianto","hex":"#3366ff99","correct":-1,"choice":32,"rt":505.02999988384545,"accuracy":0,"outcome":"+1","keys":[2006.0199999716133],"total_keys":1,"block":2,"trial":125,"stimulus":0,"robot":2,"valence":"win","action":"no-go","sham":0,"trial_type":"pit-trial","trial_index":160,"time_elapsed":1102313,"internal_node_id":"0.0-133.0","task_version":"battery-v0.2-trt"},{"rune":"R","rune_set":"elianto","hex":"#3366ff99","correct":32,"choice":32,"rt":576.4549998566508,"accuracy":1,"outcome":"+10","keys":[2077.1050001494586],"total_keys":1,"block":2,"trial":126,"stimulus":1,"robot":1,"valence":"win","action":"go","sham":0,"trial_type":"pit-trial","trial_index":161,"time_elapsed":1105604,"internal_node_id":"0.0-134.0","task_version":"battery-v0.2-trt"},{"rune":"Y","rune_set":"elianto","hex":"#f73b6a7A","correct":-1,"choice":-1,"rt":-1,"accuracy":1,"outcome":"-1","keys":[],"total_keys":0,"block":2,"trial":127,"stimulus":2,"robot":4,"valence":"lose","action":"no-go","sham":0,"trial_type":"pit-trial","trial_index":162,"time_elapsed":1109618,"internal_node_id":"0.0-135.0","task_version":"battery-v0.2-trt"},{"rune":"H","rune_set":"elianto","hex":"#3366ff99","correct":32,"choice":32,"rt":513.4399998933077,"accuracy":1,"outcome":"+10","keys":[2014.214999973774],"total_keys":1,"block":2,"trial":128,"stimulus":3,"robot":1,"valence":"win","action":"go","sham":0,"trial_type":"pit-trial","trial_index":163,"time_elapsed":1112847,"internal_node_id":"0.0-136.0","task_version":"battery-v0.2-trt"},{"rune":"R","rune_set":"elianto","hex":"#3366ff99","correct":32,"choice":32,"rt":526.1699999682605,"accuracy":1,"outcome":"+1","keys":[2026.6799998935312],"total_keys":1,"block":2,"trial":129,"stimulus":1,"robot":1,"valence":"win","action":"go","sham":1,"trial_type":"pit-trial","trial_index":164,"time_elapsed":1116088,"internal_node_id":"0.0-137.0","task_version":"battery-v0.2-trt"},{"rune":"H","rune_set":"elianto","hex":"#3366ff99","correct":32,"choice":32,"rt":511.4600001834333,"accuracy":1,"outcome":"+10","keys":[2012.5349999871105],"total_keys":1,"block":2,"trial":130,"stimulus":3,"robot":1,"valence":"win","action":"go","sham":0,"trial_type":"pit-trial","trial_index":165,"time_elapsed":1119314,"internal_node_id":"0.0-138.0","task_version":"battery-v0.2-trt"},{"rune":"Y","rune_set":"elianto","hex":"#f73b6a7A","correct":-1,"choice":-1,"rt":-1,"accuracy":1,"outcome":"-1","keys":[],"total_keys":0,"block":2,"trial":131,"stimulus":2,"robot":4,"valence":"lose","action":"no-go","sham":0,"trial_type":"pit-trial","trial_index":166,"time_elapsed":1123329,"internal_node_id":"0.0-139.0","task_version":"battery-v0.2-trt"},{"rune":"M","rune_set":"elianto","hex":"#3366ff99","correct":-1,"choice":32,"rt":509.6899999771267,"accuracy":0,"outcome":"+10","keys":[2010.2399999741465],"total_keys":1,"block":2,"trial":132,"stimulus":0,"robot":2,"valence":"win","action":"no-go","sham":1,"trial_type":"pit-trial","trial_index":167,"time_elapsed":1126553,"internal_node_id":"0.0-140.0","task_version":"battery-v0.2-trt"},{"rune":"M","rune_set":"elianto","hex":"#3366ff99","correct":-1,"choice":32,"rt":398.78499996848404,"accuracy":0,"outcome":"+1","keys":[1898.879999993369],"total_keys":1,"block":2,"trial":133,"stimulus":0,"robot":2,"valence":"win","action":"no-go","sham":0,"trial_type":"pit-trial","trial_index":168,"time_elapsed":1129666,"internal_node_id":"0.0-141.0","task_version":"battery-v0.2-trt"},{"rune":"Y","rune_set":"elianto","hex":"#f73b6a7A","correct":-1,"choice":-1,"rt":-1,"accuracy":1,"outcome":"-1","keys":[],"total_keys":0,"block":2,"trial":134,"stimulus":2,"robot":4,"valence":"lose","action":"no-go","sham":0,"trial_type":"pit-trial","trial_index":169,"time_elapsed":1133681,"internal_node_id":"0.0-142.0","task_version":"battery-v0.2-trt"},{"rune":"R","rune_set":"elianto","hex":"#3366ff99","correct":32,"choice":32,"rt":418.67000004276633,"accuracy":1,"outcome":"+10","keys":[1919.4499999284744],"total_keys":1,"block":2,"trial":135,"stimulus":1,"robot":1,"valence":"win","action":"go","sham":0,"trial_type":"pit-trial","trial_index":170,"time_elapsed":1136814,"internal_node_id":"0.0-143.0","task_version":"battery-v0.2-trt"},{"rune":"H","rune_set":"elianto","hex":"#3366ff99","correct":32,"choice":32,"rt":599.1200001444668,"accuracy":1,"outcome":"+10","keys":[2099.6500002220273],"total_keys":1,"block":2,"trial":136,"stimulus":3,"robot":1,"valence":"win","action":"go","sham":0,"trial_type":"pit-trial","trial_index":171,"time_elapsed":1140129,"internal_node_id":"0.0-144.0","task_version":"battery-v0.2-trt"},{"rune":"R","rune_set":"elianto","hex":"#3366ff99","correct":32,"choice":32,"rt":457.0549998898059,"accuracy":1,"outcome":"+10","keys":[1957.9849999863654],"total_keys":1,"block":2,"trial":137,"stimulus":1,"robot":1,"valence":"win","action":"go","sham":0,"trial_type":"pit-trial","trial_index":172,"time_elapsed":1143300,"internal_node_id":"0.0-145.0","task_version":"battery-v0.2-trt"},{"rune":"M","rune_set":"elianto","hex":"#3366ff99","correct":-1,"choice":32,"rt":524.0650000050664,"accuracy":0,"outcome":"+1","keys":[2026.090000057593],"total_keys":1,"block":2,"trial":138,"stimulus":0,"robot":2,"valence":"win","action":"no-go","sham":0,"trial_type":"pit-trial","trial_index":173,"time_elapsed":1146540,"internal_node_id":"0.0-146.0","task_version":"battery-v0.2-trt"},{"rune":"H","rune_set":"elianto","hex":"#3366ff99","correct":32,"choice":32,"rt":517.214999999851,"accuracy":1,"outcome":"+10","keys":[2018.5350000392646],"total_keys":1,"block":2,"trial":139,"stimulus":3,"robot":1,"valence":"win","action":"go","sham":0,"trial_type":"pit-trial","trial_index":174,"time_elapsed":1149773,"internal_node_id":"0.0-147.0","task_version":"battery-v0.2-trt"},{"rune":"Y","rune_set":"elianto","hex":"#f73b6a7A","correct":-1,"choice":-1,"rt":-1,"accuracy":1,"outcome":"-10","keys":[],"total_keys":0,"block":2,"trial":140,"stimulus":2,"robot":4,"valence":"lose","action":"no-go","sham":1,"trial_type":"pit-trial","trial_index":175,"time_elapsed":1153790,"internal_node_id":"0.0-148.0","task_version":"battery-v0.2-trt"},{"rune":"M","rune_set":"elianto","hex":"#3366ff99","correct":-1,"choice":32,"rt":435.25500013493,"accuracy":0,"outcome":"+1","keys":[1936.2000001128763],"total_keys":1,"block":2,"trial":141,"stimulus":0,"robot":2,"valence":"win","action":"no-go","sham":0,"trial_type":"pit-trial","trial_index":176,"time_elapsed":1156939,"internal_node_id":"0.0-149.0","task_version":"battery-v0.2-trt"},{"rune":"H","rune_set":"elianto","hex":"#3366ff99","correct":32,"choice":32,"rt":517.4249999690801,"accuracy":1,"outcome":"+1","keys":[2017.4500001594424],"total_keys":1,"block":2,"trial":142,"stimulus":3,"robot":1,"valence":"win","action":"go","sham":1,"trial_type":"pit-trial","trial_index":177,"time_elapsed":1160171,"internal_node_id":"0.0-150.0","task_version":"battery-v0.2-trt"},{"rune":"R","rune_set":"elianto","hex":"#3366ff99","correct":32,"choice":32,"rt":511.95499999448657,"accuracy":1,"outcome":"+10","keys":[2013.4700001217425],"total_keys":1,"block":2,"trial":143,"stimulus":1,"robot":1,"valence":"win","action":"go","sham":0,"trial_type":"pit-trial","trial_index":178,"time_elapsed":1163399,"internal_node_id":"0.0-151.0","task_version":"battery-v0.2-trt"},{"rune":"Y","rune_set":"elianto","hex":"#f73b6a7A","correct":-1,"choice":-1,"rt":-1,"accuracy":1,"outcome":"-10","keys":[],"total_keys":0,"block":2,"trial":144,"stimulus":2,"robot":4,"valence":"lose","action":"no-go","sham":1,"trial_type":"pit-trial","trial_index":179,"time_elapsed":1167416,"internal_node_id":"0.0-152.0","task_version":"battery-v0.2-trt"},{"rune":"H","rune_set":"elianto","hex":"#3366ff99","correct":32,"choice":32,"rt":467.7699999883771,"accuracy":1,"outcome":"+10","keys":[1967.865000013262],"total_keys":1,"block":2,"trial":145,"stimulus":3,"robot":1,"valence":"win","action":"go","sham":0,"trial_type":"pit-trial","trial_index":180,"time_elapsed":1170598,"internal_node_id":"0.0-153.0","task_version":"battery-v0.2-trt"},{"rune":"Y","rune_set":"elianto","hex":"#f73b6a7A","correct":-1,"choice":32,"rt":1243.8149999361485,"accuracy":0,"outcome":"-10","keys":[2743.9200000371784],"total_keys":1,"block":2,"trial":146,"stimulus":2,"robot":4,"valence":"lose","action":"no-go","sham":0,"trial_type":"pit-trial","trial_index":181,"time_elapsed":1174556,"internal_node_id":"0.0-154.0","task_version":"battery-v0.2-trt"},{"rune":"M","rune_set":"elianto","hex":"#3366ff99","correct":-1,"choice":32,"rt":553.234999999404,"accuracy":0,"outcome":"+1","keys":[2054.495000047609],"total_keys":1,"block":2,"trial":147,"stimulus":0,"robot":2,"valence":"win","action":"no-go","sham":0,"trial_type":"pit-trial","trial_index":182,"time_elapsed":1177825,"internal_node_id":"0.0-155.0","task_version":"battery-v0.2-trt"},{"rune":"R","rune_set":"elianto","hex":"#3366ff99","correct":32,"choice":32,"rt":947.3749999888241,"accuracy":1,"outcome":"+10","keys":[2448.7900000531226],"total_keys":1,"block":2,"trial":148,"stimulus":1,"robot":1,"valence":"win","action":"go","sham":0,"trial_type":"pit-trial","trial_index":183,"time_elapsed":1181493,"internal_node_id":"0.0-156.0","task_version":"battery-v0.2-trt"},{"rune":"Y","rune_set":"elianto","hex":"#f73b6a7A","correct":-1,"choice":-1,"rt":-1,"accuracy":1,"outcome":"-1","keys":[],"total_keys":0,"block":2,"trial":149,"stimulus":2,"robot":4,"valence":"lose","action":"no-go","sham":0,"trial_type":"pit-trial","trial_index":184,"time_elapsed":1185506,"internal_node_id":"0.0-157.0","task_version":"battery-v0.2-trt"},{"rune":"M","rune_set":"elianto","hex":"#3366ff99","correct":-1,"choice":32,"rt":495.20500004291534,"accuracy":0,"outcome":"+10","keys":[1995.2000000048429],"total_keys":1,"block":2,"trial":150,"stimulus":0,"robot":2,"valence":"win","action":"no-go","sham":1,"trial_type":"pit-trial","trial_index":185,"time_elapsed":1188716,"internal_node_id":"0.0-158.0","task_version":"battery-v0.2-trt"},{"rune":"H","rune_set":"elianto","hex":"#3366ff99","correct":32,"choice":32,"rt":622.2299998626113,"accuracy":1,"outcome":"+10","keys":[2122.2449999768287],"total_keys":1,"block":2,"trial":151,"stimulus":3,"robot":1,"valence":"win","action":"go","sham":0,"trial_type":"pit-trial","trial_index":186,"time_elapsed":1192051,"internal_node_id":"0.0-159.0","task_version":"battery-v0.2-trt"},{"rune":"R","rune_set":"elianto","hex":"#3366ff99","correct":32,"choice":32,"rt":471.56999981962144,"accuracy":1,"outcome":"+10","keys":[1971.7449999880046],"total_keys":1,"block":2,"trial":152,"stimulus":1,"robot":1,"valence":"win","action":"go","sham":0,"trial_type":"pit-trial","trial_index":187,"time_elapsed":1195237,"internal_node_id":"0.0-160.0","task_version":"battery-v0.2-trt"},{"rune":"Z","rune_set":"elianto","hex":"#3366ff99","correct":32,"choice":-1,"rt":-1,"accuracy":0,"outcome":"+10","keys":[],"total_keys":0,"block":2,"trial":153,"stimulus":4,"robot":1,"valence":"win","action":"go","sham":1,"trial_type":"pit-trial","trial_index":188,"time_elapsed":1199250,"internal_node_id":"0.0-161.0","task_version":"battery-v0.2-trt"},{"rune":"Y","rune_set":"elianto","hex":"#f73b6a7A","correct":-1,"choice":32,"rt":927.9300000052899,"accuracy":0,"outcome":"-10","keys":[2428.03500010632],"total_keys":1,"block":2,"trial":154,"stimulus":2,"robot":4,"valence":"lose","action":"no-go","sham":0,"trial_type":"pit-trial","trial_index":189,"time_elapsed":1202891,"internal_node_id":"0.0-162.0","task_version":"battery-v0.2-trt"},{"rune":"H","rune_set":"elianto","hex":"#3366ff99","correct":32,"choice":32,"rt":496.3899999856949,"accuracy":1,"outcome":"+10","keys":[1996.555000077933],"total_keys":1,"block":2,"trial":155,"stimulus":3,"robot":1,"valence":"win","action":"go","sham":0,"trial_type":"pit-trial","trial_index":190,"time_elapsed":1206101,"internal_node_id":"0.0-163.0","task_version":"battery-v0.2-trt"},{"rune":"M","rune_set":"elianto","hex":"#3366ff99","correct":-1,"choice":32,"rt":589.1450000926852,"accuracy":0,"outcome":"+1","keys":[2091.75999998115],"total_keys":1,"block":2,"trial":156,"stimulus":0,"robot":2,"valence":"win","action":"no-go","sham":0,"trial_type":"pit-trial","trial_index":191,"time_elapsed":1209406,"internal_node_id":"0.0-164.0","task_version":"battery-v0.2-trt"},{"rune":"Z","rune_set":"elianto","hex":"#3366ff99","correct":32,"choice":32,"rt":539.0850000549108,"accuracy":1,"outcome":"+10","keys":[2039.6049998234957],"total_keys":1,"block":2,"trial":157,"stimulus":4,"robot":1,"valence":"win","action":"go","sham":0,"trial_type":"pit-trial","trial_index":192,"time_elapsed":1212661,"internal_node_id":"0.0-165.0","task_version":"battery-v0.2-trt"},{"rune":"H","rune_set":"elianto","hex":"#3366ff99","correct":32,"choice":-1,"rt":-1,"accuracy":0,"outcome":"+1","keys":[],"total_keys":0,"block":2,"trial":158,"stimulus":3,"robot":1,"valence":"win","action":"go","sham":0,"trial_type":"pit-trial","trial_index":193,"time_elapsed":1216675,"internal_node_id":"0.0-166.0","task_version":"battery-v0.2-trt"},{"rune":"M","rune_set":"elianto","hex":"#3366ff99","correct":-1,"choice":32,"rt":565.8249999396503,"accuracy":0,"outcome":"+10","keys":[2066.4600001182407],"total_keys":1,"block":2,"trial":159,"stimulus":0,"robot":2,"valence":"win","action":"no-go","sham":1,"trial_type":"pit-trial","trial_index":194,"time_elapsed":1219955,"internal_node_id":"0.0-167.0","task_version":"battery-v0.2-trt"},{"rune":"Y","rune_set":"elianto","hex":"#f73b6a7A","correct":-1,"choice":32,"rt":1127.0150002092123,"accuracy":0,"outcome":"-10","keys":[2627.4399999529123],"total_keys":1,"block":2,"trial":160,"stimulus":2,"robot":4,"valence":"lose","action":"no-go","sham":0,"trial_type":"pit-trial","trial_index":195,"time_elapsed":1223796,"internal_node_id":"0.0-168.0","task_version":"battery-v0.2-trt"},{"rune":"B","rune_set":"elianto","hex":"#f73b6a7A","correct":-1,"choice":32,"rt":844.9549998622388,"accuracy":0,"outcome":"-1","keys":[2345.3000001609325],"total_keys":1,"block":2,"trial":161,"stimulus":6,"robot":4,"valence":"lose","action":"no-go","sham":1,"trial_type":"pit-trial","trial_index":196,"time_elapsed":1227355,"internal_node_id":"0.0-169.0","task_version":"battery-v0.2-trt"},{"rune":"C","rune_set":"elianto","hex":"#f73b6a7A","correct":32,"choice":-1,"rt":-1,"accuracy":0,"outcome":"-10","keys":[],"total_keys":0,"block":2,"trial":162,"stimulus":5,"robot":3,"valence":"lose","action":"go","sham":0,"trial_type":"pit-trial","trial_index":197,"time_elapsed":1231369,"internal_node_id":"0.0-170.0","task_version":"battery-v0.2-trt"},{"rune":"Z","rune_set":"elianto","hex":"#3366ff99","correct":32,"choice":32,"rt":854.2100000195205,"accuracy":1,"outcome":"+10","keys":[2354.5299998950213],"total_keys":1,"block":2,"trial":163,"stimulus":4,"robot":1,"valence":"win","action":"go","sham":0,"trial_type":"pit-trial","trial_index":198,"time_elapsed":1234937,"internal_node_id":"0.0-171.0","task_version":"battery-v0.2-trt"},{"rune":"M","rune_set":"elianto","hex":"#3366ff99","correct":-1,"choice":32,"rt":747.7499998640269,"accuracy":0,"outcome":"+1","keys":[2247.81999993138],"total_keys":1,"block":2,"trial":164,"stimulus":0,"robot":2,"valence":"win","action":"no-go","sham":0,"trial_type":"pit-trial","trial_index":199,"time_elapsed":1238403,"internal_node_id":"0.0-172.0","task_version":"battery-v0.2-trt"},{"rune":"B","rune_set":"elianto","hex":"#f73b6a7A","correct":-1,"choice":32,"rt":923.2799999881536,"accuracy":0,"outcome":"-10","keys":[2424.834999954328],"total_keys":1,"block":2,"trial":165,"stimulus":6,"robot":4,"valence":"lose","action":"no-go","sham":0,"trial_type":"pit-trial","trial_index":200,"time_elapsed":1242043,"internal_node_id":"0.0-173.0","task_version":"battery-v0.2-trt"},{"rune":"M","rune_set":"elianto","hex":"#3366ff99","correct":-1,"choice":32,"rt":511.72500010579824,"accuracy":0,"outcome":"+10","keys":[2012.8300001379102],"total_keys":1,"block":2,"trial":166,"stimulus":0,"robot":2,"valence":"win","action":"no-go","sham":1,"trial_type":"pit-trial","trial_index":201,"time_elapsed":1245270,"internal_node_id":"0.0-174.0","task_version":"battery-v0.2-trt"},{"rune":"C","rune_set":"elianto","hex":"#f73b6a7A","correct":32,"choice":32,"rt":847.2899999469519,"accuracy":1,"outcome":"-1","keys":[2348.4849999658763],"total_keys":1,"block":2,"trial":167,"stimulus":5,"robot":3,"valence":"lose","action":"go","sham":0,"trial_type":"pit-trial","trial_index":202,"time_elapsed":1248832,"internal_node_id":"0.0-175.0","task_version":"battery-v0.2-trt"},{"rune":"Z","rune_set":"elianto","hex":"#3366ff99","correct":32,"choice":-1,"rt":-1,"accuracy":0,"outcome":"+1","keys":[],"total_keys":0,"block":2,"trial":168,"stimulus":4,"robot":1,"valence":"win","action":"go","sham":0,"trial_type":"pit-trial","trial_index":203,"time_elapsed":1252845,"internal_node_id":"0.0-176.0","task_version":"battery-v0.2-trt"},{"rune":"Z","rune_set":"elianto","hex":"#3366ff99","correct":32,"choice":32,"rt":854.920000070706,"accuracy":1,"outcome":"+10","keys":[2355.2600000984967],"total_keys":1,"block":2,"trial":169,"stimulus":4,"robot":1,"valence":"win","action":"go","sham":0,"trial_type":"pit-trial","trial_index":204,"time_elapsed":1256413,"internal_node_id":"0.0-177.0","task_version":"battery-v0.2-trt"},{"rune":"C","rune_set":"elianto","hex":"#f73b6a7A","correct":32,"choice":-1,"rt":-1,"accuracy":0,"outcome":"-10","keys":[],"total_keys":0,"block":2,"trial":170,"stimulus":5,"robot":3,"valence":"lose","action":"go","sham":0,"trial_type":"pit-trial","trial_index":205,"time_elapsed":1260430,"internal_node_id":"0.0-178.0","task_version":"battery-v0.2-trt"},{"rune":"T","rune_set":"elianto","hex":"#3366ff99","correct":-1,"choice":32,"rt":696.155000012368,"accuracy":0,"outcome":"+1","keys":[2197.314999997616],"total_keys":1,"block":2,"trial":171,"stimulus":7,"robot":2,"valence":"win","action":"no-go","sham":0,"trial_type":"pit-trial","trial_index":206,"time_elapsed":1263841,"internal_node_id":"0.0-179.0","task_version":"battery-v0.2-trt"},{"rune":"B","rune_set":"elianto","hex":"#f73b6a7A","correct":-1,"choice":32,"rt":1059.6649998333305,"accuracy":0,"outcome":"-1","keys":[2560.605000006035],"total_keys":1,"block":2,"trial":172,"stimulus":6,"robot":4,"valence":"lose","action":"no-go","sham":1,"trial_type":"pit-trial","trial_index":207,"time_elapsed":1267617,"internal_node_id":"0.0-180.0","task_version":"battery-v0.2-trt"},{"rune":"B","rune_set":"elianto","hex":"#f73b6a7A","correct":-1,"choice":32,"rt":557.0849999785423,"accuracy":0,"outcome":"-1","keys":[2057.3750000912696],"total_keys":1,"block":2,"trial":173,"stimulus":6,"robot":4,"valence":"lose","action":"no-go","sham":1,"trial_type":"pit-trial","trial_index":208,"time_elapsed":1270896,"internal_node_id":"0.0-181.0","task_version":"battery-v0.2-trt"},{"rune":"T","rune_set":"elianto","hex":"#3366ff99","correct":-1,"choice":-1,"rt":-1,"accuracy":1,"outcome":"+1","keys":[],"total_keys":0,"block":2,"trial":174,"stimulus":7,"robot":2,"valence":"win","action":"no-go","sham":1,"trial_type":"pit-trial","trial_index":209,"time_elapsed":1274910,"internal_node_id":"0.0-182.0","task_version":"battery-v0.2-trt"},{"rune":"Z","rune_set":"elianto","hex":"#3366ff99","correct":32,"choice":32,"rt":686.6500000469387,"accuracy":1,"outcome":"+10","keys":[2188.1900001317263],"total_keys":1,"block":2,"trial":175,"stimulus":4,"robot":1,"valence":"win","action":"go","sham":0,"trial_type":"pit-trial","trial_index":210,"time_elapsed":1278312,"internal_node_id":"0.0-183.0","task_version":"battery-v0.2-trt"},{"rune":"C","rune_set":"elianto","hex":"#f73b6a7A","correct":32,"choice":32,"rt":958.8349999394268,"accuracy":1,"outcome":"-10","keys":[2459.410000126809],"total_keys":1,"block":2,"trial":176,"stimulus":5,"robot":3,"valence":"lose","action":"go","sham":1,"trial_type":"pit-trial","trial_index":211,"time_elapsed":1281984,"internal_node_id":"0.0-184.0","task_version":"battery-v0.2-trt"},{"rune":"B","rune_set":"elianto","hex":"#f73b6a7A","correct":-1,"choice":32,"rt":847.7400001138449,"accuracy":0,"outcome":"-10","keys":[2347.770000109449],"total_keys":1,"block":2,"trial":177,"stimulus":6,"robot":4,"valence":"lose","action":"no-go","sham":0,"trial_type":"pit-trial","trial_index":212,"time_elapsed":1285546,"internal_node_id":"0.0-185.0","task_version":"battery-v0.2-trt"},{"rune":"Z","rune_set":"elianto","hex":"#3366ff99","correct":32,"choice":32,"rt":754.6449999790639,"accuracy":1,"outcome":"+10","keys":[2255.8399999979883],"total_keys":1,"block":2,"trial":178,"stimulus":4,"robot":1,"valence":"win","action":"go","sham":0,"trial_type":"pit-trial","trial_index":213,"time_elapsed":1289015,"internal_node_id":"0.0-186.0","task_version":"battery-v0.2-trt"},{"rune":"C","rune_set":"elianto","hex":"#f73b6a7A","correct":32,"choice":32,"rt":870.4850000794977,"accuracy":1,"outcome":"-1","keys":[2371.5200000442564],"total_keys":1,"block":2,"trial":179,"stimulus":5,"robot":3,"valence":"lose","action":"go","sham":0,"trial_type":"pit-trial","trial_index":214,"time_elapsed":1292600,"internal_node_id":"0.0-187.0","task_version":"battery-v0.2-trt"},{"rune":"T","rune_set":"elianto","hex":"#3366ff99","correct":-1,"choice":-1,"rt":-1,"accuracy":1,"outcome":"+10","keys":[],"total_keys":0,"block":2,"trial":180,"stimulus":7,"robot":2,"valence":"win","action":"no-go","sham":0,"trial_type":"pit-trial","trial_index":215,"time_elapsed":1296613,"internal_node_id":"0.0-188.0","task_version":"battery-v0.2-trt"},{"rune":"B","rune_set":"elianto","hex":"#f73b6a7A","correct":-1,"choice":32,"rt":817.7000000141561,"accuracy":0,"outcome":"-10","keys":[2317.995000164956],"total_keys":1,"block":2,"trial":181,"stimulus":6,"robot":4,"valence":"lose","action":"no-go","sham":0,"trial_type":"pit-trial","trial_index":216,"time_elapsed":1300144,"internal_node_id":"0.0-189.0","task_version":"battery-v0.2-trt"},{"rune":"T","rune_set":"elianto","hex":"#3366ff99","correct":-1,"choice":32,"rt":700.6999999284744,"accuracy":0,"outcome":"+1","keys":[2201.4349999371916],"total_keys":1,"block":2,"trial":182,"stimulus":7,"robot":2,"valence":"win","action":"no-go","sham":0,"trial_type":"pit-trial","trial_index":217,"time_elapsed":1303559,"internal_node_id":"0.0-190.0","task_version":"battery-v0.2-trt"},{"rune":"Z","rune_set":"elianto","hex":"#3366ff99","correct":32,"choice":-1,"rt":-1,"accuracy":0,"outcome":"+1","keys":[],"total_keys":0,"block":2,"trial":183,"stimulus":4,"robot":1,"valence":"win","action":"go","sham":0,"trial_type":"pit-trial","trial_index":218,"time_elapsed":1307574,"internal_node_id":"0.0-191.0","task_version":"battery-v0.2-trt"},{"rune":"C","rune_set":"elianto","hex":"#f73b6a7A","correct":32,"choice":32,"rt":892.8799999412149,"accuracy":1,"outcome":"-10","keys":[2393.1850001681596],"total_keys":1,"block":2,"trial":184,"stimulus":5,"robot":3,"valence":"lose","action":"go","sham":1,"trial_type":"pit-trial","trial_index":219,"time_elapsed":1311176,"internal_node_id":"0.0-192.0","task_version":"battery-v0.2-trt"},{"rune":"T","rune_set":"elianto","hex":"#3366ff99","correct":-1,"choice":32,"rt":581.4000000245869,"accuracy":0,"outcome":"+1","keys":[2081.8549999967217],"total_keys":1,"block":2,"trial":185,"stimulus":7,"robot":2,"valence":"win","action":"no-go","sham":0,"trial_type":"pit-trial","trial_index":220,"time_elapsed":1314477,"internal_node_id":"0.0-193.0","task_version":"battery-v0.2-trt"},{"rune":"C","rune_set":"elianto","hex":"#f73b6a7A","correct":32,"choice":-1,"rt":-1,"accuracy":0,"outcome":"-10","keys":[],"total_keys":0,"block":2,"trial":186,"stimulus":5,"robot":3,"valence":"lose","action":"go","sham":0,"trial_type":"pit-trial","trial_index":221,"time_elapsed":1318499,"internal_node_id":"0.0-194.0","task_version":"battery-v0.2-trt"},{"rune":"Z","rune_set":"elianto","hex":"#3366ff99","correct":32,"choice":32,"rt":513.7099998537451,"accuracy":1,"outcome":"+10","keys":[2014.960000058636],"total_keys":1,"block":2,"trial":187,"stimulus":4,"robot":1,"valence":"win","action":"go","sham":0,"trial_type":"pit-trial","trial_index":222,"time_elapsed":1321733,"internal_node_id":"0.0-195.0","task_version":"battery-v0.2-trt"},{"rune":"B","rune_set":"elianto","hex":"#f73b6a7A","correct":-1,"choice":-1,"rt":-1,"accuracy":1,"outcome":"-1","keys":[],"total_keys":0,"block":2,"trial":188,"stimulus":6,"robot":4,"valence":"lose","action":"no-go","sham":0,"trial_type":"pit-trial","trial_index":223,"time_elapsed":1325747,"internal_node_id":"0.0-196.0","task_version":"battery-v0.2-trt"},{"rune":"Z","rune_set":"elianto","hex":"#3366ff99","correct":32,"choice":32,"rt":703.260000096634,"accuracy":1,"outcome":"+10","keys":[2203.605000162497],"total_keys":1,"block":2,"trial":189,"stimulus":4,"robot":1,"valence":"win","action":"go","sham":0,"trial_type":"pit-trial","trial_index":224,"time_elapsed":1329163,"internal_node_id":"0.0-197.0","task_version":"battery-v0.2-trt"},{"rune":"T","rune_set":"elianto","hex":"#3366ff99","correct":-1,"choice":32,"rt":861.8600000627339,"accuracy":0,"outcome":"+1","keys":[2362.99500009045],"total_keys":1,"block":2,"trial":190,"stimulus":7,"robot":2,"valence":"win","action":"no-go","sham":0,"trial_type":"pit-trial","trial_index":225,"time_elapsed":1332740,"internal_node_id":"0.0-198.0","task_version":"battery-v0.2-trt"},{"rune":"B","rune_set":"elianto","hex":"#f73b6a7A","correct":-1,"choice":-1,"rt":-1,"accuracy":1,"outcome":"-1","keys":[],"total_keys":0,"block":2,"trial":191,"stimulus":6,"robot":4,"valence":"lose","action":"no-go","sham":0,"trial_type":"pit-trial","trial_index":226,"time_elapsed":1336750,"internal_node_id":"0.0-199.0","task_version":"battery-v0.2-trt"},{"rune":"C","rune_set":"elianto","hex":"#f73b6a7A","correct":32,"choice":32,"rt":821.7899999581277,"accuracy":1,"outcome":"-1","keys":[2322.300000116229],"total_keys":1,"block":2,"trial":192,"stimulus":5,"robot":3,"valence":"lose","action":"go","sham":0,"trial_type":"pit-trial","trial_index":227,"time_elapsed":1340286,"internal_node_id":"0.0-200.0","task_version":"battery-v0.2-trt"},{"rune":"T","rune_set":"elianto","hex":"#3366ff99","correct":-1,"choice":32,"rt":653.7399999797344,"accuracy":0,"outcome":"+1","keys":[2154.8150000162423],"total_keys":1,"block":2,"trial":193,"stimulus":7,"robot":2,"valence":"win","action":"no-go","sham":0,"trial_type":"pit-trial","trial_index":228,"time_elapsed":1343655,"internal_node_id":"0.0-201.0","task_version":"battery-v0.2-trt"},{"rune":"B","rune_set":"elianto","hex":"#f73b6a7A","correct":-1,"choice":32,"rt":879.3249998707324,"accuracy":0,"outcome":"-1","keys":[2379.8799999058247],"total_keys":1,"block":2,"trial":194,"stimulus":6,"robot":4,"valence":"lose","action":"no-go","sham":1,"trial_type":"pit-trial","trial_index":229,"time_elapsed":1347248,"internal_node_id":"0.0-202.0","task_version":"battery-v0.2-trt"},{"rune":"X","rune_set":"elianto","hex":"#f73b6a7A","correct":32,"choice":-1,"rt":-1,"accuracy":0,"outcome":"-1","keys":[],"total_keys":0,"block":2,"trial":195,"stimulus":8,"robot":3,"valence":"lose","action":"go","sham":1,"trial_type":"pit-trial","trial_index":230,"time_elapsed":1351263,"internal_node_id":"0.0-203.0","task_version":"battery-v0.2-trt"},{"rune":"Z","rune_set":"elianto","hex":"#3366ff99","correct":32,"choice":32,"rt":420.0250001158565,"accuracy":1,"outcome":"+10","keys":[1920.6350001040846],"total_keys":1,"block":2,"trial":196,"stimulus":4,"robot":1,"valence":"win","action":"go","sham":0,"trial_type":"pit-trial","trial_index":231,"time_elapsed":1354397,"internal_node_id":"0.0-204.0","task_version":"battery-v0.2-trt"},{"rune":"T","rune_set":"elianto","hex":"#3366ff99","correct":-1,"choice":32,"rt":609.6200000029057,"accuracy":0,"outcome":"+1","keys":[2109.8750000819564],"total_keys":1,"block":2,"trial":197,"stimulus":7,"robot":2,"valence":"win","action":"no-go","sham":0,"trial_type":"pit-trial","trial_index":232,"time_elapsed":1357722,"internal_node_id":"0.0-205.0","task_version":"battery-v0.2-trt"},{"rune":"Z","rune_set":"elianto","hex":"#3366ff99","correct":32,"choice":32,"rt":826.8599999137223,"accuracy":1,"outcome":"+10","keys":[2327.809999929741],"total_keys":1,"block":2,"trial":198,"stimulus":4,"robot":1,"valence":"win","action":"go","sham":0,"trial_type":"pit-trial","trial_index":233,"time_elapsed":1361263,"internal_node_id":"0.0-206.0","task_version":"battery-v0.2-trt"},{"rune":"X","rune_set":"elianto","hex":"#f73b6a7A","correct":32,"choice":-1,"rt":-1,"accuracy":0,"outcome":"-10","keys":[],"total_keys":0,"block":2,"trial":199,"stimulus":8,"robot":3,"valence":"lose","action":"go","sham":0,"trial_type":"pit-trial","trial_index":234,"time_elapsed":1365278,"internal_node_id":"0.0-207.0","task_version":"battery-v0.2-trt"},{"rune":"B","rune_set":"elianto","hex":"#f73b6a7A","correct":-1,"choice":-1,"rt":-1,"accuracy":1,"outcome":"-10","keys":[],"total_keys":0,"block":2,"trial":200,"stimulus":6,"robot":4,"valence":"lose","action":"no-go","sham":1,"trial_type":"pit-trial","trial_index":235,"time_elapsed":1369293,"internal_node_id":"0.0-208.0","task_version":"battery-v0.2-trt"},{"rune":"X","rune_set":"elianto","hex":"#f73b6a7A","correct":32,"choice":32,"rt":624.6400000527501,"accuracy":1,"outcome":"-1","keys":[2124.650000128895],"total_keys":1,"block":2,"trial":201,"stimulus":8,"robot":3,"valence":"lose","action":"go","sham":0,"trial_type":"pit-trial","trial_index":236,"time_elapsed":1372632,"internal_node_id":"0.0-209.0","task_version":"battery-v0.2-trt"},{"rune":"B","rune_set":"elianto","hex":"#f73b6a7A","correct":-1,"choice":32,"rt":976.1999999172986,"accuracy":0,"outcome":"-10","keys":[2476.68999992311],"total_keys":1,"block":2,"trial":202,"stimulus":6,"robot":4,"valence":"lose","action":"no-go","sham":0,"trial_type":"pit-trial","trial_index":237,"time_elapsed":1376322,"internal_node_id":"0.0-210.0","task_version":"battery-v0.2-trt"},{"rune":"F","rune_set":"elianto","hex":"#f73b6a7A","correct":32,"choice":-1,"rt":-1,"accuracy":0,"outcome":"-10","keys":[3584.3449998646975],"total_keys":1,"block":2,"trial":203,"stimulus":9,"robot":3,"valence":"lose","action":"go","sham":0,"trial_type":"pit-trial","trial_index":238,"time_elapsed":1380337,"internal_node_id":"0.0-211.0","task_version":"battery-v0.2-trt"},{"rune":"T","rune_set":"elianto","hex":"#3366ff99","correct":-1,"choice":32,"rt":1251.3299998827279,"accuracy":0,"outcome":"+1","keys":[2752.8050001710653],"total_keys":1,"block":2,"trial":204,"stimulus":7,"robot":2,"valence":"win","action":"no-go","sham":0,"trial_type":"pit-trial","trial_index":239,"time_elapsed":1384303,"internal_node_id":"0.0-212.0","task_version":"battery-v0.2-trt"},{"rune":"T","rune_set":"elianto","hex":"#3366ff99","correct":-1,"choice":-1,"rt":-1,"accuracy":1,"outcome":"+1","keys":[],"total_keys":0,"block":2,"trial":205,"stimulus":7,"robot":2,"valence":"win","action":"no-go","sham":1,"trial_type":"pit-trial","trial_index":240,"time_elapsed":1388318,"internal_node_id":"0.0-213.0","task_version":"battery-v0.2-trt"},{"rune":"B","rune_set":"elianto","hex":"#f73b6a7A","correct":-1,"choice":32,"rt":815.6149999704212,"accuracy":0,"outcome":"-10","keys":[2315.8749998547137,2996.5949999168515,3292.714999988675],"total_keys":3,"block":2,"trial":206,"stimulus":6,"robot":4,"valence":"lose","action":"no-go","sham":0,"trial_type":"pit-trial","trial_index":241,"time_elapsed":1391849,"internal_node_id":"0.0-214.0","task_version":"battery-v0.2-trt"},{"rune":"X","rune_set":"elianto","hex":"#f73b6a7A","correct":32,"choice":-1,"rt":-1,"accuracy":0,"outcome":"-10","keys":[],"total_keys":0,"block":2,"trial":207,"stimulus":8,"robot":3,"valence":"lose","action":"go","sham":0,"trial_type":"pit-trial","trial_index":242,"time_elapsed":1395863,"internal_node_id":"0.0-215.0","task_version":"battery-v0.2-trt"},{"rune":"F","rune_set":"elianto","hex":"#f73b6a7A","correct":32,"choice":32,"rt":697.0349999610335,"accuracy":1,"outcome":"-10","keys":[2198.3300000429153,2977.730000158772],"total_keys":2,"block":2,"trial":208,"stimulus":9,"robot":3,"valence":"lose","action":"go","sham":1,"trial_type":"pit-trial","trial_index":243,"time_elapsed":1399276,"internal_node_id":"0.0-216.0","task_version":"battery-v0.2-trt"},{"rune":"X","rune_set":"elianto","hex":"#f73b6a7A","correct":32,"choice":-1,"rt":-1,"accuracy":0,"outcome":"-1","keys":[],"total_keys":0,"block":2,"trial":209,"stimulus":8,"robot":3,"valence":"lose","action":"go","sham":1,"trial_type":"pit-trial","trial_index":244,"time_elapsed":1403291,"internal_node_id":"0.0-217.0","task_version":"battery-v0.2-trt"},{"rune":"N","rune_set":"elianto","hex":"#f73b6a7A","correct":-1,"choice":32,"rt":850.5649999715388,"accuracy":0,"outcome":"-10","keys":[2351.3899999670684,3257.6150000095367],"total_keys":2,"block":2,"trial":210,"stimulus":10,"robot":4,"valence":"lose","action":"no-go","sham":0,"trial_type":"pit-trial","trial_index":245,"time_elapsed":1406856,"internal_node_id":"0.0-218.0","task_version":"battery-v0.2-trt"},{"rune":"Q","rune_set":"elianto","hex":"#3366ff99","correct":-1,"choice":32,"rt":1163.3399999700487,"accuracy":0,"outcome":"+1","keys":[2663.895000005141],"total_keys":1,"block":2,"trial":211,"stimulus":11,"robot":2,"valence":"win","action":"no-go","sham":0,"trial_type":"pit-trial","trial_index":246,"time_elapsed":1410734,"internal_node_id":"0.0-219.0","task_version":"battery-v0.2-trt"},{"rune":"F","rune_set":"elianto","hex":"#f73b6a7A","correct":32,"choice":-1,"rt":-1,"accuracy":0,"outcome":"-10","keys":[],"total_keys":0,"block":2,"trial":212,"stimulus":9,"robot":3,"valence":"lose","action":"go","sham":0,"trial_type":"pit-trial","trial_index":247,"time_elapsed":1414749,"internal_node_id":"0.0-220.0","task_version":"battery-v0.2-trt"},{"rune":"Q","rune_set":"elianto","hex":"#3366ff99","correct":-1,"choice":32,"rt":689.7799998987466,"accuracy":0,"outcome":"+1","keys":[2192.00999988243],"total_keys":1,"block":2,"trial":213,"stimulus":11,"robot":2,"valence":"win","action":"no-go","sham":0,"trial_type":"pit-trial","trial_index":248,"time_elapsed":1418154,"internal_node_id":"0.0-221.0","task_version":"battery-v0.2-trt"},{"rune":"N","rune_set":"elianto","hex":"#f73b6a7A","correct":-1,"choice":-1,"rt":-1,"accuracy":1,"outcome":"-1","keys":[],"total_keys":0,"block":2,"trial":214,"stimulus":10,"robot":4,"valence":"lose","action":"no-go","sham":0,"trial_type":"pit-trial","trial_index":249,"time_elapsed":1422169,"internal_node_id":"0.0-222.0","task_version":"battery-v0.2-trt"},{"rune":"F","rune_set":"elianto","hex":"#f73b6a7A","correct":32,"choice":32,"rt":989.3700000829995,"accuracy":1,"outcome":"-1","keys":[2490.015000104904],"total_keys":1,"block":2,"trial":215,"stimulus":9,"robot":3,"valence":"lose","action":"go","sham":0,"trial_type":"pit-trial","trial_index":250,"time_elapsed":1425873,"internal_node_id":"0.0-223.0","task_version":"battery-v0.2-trt"},{"rune":"X","rune_set":"elianto","hex":"#f73b6a7A","correct":32,"choice":-1,"rt":-1,"accuracy":0,"outcome":"-10","keys":[],"total_keys":0,"block":2,"trial":216,"stimulus":8,"robot":3,"valence":"lose","action":"go","sham":0,"trial_type":"pit-trial","trial_index":251,"time_elapsed":1429888,"internal_node_id":"0.0-224.0","task_version":"battery-v0.2-trt"},{"rune":"X","rune_set":"elianto","hex":"#f73b6a7A","correct":32,"choice":-1,"rt":-1,"accuracy":0,"outcome":"-10","keys":[],"total_keys":0,"block":2,"trial":217,"stimulus":8,"robot":3,"valence":"lose","action":"go","sham":0,"trial_type":"pit-trial","trial_index":252,"time_elapsed":1433901,"internal_node_id":"0.0-225.0","task_version":"battery-v0.2-trt"},{"rune":"N","rune_set":"elianto","hex":"#f73b6a7A","correct":-1,"choice":32,"rt":513.6700000148267,"accuracy":0,"outcome":"-1","keys":[2013.8949998654425],"total_keys":1,"block":2,"trial":218,"stimulus":10,"robot":4,"valence":"lose","action":"no-go","sham":1,"trial_type":"pit-trial","trial_index":253,"time_elapsed":1437129,"internal_node_id":"0.0-226.0","task_version":"battery-v0.2-trt"},{"rune":"Q","rune_set":"elianto","hex":"#3366ff99","correct":-1,"choice":32,"rt":909.0700000524521,"accuracy":0,"outcome":"+1","keys":[2409.650000045076],"total_keys":1,"block":2,"trial":219,"stimulus":11,"robot":2,"valence":"win","action":"no-go","sham":0,"trial_type":"pit-trial","trial_index":254,"time_elapsed":1440753,"internal_node_id":"0.0-227.0","task_version":"battery-v0.2-trt"},{"rune":"F","rune_set":"elianto","hex":"#f73b6a7A","correct":32,"choice":-1,"rt":-1,"accuracy":0,"outcome":"-10","keys":[],"total_keys":0,"block":2,"trial":220,"stimulus":9,"robot":3,"valence":"lose","action":"go","sham":0,"trial_type":"pit-trial","trial_index":255,"time_elapsed":1444768,"internal_node_id":"0.0-228.0","task_version":"battery-v0.2-trt"},{"rune":"Q","rune_set":"elianto","hex":"#3366ff99","correct":-1,"choice":-1,"rt":-1,"accuracy":1,"outcome":"+10","keys":[],"total_keys":0,"block":2,"trial":221,"stimulus":11,"robot":2,"valence":"win","action":"no-go","sham":0,"trial_type":"pit-trial","trial_index":256,"time_elapsed":1448782,"internal_node_id":"0.0-229.0","task_version":"battery-v0.2-trt"},{"rune":"F","rune_set":"elianto","hex":"#f73b6a7A","correct":32,"choice":32,"rt":945.0550000183284,"accuracy":1,"outcome":"-10","keys":[2445.71499992162],"total_keys":1,"block":2,"trial":222,"stimulus":9,"robot":3,"valence":"lose","action":"go","sham":1,"trial_type":"pit-trial","trial_index":257,"time_elapsed":1452442,"internal_node_id":"0.0-230.0","task_version":"battery-v0.2-trt"},{"rune":"N","rune_set":"elianto","hex":"#f73b6a7A","correct":-1,"choice":-1,"rt":-1,"accuracy":1,"outcome":"-1","keys":[],"total_keys":0,"block":2,"trial":223,"stimulus":10,"robot":4,"valence":"lose","action":"no-go","sham":0,"trial_type":"pit-trial","trial_index":258,"time_elapsed":1456457,"internal_node_id":"0.0-231.0","task_version":"battery-v0.2-trt"},{"rune":"X","rune_set":"elianto","hex":"#f73b6a7A","correct":32,"choice":-1,"rt":-1,"accuracy":0,"outcome":"-10","keys":[3633.559999987483],"total_keys":1,"block":2,"trial":224,"stimulus":8,"robot":3,"valence":"lose","action":"go","sham":0,"trial_type":"pit-trial","trial_index":259,"time_elapsed":1460472,"internal_node_id":"0.0-232.0","task_version":"battery-v0.2-trt"},{"rune":"Q","rune_set":"elianto","hex":"#3366ff99","correct":-1,"choice":-1,"rt":-1,"accuracy":1,"outcome":"+10","keys":[],"total_keys":0,"block":2,"trial":225,"stimulus":11,"robot":2,"valence":"win","action":"no-go","sham":0,"trial_type":"pit-trial","trial_index":260,"time_elapsed":1464485,"internal_node_id":"0.0-233.0","task_version":"battery-v0.2-trt"},{"rune":"F","rune_set":"elianto","hex":"#f73b6a7A","correct":32,"choice":32,"rt":667.9800001438707,"accuracy":1,"outcome":"-1","keys":[2168.5649999417365],"total_keys":1,"block":2,"trial":226,"stimulus":9,"robot":3,"valence":"lose","action":"go","sham":0,"trial_type":"pit-trial","trial_index":261,"time_elapsed":1467869,"internal_node_id":"0.0-234.0","task_version":"battery-v0.2-trt"},{"rune":"N","rune_set":"elianto","hex":"#f73b6a7A","correct":-1,"choice":-1,"rt":-1,"accuracy":1,"outcome":"-1","keys":[],"total_keys":0,"block":2,"trial":227,"stimulus":10,"robot":4,"valence":"lose","action":"no-go","sham":0,"trial_type":"pit-trial","trial_index":262,"time_elapsed":1471883,"internal_node_id":"0.0-235.0","task_version":"battery-v0.2-trt"},{"rune":"X","rune_set":"elianto","hex":"#f73b6a7A","correct":32,"choice":-1,"rt":-1,"accuracy":0,"outcome":"-1","keys":[],"total_keys":0,"block":2,"trial":228,"stimulus":8,"robot":3,"valence":"lose","action":"go","sham":1,"trial_type":"pit-trial","trial_index":263,"time_elapsed":1475898,"internal_node_id":"0.0-236.0","task_version":"battery-v0.2-trt"},{"rune":"X","rune_set":"elianto","hex":"#f73b6a7A","correct":32,"choice":32,"rt":955.104999942705,"accuracy":1,"outcome":"-1","keys":[2456.494999816641],"total_keys":1,"block":2,"trial":229,"stimulus":8,"robot":3,"valence":"lose","action":"go","sham":0,"trial_type":"pit-trial","trial_index":264,"time_elapsed":1479569,"internal_node_id":"0.0-237.0","task_version":"battery-v0.2-trt"},{"rune":"F","rune_set":"elianto","hex":"#f73b6a7A","correct":32,"choice":-1,"rt":-1,"accuracy":0,"outcome":"-10","keys":[],"total_keys":0,"block":2,"trial":230,"stimulus":9,"robot":3,"valence":"lose","action":"go","sham":0,"trial_type":"pit-trial","trial_index":265,"time_elapsed":1483585,"internal_node_id":"0.0-238.0","task_version":"battery-v0.2-trt"},{"rune":"Q","rune_set":"elianto","hex":"#3366ff99","correct":-1,"choice":-1,"rt":-1,"accuracy":1,"outcome":"+10","keys":[],"total_keys":0,"block":2,"trial":231,"stimulus":11,"robot":2,"valence":"win","action":"no-go","sham":0,"trial_type":"pit-trial","trial_index":266,"time_elapsed":1487600,"internal_node_id":"0.0-239.0","task_version":"battery-v0.2-trt"},{"rune":"N","rune_set":"elianto","hex":"#f73b6a7A","correct":-1,"choice":32,"rt":737.724999897182,"accuracy":0,"outcome":"-10","keys":[2238.7099999468774],"total_keys":1,"block":2,"trial":232,"stimulus":10,"robot":4,"valence":"lose","action":"no-go","sham":0,"trial_type":"pit-trial","trial_index":267,"time_elapsed":1491052,"internal_node_id":"0.0-240.0","task_version":"battery-v0.2-trt"},{"rune":"X","rune_set":"elianto","hex":"#f73b6a7A","correct":32,"choice":-1,"rt":-1,"accuracy":0,"outcome":"-10","keys":[],"total_keys":0,"block":2,"trial":233,"stimulus":8,"robot":3,"valence":"lose","action":"go","sham":0,"trial_type":"pit-trial","trial_index":268,"time_elapsed":1495065,"internal_node_id":"0.0-241.0","task_version":"battery-v0.2-tr