[{"view_history":"[{\"page_index\":0,\"viewing_time\":3448.854999999867}]","rt":3449.4099999999435,"trial_type":"instructions","trial_index":0,"time_elapsed":3455,"internal_node_id":"0.0-0.0","task_version":"battery-v0.2-trt"},{"slider_type":"valence","raw_loc":524.5,"loc":0.549,"trial_type":"affective-slider","trial_index":1,"time_elapsed":14719,"internal_node_id":"0.0-1.0","task_version":"battery-v0.2-trt"},{"responses":{"Q08":"2","Q02":"2","Q01":"2","Q03":"2","Q13":"0","Q06":"2","Q09":"2","Q10":"2","Q05":"2","Q12":"2","Q07":"2","Q04":"2","Q11":"2"},"rt":57454.41000000005,"item_order":[7,1,0,2,12,5,8,9,4,11,6,3,10],"radio_events":[5727.775000000065,12087.170000000015,13857.615000000123,19297.890000000058,24789.83000000017,30197.345000000045,33431.195000000116,41640.73499999995,44124.815000000126,46707.29500000016,49785.920000000035,52822.055000000095,56611.25000000016],"key_events":[],"mouse_events":[5727.775000000065,12087.170000000015,13857.615000000123,19297.890000000058,24789.83000000017,27471.999999999985,29254.075000000055,30197.345000000045,32578.710000000006,33431.195000000116,41640.73499999995,44124.815000000126,46707.29500000016,49785.920000000035,52822.055000000095,56611.25000000016,57452.64999999995],"straightlining":0.9230769230769231,"zigzagging":0,"survey":"bisbas","trial_type":"survey-template","trial_index":2,"time_elapsed":72176,"internal_node_id":"0.0-2.0","task_version":"battery-v0.2-trt","infrequency":0},{"responses":{"Q03":"0","Q05":"0","Q02":"0","Q08":"3","Q04":"0","Q07":"0","Q01":"0","Q06":"0"},"rt":21705.879999999976,"item_order":[2,4,1,7,3,6,0,5],"radio_events":[5804.2749999999505,6899.695000000065,8002.740000000122,12149.554999999964,15280.080000000002,16408.090000000127,18204.760000000082,20403.4650000001],"key_events":[],"mouse_events":[5804.2749999999505,6899.695000000065,8002.740000000122,12149.554999999964,15280.080000000002,16408.090000000127,18204.760000000082,20403.4650000001,21704.770000000048],"straightlining":0.875,"zigzagging":0.2857142857142857,"survey":"dass_d","trial_type":"survey-template","trial_index":3,"time_elapsed":93884,"internal_node_id":"0.0-3.0","task_version":"battery-v0.2-trt","infrequency":0.5},{"responses":{"Q01":"0","Q02":"0","Q04":"0","Q06":"0","Q07":"0","Q05":"0","Q08":"0","Q03":"0"},"rt":13943.905000000086,"item_order":[0,1,3,5,6,4,7,2],"radio_events":[3587.6399999999703,4655.289999999921,5614.874999999985,6424.530000000013,7154.225000000006,7940.350000000093,11176.94000000006,12918.2800000001],"key_events":[],"mouse_events":[3587.6399999999703,4655.289999999921,5614.874999999985,6424.530000000013,7154.225000000006,7940.350000000093,11176.94000000006,12918.2800000001,13942.675000000017],"straightlining":1,"zigzagging":0,"survey":"gad7","trial_type":"survey-template","trial_index":4,"time_elapsed":107831,"internal_node_id":"0.0-4.0","task_version":"battery-v0.2-trt","infrequency":0},{"value":[0.5,2.7980769230769234,0.2857142857142857],"trial_type":"call-function","trial_index":5,"time_elapsed":107834,"internal_node_id":"0.0-5.0","task_version":"battery-v0.2-trt"},{"view_history":"[{\"page_index\":0,\"viewing_time\":2516.3200000001816},{\"page_index\":1,\"viewing_time\":4452.284999999843},{\"page_index\":2,\"viewing_time\":4775.925000000148},{\"page_index\":3,\"viewing_time\":5886.974999999889},{\"page_index\":4,\"viewing_time\":10923.035000000018},{\"page_index\":5,\"viewing_time\":4138.965000000113},{\"page_index\":6,\"viewing_time\":5119.994999999995},{\"page_index\":7,\"viewing_time\":10663.334999999963},{\"page_index\":8,\"viewing_time\":6349.1600000000035},{\"page_index\":9,\"viewing_time\":4109.4100000000035}]","rt":58935.93500000019,"trial_type":"pit-instructions","trial_index":6,"time_elapsed":166772,"internal_node_id":"0.0-6.0-0.0","task_version":"battery-v0.2-trt"},{"rune":"1","rune_set":"elianto","hex":"#3366ff99","correct":32,"choice":-1,"rt":-1,"accuracy":0,"outcome":"+1","keys":[],"total_keys":0,"block":0,"practice":1,"trial_type":"pit-trial","trial_index":7,"time_elapsed":170781,"internal_node_id":"0.0-6.0-1.0-0.0","task_version":"battery-v0.2-trt"},{"rune":"1","rune_set":"elianto","hex":"#3366ff99","correct":32,"choice":-1,"rt":-1,"accuracy":0,"outcome":"+1","keys":[],"total_keys":0,"block":0,"practice":1,"trial_type":"pit-trial","trial_index":8,"time_elapsed":174786,"internal_node_id":"0.0-6.0-1.1-0.1","task_version":"battery-v0.2-trt"},{"rune":"1","rune_set":"elianto","hex":"#3366ff99","correct":32,"choice":-1,"rt":-1,"accuracy":0,"outcome":"+1","keys":[],"total_keys":0,"block":0,"practice":1,"trial_type":"pit-trial","trial_index":9,"time_elapsed":178794,"internal_node_id":"0.0-6.0-1.2-0.2","task_version":"battery-v0.2-trt"},{"rune":"1","rune_set":"elianto","hex":"#3366ff99","correct":32,"choice":32,"rt":633.7899999998626,"accuracy":1,"outcome":"+10","keys":[2136.710000000021],"total_keys":1,"block":0,"practice":1,"trial_type":"pit-trial","trial_index":10,"time_elapsed":182135,"internal_node_id":"0.0-6.0-1.3-0.3","task_version":"battery-v0.2-trt"},{"rune":"1","rune_set":"elianto","hex":"#3366ff99","correct":32,"choice":32,"rt":472.55999999993946,"accuracy":1,"outcome":"+10","keys":[1972.6899999998277],"total_keys":1,"block":0,"practice":1,"trial_type":"pit-trial","trial_index":11,"time_elapsed":185311,"internal_node_id":"0.0-6.0-1.4-0.4","task_version":"battery-v0.2-trt"},{"rune":"1","rune_set":"elianto","hex":"#3366ff99","correct":32,"choice":32,"rt":498.18499999993946,"accuracy":1,"outcome":"+10","keys":[1999.2499999998545],"total_keys":1,"block":0,"practice":1,"trial_type":"pit-trial","trial_index":12,"time_elapsed":188515,"internal_node_id":"0.0-6.0-1.5-0.5","task_version":"battery-v0.2-trt"},{"trial_type":"call-function","trial_index":13,"time_elapsed":188516,"internal_node_id":"0.0-6.0-2.0","task_version":"battery-v0.2-trt"},{"view_history":"[{\"page_index\":0,\"viewing_time\":3838.445000000065},{\"page_index\":1,\"viewing_time\":5827.759999999922}]","rt":9666.580000000045,"trial_type":"pit-instructions","trial_index":14,"time_elapsed":198183,"internal_node_id":"0.0-6.0-3.0","task_version":"battery-v0.2-trt"},{"rune":"2","rune_set":"elianto","hex":"#3366ff99","correct":-1,"choice":32,"rt":1025.5249999999942,"accuracy":0,"outcome":"+1","keys":[2526.104999999923],"total_keys":1,"block":0,"practice":2,"trial_type":"pit-trial","trial_index":15,"time_elapsed":201913,"internal_node_id":"0.0-6.0-4.0-0.0","task_version":"battery-v0.2-trt"},{"rune":"2","rune_set":"elianto","hex":"#3366ff99","correct":-1,"choice":32,"rt":476.4549999999872,"accuracy":0,"outcome":"+1","keys":[1976.9550000000745],"total_keys":1,"block":0,"practice":2,"trial_type":"pit-trial","trial_index":16,"time_elapsed":205093,"internal_node_id":"0.0-6.0-4.1-0.1","task_version":"battery-v0.2-trt"},{"rune":"2","rune_set":"elianto","hex":"#3366ff99","correct":-1,"choice":-1,"rt":-1,"accuracy":1,"outcome":"+10","keys":[],"total_keys":0,"block":0,"practice":2,"trial_type":"pit-trial","trial_index":17,"time_elapsed":209098,"internal_node_id":"0.0-6.0-4.2-0.2","task_version":"battery-v0.2-trt"},{"rune":"2","rune_set":"elianto","hex":"#3366ff99","correct":-1,"choice":32,"rt":964.2249999999476,"accuracy":0,"outcome":"+1","keys":[2464.604999999894],"total_keys":1,"block":0,"practice":2,"trial_type":"pit-trial","trial_index":18,"time_elapsed":212765,"internal_node_id":"0.0-6.0-4.3-0.3","task_version":"battery-v0.2-trt"},{"rune":"2","rune_set":"elianto","hex":"#3366ff99","correct":-1,"choice":-1,"rt":-1,"accuracy":1,"outcome":"+10","keys":[],"total_keys":0,"block":0,"practice":2,"trial_type":"pit-trial","trial_index":19,"time_elapsed":216774,"internal_node_id":"0.0-6.0-4.4-0.4","task_version":"battery-v0.2-trt"},{"rune":"2","rune_set":"elianto","hex":"#3366ff99","correct":-1,"choice":-1,"rt":-1,"accuracy":1,"outcome":"+10","keys":[],"total_keys":0,"block":0,"practice":2,"trial_type":"pit-trial","trial_index":20,"time_elapsed":220782,"internal_node_id":"0.0-6.0-4.5-0.5","task_version":"battery-v0.2-trt"},{"rune":"2","rune_set":"elianto","hex":"#3366ff99","correct":-1,"choice":-1,"rt":-1,"accuracy":1,"outcome":"+10","keys":[],"total_keys":0,"block":0,"practice":2,"trial_type":"pit-trial","trial_index":21,"time_elapsed":224790,"internal_node_id":"0.0-6.0-4.6-0.6","task_version":"battery-v0.2-trt"},{"trial_type":"call-function","trial_index":22,"time_elapsed":224791,"internal_node_id":"0.0-6.0-5.0","task_version":"battery-v0.2-trt"},{"view_history":"[{\"page_index\":0,\"viewing_time\":7729.894999999931},{\"page_index\":1,\"viewing_time\":5190.980000000069}]","rt":12921.260000000068,"trial_type":"pit-instructions","trial_index":23,"time_elapsed":237712,"internal_node_id":"0.0-6.0-6.0","task_version":"battery-v0.2-trt"},{"rune":"3","rune_set":"elianto","hex":"#f73b6a7A","correct":-1,"choice":-1,"rt":-1,"accuracy":1,"outcome":"-1","keys":[],"total_keys":0,"block":0,"practice":3,"trial_type":"pit-trial","trial_index":24,"time_elapsed":241722,"internal_node_id":"0.0-6.0-7.0-0.0","task_version":"battery-v0.2-trt"},{"rune":"3","rune_set":"elianto","hex":"#f73b6a7A","correct":-1,"choice":-1,"rt":-1,"accuracy":1,"outcome":"-1","keys":[],"total_keys":0,"block":0,"practice":3,"trial_type":"pit-trial","trial_index":25,"time_elapsed":245729,"internal_node_id":"0.0-6.0-7.1-0.1","task_version":"battery-v0.2-trt"},{"rune":"3","rune_set":"elianto","hex":"#f73b6a7A","correct":-1,"choice":-1,"rt":-1,"accuracy":1,"outcome":"-1","keys":[],"total_keys":0,"block":0,"practice":3,"trial_type":"pit-trial","trial_index":26,"time_elapsed":249734,"internal_node_id":"0.0-6.0-7.2-0.2","task_version":"battery-v0.2-trt"},{"rune":"3","rune_set":"elianto","hex":"#f73b6a7A","correct":-1,"choice":-1,"rt":-1,"accuracy":1,"outcome":"-1","keys":[],"total_keys":0,"block":0,"practice":3,"trial_type":"pit-trial","trial_index":27,"time_elapsed":253740,"internal_node_id":"0.0-6.0-7.3-0.3","task_version":"battery-v0.2-trt"},{"trial_type":"call-function","trial_index":28,"time_elapsed":253741,"internal_node_id":"0.0-6.0-8.0","task_version":"battery-v0.2-trt"},{"view_history":"[{\"page_index\":0,\"viewing_time\":3509.3799999999756},{\"page_index\":1,\"viewing_time\":3678.679999999993}]","rt":7188.445000000007,"trial_type":"pit-instructions","trial_index":29,"time_elapsed":260930,"internal_node_id":"0.0-6.0-9.0","task_version":"battery-v0.2-trt"},{"rune":"4","rune_set":"elianto","hex":"#f73b6a7A","correct":32,"choice":-1,"rt":-1,"accuracy":0,"outcome":"-10","keys":[],"total_keys":0,"block":0,"practice":4,"trial_type":"pit-trial","trial_index":30,"time_elapsed":264938,"internal_node_id":"0.0-6.0-10.0-0.0","task_version":"battery-v0.2-trt"},{"rune":"4","rune_set":"elianto","hex":"#f73b6a7A","correct":32,"choice":32,"rt":438.70000000012806,"accuracy":1,"outcome":"-1","keys":[1938.8299999998417],"total_keys":1,"block":0,"practice":4,"trial_type":"pit-trial","trial_index":31,"time_elapsed":268084,"internal_node_id":"0.0-6.0-10.1-0.1","task_version":"battery-v0.2-trt"},{"rune":"4","rune_set":"elianto","hex":"#f73b6a7A","correct":32,"choice":32,"rt":525.4599999998463,"accuracy":1,"outcome":"-1","keys":[2025.5899999999674],"total_keys":1,"block":0,"practice":4,"trial_type":"pit-trial","trial_index":32,"time_elapsed":271312,"internal_node_id":"0.0-6.0-10.2-0.2","task_version":"battery-v0.2-trt"},{"rune":"4","rune_set":"elianto","hex":"#f73b6a7A","correct":32,"choice":32,"rt":432.3050000000512,"accuracy":1,"outcome":"-1","keys":[1935.0150000000722],"total_keys":1,"block":0,"practice":4,"trial_type":"pit-trial","trial_index":33,"time_elapsed":274452,"internal_node_id":"0.0-6.0-10.3-0.3","task_version":"battery-v0.2-trt"},{"trial_type":"call-function","trial_index":34,"time_elapsed":274453,"internal_node_id":"0.0-6.0-11.0","task_version":"battery-v0.2-trt"},{"view_history":"[{\"page_index\":0,\"viewing_time\":1656.725000000035},{\"page_index\":1,\"viewing_time\":4666.369999999937},{\"page_index\":2,\"viewing_time\":4815.620000000054},{\"page_index\":3,\"viewing_time\":3900.6500000000815},{\"page_index\":4,\"viewing_time\":2340.859999999986},{\"page_index\":5,\"viewing_time\":1663.4750000000931}]","rt":19044.07500000001,"trial_type":"pit-instructions","trial_index":35,"time_elapsed":293497,"internal_node_id":"0.0-6.0-12.0","task_version":"battery-v0.2-trt"},{"responses":["Press SPACE","+10","-1","True","True"],"num_errors":0,"rt":20884.635000000126,"trial_type":"pit-comprehension","trial_index":36,"time_elapsed":314385,"internal_node_id":"0.0-6.0-13.0","task_version":"battery-v0.2-trt"},{"view_history":"[{\"page_index\":0,\"viewing_time\":2515.2049999999},{\"page_index\":1,\"viewing_time\":5174.230000000098}]","rt":7689.820000000007,"trial_type":"pit-instructions","trial_index":37,"time_elapsed":322078,"internal_node_id":"0.0-7.0","task_version":"battery-v0.2-trt"},{"rune":"A","rune_set":"elianto","hex":"#f73b6a7A","correct":-1,"choice":-1,"rt":-1,"accuracy":1,"outcome":"-1","keys":[],"total_keys":0,"block":1,"trial":1,"stimulus":2,"robot":4,"valence":"lose","action":"no-go","sham":0,"trial_type":"pit-trial","trial_index":38,"time_elapsed":326087,"internal_node_id":"0.0-8.0","task_version":"battery-v0.2-trt"},{"rune":"G","rune_set":"elianto","hex":"#3366ff99","correct":32,"choice":32,"rt":616.5350000000908,"accuracy":1,"outcome":"+10","keys":[2118.015000000014],"total_keys":1,"block":1,"trial":2,"stimulus":3,"robot":1,"valence":"win","action":"go","sham":0,"trial_type":"pit-trial","trial_index":39,"time_elapsed":329408,"internal_node_id":"0.0-9.0","task_version":"battery-v0.2-trt"},{"rune":"U","rune_set":"elianto","hex":"#3366ff99","correct":-1,"choice":32,"rt":532.3599999999278,"accuracy":0,"outcome":"+10","keys":[2035.5250000000233],"total_keys":1,"block":1,"trial":3,"stimulus":0,"robot":2,"valence":"win","action":"no-go","sham":1,"trial_type":"pit-trial","trial_index":40,"time_elapsed":332647,"internal_node_id":"0.0-10.0","task_version":"battery-v0.2-trt"},{"rune":"L","rune_set":"elianto","hex":"#3366ff99","correct":32,"choice":32,"rt":576.0399999999208,"accuracy":1,"outcome":"+10","keys":[2076.3049999998184],"total_keys":1,"block":1,"trial":4,"stimulus":1,"robot":1,"valence":"win","action":"go","sham":0,"trial_type":"pit-trial","trial_index":41,"time_elapsed":335927,"internal_node_id":"0.0-11.0","task_version":"battery-v0.2-trt"},{"rune":"A","rune_set":"elianto","hex":"#f73b6a7A","correct":-1,"choice":-1,"rt":-1,"accuracy":1,"outcome":"-1","keys":[],"total_keys":0,"block":1,"trial":5,"stimulus":2,"robot":4,"valence":"lose","action":"no-go","sham":0,"trial_type":"pit-trial","trial_index":42,"time_elapsed":339932,"internal_node_id":"0.0-12.0","task_version":"battery-v0.2-trt"},{"rune":"U","rune_set":"elianto","hex":"#3366ff99","correct":-1,"choice":32,"rt":575.7849999999744,"accuracy":0,"outcome":"+1","keys":[2076.7399999999907],"total_keys":1,"block":1,"trial":6,"stimulus":0,"robot":2,"valence":"win","action":"no-go","sham":0,"trial_type":"pit-trial","trial_index":43,"time_elapsed":343212,"internal_node_id":"0.0-13.0","task_version":"battery-v0.2-trt"},{"rune":"L","rune_set":"elianto","hex":"#3366ff99","correct":32,"choice":32,"rt":430.90999999979977,"accuracy":1,"outcome":"+10","keys":[1932.8049999998766],"total_keys":1,"block":1,"trial":7,"stimulus":1,"robot":1,"valence":"win","action":"go","sham":0,"trial_type":"pit-trial","trial_index":44,"time_elapsed":346347,"internal_node_id":"0.0-14.0","task_version":"battery-v0.2-trt"},{"rune":"G","rune_set":"elianto","hex":"#3366ff99","correct":32,"choice":32,"rt":503.0349999999162,"accuracy":1,"outcome":"+10","keys":[2004.729999999865],"total_keys":1,"block":1,"trial":8,"stimulus":3,"robot":1,"valence":"win","action":"go","sham":0,"trial_type":"pit-trial","trial_index":45,"time_elapsed":349553,"internal_node_id":"0.0-15.0","task_version":"battery-v0.2-trt"},{"rune":"G","rune_set":"elianto","hex":"#3366ff99","correct":32,"choice":32,"rt":839.8449999999721,"accuracy":1,"outcome":"+10","keys":[2342.029999999795],"total_keys":1,"block":1,"trial":9,"stimulus":3,"robot":1,"valence":"win","action":"go","sham":0,"trial_type":"pit-trial","trial_index":46,"time_elapsed":353098,"internal_node_id":"0.0-16.0","task_version":"battery-v0.2-trt"},{"rune":"A","rune_set":"elianto","hex":"#f73b6a7A","correct":-1,"choice":-1,"rt":-1,"accuracy":1,"outcome":"-1","keys":[],"total_keys":0,"block":1,"trial":10,"stimulus":2,"robot":4,"valence":"lose","action":"no-go","sham":0,"trial_type":"pit-trial","trial_index":47,"time_elapsed":357103,"internal_node_id":"0.0-17.0","task_version":"battery-v0.2-trt"},{"rune":"U","rune_set":"elianto","hex":"#3366ff99","correct":-1,"choice":32,"rt":675.9749999998603,"accuracy":0,"outcome":"+1","keys":[2176.785000000149],"total_keys":1,"block":1,"trial":11,"stimulus":0,"robot":2,"valence":"win","action":"no-go","sham":0,"trial_type":"pit-trial","trial_index":48,"time_elapsed":360487,"internal_node_id":"0.0-18.0","task_version":"battery-v0.2-trt"},{"rune":"L","rune_set":"elianto","hex":"#3366ff99","correct":32,"choice":32,"rt":497.85999999998603,"accuracy":1,"outcome":"+1","keys":[1998.5950000000303],"total_keys":1,"block":1,"trial":12,"stimulus":1,"robot":1,"valence":"win","action":"go","sham":1,"trial_type":"pit-trial","trial_index":49,"time_elapsed":363692,"internal_node_id":"0.0-19.0","task_version":"battery-v0.2-trt"},{"rune":"G","rune_set":"elianto","hex":"#3366ff99","correct":32,"choice":32,"rt":839.1999999998952,"accuracy":1,"outcome":"+1","keys":[2339.479999999865],"total_keys":1,"block":1,"trial":13,"stimulus":3,"robot":1,"valence":"win","action":"go","sham":1,"trial_type":"pit-trial","trial_index":50,"time_elapsed":367239,"internal_node_id":"0.0-20.0","task_version":"battery-v0.2-trt"},{"rune":"A","rune_set":"elianto","hex":"#f73b6a7A","correct":-1,"choice":-1,"rt":-1,"accuracy":1,"outcome":"-10","keys":[],"total_keys":0,"block":1,"trial":14,"stimulus":2,"robot":4,"valence":"lose","action":"no-go","sham":1,"trial_type":"pit-trial","trial_index":51,"time_elapsed":371244,"internal_node_id":"0.0-21.0","task_version":"battery-v0.2-trt"},{"rune":"U","rune_set":"elianto","hex":"#3366ff99","correct":-1,"choice":32,"rt":595.2199999999139,"accuracy":0,"outcome":"+1","keys":[2095.6300000000047],"total_keys":1,"block":1,"trial":15,"stimulus":0,"robot":2,"valence":"win","action":"no-go","sham":0,"trial_type":"pit-trial","trial_index":52,"time_elapsed":374544,"internal_node_id":"0.0-22.0","task_version":"battery-v0.2-trt"},{"rune":"L","rune_set":"elianto","hex":"#3366ff99","correct":32,"choice":-1,"rt":-1,"accuracy":0,"outcome":"+1","keys":[],"total_keys":0,"block":1,"trial":16,"stimulus":1,"robot":1,"valence":"win","action":"go","sham":0,"trial_type":"pit-trial","trial_index":53,"time_elapsed":378553,"internal_node_id":"0.0-23.0","task_version":"battery-v0.2-trt"},{"rune":"A","rune_set":"elianto","hex":"#f73b6a7A","correct":-1,"choice":-1,"rt":-1,"accuracy":1,"outcome":"-1","keys":[],"total_keys":0,"block":1,"trial":17,"stimulus":2,"robot":4,"valence":"lose","action":"no-go","sham":0,"trial_type":"pit-trial","trial_index":54,"time_elapsed":382558,"internal_node_id":"0.0-24.0","task_version":"battery-v0.2-trt"},{"rune":"G","rune_set":"elianto","hex":"#3366ff99","correct":32,"choice":32,"rt":580.554999999993,"accuracy":1,"outcome":"+10","keys":[2082.209999999788],"total_keys":1,"block":1,"trial":18,"stimulus":3,"robot":1,"valence":"win","action":"go","sham":0,"trial_type":"pit-trial","trial_index":55,"time_elapsed":385844,"internal_node_id":"0.0-25.0","task_version":"battery-v0.2-trt"},{"rune":"U","rune_set":"elianto","hex":"#3366ff99","correct":-1,"choice":32,"rt":642.7750000000233,"accuracy":0,"outcome":"+1","keys":[2144.5750000000116],"total_keys":1,"block":1,"trial":19,"stimulus":0,"robot":2,"valence":"win","action":"no-go","sham":0,"trial_type":"pit-trial","trial_index":56,"time_elapsed":389193,"internal_node_id":"0.0-26.0","task_version":"battery-v0.2-trt"},{"rune":"L","rune_set":"elianto","hex":"#3366ff99","correct":32,"choice":-1,"rt":-1,"accuracy":0,"outcome":"+10","keys":[],"total_keys":0,"block":1,"trial":20,"stimulus":1,"robot":1,"valence":"win","action":"go","sham":1,"trial_type":"pit-trial","trial_index":57,"time_elapsed":393199,"internal_node_id":"0.0-27.0","task_version":"battery-v0.2-trt"},{"rune":"G","rune_set":"elianto","hex":"#3366ff99","correct":32,"choice":32,"rt":706.0549999998766,"accuracy":1,"outcome":"+10","keys":[2208.194999999949],"total_keys":1,"block":1,"trial":21,"stimulus":3,"robot":1,"valence":"win","action":"go","sham":0,"trial_type":"pit-trial","trial_index":58,"time_elapsed":396612,"internal_node_id":"0.0-28.0","task_version":"battery-v0.2-trt"},{"rune":"A","rune_set":"elianto","hex":"#f73b6a7A","correct":-1,"choice":32,"rt":770.5799999998417,"accuracy":0,"outcome":"-10","keys":[2272.009999999893],"total_keys":1,"block":1,"trial":22,"stimulus":2,"robot":4,"valence":"lose","action":"no-go","sham":0,"trial_type":"pit-trial","trial_index":59,"time_elapsed":400089,"internal_node_id":"0.0-29.0","task_version":"battery-v0.2-trt"},{"rune":"L","rune_set":"elianto","hex":"#3366ff99","correct":32,"choice":32,"rt":590.5850000001956,"accuracy":1,"outcome":"+10","keys":[2092.499999999942],"total_keys":1,"block":1,"trial":23,"stimulus":1,"robot":1,"valence":"win","action":"go","sham":0,"trial_type":"pit-trial","trial_index":60,"time_elapsed":403387,"internal_node_id":"0.0-30.0","task_version":"battery-v0.2-trt"},{"rune":"U","rune_set":"elianto","hex":"#3366ff99","correct":-1,"choice":32,"rt":573.8149999999441,"accuracy":0,"outcome":"+1","keys":[2074.695000000007],"total_keys":1,"block":1,"trial":24,"stimulus":0,"robot":2,"valence":"win","action":"no-go","sham":0,"trial_type":"pit-trial","trial_index":61,"time_elapsed":406666,"internal_node_id":"0.0-31.0","task_version":"battery-v0.2-trt"},{"rune":"G","rune_set":"elianto","hex":"#3366ff99","correct":32,"choice":-1,"rt":-1,"accuracy":0,"outcome":"+10","keys":[],"total_keys":0,"block":1,"trial":25,"stimulus":3,"robot":1,"valence":"win","action":"go","sham":1,"trial_type":"pit-trial","trial_index":62,"time_elapsed":410678,"internal_node_id":"0.0-32.0","task_version":"battery-v0.2-trt"},{"rune":"U","rune_set":"elianto","hex":"#3366ff99","correct":-1,"choice":32,"rt":734.7449999999371,"accuracy":0,"outcome":"+1","keys":[2235.2450000001118],"total_keys":1,"block":1,"trial":26,"stimulus":0,"robot":2,"valence":"win","action":"no-go","sham":0,"trial_type":"pit-trial","trial_index":63,"time_elapsed":414121,"internal_node_id":"0.0-33.0","task_version":"battery-v0.2-trt"},{"rune":"A","rune_set":"elianto","hex":"#f73b6a7A","correct":-1,"choice":-1,"rt":-1,"accuracy":1,"outcome":"-1","keys":[],"total_keys":0,"block":1,"trial":27,"stimulus":2,"robot":4,"valence":"lose","action":"no-go","sham":0,"trial_type":"pit-trial","trial_index":64,"time_elapsed":418133,"internal_node_id":"0.0-34.0","task_version":"battery-v0.2-trt"},{"rune":"L","rune_set":"elianto","hex":"#3366ff99","correct":32,"choice":32,"rt":728.979999999865,"accuracy":1,"outcome":"+10","keys":[2229.2950000001],"total_keys":1,"block":1,"trial":28,"stimulus":1,"robot":1,"valence":"win","action":"go","sham":0,"trial_type":"pit-trial","trial_index":65,"time_elapsed":421570,"internal_node_id":"0.0-35.0","task_version":"battery-v0.2-trt"},{"rune":"G","rune_set":"elianto","hex":"#3366ff99","correct":32,"choice":32,"rt":726.0699999999488,"accuracy":1,"outcome":"+10","keys":[2226.2900000000955],"total_keys":1,"block":1,"trial":29,"stimulus":3,"robot":1,"valence":"win","action":"go","sham":0,"trial_type":"pit-trial","trial_index":66,"time_elapsed":425001,"internal_node_id":"0.0-36.0","task_version":"battery-v0.2-trt"},{"rune":"A","rune_set":"elianto","hex":"#f73b6a7A","correct":-1,"choice":-1,"rt":-1,"accuracy":1,"outcome":"-10","keys":[],"total_keys":0,"block":1,"trial":30,"stimulus":2,"robot":4,"valence":"lose","action":"no-go","sham":1,"trial_type":"pit-trial","trial_index":67,"time_elapsed":429008,"internal_node_id":"0.0-37.0","task_version":"battery-v0.2-trt"},{"rune":"L","rune_set":"elianto","hex":"#3366ff99","correct":32,"choice":-1,"rt":-1,"accuracy":0,"outcome":"+10","keys":[],"total_keys":0,"block":1,"trial":31,"stimulus":1,"robot":1,"valence":"win","action":"go","sham":1,"trial_type":"pit-trial","trial_index":68,"time_elapsed":433013,"internal_node_id":"0.0-38.0","task_version":"battery-v0.2-trt"},{"rune":"U","rune_set":"elianto","hex":"#3366ff99","correct":-1,"choice":32,"rt":612.9100000000326,"accuracy":0,"outcome":"+1","keys":[2113.1149999998743],"total_keys":1,"block":1,"trial":32,"stimulus":0,"robot":2,"valence":"win","action":"no-go","sham":0,"trial_type":"pit-trial","trial_index":69,"time_elapsed":436333,"internal_node_id":"0.0-39.0","task_version":"battery-v0.2-trt"},{"rune":"A","rune_set":"elianto","hex":"#f73b6a7A","correct":-1,"choice":-1,"rt":-1,"accuracy":1,"outcome":"-1","keys":[],"total_keys":0,"block":1,"trial":33,"stimulus":2,"robot":4,"valence":"lose","action":"no-go","sham":0,"trial_type":"pit-trial","trial_index":70,"time_elapsed":440345,"internal_node_id":"0.0-40.0","task_version":"battery-v0.2-trt"},{"rune":"G","rune_set":"elianto","hex":"#3366ff99","correct":32,"choice":32,"rt":659.2999999998137,"accuracy":1,"outcome":"+10","keys":[2161.1249999998254],"total_keys":1,"block":1,"trial":34,"stimulus":3,"robot":1,"valence":"win","action":"go","sham":0,"trial_type":"pit-trial","trial_index":71,"time_elapsed":443712,"internal_node_id":"0.0-41.0","task_version":"battery-v0.2-trt"},{"rune":"P","rune_set":"elianto","hex":"#3366ff99","correct":32,"choice":32,"rt":636.2000000001281,"accuracy":1,"outcome":"+10","keys":[2137.8099999999977],"total_keys":1,"block":1,"trial":35,"stimulus":4,"robot":1,"valence":"win","action":"go","sham":0,"trial_type":"pit-trial","trial_index":72,"time_elapsed":447056,"internal_node_id":"0.0-42.0","task_version":"battery-v0.2-trt"},{"rune":"U","rune_set":"elianto","hex":"#3366ff99","correct":-1,"choice":-1,"rt":-1,"accuracy":1,"outcome":"+1","keys":[],"total_keys":0,"block":1,"trial":36,"stimulus":0,"robot":2,"valence":"win","action":"no-go","sham":1,"trial_type":"pit-trial","trial_index":73,"time_elapsed":451061,"internal_node_id":"0.0-43.0","task_version":"battery-v0.2-trt"},{"rune":"A","rune_set":"elianto","hex":"#f73b6a7A","correct":-1,"choice":32,"rt":819.3449999999139,"accuracy":0,"outcome":"-1","keys":[2320.0550000001676],"total_keys":1,"block":1,"trial":37,"stimulus":2,"robot":4,"valence":"lose","action":"no-go","sham":1,"trial_type":"pit-trial","trial_index":74,"time_elapsed":454585,"internal_node_id":"0.0-44.0","task_version":"battery-v0.2-trt"},{"rune":"P","rune_set":"elianto","hex":"#3366ff99","correct":32,"choice":32,"rt":844.2000000000116,"accuracy":1,"outcome":"+10","keys":[2346.0249999998487],"total_keys":1,"block":1,"trial":38,"stimulus":4,"robot":1,"valence":"win","action":"go","sham":0,"trial_type":"pit-trial","trial_index":75,"time_elapsed":458138,"internal_node_id":"0.0-45.0","task_version":"battery-v0.2-trt"},{"rune":"G","rune_set":"elianto","hex":"#3366ff99","correct":32,"choice":32,"rt":680.4899999999325,"accuracy":1,"outcome":"+10","keys":[2182.005000000121],"total_keys":1,"block":1,"trial":39,"stimulus":3,"robot":1,"valence":"win","action":"go","sham":0,"trial_type":"pit-trial","trial_index":76,"time_elapsed":461522,"internal_node_id":"0.0-46.0","task_version":"battery-v0.2-trt"},{"rune":"U","rune_set":"elianto","hex":"#3366ff99","correct":-1,"choice":-1,"rt":-1,"accuracy":1,"outcome":"+10","keys":[],"total_keys":0,"block":1,"trial":40,"stimulus":0,"robot":2,"valence":"win","action":"no-go","sham":0,"trial_type":"pit-trial","trial_index":77,"time_elapsed":465528,"internal_node_id":"0.0-47.0","task_version":"battery-v0.2-trt"},{"rune":"S","rune_set":"elianto","hex":"#f73b6a7A","correct":32,"choice":-1,"rt":-1,"accuracy":0,"outcome":"-10","keys":[],"total_keys":0,"block":1,"trial":41,"stimulus":5,"robot":3,"valence":"lose","action":"go","sham":0,"trial_type":"pit-trial","trial_index":78,"time_elapsed":469533,"internal_node_id":"0.0-48.0","task_version":"battery-v0.2-trt"},{"rune":"U","rune_set":"elianto","hex":"#3366ff99","correct":-1,"choice":32,"rt":780.9899999999325,"accuracy":0,"outcome":"+1","keys":[2284.1250000001746],"total_keys":1,"block":1,"trial":42,"stimulus":0,"robot":2,"valence":"win","action":"no-go","sham":0,"trial_type":"pit-trial","trial_index":79,"time_elapsed":473022,"internal_node_id":"0.0-49.0","task_version":"battery-v0.2-trt"},{"rune":"W","rune_set":"elianto","hex":"#f73b6a7A","correct":-1,"choice":-1,"rt":-1,"accuracy":1,"outcome":"-1","keys":[],"total_keys":0,"block":1,"trial":43,"stimulus":6,"robot":4,"valence":"lose","action":"no-go","sham":0,"trial_type":"pit-trial","trial_index":80,"time_elapsed":477028,"internal_node_id":"0.0-50.0","task_version":"battery-v0.2-trt"},{"rune":"P","rune_set":"elianto","hex":"#3366ff99","correct":32,"choice":32,"rt":1050.4700000001467,"accuracy":1,"outcome":"+10","keys":[2551.9399999998277],"total_keys":1,"block":1,"trial":44,"stimulus":4,"robot":1,"valence":"win","action":"go","sham":0,"trial_type":"pit-trial","trial_index":81,"time_elapsed":480783,"internal_node_id":"0.0-51.0","task_version":"battery-v0.2-trt"},{"rune":"P","rune_set":"elianto","hex":"#3366ff99","correct":32,"choice":32,"rt":721.8500000000931,"accuracy":1,"outcome":"+1","keys":[2222.6399999999558],"total_keys":1,"block":1,"trial":45,"stimulus":4,"robot":1,"valence":"win","action":"go","sham":1,"trial_type":"pit-trial","trial_index":82,"time_elapsed":484208,"internal_node_id":"0.0-52.0","task_version":"battery-v0.2-trt"},{"rune":"S","rune_set":"elianto","hex":"#f73b6a7A","correct":32,"choice":-1,"rt":-1,"accuracy":0,"outcome":"-10","keys":[],"total_keys":0,"block":1,"trial":46,"stimulus":5,"robot":3,"valence":"lose","action":"go","sham":0,"trial_type":"pit-trial","trial_index":83,"time_elapsed":488214,"internal_node_id":"0.0-53.0","task_version":"battery-v0.2-trt"},{"rune":"W","rune_set":"elianto","hex":"#f73b6a7A","correct":-1,"choice":32,"rt":1059.8150000000605,"accuracy":0,"outcome":"-10","keys":[2560.865000000107],"total_keys":1,"block":1,"trial":47,"stimulus":6,"robot":4,"valence":"lose","action":"no-go","sham":0,"trial_type":"pit-trial","trial_index":84,"time_elapsed":491981,"internal_node_id":"0.0-54.0","task_version":"battery-v0.2-trt"},{"rune":"U","rune_set":"elianto","hex":"#3366ff99","correct":-1,"choice":32,"rt":662.8099999999977,"accuracy":0,"outcome":"+1","keys":[2164.4449999998906],"total_keys":1,"block":1,"trial":48,"stimulus":0,"robot":2,"valence":"win","action":"no-go","sham":0,"trial_type":"pit-trial","trial_index":85,"time_elapsed":495348,"internal_node_id":"0.0-55.0","task_version":"battery-v0.2-trt"},{"rune":"P","rune_set":"elianto","hex":"#3366ff99","correct":32,"choice":32,"rt":620.085000000021,"accuracy":1,"outcome":"+10","keys":[2121.9700000001467],"total_keys":1,"block":1,"trial":49,"stimulus":4,"robot":1,"valence":"win","action":"go","sham":0,"trial_type":"pit-trial","trial_index":86,"time_elapsed":498674,"internal_node_id":"0.0-56.0","task_version":"battery-v0.2-trt"},{"rune":"W","rune_set":"elianto","hex":"#f73b6a7A","correct":-1,"choice":32,"rt":992.3349999999045,"accuracy":0,"outcome":"-10","keys":[2492.479999999923],"total_keys":1,"block":1,"trial":50,"stimulus":6,"robot":4,"valence":"lose","action":"no-go","sham":0,"trial_type":"pit-trial","trial_index":87,"time_elapsed":502373,"internal_node_id":"0.0-57.0","task_version":"battery-v0.2-trt"},{"rune":"E","rune_set":"elianto","hex":"#3366ff99","correct":-1,"choice":32,"rt":889.6450000001932,"accuracy":0,"outcome":"+1","keys":[2391.104999999923],"total_keys":1,"block":1,"trial":51,"stimulus":7,"robot":2,"valence":"win","action":"no-go","sham":0,"trial_type":"pit-trial","trial_index":88,"time_elapsed":505971,"internal_node_id":"0.0-58.0","task_version":"battery-v0.2-trt"},{"rune":"S","rune_set":"elianto","hex":"#f73b6a7A","correct":32,"choice":-1,"rt":-1,"accuracy":0,"outcome":"-1","keys":[],"total_keys":0,"block":1,"trial":52,"stimulus":5,"robot":3,"valence":"lose","action":"go","sham":1,"trial_type":"pit-trial","trial_index":89,"time_elapsed":509977,"internal_node_id":"0.0-59.0","task_version":"battery-v0.2-trt"},{"rune":"W","rune_set":"elianto","hex":"#f73b6a7A","correct":-1,"choice":-1,"rt":-1,"accuracy":1,"outcome":"-10","keys":[],"total_keys":0,"block":1,"trial":53,"stimulus":6,"robot":4,"valence":"lose","action":"no-go","sham":1,"trial_type":"pit-trial","trial_index":90,"time_elapsed":513982,"internal_node_id":"0.0-60.0","task_version":"battery-v0.2-trt"},{"rune":"E","rune_set":"elianto","hex":"#3366ff99","correct":-1,"choice":32,"rt":572.5749999998952,"accuracy":0,"outcome":"+1","keys":[2073.574999999895],"total_keys":1,"block":1,"trial":54,"stimulus":7,"robot":2,"valence":"win","action":"no-go","sham":0,"trial_type":"pit-trial","trial_index":91,"time_elapsed":517262,"internal_node_id":"0.0-61.0","task_version":"battery-v0.2-trt"},{"rune":"S","rune_set":"elianto","hex":"#f73b6a7A","correct":32,"choice":-1,"rt":-1,"accuracy":0,"outcome":"-10","keys":[],"total_keys":0,"block":1,"trial":55,"stimulus":5,"robot":3,"valence":"lose","action":"go","sham":0,"trial_type":"pit-trial","trial_index":92,"time_elapsed":521267,"internal_node_id":"0.0-62.0","task_version":"battery-v0.2-trt"},{"rune":"P","rune_set":"elianto","hex":"#3366ff99","correct":32,"choice":32,"rt":605.4500000000116,"accuracy":1,"outcome":"+10","keys":[2107.234999999986],"total_keys":1,"block":1,"trial":56,"stimulus":4,"robot":1,"valence":"win","action":"go","sham":0,"trial_type":"pit-trial","trial_index":93,"time_elapsed":524582,"internal_node_id":"0.0-63.0","task_version":"battery-v0.2-trt"},{"rune":"W","rune_set":"elianto","hex":"#f73b6a7A","correct":-1,"choice":-1,"rt":-1,"accuracy":1,"outcome":"-10","keys":[],"total_keys":0,"block":1,"trial":57,"stimulus":6,"robot":4,"valence":"lose","action":"no-go","sham":1,"trial_type":"pit-trial","trial_index":94,"time_elapsed":528588,"internal_node_id":"0.0-64.0","task_version":"battery-v0.2-trt"},{"rune":"P","rune_set":"elianto","hex":"#3366ff99","correct":32,"choice":32,"rt":594.5099999998929,"accuracy":1,"outcome":"+10","keys":[2094.75],"total_keys":1,"block":1,"trial":58,"stimulus":4,"robot":1,"valence":"win","action":"go","sham":0,"trial_type":"pit-trial","trial_index":95,"time_elapsed":531885,"internal_node_id":"0.0-65.0","task_version":"battery-v0.2-trt"},{"rune":"E","rune_set":"elianto","hex":"#3366ff99","correct":-1,"choice":-1,"rt":-1,"accuracy":1,"outcome":"+10","keys":[],"total_keys":0,"block":1,"trial":59,"stimulus":7,"robot":2,"valence":"win","action":"no-go","sham":0,"trial_type":"pit-trial","trial_index":96,"time_elapsed":535896,"internal_node_id":"0.0-66.0","task_version":"battery-v0.2-trt"},{"rune":"S","rune_set":"elianto","hex":"#f73b6a7A","correct":32,"choice":-1,"rt":-1,"accuracy":0,"outcome":"-10","keys":[],"total_keys":0,"block":1,"trial":60,"stimulus":5,"robot":3,"valence":"lose","action":"go","sham":0,"trial_type":"pit-trial","trial_index":97,"time_elapsed":539902,"internal_node_id":"0.0-67.0","task_version":"battery-v0.2-trt"},{"rune":"E","rune_set":"elianto","hex":"#3366ff99","correct":-1,"choice":-1,"rt":-1,"accuracy":1,"outcome":"+10","keys":[],"total_keys":0,"block":1,"trial":61,"stimulus":7,"robot":2,"valence":"win","action":"no-go","sham":0,"trial_type":"pit-trial","trial_index":98,"time_elapsed":543907,"internal_node_id":"0.0-68.0","task_version":"battery-v0.2-trt"},{"rune":"S","rune_set":"elianto","hex":"#f73b6a7A","correct":32,"choice":32,"rt":1081.7700000000186,"accuracy":1,"outcome":"-1","keys":[2583.2550000000047],"total_keys":1,"block":1,"trial":62,"stimulus":5,"robot":3,"valence":"lose","action":"go","sham":0,"trial_type":"pit-trial","trial_index":99,"time_elapsed":547697,"internal_node_id":"0.0-69.0","task_version":"battery-v0.2-trt"},{"rune":"W","rune_set":"elianto","hex":"#f73b6a7A","correct":-1,"choice":-1,"rt":-1,"accuracy":1,"outcome":"-10","keys":[],"total_keys":0,"block":1,"trial":63,"stimulus":6,"robot":4,"valence":"lose","action":"no-go","sham":1,"trial_type":"pit-trial","trial_index":100,"time_elapsed":551707,"internal_node_id":"0.0-70.0","task_version":"battery-v0.2-trt"},{"rune":"P","rune_set":"elianto","hex":"#3366ff99","correct":32,"choice":32,"rt":858.5749999999534,"accuracy":1,"outcome":"+10","keys":[2359.259999999893],"total_keys":1,"block":1,"trial":64,"stimulus":4,"robot":1,"valence":"win","action":"go","sham":0,"trial_type":"pit-trial","trial_index":101,"time_elapsed":555273,"internal_node_id":"0.0-71.0","task_version":"battery-v0.2-trt"},{"rune":"E","rune_set":"elianto","hex":"#3366ff99","correct":-1,"choice":-1,"rt":-1,"accuracy":1,"outcome":"+10","keys":[],"total_keys":0,"block":1,"trial":65,"stimulus":7,"robot":2,"valence":"win","action":"no-go","sham":0,"trial_type":"pit-trial","trial_index":102,"time_elapsed":559279,"internal_node_id":"0.0-72.0","task_version":"battery-v0.2-trt"},{"rune":"S","rune_set":"elianto","hex":"#f73b6a7A","correct":32,"choice":-1,"rt":-1,"accuracy":0,"outcome":"-10","keys":[],"total_keys":0,"block":1,"trial":66,"stimulus":5,"robot":3,"valence":"lose","action":"go","sham":0,"trial_type":"pit-trial","trial_index":103,"time_elapsed":563285,"internal_node_id":"0.0-73.0","task_version":"battery-v0.2-trt"},{"rune":"W","rune_set":"elianto","hex":"#f73b6a7A","correct":-1,"choice":32,"rt":947.8849999997765,"accuracy":0,"outcome":"-1","keys":[2448.5300000001444],"total_keys":1,"block":1,"trial":67,"stimulus":6,"robot":4,"valence":"lose","action":"no-go","sham":1,"trial_type":"pit-trial","trial_index":104,"time_elapsed":566936,"internal_node_id":"0.0-74.0","task_version":"battery-v0.2-trt"},{"rune":"P","rune_set":"elianto","hex":"#3366ff99","correct":32,"choice":32,"rt":641.3349999999627,"accuracy":1,"outcome":"+1","keys":[2142.7149999999674],"total_keys":1,"block":1,"trial":68,"stimulus":4,"robot":1,"valence":"win","action":"go","sham":1,"trial_type":"pit-trial","trial_index":105,"time_elapsed":570285,"internal_node_id":"0.0-75.0","task_version":"battery-v0.2-trt"},{"rune":"P","rune_set":"elianto","hex":"#3366ff99","correct":32,"choice":32,"rt":690.6949999999488,"accuracy":1,"outcome":"+10","keys":[2190.859999999986],"total_keys":1,"block":1,"trial":69,"stimulus":4,"robot":1,"valence":"win","action":"go","sham":0,"trial_type":"pit-trial","trial_index":106,"time_elapsed":573681,"internal_node_id":"0.0-76.0","task_version":"battery-v0.2-trt"},{"rune":"S","rune_set":"elianto","hex":"#f73b6a7A","correct":32,"choice":-1,"rt":-1,"accuracy":0,"outcome":"-1","keys":[],"total_keys":0,"block":1,"trial":70,"stimulus":5,"robot":3,"valence":"lose","action":"go","sham":1,"trial_type":"pit-trial","trial_index":107,"time_elapsed":577686,"internal_node_id":"0.0-77.0","task_version":"battery-v0.2-trt"},{"rune":"W","rune_set":"elianto","hex":"#f73b6a7A","correct":-1,"choice":-1,"rt":-1,"accuracy":1,"outcome":"-1","keys":[],"total_keys":0,"block":1,"trial":71,"stimulus":6,"robot":4,"valence":"lose","action":"no-go","sham":0,"trial_type":"pit-trial","trial_index":108,"time_elapsed":581689,"internal_node_id":"0.0-78.0","task_version":"battery-v0.2-trt"},{"rune":"E","rune_set":"elianto","hex":"#3366ff99","correct":-1,"choice":-1,"rt":-1,"accuracy":1,"outcome":"+10","keys":[],"total_keys":0,"block":1,"trial":72,"stimulus":7,"robot":2,"valence":"win","action":"no-go","sham":0,"trial_type":"pit-trial","trial_index":109,"time_elapsed":585696,"internal_node_id":"0.0-79.0","task_version":"battery-v0.2-trt"},{"rune":"K","rune_set":"elianto","hex":"#f73b6a7A","correct":32,"choice":32,"rt":1098.3249999999534,"accuracy":1,"outcome":"-1","keys":[2599.9400000000605],"total_keys":1,"block":1,"trial":73,"stimulus":8,"robot":3,"valence":"lose","action":"go","sham":0,"trial_type":"pit-trial","trial_index":110,"time_elapsed":589499,"internal_node_id":"0.0-80.0","task_version":"battery-v0.2-trt"},{"rune":"E","rune_set":"elianto","hex":"#3366ff99","correct":-1,"choice":-1,"rt":-1,"accuracy":1,"outcome":"+10","keys":[],"total_keys":0,"block":1,"trial":74,"stimulus":7,"robot":2,"valence":"win","action":"no-go","sham":0,"trial_type":"pit-trial","trial_index":111,"time_elapsed":593507,"internal_node_id":"0.0-81.0","task_version":"battery-v0.2-trt"},{"rune":"P","rune_set":"elianto","hex":"#3366ff99","correct":32,"choice":32,"rt":667.4000000000233,"accuracy":1,"outcome":"+10","keys":[2167.494999999879],"total_keys":1,"block":1,"trial":75,"stimulus":4,"robot":1,"valence":"win","action":"go","sham":0,"trial_type":"pit-trial","trial_index":112,"time_elapsed":596877,"internal_node_id":"0.0-82.0","task_version":"battery-v0.2-trt"},{"rune":"W","rune_set":"elianto","hex":"#f73b6a7A","correct":-1,"choice":-1,"rt":-1,"accuracy":1,"outcome":"-10","keys":[],"total_keys":0,"block":1,"trial":76,"stimulus":6,"robot":4,"valence":"lose","action":"no-go","sham":1,"trial_type":"pit-trial","trial_index":113,"time_elapsed":600880,"internal_node_id":"0.0-83.0","task_version":"battery-v0.2-trt"},{"rune":"W","rune_set":"elianto","hex":"#f73b6a7A","correct":-1,"choice":32,"rt":539.2450000001118,"accuracy":0,"outcome":"-10","keys":[2041.4350000000559],"total_keys":1,"block":1,"trial":77,"stimulus":6,"robot":4,"valence":"lose","action":"no-go","sham":0,"trial_type":"pit-trial","trial_index":114,"time_elapsed":604124,"internal_node_id":"0.0-84.0","task_version":"battery-v0.2-trt"},{"rune":"E","rune_set":"elianto","hex":"#3366ff99","correct":-1,"choice":-1,"rt":-1,"accuracy":1,"outcome":"+10","keys":[],"total_keys":0,"block":1,"trial":78,"stimulus":7,"robot":2,"valence":"win","action":"no-go","sham":0,"trial_type":"pit-trial","trial_index":115,"time_elapsed":608128,"internal_node_id":"0.0-85.0","task_version":"battery-v0.2-trt"},{"rune":"P","rune_set":"elianto","hex":"#3366ff99","correct":32,"choice":32,"rt":755.8650000001071,"accuracy":1,"outcome":"+1","keys":[2256.6700000001583],"total_keys":1,"block":1,"trial":79,"stimulus":4,"robot":1,"valence":"win","action":"go","sham":1,"trial_type":"pit-trial","trial_index":116,"time_elapsed":611588,"internal_node_id":"0.0-86.0","task_version":"battery-v0.2-trt"},{"rune":"K","rune_set":"elianto","hex":"#f73b6a7A","correct":32,"choice":-1,"rt":-1,"accuracy":0,"outcome":"-1","keys":[],"total_keys":0,"block":1,"trial":80,"stimulus":8,"robot":3,"valence":"lose","action":"go","sham":1,"trial_type":"pit-trial","trial_index":117,"time_elapsed":615598,"internal_node_id":"0.0-87.0","task_version":"battery-v0.2-trt"},{"rune":"D","rune_set":"elianto","hex":"#f73b6a7A","correct":32,"choice":32,"rt":982.2300000000978,"accuracy":1,"outcome":"-1","keys":[2484.7050000000745],"total_keys":1,"block":1,"trial":81,"stimulus":9,"robot":3,"valence":"lose","action":"go","sham":0,"trial_type":"pit-trial","trial_index":118,"time_elapsed":619287,"internal_node_id":"0.0-88.0","task_version":"battery-v0.2-trt"},{"rune":"W","rune_set":"elianto","hex":"#f73b6a7A","correct":-1,"choice":-1,"rt":-1,"accuracy":1,"outcome":"-10","keys":[],"total_keys":0,"block":1,"trial":82,"stimulus":6,"robot":4,"valence":"lose","action":"no-go","sham":1,"trial_type":"pit-trial","trial_index":119,"time_elapsed":623290,"internal_node_id":"0.0-89.0","task_version":"battery-v0.2-trt"},{"rune":"K","rune_set":"elianto","hex":"#f73b6a7A","correct":32,"choice":32,"rt":774.6950000000652,"accuracy":1,"outcome":"-1","keys":[2275.70000000007],"total_keys":1,"block":1,"trial":83,"stimulus":8,"robot":3,"valence":"lose","action":"go","sham":0,"trial_type":"pit-trial","trial_index":120,"time_elapsed":626774,"internal_node_id":"0.0-90.0","task_version":"battery-v0.2-trt"},{"rune":"E","rune_set":"elianto","hex":"#3366ff99","correct":-1,"choice":-1,"rt":-1,"accuracy":1,"outcome":"+10","keys":[],"total_keys":0,"block":1,"trial":84,"stimulus":7,"robot":2,"valence":"win","action":"no-go","sham":0,"trial_type":"pit-trial","trial_index":121,"time_elapsed":630785,"internal_node_id":"0.0-91.0","task_version":"battery-v0.2-trt"},{"rune":"W","rune_set":"elianto","hex":"#f73b6a7A","correct":-1,"choice":32,"rt":863.3349999999627,"accuracy":0,"outcome":"-10","keys":[2364.9049999999115],"total_keys":1,"block":1,"trial":85,"stimulus":6,"robot":4,"valence":"lose","action":"no-go","sham":0,"trial_type":"pit-trial","trial_index":122,"time_elapsed":634357,"internal_node_id":"0.0-92.0","task_version":"battery-v0.2-trt"},{"rune":"D","rune_set":"elianto","hex":"#f73b6a7A","correct":32,"choice":32,"rt":965.7700000000186,"accuracy":1,"outcome":"-1","keys":[2466.0400000000373],"total_keys":1,"block":1,"trial":86,"stimulus":9,"robot":3,"valence":"lose","action":"go","sham":0,"trial_type":"pit-trial","trial_index":123,"time_elapsed":638025,"internal_node_id":"0.0-93.0","task_version":"battery-v0.2-trt"},{"rune":"K","rune_set":"elianto","hex":"#f73b6a7A","correct":32,"choice":-1,"rt":-1,"accuracy":0,"outcome":"-10","keys":[],"total_keys":0,"block":1,"trial":87,"stimulus":8,"robot":3,"valence":"lose","action":"go","sham":0,"trial_type":"pit-trial","trial_index":124,"time_elapsed":642029,"internal_node_id":"0.0-94.0","task_version":"battery-v0.2-trt"},{"rune":"E","rune_set":"elianto","hex":"#3366ff99","correct":-1,"choice":-1,"rt":-1,"accuracy":1,"outcome":"+10","keys":[],"total_keys":0,"block":1,"trial":88,"stimulus":7,"robot":2,"valence":"win","action":"no-go","sham":0,"trial_type":"pit-trial","trial_index":125,"time_elapsed":646036,"internal_node_id":"0.0-95.0","task_version":"battery-v0.2-trt"},{"rune":"K","rune_set":"elianto","hex":"#f73b6a7A","correct":32,"choice":-1,"rt":-1,"accuracy":0,"outcome":"-1","keys":[],"total_keys":0,"block":1,"trial":89,"stimulus":8,"robot":3,"valence":"lose","action":"go","sham":1,"trial_type":"pit-trial","trial_index":126,"time_elapsed":650040,"internal_node_id":"0.0-96.0","task_version":"battery-v0.2-trt"},{"rune":"D","rune_set":"elianto","hex":"#f73b6a7A","correct":32,"choice":-1,"rt":-1,"accuracy":0,"outcome":"-10","keys":[],"total_keys":0,"block":1,"trial":90,"stimulus":9,"robot":3,"valence":"lose","action":"go","sham":0,"trial_type":"pit-trial","trial_index":127,"time_elapsed":654045,"internal_node_id":"0.0-97.0","task_version":"battery-v0.2-trt"},{"rune":"V","rune_set":"elianto","hex":"#3366ff99","correct":-1,"choice":32,"rt":1104.8700000001118,"accuracy":0,"outcome":"+1","keys":[2605.2549999998882],"total_keys":1,"block":1,"trial":91,"stimulus":11,"robot":2,"valence":"win","action":"no-go","sham":0,"trial_type":"pit-trial","trial_index":128,"time_elapsed":657857,"internal_node_id":"0.0-98.0","task_version":"battery-v0.2-trt"},{"rune":"J","rune_set":"elianto","hex":"#f73b6a7A","correct":-1,"choice":-1,"rt":-1,"accuracy":1,"outcome":"-1","keys":[],"total_keys":0,"block":1,"trial":92,"stimulus":10,"robot":4,"valence":"lose","action":"no-go","sham":0,"trial_type":"pit-trial","trial_index":129,"time_elapsed":661865,"internal_node_id":"0.0-99.0","task_version":"battery-v0.2-trt"},{"rune":"D","rune_set":"elianto","hex":"#f73b6a7A","correct":32,"choice":-1,"rt":-1,"accuracy":0,"outcome":"-10","keys":[],"total_keys":0,"block":1,"trial":93,"stimulus":9,"robot":3,"valence":"lose","action":"go","sham":0,"trial_type":"pit-trial","trial_index":130,"time_elapsed":665870,"internal_node_id":"0.0-100.0","task_version":"battery-v0.2-trt"},{"rune":"J","rune_set":"elianto","hex":"#f73b6a7A","correct":-1,"choice":32,"rt":1026.0599999999395,"accuracy":0,"outcome":"-10","keys":[2527.6500000000233],"total_keys":1,"block":1,"trial":94,"stimulus":10,"robot":4,"valence":"lose","action":"no-go","sham":0,"trial_type":"pit-trial","trial_index":131,"time_elapsed":669603,"internal_node_id":"0.0-101.0","task_version":"battery-v0.2-trt"},{"rune":"K","rune_set":"elianto","hex":"#f73b6a7A","correct":32,"choice":-1,"rt":-1,"accuracy":0,"outcome":"-10","keys":[],"total_keys":0,"block":1,"trial":95,"stimulus":8,"robot":3,"valence":"lose","action":"go","sham":0,"trial_type":"pit-trial","trial_index":132,"time_elapsed":673608,"internal_node_id":"0.0-102.0","task_version":"battery-v0.2-trt"},{"rune":"V","rune_set":"elianto","hex":"#3366ff99","correct":-1,"choice":-1,"rt":-1,"accuracy":1,"outcome":"+10","keys":[],"total_keys":0,"block":1,"trial":96,"stimulus":11,"robot":2,"valence":"win","action":"no-go","sham":0,"trial_type":"pit-trial","trial_index":133,"time_elapsed":677614,"internal_node_id":"0.0-103.0","task_version":"battery-v0.2-trt"},{"rune":"K","rune_set":"elianto","hex":"#f73b6a7A","correct":32,"choice":-1,"rt":-1,"accuracy":0,"outcome":"-10","keys":[],"total_keys":0,"block":1,"trial":97,"stimulus":8,"robot":3,"valence":"lose","action":"go","sham":0,"trial_type":"pit-trial","trial_index":134,"time_elapsed":681621,"internal_node_id":"0.0-104.0","task_version":"battery-v0.2-trt"},{"rune":"D","rune_set":"elianto","hex":"#f73b6a7A","correct":32,"choice":32,"rt":791.5249999999069,"accuracy":1,"outcome":"-1","keys":[2291.8049999998184],"total_keys":1,"block":1,"trial":98,"stimulus":9,"robot":3,"valence":"lose","action":"go","sham":0,"trial_type":"pit-trial","trial_index":135,"time_elapsed":685120,"internal_node_id":"0.0-105.0","task_version":"battery-v0.2-trt"},{"rune":"J","rune_set":"elianto","hex":"#f73b6a7A","correct":-1,"choice":32,"rt":892.3750000001164,"accuracy":0,"outcome":"-10","keys":[2393.4200000001583],"total_keys":1,"block":1,"trial":99,"stimulus":10,"robot":4,"valence":"lose","action":"no-go","sham":0,"trial_type":"pit-trial","trial_index":136,"time_elapsed":688719,"internal_node_id":"0.0-106.0","task_version":"battery-v0.2-trt"},{"rune":"V","rune_set":"elianto","hex":"#3366ff99","correct":-1,"choice":-1,"rt":-1,"accuracy":1,"outcome":"+10","keys":[],"total_keys":0,"block":1,"trial":100,"stimulus":11,"robot":2,"valence":"win","action":"no-go","sham":0,"trial_type":"pit-trial","trial_index":137,"time_elapsed":692723,"internal_node_id":"0.0-107.0","task_version":"battery-v0.2-trt"},{"rune":"K","rune_set":"elianto","hex":"#f73b6a7A","correct":32,"choice":-1,"rt":-1,"accuracy":0,"outcome":"-10","keys":[],"total_keys":0,"block":1,"trial":101,"stimulus":8,"robot":3,"valence":"lose","action":"go","sham":0,"trial_type":"pit-trial","trial_index":138,"time_elapsed":696730,"internal_node_id":"0.0-108.0","task_version":"battery-v0.2-trt"},{"rune":"V","rune_set":"elianto","hex":"#3366ff99","correct":-1,"choice":-1,"rt":-1,"accuracy":1,"outcome":"+10","keys":[],"total_keys":0,"block":1,"trial":102,"stimulus":11,"robot":2,"valence":"win","action":"no-go","sham":0,"trial_type":"pit-trial","trial_index":139,"time_elapsed":700735,"internal_node_id":"0.0-109.0","task_version":"battery-v0.2-trt"},{"rune":"D","rune_set":"elianto","hex":"#f73b6a7A","correct":32,"choice":32,"rt":787.0200000000186,"accuracy":1,"outcome":"-10","keys":[2287.2750000001397],"total_keys":1,"block":1,"trial":103,"stimulus":9,"robot":3,"valence":"lose","action":"go","sham":1,"trial_type":"pit-trial","trial_index":140,"time_elapsed":704230,"internal_node_id":"0.0-110.0","task_version":"battery-v0.2-trt"},{"rune":"J","rune_set":"elianto","hex":"#f73b6a7A","correct":-1,"choice":-1,"rt":-1,"accuracy":1,"outcome":"-1","keys":[],"total_keys":0,"block":1,"trial":104,"stimulus":10,"robot":4,"valence":"lose","action":"no-go","sham":0,"trial_type":"pit-trial","trial_index":141,"time_elapsed":708235,"internal_node_id":"0.0-111.0","task_version":"battery-v0.2-trt"},{"rune":"K","rune_set":"elianto","hex":"#f73b6a7A","correct":32,"choice":32,"rt":769.2300000000978,"accuracy":1,"outcome":"-10","keys":[2269.4150000000373],"total_keys":1,"block":1,"trial":105,"stimulus":8,"robot":3,"valence":"lose","action":"go","sham":1,"trial_type":"pit-trial","trial_index":142,"time_elapsed":711707,"internal_node_id":"0.0-112.0","task_version":"battery-v0.2-trt"},{"rune":"V","rune_set":"elianto","hex":"#3366ff99","correct":-1,"choice":-1,"rt":-1,"accuracy":1,"outcome":"+10","keys":[],"total_keys":0,"block":1,"trial":106,"stimulus":11,"robot":2,"valence":"win","action":"no-go","sham":0,"trial_type":"pit-trial","trial_index":143,"time_elapsed":715712,"internal_node_id":"0.0-113.0","task_version":"battery-v0.2-trt"},{"rune":"J","rune_set":"elianto","hex":"#f73b6a7A","correct":-1,"choice":-1,"rt":-1,"accuracy":1,"outcome":"-10","keys":[],"total_keys":0,"block":1,"trial":107,"stimulus":10,"robot":4,"valence":"lose","action":"no-go","sham":1,"trial_type":"pit-trial","trial_index":144,"time_elapsed":719717,"internal_node_id":"0.0-114.0","task_version":"battery-v0.2-trt"},{"rune":"D","rune_set":"elianto","hex":"#f73b6a7A","correct":32,"choice":32,"rt":869.2049999999581,"accuracy":1,"outcome":"-1","keys":[2370.8999999997905],"total_keys":1,"block":1,"trial":108,"stimulus":9,"robot":3,"valence":"lose","action":"go","sham":0,"trial_type":"pit-trial","trial_index":145,"time_elapsed":723293,"internal_node_id":"0.0-115.0","task_version":"battery-v0.2-trt"},{"rune":"J","rune_set":"elianto","hex":"#f73b6a7A","correct":-1,"choice":32,"rt":662.160000000149,"accuracy":0,"outcome":"-10","keys":[2162.4599999999627],"total_keys":1,"block":1,"trial":109,"stimulus":10,"robot":4,"valence":"lose","action":"no-go","sham":0,"trial_type":"pit-trial","trial_index":146,"time_elapsed":726663,"internal_node_id":"0.0-116.0","task_version":"battery-v0.2-trt"},{"rune":"K","rune_set":"elianto","hex":"#f73b6a7A","correct":32,"choice":-1,"rt":-1,"accuracy":0,"outcome":"-10","keys":[],"total_keys":0,"block":1,"trial":110,"stimulus":8,"robot":3,"valence":"lose","action":"go","sham":0,"trial_type":"pit-trial","trial_index":147,"time_elapsed":730671,"internal_node_id":"0.0-117.0","task_version":"battery-v0.2-trt"},{"rune":"V","rune_set":"elianto","hex":"#3366ff99","correct":-1,"choice":-1,"rt":-1,"accuracy":1,"outcome":"+10","keys":[],"total_keys":0,"block":1,"trial":111,"stimulus":11,"robot":2,"valence":"win","action":"no-go","sham":0,"trial_type":"pit-trial","trial_index":148,"time_elapsed":734677,"internal_node_id":"0.0-118.0","task_version":"battery-v0.2-trt"},{"rune":"D","rune_set":"elianto","hex":"#f73b6a7A","correct":32,"choice":32,"rt":747.4400000000605,"accuracy":1,"outcome":"-1","keys":[2249.20000000007],"total_keys":1,"block":1,"trial":112,"stimulus":9,"robot":3,"valence":"lose","action":"go","sham":0,"trial_type":"pit-trial","trial_index":149,"time_elapsed":738133,"internal_node_id":"0.0-119.0","task_version":"battery-v0.2-trt"},{"rune":"D","rune_set":"elianto","hex":"#f73b6a7A","correct":32,"choice":32,"rt":791.6299999998882,"accuracy":1,"outcome":"-1","keys":[2291.70000000007],"total_keys":1,"block":1,"trial":113,"stimulus":9,"robot":3,"valence":"lose","action":"go","sham":0,"trial_type":"pit-trial","trial_index":150,"time_elapsed":741631,"internal_node_id":"0.0-120.0","task_version":"battery-v0.2-trt"},{"rune":"J","rune_set":"elianto","hex":"#f73b6a7A","correct":-1,"choice":32,"rt":766.3150000000605,"accuracy":0,"outcome":"-1","keys":[2266.4899999998743],"total_keys":1,"block":1,"trial":114,"stimulus":10,"robot":4,"valence":"lose","action":"no-go","sham":1,"trial_type":"pit-trial","trial_index":151,"time_elapsed":745103,"internal_node_id":"0.0-121.0","task_version":"battery-v0.2-trt"},{"rune":"V","rune_set":"elianto","hex":"#3366ff99","correct":-1,"choice":-1,"rt":-1,"accuracy":1,"outcome":"+1","keys":[],"total_keys":0,"block":1,"trial":115,"stimulus":11,"robot":2,"valence":"win","action":"no-go","sham":1,"trial_type":"pit-trial","trial_index":152,"time_elapsed":749108,"internal_node_id":"0.0-122.0","task_version":"battery-v0.2-trt"},{"rune":"K","rune_set":"elianto","hex":"#f73b6a7A","correct":32,"choice":32,"rt":907.270000000135,"accuracy":1,"outcome":"-1","keys":[2407.8000000000466],"total_keys":1,"block":1,"trial":116,"stimulus":8,"robot":3,"valence":"lose","action":"go","sham":0,"trial_type":"pit-trial","trial_index":153,"time_elapsed":752719,"internal_node_id":"0.0-123.0","task_version":"battery-v0.2-trt"},{"rune":"D","rune_set":"elianto","hex":"#f73b6a7A","correct":32,"choice":32,"rt":478.62999999988824,"accuracy":1,"outcome":"-1","keys":[1980.329999999958],"total_keys":1,"block":1,"trial":117,"stimulus":9,"robot":3,"valence":"lose","action":"go","sham":0,"trial_type":"pit-trial","trial_index":154,"time_elapsed":755906,"internal_node_id":"0.0-124.0","task_version":"battery-v0.2-trt"},{"rune":"J","rune_set":"elianto","hex":"#f73b6a7A","correct":-1,"choice":32,"rt":427.0349999999162,"accuracy":0,"outcome":"-10","keys":[1928.6899999999441],"total_keys":1,"block":1,"trial":118,"stimulus":10,"robot":4,"valence":"lose","action":"no-go","sham":0,"trial_type":"pit-trial","trial_index":155,"time_elapsed":759041,"internal_node_id":"0.0-125.0","task_version":"battery-v0.2-trt"},{"rune":"V","rune_set":"elianto","hex":"#3366ff99","correct":-1,"choice":-1,"rt":-1,"accuracy":1,"outcome":"+10","keys":[],"total_keys":0,"block":1,"trial":119,"stimulus":11,"robot":2,"valence":"win","action":"no-go","sham":0,"trial_type":"pit-trial","trial_index":156,"time_elapsed":763046,"internal_node_id":"0.0-126.0","task_version":"battery-v0.2-trt"},{"rune":"K","rune_set":"elianto","hex":"#f73b6a7A","correct":32,"choice":32,"rt":668.9749999999767,"accuracy":1,"outcome":"-1","keys":[2170.4649999999674],"total_keys":1,"block":1,"trial":120,"stimulus":8,"robot":3,"valence":"lose","action":"go","sham":0,"trial_type":"pit-trial","trial_index":157,"time_elapsed":766424,"internal_node_id":"0.0-127.0","task_version":"battery-v0.2-trt"},{"view_history":"[{\"page_index\":0,\"viewing_time\":2581.865000000107},{\"page_index\":1,\"viewing_time\":2313.670000000042}]","rt":4895.929999999935,"trial_type":"pit-instructions","trial_index":158,"time_elapsed":771321,"internal_node_id":"0.0-128.0","task_version":"battery-v0.2-trt"},{"rune":"R","rune_set":"elianto","hex":"#f73b6a7A","correct":-1,"choice":-1,"rt":-1,"accuracy":1,"outcome":"-1","keys":[],"total_keys":0,"block":2,"trial":121,"stimulus":1,"robot":4,"valence":"lose","action":"no-go","sham":0,"trial_type":"pit-trial","trial_index":159,"time_elapsed":775329,"internal_node_id":"0.0-129.0","task_version":"battery-v0.2-trt"},{"rune":"M","rune_set":"elianto","hex":"#f73b6a7A","correct":-1,"choice":32,"rt":753.3499999999767,"accuracy":0,"outcome":"-1","keys":[2254.2250000002095],"total_keys":1,"block":2,"trial":122,"stimulus":0,"robot":4,"valence":"lose","action":"no-go","sham":1,"trial_type":"pit-trial","trial_index":160,"time_elapsed":778789,"internal_node_id":"0.0-130.0","task_version":"battery-v0.2-trt"},{"rune":"H","rune_set":"elianto","hex":"#3366ff99","correct":-1,"choice":-1,"rt":-1,"accuracy":1,"outcome":"+10","keys":[],"total_keys":0,"block":2,"trial":123,"stimulus":3,"robot":2,"valence":"win","action":"no-go","sham":0,"trial_type":"pit-trial","trial_index":161,"time_elapsed":782795,"internal_node_id":"0.0-131.0","task_version":"battery-v0.2-trt"},{"rune":"Y","rune_set":"elianto","hex":"#3366ff99","correct":32,"choice":-1,"rt":-1,"accuracy":0,"outcome":"+1","keys":[],"total_keys":0,"block":2,"trial":124,"stimulus":2,"robot":1,"valence":"win","action":"go","sham":0,"trial_type":"pit-trial","trial_index":162,"time_elapsed":786800,"internal_node_id":"0.0-132.0","task_version":"battery-v0.2-trt"},{"rune":"H","rune_set":"elianto","hex":"#3366ff99","correct":-1,"choice":32,"rt":758.1499999999069,"accuracy":0,"outcome":"+1","keys":[2259.5900000002002],"total_keys":1,"block":2,"trial":125,"stimulus":3,"robot":2,"valence":"win","action":"no-go","sham":0,"trial_type":"pit-trial","trial_index":163,"time_elapsed":790267,"internal_node_id":"0.0-133.0","task_version":"battery-v0.2-trt"},{"rune":"R","rune_set":"elianto","hex":"#f73b6a7A","correct":-1,"choice":-1,"rt":-1,"accuracy":1,"outcome":"-1","keys":[],"total_keys":0,"block":2,"trial":126,"stimulus":1,"robot":4,"valence":"lose","action":"no-go","sham":0,"trial_type":"pit-trial","trial_index":164,"time_elapsed":794271,"internal_node_id":"0.0-134.0","task_version":"battery-v0.2-trt"},{"rune":"M","rune_set":"elianto","hex":"#f73b6a7A","correct":-1,"choice":32,"rt":1097.9350000000559,"accuracy":0,"outcome":"-10","keys":[2598.4100000000326],"total_keys":1,"block":2,"trial":127,"stimulus":0,"robot":4,"valence":"lose","action":"no-go","sham":0,"trial_type":"pit-trial","trial_index":165,"time_elapsed":798076,"internal_node_id":"0.0-135.0","task_version":"battery-v0.2-trt"},{"rune":"Y","rune_set":"elianto","hex":"#3366ff99","correct":32,"choice":-1,"rt":-1,"accuracy":0,"outcome":"+1","keys":[],"total_keys":0,"block":2,"trial":128,"stimulus":2,"robot":1,"valence":"win","action":"go","sham":0,"trial_type":"pit-trial","trial_index":166,"time_elapsed":802089,"internal_node_id":"0.0-136.0","task_version":"battery-v0.2-trt"},{"rune":"M","rune_set":"elianto","hex":"#f73b6a7A","correct":-1,"choice":-1,"rt":-1,"accuracy":1,"outcome":"-1","keys":[],"total_keys":0,"block":2,"trial":129,"stimulus":0,"robot":4,"valence":"lose","action":"no-go","sham":0,"trial_type":"pit-trial","trial_index":167,"time_elapsed":806096,"internal_node_id":"0.0-137.0","task_version":"battery-v0.2-trt"},{"rune":"H","rune_set":"elianto","hex":"#3366ff99","correct":-1,"choice":-1,"rt":-1,"accuracy":1,"outcome":"+10","keys":[2820.664999999921],"total_keys":1,"block":2,"trial":130,"stimulus":3,"robot":2,"valence":"win","action":"no-go","sham":0,"trial_type":"pit-trial","trial_index":168,"time_elapsed":810101,"internal_node_id":"0.0-138.0","task_version":"battery-v0.2-trt"},{"rune":"Y","rune_set":"elianto","hex":"#3366ff99","correct":32,"choice":-1,"rt":-1,"accuracy":0,"outcome":"+1","keys":[],"total_keys":0,"block":2,"trial":131,"stimulus":2,"robot":1,"valence":"win","action":"go","sham":0,"trial_type":"pit-trial","trial_index":169,"time_elapsed":814107,"internal_node_id":"0.0-139.0","task_version":"battery-v0.2-trt"},{"rune":"R","rune_set":"elianto","hex":"#f73b6a7A","correct":-1,"choice":32,"rt":1131.9700000000885,"accuracy":0,"outcome":"-1","keys":[2634.515000000014],"total_keys":1,"block":2,"trial":132,"stimulus":1,"robot":4,"valence":"lose","action":"no-go","sham":1,"trial_type":"pit-trial","trial_index":170,"time_elapsed":817944,"internal_node_id":"0.0-140.0","task_version":"battery-v0.2-trt"},{"rune":"M","rune_set":"elianto","hex":"#f73b6a7A","correct":-1,"choice":32,"rt":702.3800000000047,"accuracy":0,"outcome":"-10","keys":[2204.060000000056],"total_keys":1,"block":2,"trial":133,"stimulus":0,"robot":4,"valence":"lose","action":"no-go","sham":0,"trial_type":"pit-trial","trial_index":171,"time_elapsed":821352,"internal_node_id":"0.0-141.0","task_version":"battery-v0.2-trt"},{"rune":"H","rune_set":"elianto","hex":"#3366ff99","correct":-1,"choice":-1,"rt":-1,"accuracy":1,"outcome":"+10","keys":[],"total_keys":0,"block":2,"trial":134,"stimulus":3,"robot":2,"valence":"win","action":"no-go","sham":0,"trial_type":"pit-trial","trial_index":172,"time_elapsed":825357,"internal_node_id":"0.0-142.0","task_version":"battery-v0.2-trt"},{"rune":"Y","rune_set":"elianto","hex":"#3366ff99","correct":32,"choice":32,"rt":785.9550000000745,"accuracy":1,"outcome":"+10","keys":[2286.730000000098],"total_keys":1,"block":2,"trial":135,"stimulus":2,"robot":1,"valence":"win","action":"go","sham":0,"trial_type":"pit-trial","trial_index":173,"time_elapsed":828846,"internal_node_id":"0.0-143.0","task_version":"battery-v0.2-trt"},{"rune":"R","rune_set":"elianto","hex":"#f73b6a7A","correct":-1,"choice":32,"rt":842.0550000000512,"accuracy":0,"outcome":"-10","keys":[2343.6400000001304],"total_keys":1,"block":2,"trial":136,"stimulus":1,"robot":4,"valence":"lose","action":"no-go","sham":0,"trial_type":"pit-trial","trial_index":174,"time_elapsed":832393,"internal_node_id":"0.0-144.0","task_version":"battery-v0.2-trt"},{"rune":"M","rune_set":"elianto","hex":"#f73b6a7A","correct":-1,"choice":-1,"rt":-1,"accuracy":1,"outcome":"-1","keys":[],"total_keys":0,"block":2,"trial":137,"stimulus":0,"robot":4,"valence":"lose","action":"no-go","sham":0,"trial_type":"pit-trial","trial_index":175,"time_elapsed":836398,"internal_node_id":"0.0-145.0","task_version":"battery-v0.2-trt"},{"rune":"H","rune_set":"elianto","hex":"#3366ff99","correct":-1,"choice":32,"rt":799.645000000135,"accuracy":0,"outcome":"+1","keys":[2299.9900000002235],"total_keys":1,"block":2,"trial":138,"stimulus":3,"robot":2,"valence":"win","action":"no-go","sham":0,"trial_type":"pit-trial","trial_index":176,"time_elapsed":839904,"internal_node_id":"0.0-146.0","task_version":"battery-v0.2-trt"},{"rune":"Y","rune_set":"elianto","hex":"#3366ff99","correct":32,"choice":-1,"rt":-1,"accuracy":0,"outcome":"+1","keys":[],"total_keys":0,"block":2,"trial":139,"stimulus":2,"robot":1,"valence":"win","action":"go","sham":0,"trial_type":"pit-trial","trial_index":177,"time_elapsed":843910,"internal_node_id":"0.0-147.0","task_version":"battery-v0.2-trt"},{"rune":"R","rune_set":"elianto","hex":"#f73b6a7A","correct":-1,"choice":-1,"rt":-1,"accuracy":1,"outcome":"-10","keys":[],"total_keys":0,"block":2,"trial":140,"stimulus":1,"robot":4,"valence":"lose","action":"no-go","sham":1,"trial_type":"pit-trial","trial_index":178,"time_elapsed":847915,"internal_node_id":"0.0-148.0","task_version":"battery-v0.2-trt"},{"rune":"R","rune_set":"elianto","hex":"#f73b6a7A","correct":-1,"choice":32,"rt":840.9499999999534,"accuracy":0,"outcome":"-10","keys":[2342.6600000000326],"total_keys":1,"block":2,"trial":141,"stimulus":1,"robot":4,"valence":"lose","action":"no-go","sham":0,"trial_type":"pit-trial","trial_index":179,"time_elapsed":851462,"internal_node_id":"0.0-149.0","task_version":"battery-v0.2-trt"},{"rune":"M","rune_set":"elianto","hex":"#f73b6a7A","correct":-1,"choice":-1,"rt":-1,"accuracy":1,"outcome":"-1","keys":[],"total_keys":0,"block":2,"trial":142,"stimulus":0,"robot":4,"valence":"lose","action":"no-go","sham":0,"trial_type":"pit-trial","trial_index":180,"time_elapsed":855470,"internal_node_id":"0.0-150.0","task_version":"battery-v0.2-trt"},{"rune":"Y","rune_set":"elianto","hex":"#3366ff99","correct":32,"choice":32,"rt":674.9800000000978,"accuracy":1,"outcome":"+1","keys":[2177.7700000000186],"total_keys":1,"block":2,"trial":143,"stimulus":2,"robot":1,"valence":"win","action":"go","sham":1,"trial_type":"pit-trial","trial_index":181,"time_elapsed":858850,"internal_node_id":"0.0-151.0","task_version":"battery-v0.2-trt"},{"rune":"H","rune_set":"elianto","hex":"#3366ff99","correct":-1,"choice":32,"rt":699.7899999999208,"accuracy":0,"outcome":"+1","keys":[2200.2750000000233],"total_keys":1,"block":2,"trial":144,"stimulus":3,"robot":2,"valence":"win","action":"no-go","sham":0,"trial_type":"pit-trial","trial_index":182,"time_elapsed":862253,"internal_node_id":"0.0-152.0","task_version":"battery-v0.2-trt"},{"rune":"Y","rune_set":"elianto","hex":"#3366ff99","correct":32,"choice":-1,"rt":-1,"accuracy":0,"outcome":"+1","keys":[],"total_keys":0,"block":2,"trial":145,"stimulus":2,"robot":1,"valence":"win","action":"go","sham":0,"trial_type":"pit-trial","trial_index":183,"time_elapsed":866259,"internal_node_id":"0.0-153.0","task_version":"battery-v0.2-trt"},{"rune":"R","rune_set":"elianto","hex":"#f73b6a7A","correct":-1,"choice":32,"rt":977.324999999837,"accuracy":0,"outcome":"-10","keys":[2478.170000000042],"total_keys":1,"block":2,"trial":146,"stimulus":1,"robot":4,"valence":"lose","action":"no-go","sham":0,"trial_type":"pit-trial","trial_index":184,"time_elapsed":869945,"internal_node_id":"0.0-154.0","task_version":"battery-v0.2-trt"},{"rune":"M","rune_set":"elianto","hex":"#f73b6a7A","correct":-1,"choice":-1,"rt":-1,"accuracy":1,"outcome":"-10","keys":[],"total_keys":0,"block":2,"trial":147,"stimulus":0,"robot":4,"valence":"lose","action":"no-go","sham":1,"trial_type":"pit-trial","trial_index":185,"time_elapsed":873951,"internal_node_id":"0.0-155.0","task_version":"battery-v0.2-trt"},{"rune":"H","rune_set":"elianto","hex":"#3366ff99","correct":-1,"choice":-1,"rt":-1,"accuracy":1,"outcome":"+10","keys":[],"total_keys":0,"block":2,"trial":148,"stimulus":3,"robot":2,"valence":"win","action":"no-go","sham":0,"trial_type":"pit-trial","trial_index":186,"time_elapsed":877960,"internal_node_id":"0.0-156.0","task_version":"battery-v0.2-trt"},{"rune":"Y","rune_set":"elianto","hex":"#3366ff99","correct":32,"choice":-1,"rt":-1,"accuracy":0,"outcome":"+1","keys":[],"total_keys":0,"block":2,"trial":149,"stimulus":2,"robot":1,"valence":"win","action":"go","sham":0,"trial_type":"pit-trial","trial_index":187,"time_elapsed":881967,"internal_node_id":"0.0-157.0","task_version":"battery-v0.2-trt"},{"rune":"M","rune_set":"elianto","hex":"#f73b6a7A","correct":-1,"choice":-1,"rt":-1,"accuracy":1,"outcome":"-1","keys":[],"total_keys":0,"block":2,"trial":150,"stimulus":0,"robot":4,"valence":"lose","action":"no-go","sham":0,"trial_type":"pit-trial","trial_index":188,"time_elapsed":885973,"internal_node_id":"0.0-158.0","task_version":"battery-v0.2-trt"},{"rune":"H","rune_set":"elianto","hex":"#3366ff99","correct":-1,"choice":32,"rt":718.984999999986,"accuracy":0,"outcome":"+1","keys":[2221.4150000000373],"total_keys":1,"block":2,"trial":151,"stimulus":3,"robot":2,"valence":"win","action":"no-go","sham":0,"trial_type":"pit-trial","trial_index":189,"time_elapsed":889398,"internal_node_id":"0.0-159.0","task_version":"battery-v0.2-trt"},{"rune":"R","rune_set":"elianto","hex":"#f73b6a7A","correct":-1,"choice":-1,"rt":-1,"accuracy":1,"outcome":"-1","keys":[],"total_keys":0,"block":2,"trial":152,"stimulus":1,"robot":4,"valence":"lose","action":"no-go","sham":0,"trial_type":"pit-trial","trial_index":190,"time_elapsed":893405,"internal_node_id":"0.0-160.0","task_version":"battery-v0.2-trt"},{"rune":"Z","rune_set":"elianto","hex":"#f73b6a7A","correct":32,"choice":-1,"rt":-1,"accuracy":0,"outcome":"-10","keys":[],"total_keys":0,"block":2,"trial":153,"stimulus":4,"robot":3,"valence":"lose","action":"go","sham":0,"trial_type":"pit-trial","trial_index":191,"time_elapsed":897414,"internal_node_id":"0.0-161.0","task_version":"battery-v0.2-trt"},{"rune":"M","rune_set":"elianto","hex":"#f73b6a7A","correct":-1,"choice":32,"rt":739.1700000000419,"accuracy":0,"outcome":"-10","keys":[2239.555000000051],"total_keys":1,"block":2,"trial":154,"stimulus":0,"robot":4,"valence":"lose","action":"no-go","sham":0,"trial_type":"pit-trial","trial_index":192,"time_elapsed":900861,"internal_node_id":"0.0-162.0","task_version":"battery-v0.2-trt"},{"rune":"Y","rune_set":"elianto","hex":"#3366ff99","correct":32,"choice":32,"rt":786.5300000001444,"accuracy":1,"outcome":"+1","keys":[2286.880000000121],"total_keys":1,"block":2,"trial":155,"stimulus":2,"robot":1,"valence":"win","action":"go","sham":1,"trial_type":"pit-trial","trial_index":193,"time_elapsed":904351,"internal_node_id":"0.0-163.0","task_version":"battery-v0.2-trt"},{"rune":"H","rune_set":"elianto","hex":"#3366ff99","correct":-1,"choice":32,"rt":631.0549999998184,"accuracy":0,"outcome":"+1","keys":[2131.4050000001444],"total_keys":1,"block":2,"trial":156,"stimulus":3,"robot":2,"valence":"win","action":"no-go","sham":0,"trial_type":"pit-trial","trial_index":194,"time_elapsed":907690,"internal_node_id":"0.0-164.0","task_version":"battery-v0.2-trt"},{"rune":"Z","rune_set":"elianto","hex":"#f73b6a7A","correct":32,"choice":-1,"rt":-1,"accuracy":0,"outcome":"-10","keys":[],"total_keys":0,"block":2,"trial":157,"stimulus":4,"robot":3,"valence":"lose","action":"go","sham":0,"trial_type":"pit-trial","trial_index":195,"time_elapsed":911695,"internal_node_id":"0.0-165.0","task_version":"battery-v0.2-trt"},{"rune":"Y","rune_set":"elianto","hex":"#3366ff99","correct":32,"choice":-1,"rt":-1,"accuracy":0,"outcome":"+1","keys":[],"total_keys":0,"block":2,"trial":158,"stimulus":2,"robot":1,"valence":"win","action":"go","sham":0,"trial_type":"pit-trial","trial_index":196,"time_elapsed":915704,"internal_node_id":"0.0-166.0","task_version":"battery-v0.2-trt"},{"rune":"M","rune_set":"elianto","hex":"#f73b6a7A","correct":-1,"choice":32,"rt":793.8850000001257,"accuracy":0,"outcome":"-10","keys":[2294.0049999998882],"total_keys":1,"block":2,"trial":159,"stimulus":0,"robot":4,"valence":"lose","action":"no-go","sham":0,"trial_type":"pit-trial","trial_index":197,"time_elapsed":919201,"internal_node_id":"0.0-167.0","task_version":"battery-v0.2-trt"},{"rune":"H","rune_set":"elianto","hex":"#3366ff99","correct":-1,"choice":-1,"rt":-1,"accuracy":1,"outcome":"+10","keys":[],"total_keys":0,"block":2,"trial":160,"stimulus":3,"robot":2,"valence":"win","action":"no-go","sham":0,"trial_type":"pit-trial","trial_index":198,"time_elapsed":923210,"internal_node_id":"0.0-168.0","task_version":"battery-v0.2-trt"},{"rune":"B","rune_set":"elianto","hex":"#3366ff99","correct":32,"choice":-1,"rt":-1,"accuracy":0,"outcome":"+1","keys":[],"total_keys":0,"block":2,"trial":161,"stimulus":6,"robot":1,"valence":"win","action":"go","sham":0,"trial_type":"pit-trial","trial_index":199,"time_elapsed":927217,"internal_node_id":"0.0-169.0","task_version":"battery-v0.2-trt"},{"rune":"M","rune_set":"elianto","hex":"#f73b6a7A","correct":-1,"choice":32,"rt":788.109999999986,"accuracy":0,"outcome":"-10","keys":[2288.8499999998603],"total_keys":1,"block":2,"trial":162,"stimulus":0,"robot":4,"valence":"lose","action":"no-go","sham":0,"trial_type":"pit-trial","trial_index":200,"time_elapsed":930712,"internal_node_id":"0.0-170.0","task_version":"battery-v0.2-trt"},{"rune":"Z","rune_set":"elianto","hex":"#f73b6a7A","correct":32,"choice":32,"rt":697.1650000000373,"accuracy":1,"outcome":"-1","keys":[2197.3349999998463],"total_keys":1,"block":2,"trial":163,"stimulus":4,"robot":3,"valence":"lose","action":"go","sham":0,"trial_type":"pit-trial","trial_index":201,"time_elapsed":934117,"internal_node_id":"0.0-171.0","task_version":"battery-v0.2-trt"},{"rune":"C","rune_set":"elianto","hex":"#3366ff99","correct":-1,"choice":-1,"rt":-1,"accuracy":1,"outcome":"+10","keys":[],"total_keys":0,"block":2,"trial":164,"stimulus":5,"robot":2,"valence":"win","action":"no-go","sham":0,"trial_type":"pit-trial","trial_index":202,"time_elapsed":938125,"internal_node_id":"0.0-172.0","task_version":"battery-v0.2-trt"},{"rune":"B","rune_set":"elianto","hex":"#3366ff99","correct":32,"choice":32,"rt":786.6849999999395,"accuracy":1,"outcome":"+10","keys":[2288.319999999949],"total_keys":1,"block":2,"trial":165,"stimulus":6,"robot":1,"valence":"win","action":"go","sham":0,"trial_type":"pit-trial","trial_index":203,"time_elapsed":941620,"internal_node_id":"0.0-173.0","task_version":"battery-v0.2-trt"},{"rune":"M","rune_set":"elianto","hex":"#f73b6a7A","correct":-1,"choice":-1,"rt":-1,"accuracy":1,"outcome":"-1","keys":[],"total_keys":0,"block":2,"trial":166,"stimulus":0,"robot":4,"valence":"lose","action":"no-go","sham":0,"trial_type":"pit-trial","trial_index":204,"time_elapsed":945631,"internal_node_id":"0.0-174.0","task_version":"battery-v0.2-trt"},{"rune":"C","rune_set":"elianto","hex":"#3366ff99","correct":-1,"choice":-1,"rt":-1,"accuracy":1,"outcome":"+10","keys":[],"total_keys":0,"block":2,"trial":167,"stimulus":5,"robot":2,"valence":"win","action":"no-go","sham":0,"trial_type":"pit-trial","trial_index":205,"time_elapsed":949636,"internal_node_id":"0.0-175.0","task_version":"battery-v0.2-trt"},{"rune":"Z","rune_set":"elianto","hex":"#f73b6a7A","correct":32,"choice":-1,"rt":-1,"accuracy":0,"outcome":"-10","keys":[],"total_keys":0,"block":2,"trial":168,"stimulus":4,"robot":3,"valence":"lose","action":"go","sham":0,"trial_type":"pit-trial","trial_index":206,"time_elapsed":953642,"internal_node_id":"0.0-176.0","task_version":"battery-v0.2-trt"},{"rune":"B","rune_set":"elianto","hex":"#3366ff99","correct":32,"choice":-1,"rt":-1,"accuracy":0,"outcome":"+1","keys":[],"total_keys":0,"block":2,"trial":169,"stimulus":6,"robot":1,"valence":"win","action":"go","sham":0,"trial_type":"pit-trial","trial_index":207,"time_elapsed":957647,"internal_node_id":"0.0-177.0","task_version":"battery-v0.2-trt"},{"rune":"Z","rune_set":"elianto","hex":"#f73b6a7A","correct":32,"choice":32,"rt":823.1150000002235,"accuracy":1,"outcome":"-10","keys":[2324.2750000001397],"total_keys":1,"block":2,"trial":170,"stimulus":4,"robot":3,"valence":"lose","action":"go","sham":1,"trial_type":"pit-trial","trial_index":208,"time_elapsed":961177,"internal_node_id":"0.0-178.0","task_version":"battery-v0.2-trt"},{"rune":"C","rune_set":"elianto","hex":"#3366ff99","correct":-1,"choice":-1,"rt":-1,"accuracy":1,"outcome":"+10","keys":[],"total_keys":0,"block":2,"trial":171,"stimulus":5,"robot":2,"valence":"win","action":"no-go","sham":0,"trial_type":"pit-trial","trial_index":209,"time_elapsed":965188,"internal_node_id":"0.0-179.0","task_version":"battery-v0.2-trt"},{"rune":"T","rune_set":"elianto","hex":"#f73b6a7A","correct":-1,"choice":32,"rt":902.4349999999395,"accuracy":0,"outcome":"-10","keys":[2404.0200000000186],"total_keys":1,"block":2,"trial":172,"stimulus":7,"robot":4,"valence":"lose","action":"no-go","sham":0,"trial_type":"pit-trial","trial_index":210,"time_elapsed":968799,"internal_node_id":"0.0-180.0","task_version":"battery-v0.2-trt"},{"rune":"Z","rune_set":"elianto","hex":"#f73b6a7A","correct":32,"choice":-1,"rt":-1,"accuracy":0,"outcome":"-10","keys":[],"total_keys":0,"block":2,"trial":173,"stimulus":4,"robot":3,"valence":"lose","action":"go","sham":0,"trial_type":"pit-trial","trial_index":211,"time_elapsed":972804,"internal_node_id":"0.0-181.0","task_version":"battery-v0.2-trt"},{"rune":"C","rune_set":"elianto","hex":"#3366ff99","correct":-1,"choice":-1,"rt":-1,"accuracy":1,"outcome":"+1","keys":[],"total_keys":0,"block":2,"trial":174,"stimulus":5,"robot":2,"valence":"win","action":"no-go","sham":1,"trial_type":"pit-trial","trial_index":212,"time_elapsed":976817,"internal_node_id":"0.0-182.0","task_version":"battery-v0.2-trt"},{"rune":"B","rune_set":"elianto","hex":"#3366ff99","correct":32,"choice":-1,"rt":-1,"accuracy":0,"outcome":"+1","keys":[],"total_keys":0,"block":2,"trial":175,"stimulus":6,"robot":1,"valence":"win","action":"go","sham":0,"trial_type":"pit-trial","trial_index":213,"time_elapsed":980820,"internal_node_id":"0.0-183.0","task_version":"battery-v0.2-trt"},{"rune":"T","rune_set":"elianto","hex":"#f73b6a7A","correct":-1,"choice":-1,"rt":-1,"accuracy":1,"outcome":"-10","keys":[],"total_keys":0,"block":2,"trial":176,"stimulus":7,"robot":4,"valence":"lose","action":"no-go","sham":1,"trial_type":"pit-trial","trial_index":214,"time_elapsed":984826,"internal_node_id":"0.0-184.0","task_version":"battery-v0.2-trt"},{"rune":"T","rune_set":"elianto","hex":"#f73b6a7A","correct":-1,"choice":32,"rt":709.8350000000792,"accuracy":0,"outcome":"-10","keys":[2212.9700000000885],"total_keys":1,"block":2,"trial":177,"stimulus":7,"robot":4,"valence":"lose","action":"no-go","sham":0,"trial_type":"pit-trial","trial_index":215,"time_elapsed":988245,"internal_node_id":"0.0-185.0","task_version":"battery-v0.2-trt"},{"rune":"B","rune_set":"elianto","hex":"#3366ff99","correct":32,"choice":32,"rt":817.6149999998743,"accuracy":1,"outcome":"+10","keys":[2317.6699999999255],"total_keys":1,"block":2,"trial":178,"stimulus":6,"robot":1,"valence":"win","action":"go","sham":0,"trial_type":"pit-trial","trial_index":216,"time_elapsed":991770,"internal_node_id":"0.0-186.0","task_version":"battery-v0.2-trt"},{"rune":"Z","rune_set":"elianto","hex":"#f73b6a7A","correct":32,"choice":-1,"rt":-1,"accuracy":0,"outcome":"-1","keys":[],"total_keys":0,"block":2,"trial":179,"stimulus":4,"robot":3,"valence":"lose","action":"go","sham":1,"trial_type":"pit-trial","trial_index":217,"time_elapsed":995780,"internal_node_id":"0.0-187.0","task_version":"battery-v0.2-trt"},{"rune":"C","rune_set":"elianto","hex":"#3366ff99","correct":-1,"choice":-1,"rt":-1,"accuracy":1,"outcome":"+10","keys":[],"total_keys":0,"block":2,"trial":180,"stimulus":5,"robot":2,"valence":"win","action":"no-go","sham":0,"trial_type":"pit-trial","trial_index":218,"time_elapsed":999786,"internal_node_id":"0.0-188.0","task_version":"battery-v0.2-trt"},{"rune":"Z","rune_set":"elianto","hex":"#f73b6a7A","correct":32,"choice":32,"rt":1162.339999999851,"accuracy":1,"outcome":"-1","keys":[2663.94000000041],"total_keys":1,"block":2,"trial":181,"stimulus":4,"robot":3,"valence":"lose","action":"go","sham":0,"trial_type":"pit-trial","trial_index":219,"time_elapsed":1003652,"internal_node_id":"0.0-189.0","task_version":"battery-v0.2-trt"},{"rune":"C","rune_set":"elianto","hex":"#3366ff99","correct":-1,"choice":-1,"rt":-1,"accuracy":1,"outcome":"+1","keys":[],"total_keys":0,"block":2,"trial":182,"stimulus":5,"robot":2,"valence":"win","action":"no-go","sham":1,"trial_type":"pit-trial","trial_index":220,"time_elapsed":1007657,"internal_node_id":"0.0-190.0","task_version":"battery-v0.2-trt"},{"rune":"T","rune_set":"elianto","hex":"#f73b6a7A","correct":-1,"choice":32,"rt":575.0149999998976,"accuracy":0,"outcome":"-10","keys":[2077.104999999865],"total_keys":1,"block":2,"trial":183,"stimulus":7,"robot":4,"valence":"lose","action":"no-go","sham":0,"trial_type":"pit-trial","trial_index":221,"time_elapsed":1010937,"internal_node_id":"0.0-191.0","task_version":"battery-v0.2-trt"},{"rune":"B","rune_set":"elianto","hex":"#3366ff99","correct":32,"choice":32,"rt":940.1499999999069,"accuracy":1,"outcome":"+10","keys":[2440.6200000003446],"total_keys":1,"block":2,"trial":184,"stimulus":6,"robot":1,"valence":"win","action":"go","sham":0,"trial_type":"pit-trial","trial_index":222,"time_elapsed":1014583,"internal_node_id":"0.0-192.0","task_version":"battery-v0.2-trt"},{"rune":"B","rune_set":"elianto","hex":"#3366ff99","correct":32,"choice":-1,"rt":-1,"accuracy":0,"outcome":"+1","keys":[],"total_keys":0,"block":2,"trial":185,"stimulus":6,"robot":1,"valence":"win","action":"go","sham":0,"trial_type":"pit-trial","trial_index":223,"time_elapsed":1018595,"internal_node_id":"0.0-193.0","task_version":"battery-v0.2-trt"},{"rune":"T","rune_set":"elianto","hex":"#f73b6a7A","correct":-1,"choice":-1,"rt":-1,"accuracy":1,"outcome":"-1","keys":[],"total_keys":0,"block":2,"trial":186,"stimulus":7,"robot":4,"valence":"lose","action":"no-go","sham":0,"trial_type":"pit-trial","trial_index":224,"time_elapsed":1022599,"internal_node_id":"0.0-194.0","task_version":"battery-v0.2-trt"},{"rune":"C","rune_set":"elianto","hex":"#3366ff99","correct":-1,"choice":32,"rt":787.0849999999627,"accuracy":0,"outcome":"+10","keys":[2288.7200000000885],"total_keys":1,"block":2,"trial":187,"stimulus":5,"robot":2,"valence":"win","action":"no-go","sham":1,"trial_type":"pit-trial","trial_index":225,"time_elapsed":1026095,"internal_node_id":"0.0-195.0","task_version":"battery-v0.2-trt"},{"rune":"Z","rune_set":"elianto","hex":"#f73b6a7A","correct":32,"choice":32,"rt":804.7900000001537,"accuracy":1,"outcome":"-1","keys":[2305.2499999998836],"total_keys":1,"block":2,"trial":188,"stimulus":4,"robot":3,"valence":"lose","action":"go","sham":0,"trial_type":"pit-trial","trial_index":226,"time_elapsed":1029606,"internal_node_id":"0.0-196.0","task_version":"battery-v0.2-trt"},{"rune":"C","rune_set":"elianto","hex":"#3366ff99","correct":-1,"choice":-1,"rt":-1,"accuracy":1,"outcome":"+1","keys":[],"total_keys":0,"block":2,"trial":189,"stimulus":5,"robot":2,"valence":"win","action":"no-go","sham":1,"trial_type":"pit-trial","trial_index":227,"time_elapsed":1033611,"internal_node_id":"0.0-197.0","task_version":"battery-v0.2-trt"},{"rune":"T","rune_set":"elianto","hex":"#f73b6a7A","correct":-1,"choice":-1,"rt":-1,"accuracy":1,"outcome":"-1","keys":[],"total_keys":0,"block":2,"trial":190,"stimulus":7,"robot":4,"valence":"lose","action":"no-go","sham":0,"trial_type":"pit-trial","trial_index":228,"time_elapsed":1037617,"internal_node_id":"0.0-198.0","task_version":"battery-v0.2-trt"},{"rune":"Z","rune_set":"elianto","hex":"#f73b6a7A","correct":32,"choice":32,"rt":704.1949999998324,"accuracy":1,"outcome":"-1","keys":[2204.8850000001257],"total_keys":1,"block":2,"trial":191,"stimulus":4,"robot":3,"valence":"lose","action":"go","sham":0,"trial_type":"pit-trial","trial_index":229,"time_elapsed":1041024,"internal_node_id":"0.0-199.0","task_version":"battery-v0.2-trt"},{"rune":"B","rune_set":"elianto","hex":"#3366ff99","correct":32,"choice":32,"rt":754.6300000003539,"accuracy":1,"outcome":"+10","keys":[2254.979999999632],"total_keys":1,"block":2,"trial":192,"stimulus":6,"robot":1,"valence":"win","action":"go","sham":0,"trial_type":"pit-trial","trial_index":230,"time_elapsed":1044484,"internal_node_id":"0.0-200.0","task_version":"battery-v0.2-trt"},{"rune":"C","rune_set":"elianto","hex":"#3366ff99","correct":-1,"choice":-1,"rt":-1,"accuracy":1,"outcome":"+10","keys":[],"total_keys":0,"block":2,"trial":193,"stimulus":5,"robot":2,"valence":"win","action":"no-go","sham":0,"trial_type":"pit-trial","trial_index":231,"time_elapsed":1048490,"internal_node_id":"0.0-201.0","task_version":"battery-v0.2-trt"},{"rune":"X","rune_set":"elianto","hex":"#3366ff99","correct":32,"choice":-1,"rt":-1,"accuracy":0,"outcome":"+1","keys":[],"total_keys":0,"block":2,"trial":194,"stimulus":8,"robot":1,"valence":"win","action":"go","sham":0,"trial_type":"pit-trial","trial_index":232,"time_elapsed":1052499,"internal_node_id":"0.0-202.0","task_version":"battery-v0.2-trt"},{"rune":"T","rune_set":"elianto","hex":"#f73b6a7A","correct":-1,"choice":32,"rt":1028.600000000326,"accuracy":0,"outcome":"-10","keys":[2529.065000000177],"total_keys":1,"block":2,"trial":195,"stimulus":7,"robot":4,"valence":"lose","action":"no-go","sham":0,"trial_type":"pit-trial","trial_index":233,"time_elapsed":1056234,"internal_node_id":"0.0-203.0","task_version":"battery-v0.2-trt"},{"rune":"F","rune_set":"elianto","hex":"#f73b6a7A","correct":32,"choice":-1,"rt":-1,"accuracy":0,"outcome":"-10","keys":[],"total_keys":0,"block":2,"trial":196,"stimulus":9,"robot":3,"valence":"lose","action":"go","sham":0,"trial_type":"pit-trial","trial_index":234,"time_elapsed":1060239,"internal_node_id":"0.0-204.0","task_version":"battery-v0.2-trt"},{"rune":"X","rune_set":"elianto","hex":"#3366ff99","correct":32,"choice":32,"rt":1026.2849999999162,"accuracy":1,"outcome":"+10","keys":[2526.674999999581],"total_keys":1,"block":2,"trial":197,"stimulus":8,"robot":1,"valence":"win","action":"go","sham":0,"trial_type":"pit-trial","trial_index":235,"time_elapsed":1063972,"internal_node_id":"0.0-205.0","task_version":"battery-v0.2-trt"},{"rune":"F","rune_set":"elianto","hex":"#f73b6a7A","correct":32,"choice":-1,"rt":-1,"accuracy":0,"outcome":"-1","keys":[],"total_keys":0,"block":2,"trial":198,"stimulus":9,"robot":3,"valence":"lose","action":"go","sham":1,"trial_type":"pit-trial","trial_index":236,"time_elapsed":1067977,"internal_node_id":"0.0-206.0","task_version":"battery-v0.2-trt"},{"rune":"T","rune_set":"elianto","hex":"#f73b6a7A","correct":-1,"choice":32,"rt":1016.5849999999627,"accuracy":0,"outcome":"-1","keys":[2517.3249999997206],"total_keys":1,"block":2,"trial":199,"stimulus":7,"robot":4,"valence":"lose","action":"no-go","sham":1,"trial_type":"pit-trial","trial_index":237,"time_elapsed":1071698,"internal_node_id":"0.0-207.0","task_version":"battery-v0.2-trt"},{"rune":"C","rune_set":"elianto","hex":"#3366ff99","correct":-1,"choice":-1,"rt":-1,"accuracy":1,"outcome":"+10","keys":[],"total_keys":0,"block":2,"trial":200,"stimulus":5,"robot":2,"valence":"win","action":"no-go","sham":0,"trial_type":"pit-trial","trial_index":238,"time_elapsed":1075708,"internal_node_id":"0.0-208.0","task_version":"battery-v0.2-trt"},{"rune":"T","rune_set":"elianto","hex":"#f73b6a7A","correct":-1,"choice":-1,"rt":-1,"accuracy":1,"outcome":"-1","keys":[],"total_keys":0,"block":2,"trial":201,"stimulus":7,"robot":4,"valence":"lose","action":"no-go","sham":0,"trial_type":"pit-trial","trial_index":239,"time_elapsed":1079715,"internal_node_id":"0.0-209.0","task_version":"battery-v0.2-trt"},{"rune":"X","rune_set":"elianto","hex":"#3366ff99","correct":32,"choice":-1,"rt":-1,"accuracy":0,"outcome":"+10","keys":[],"total_keys":0,"block":2,"trial":202,"stimulus":8,"robot":1,"valence":"win","action":"go","sham":1,"trial_type":"pit-trial","trial_index":240,"time_elapsed":1083728,"internal_node_id":"0.0-210.0","task_version":"battery-v0.2-trt"},{"rune":"C","rune_set":"elianto","hex":"#3366ff99","correct":-1,"choice":-1,"rt":-1,"accuracy":1,"outcome":"+1","keys":[],"total_keys":0,"block":2,"trial":203,"stimulus":5,"robot":2,"valence":"win","action":"no-go","sham":1,"trial_type":"pit-trial","trial_index":241,"time_elapsed":1087732,"internal_node_id":"0.0-211.0","task_version":"battery-v0.2-trt"},{"rune":"F","rune_set":"elianto","hex":"#f73b6a7A","correct":32,"choice":-1,"rt":-1,"accuracy":0,"outcome":"-1","keys":[],"total_keys":0,"block":2,"trial":204,"stimulus":9,"robot":3,"valence":"lose","action":"go","sham":1,"trial_type":"pit-trial","trial_index":242,"time_elapsed":1091737,"internal_node_id":"0.0-212.0","task_version":"battery-v0.2-trt"},{"rune":"T","rune_set":"elianto","hex":"#f73b6a7A","correct":-1,"choice":32,"rt":912.1650000002701,"accuracy":0,"outcome":"-10","keys":[2413.2949999996927],"total_keys":1,"block":2,"trial":205,"stimulus":7,"robot":4,"valence":"lose","action":"no-go","sham":0,"trial_type":"pit-trial","trial_index":243,"time_elapsed":1095354,"internal_node_id":"0.0-213.0","task_version":"battery-v0.2-trt"},{"rune":"F","rune_set":"elianto","hex":"#f73b6a7A","correct":32,"choice":-1,"rt":-1,"accuracy":0,"outcome":"-10","keys":[],"total_keys":0,"block":2,"trial":206,"stimulus":9,"robot":3,"valence":"lose","action":"go","sham":0,"trial_type":"pit-trial","trial_index":244,"time_elapsed":1099359,"internal_node_id":"0.0-214.0","task_version":"battery-v0.2-trt"},{"rune":"X","rune_set":"elianto","hex":"#3366ff99","correct":32,"choice":32,"rt":1096.7999999998137,"accuracy":1,"outcome":"+10","keys":[2598.535000000149],"total_keys":1,"block":2,"trial":207,"stimulus":8,"robot":1,"valence":"win","action":"go","sham":0,"trial_type":"pit-trial","trial_index":245,"time_elapsed":1103161,"internal_node_id":"0.0-215.0","task_version":"battery-v0.2-trt"},{"rune":"C","rune_set":"elianto","hex":"#3366ff99","correct":-1,"choice":32,"rt":854.230000000447,"accuracy":0,"outcome":"+10","keys":[2354.804999999935],"total_keys":1,"block":2,"trial":208,"stimulus":5,"robot":2,"valence":"win","action":"no-go","sham":1,"trial_type":"pit-trial","trial_index":246,"time_elapsed":1106720,"internal_node_id":"0.0-216.0","task_version":"battery-v0.2-trt"},{"rune":"F","rune_set":"elianto","hex":"#f73b6a7A","correct":32,"choice":-1,"rt":-1,"accuracy":0,"outcome":"-10","keys":[],"total_keys":0,"block":2,"trial":209,"stimulus":9,"robot":3,"valence":"lose","action":"go","sham":0,"trial_type":"pit-trial","trial_index":247,"time_elapsed":1110725,"internal_node_id":"0.0-217.0","task_version":"battery-v0.2-trt"},{"rune":"Q","rune_set":"elianto","hex":"#3366ff99","correct":-1,"choice":-1,"rt":-1,"accuracy":1,"outcome":"+10","keys":[],"total_keys":0,"block":2,"trial":210,"stimulus":11,"robot":2,"valence":"win","action":"no-go","sham":0,"trial_type":"pit-trial","trial_index":248,"time_elapsed":1114731,"internal_node_id":"0.0-218.0","task_version":"battery-v0.2-trt"},{"rune":"N","rune_set":"elianto","hex":"#f73b6a7A","correct":32,"choice":-1,"rt":-1,"accuracy":0,"outcome":"-1","keys":[],"total_keys":0,"block":2,"trial":211,"stimulus":10,"robot":3,"valence":"lose","action":"go","sham":1,"trial_type":"pit-trial","trial_index":249,"time_elapsed":1118736,"internal_node_id":"0.0-219.0","task_version":"battery-v0.2-trt"},{"rune":"X","rune_set":"elianto","hex":"#3366ff99","correct":32,"choice":32,"rt":787.9200000001583,"accuracy":1,"outcome":"+1","keys":[2289.0849999999627],"total_keys":1,"block":2,"trial":212,"stimulus":8,"robot":1,"valence":"win","action":"go","sham":1,"trial_type":"pit-trial","trial_index":250,"time_elapsed":1122231,"internal_node_id":"0.0-220.0","task_version":"battery-v0.2-trt"},{"rune":"Q","rune_set":"elianto","hex":"#3366ff99","correct":-1,"choice":-1,"rt":-1,"accuracy":1,"outcome":"+10","keys":[],"total_keys":0,"block":2,"trial":213,"stimulus":11,"robot":2,"valence":"win","action":"no-go","sham":0,"trial_type":"pit-trial","trial_index":251,"time_elapsed":1126242,"internal_node_id":"0.0-221.0","task_version":"battery-v0.2-trt"},{"rune":"F","rune_set":"elianto","hex":"#f73b6a7A","correct":32,"choice":-1,"rt":-1,"accuracy":0,"outcome":"-10","keys":[],"total_keys":0,"block":2,"trial":214,"stimulus":9,"robot":3,"valence":"lose","action":"go","sham":0,"trial_type":"pit-trial","trial_index":252,"time_elapsed":1130248,"internal_node_id":"0.0-222.0","task_version":"battery-v0.2-trt"},{"rune":"N","rune_set":"elianto","hex":"#f73b6a7A","correct":32,"choice":-1,"rt":-1,"accuracy":0,"outcome":"-10","keys":[],"total_keys":0,"block":2,"trial":215,"stimulus":10,"robot":3,"valence":"lose","action":"go","sham":0,"trial_type":"pit-trial","trial_index":253,"time_elapsed":1134253,"internal_node_id":"0.0-223.0","task_version":"battery-v0.2-trt"},{"rune":"X","rune_set":"elianto","hex":"#3366ff99","correct":32,"choice":-1,"rt":-1,"accuracy":0,"outcome":"+10","keys":[],"total_keys":0,"block":2,"trial":216,"stimulus":8,"robot":1,"valence":"win","action":"go","sham":1,"trial_type":"pit-trial","trial_index":254,"time_elapsed":1138258,"internal_node_id":"0.0-224.0","task_version":"battery-v0.2-trt"},{"rune":"N","rune_set":"elianto","hex":"#f73b6a7A","correct":32,"choice":32,"rt":622.8799999998882,"accuracy":1,"outcome":"-1","keys":[2123.010000000242],"total_keys":1,"block":2,"trial":217,"stimulus":10,"robot":3,"valence":"lose","action":"go","sham":0,"trial_type":"pit-trial","trial_index":255,"time_elapsed":1141585,"internal_node_id":"0.0-225.0","task_version":"battery-v0.2-trt"},{"rune":"Q","rune_set":"elianto","hex":"#3366ff99","correct":-1,"choice":-1,"rt":-1,"accuracy":1,"outcome":"+10","keys":[],"total_keys":0,"block":2,"trial":218,"stimulus":11,"robot":2,"valence":"win","action":"no-go","sham":0,"trial_type":"pit-trial","trial_index":256,"time_elapsed":1145590,"internal_node_id":"0.0-226.0","task_version":"battery-v0.2-trt"},{"rune":"F","rune_set":"elianto","hex":"#f73b6a7A","correct":32,"choice":32,"rt":935.1000000000931,"accuracy":1,"outcome":"-10","keys":[2436.2650000001304],"total_keys":1,"block":2,"trial":219,"stimulus":9,"robot":3,"valence":"lose","action":"go","sham":1,"trial_type":"pit-trial","trial_index":257,"time_elapsed":1149230,"internal_node_id":"0.0-227.0","task_version":"battery-v0.2-trt"},{"rune":"X","rune_set":"elianto","hex":"#3366ff99","correct":32,"choice":-1,"rt":-1,"accuracy":0,"outcome":"+10","keys":[],"total_keys":0,"block":2,"trial":220,"stimulus":8,"robot":1,"valence":"win","action":"go","sham":1,"trial_type":"pit-trial","trial_index":258,"time_elapsed":1153235,"internal_node_id":"0.0-228.0","task_version":"battery-v0.2-trt"},{"rune":"N","rune_set":"elianto","hex":"#f73b6a7A","correct":32,"choice":-1,"rt":-1,"accuracy":0,"outcome":"-10","keys":[],"total_keys":0,"block":2,"trial":221,"stimulus":10,"robot":3,"valence":"lose","action":"go","sham":0,"trial_type":"pit-trial","trial_index":259,"time_elapsed":1157241,"internal_node_id":"0.0-229.0","task_version":"battery-v0.2-trt"},{"rune":"Q","rune_set":"elianto","hex":"#3366ff99","correct":-1,"choice":-1,"rt":-1,"accuracy":1,"outcome":"+10","keys":[],"total_keys":0,"block":2,"trial":222,"stimulus":11,"robot":2,"valence":"win","action":"no-go","sham":0,"trial_type":"pit-trial","trial_index":260,"time_elapsed":1161253,"internal_node_id":"0.0-230.0","task_version":"battery-v0.2-trt"},{"rune":"X","rune_set":"elianto","hex":"#3366ff99","correct":32,"choice":-1,"rt":-1,"accuracy":0,"outcome":"+1","keys":[],"total_keys":0,"block":2,"trial":223,"stimulus":8,"robot":1,"valence":"win","action":"go","sham":0,"trial_type":"pit-trial","trial_index":261,"time_elapsed":1165263,"internal_node_id":"0.0-231.0","task_version":"battery-v0.2-trt"},{"rune":"F","rune_set":"elianto","hex":"#f73b6a7A","correct":32,"choice":-1,"rt":-1,"accuracy":0,"outcome":"-1","keys":[],"total_keys":0,"block":2,"trial":224,"stimulus":9,"robot":3,"valence":"lose","action":"go","sham":1,"trial_type":"pit-trial","trial_index":262,"time_elapsed":1169269,"internal_node_id":"0.0-232.0","task_version":"battery-v0.2-trt"},{"rune":"N","rune_set":"elianto","hex":"#f73b6a7A","correct":32,"choice":-1,"rt":-1,"accuracy":0,"outcome":"-10","keys":[],"total_keys":0,"block":2,"trial":225,"stimulus":10,"robot":3,"valence":"lose","action":"go","sham":0,"trial_type":"pit-trial","trial_index":263,"time_elapsed":1173274,"internal_node_id":"0.0-233.0","task_version":"battery-v0.2-trt"},{"rune":"Q","rune_set":"elianto","hex":"#3366ff99","correct":-1,"choice":32,"rt":914.5649999999441,"accuracy":0,"outcome":"+1","keys":[2414.6749999998137],"total_keys":1,"block":2,"trial":226,"stimulus":11,"robot":2,"valence":"win","action":"no-go","sham":0,"trial_type":"pit-trial","trial_index":264,"time_elapsed":1176891,"internal_node_id":"0.0-234.0","task_version":"battery-v0.2-trt"},{"rune":"F","rune_set":"elianto","hex":"#f73b6a7A","correct":32,"choice":-1,"rt":-1,"accuracy":0,"outcome":"-1","keys":[],"total_keys":0,"block":2,"trial":227,"stimulus":9,"robot":3,"valence":"lose","action":"go","sham":1,"trial_type":"pit-trial","trial_index":265,"time_elapsed":1180896,"internal_node_id":"0.0-235.0","task_version":"battery-v0.2-trt"},{"rune":"X","rune_set":"elianto","hex":"#3366ff99","correct":32,"choice":32,"rt":681.6450000002515,"accuracy":1,"outcome":"+10","keys":[2182.2000000001863],"total_keys":1,"block":2,"trial":228,"stimulus":8,"robot":1,"valence":"win","action":"go","sham":0,"trial_type":"pit-trial","trial_index":266,"time_elapsed":1184280,"internal_node_id":"0.0-236.0","task_version":"battery-v0.2-trt"},{"rune":"X","rune_set":"elianto","hex":"#3366ff99","correct":32,"choice":-1,"rt":-1,"accuracy":0,"outcome":"+1","keys":[],"total_keys":0,"block":2,"trial":229,"stimulus":8,"robot":1,"valence":"win","action":"go","sham":0,"trial_type":"pit-trial","trial_index":267,"time_elapsed":1188286,"internal_node_id":"0.0-237.0","task_version":"battery-v0.2-trt"},{"rune":"Q","rune_set":"elianto","hex":"#3366ff99","correct":-1,"choice":-1,"rt":-1,"accuracy":1,"outcome":"+10","keys":[],"total_keys":0,"block":2,"trial":230,"stimulus":11,"robot":2,"valence":"win","action":"no-go","sham":0,"trial_type":"pit-trial","trial_index":268,"time_elapsed":1192295,"internal_node_id":"0.0-238.0","task_version":"battery-v0.2-trt"},{"rune":"F","rune_set":"elianto","hex":"#f73b6a7A","correct":32,"choice":-1,"rt":-1,"accuracy":0,"outcome":"-10","keys":[],"total_keys":0,"block":2,"trial":231,"stimulus":9,"robot":3,"valence":"lose","action":"go","sham":0,"trial_type":"pit-trial","trial_index":269,"time_elapsed":1196304,"internal_node_id":"0.0-239.0","task_version":"battery-v0.2-trt"},{"rune":"N","rune_set":"elianto","hex":"#f73b6a7A","correct":32,"choice":32,"rt":606.4650000003166,"accuracy":1,"outcome":"-1","keys":[2109.6049999999814],"total_keys":1,"block":2,"trial":232,"stimulus":10,"robot":3,"valence":"lose","action":"go","sham":0,"trial_type":"pit-trial","trial_index":270,"time_elapsed":1199617,"internal_node_id":"0.0-240.0","task_version":"battery-v0.2-trt"},{"rune":"F","rune_set":"elianto","hex":"#f73b6a7A","correct":32,"choice":32,"rt":932.4099999999162,"accuracy":1,"outcome":"-1","keys":[2432.570000000065],"total_keys":1,"block":2,"trial":233,"stimulus":9,"robot":3,"valence":"lose","action":"go","sham":0,"trial_type":"pit-trial","trial_index":271,"time_elapsed":1203257,"internal_node_id":"0.0-241.0","task_version":"battery-v0.2-trt"},{"rune":"N","rune_set":"elianto","hex":"#f73b6a7A","correct":32,"choice":-1,"rt":-1,"accuracy":0,"outcome":"-10","keys":[],"total_keys":0,"block":2,"trial":234,"stimulus":10,"robot":3,"valence":"lose","action":"go","sham":0,"trial_type":"pit-trial","trial_index":272,"time_elapsed":1207262,"internal_node_id":"0.0-242.0","task_version":"battery-v0.2-trt"},{"rune":"X","rune_set":"elianto","hex":"#3366ff99","correct":32,"choice":-1,"rt":-1,"accuracy":0,"outcome":"+1","keys":[],"total_keys":0,"block":2,"trial":235,"stimulus":8,"robot":1,"valence":"win","action":"go","sham":0,"trial_type":"pit-trial","trial_index":273,"time_elapsed":1211268,"internal_node_id":"0.0-243.0","task_version":"battery-v0.2-trt"},{"rune":"Q","rune_set":"elianto","hex":"#3366ff99","correct":-1,"choice":-1,"rt":-1,"accuracy":1,"outcome":"+1","keys":[],"total_keys":0,"block":2,"trial":236,"stimulus":11,"robot":2,"valence":"win","action":"no-go","sham":1,"trial