[{"view_history":"[{\"page_index\":0,\"viewing_time\":1839.479999965988}]","rt":1839.7949999198318,"trial_type":"instructions","trial_index":0,"time_elapsed":1854,"internal_node_id":"0.0-0.0","task_version":"battery-v0.2-trt"},{"slider_type":"valence","raw_loc":633,"loc":0.766,"trial_type":"affective-slider","trial_index":1,"time_elapsed":5586,"internal_node_id":"0.0-1.0","task_version":"battery-v0.2-trt"},{"responses":{"Q06":"3","Q07":"3","Q01":"2","Q02":"2","Q10":"3","Q08":"3","Q13":"0","Q03":"2","Q09":"3","Q12":"2","Q05":"3","Q11":"3","Q04":"2"},"rt":40484.16500003077,"item_order":[5,6,0,1,9,7,12,2,8,11,4,10,3],"radio_events":[4140.639999997802,6660.290000028908,7973.27000007499,11128.299999982119,13541.98500001803,14881.425000028685,19928.285000030883,25059.230000013486,27905.145000084303,30641.2250000285,35138.329999987036,35734.21999998391,38276.445000083186],"key_events":[],"mouse_events":[4140.639999997802,5385.325000039302,6183.019999996759,6660.290000028908,7973.27000007499,10166.390000027604,11128.299999982119,12481.355000054464,13541.98500001803,14881.425000028685,19229.310000082478,19928.285000030883,25059.230000013486,27905.145000084303,30032.505000010133,30641.2250000285,32797.025000094436,34748.13500000164,35138.329999987036,35734.21999998391,38276.445000083186,40482.31500003021],"straightlining":0.5384615384615384,"zigzagging":0.5833333333333334,"survey":"bisbas","trial_type":"survey-template","trial_index":2,"time_elapsed":46074,"internal_node_id":"0.0-2.0","task_version":"battery-v0.2-trt","infrequency":0},{"responses":{"Q06":"1","Q02":"0","Q08":"0","Q05":"0","Q01":"0","Q07":"0","Q04":"0","Q03":"0"},"rt":13188.269999925978,"item_order":[5,1,7,4,0,6,3,2],"radio_events":[4626.255000010133,5574.2349999491125,6897.054999950342,7414.140000008047,8147.164999973029,9005.15500002075,11173.31500002183,12406.13499993924],"key_events":[],"mouse_events":[4626.255000010133,5574.2349999491125,6897.054999950342,7414.140000008047,8147.164999973029,9005.15500002075,9752.469999948516,10558.250000001863,11173.31500002183,11621.574999997392,12406.13499993924,13187.229999923147],"straightlining":0.875,"zigzagging":0.14285714285714285,"survey":"gad7","trial_type":"survey-template","trial_index":3,"time_elapsed":59268,"internal_node_id":"0.0-3.0","task_version":"battery-v0.2-trt","infrequency":0},{"responses":{"Q02":"0","Q08":"3","Q01":"0","Q03":"0","Q05":"0","Q04":"0","Q07":"0","Q06":"0"},"rt":11930.249999975786,"item_order":[1,7,0,2,4,3,6,5],"radio_events":[3159.319999977015,4427.479999954812,6655.320000019856,7758.484999998473,8316.27000006847,8889.25999996718,9542.310000048019,10954.275000025518],"key_events":[],"mouse_events":[2011.1950000282377,3159.319999977015,4427.479999954812,6655.320000019856,7232.135000056587,7758.484999998473,8316.27000006847,8889.25999996718,9542.310000048019,10269.34999995865,10954.275000025518,11929.205000051297],"straightlining":0.875,"zigzagging":0.2857142857142857,"survey":"dass_d","trial_type":"survey-template","trial_index":4,"time_elapsed":71203,"internal_node_id":"0.0-4.0","task_version":"battery-v0.2-trt","infrequency":0},{"value":[0,2.2884615384615383,1.0119047619047619],"trial_type":"call-function","trial_index":5,"time_elapsed":71208,"internal_node_id":"0.0-5.0","task_version":"battery-v0.2-trt"},{"view_history":"[{\"page_index\":0,\"viewing_time\":2144.7549998993054},{\"page_index\":1,\"viewing_time\":2550.9450000245124},{\"page_index\":2,\"viewing_time\":3004.8749999841675},{\"page_index\":3,\"viewing_time\":3058.0550000304356},{\"page_index\":4,\"viewing_time\":9314.920000033453},{\"page_index\":5,\"viewing_time\":6041.0050000064075},{\"page_index\":6,\"viewing_time\":2826.9950000103563},{\"page_index\":7,\"viewing_time\":12001.089999917895},{\"page_index\":8,\"viewing_time\":4538.200000068173},{\"page_index\":9,\"viewing_time\":1368.6999999918044}]","rt":46850.13999999501,"trial_type":"pit-instructions","trial_index":6,"time_elapsed":118061,"internal_node_id":"0.0-6.0-0.0","task_version":"battery-v0.2-trt"},{"rune":"1","rune_set":"elianto","hex":"#3366ff99","correct":32,"choice":32,"rt":659.650000045076,"accuracy":1,"outcome":"+10","keys":[2160.1449999725446],"total_keys":1,"block":0,"practice":1,"trial_type":"pit-trial","trial_index":7,"time_elapsed":121428,"internal_node_id":"0.0-6.0-1.0-0.0","task_version":"battery-v0.2-trt"},{"rune":"1","rune_set":"elianto","hex":"#3366ff99","correct":32,"choice":-1,"rt":-1,"accuracy":0,"outcome":"+1","keys":[],"total_keys":0,"block":0,"practice":1,"trial_type":"pit-trial","trial_index":8,"time_elapsed":125435,"internal_node_id":"0.0-6.0-1.1-0.1","task_version":"battery-v0.2-trt"},{"rune":"1","rune_set":"elianto","hex":"#3366ff99","correct":32,"choice":32,"rt":485.9749999595806,"accuracy":1,"outcome":"+10","keys":[1986.9350000517443],"total_keys":1,"block":0,"practice":1,"trial_type":"pit-trial","trial_index":9,"time_elapsed":128627,"internal_node_id":"0.0-6.0-1.2-0.2","task_version":"battery-v0.2-trt"},{"rune":"1","rune_set":"elianto","hex":"#3366ff99","correct":32,"choice":32,"rt":483.55000000447035,"accuracy":1,"outcome":"+10","keys":[1983.7149999802932],"total_keys":1,"block":0,"practice":1,"trial_type":"pit-trial","trial_index":10,"time_elapsed":131815,"internal_node_id":"0.0-6.0-1.3-0.3","task_version":"battery-v0.2-trt"},{"rune":"1","rune_set":"elianto","hex":"#3366ff99","correct":32,"choice":32,"rt":316.27000006847084,"accuracy":1,"outcome":"+10","keys":[1817.0249999966472],"total_keys":1,"block":0,"practice":1,"trial_type":"pit-trial","trial_index":11,"time_elapsed":134838,"internal_node_id":"0.0-6.0-1.4-0.4","task_version":"battery-v0.2-trt"},{"trial_type":"call-function","trial_index":12,"time_elapsed":134842,"internal_node_id":"0.0-6.0-2.0","task_version":"battery-v0.2-trt"},{"view_history":"[{\"page_index\":0,\"viewing_time\":2198.439999949187},{\"page_index\":1,\"viewing_time\":1691.9750000815839}]","rt":3890.8100000116974,"trial_type":"pit-instructions","trial_index":13,"time_elapsed":138733,"internal_node_id":"0.0-6.0-3.0","task_version":"battery-v0.2-trt"},{"rune":"2","rune_set":"elianto","hex":"#3366ff99","correct":-1,"choice":32,"rt":843.7350000021979,"accuracy":0,"outcome":"+1","keys":[1392.9599999682978,2344.8549999156967],"total_keys":2,"block":0,"practice":2,"trial_type":"pit-trial","trial_index":14,"time_elapsed":142283,"internal_node_id":"0.0-6.0-4.0-0.0","task_version":"battery-v0.2-trt"},{"rune":"2","rune_set":"elianto","hex":"#3366ff99","correct":-1,"choice":-1,"rt":-1,"accuracy":1,"outcome":"+10","keys":[],"total_keys":0,"block":0,"practice":2,"trial_type":"pit-trial","trial_index":15,"time_elapsed":146289,"internal_node_id":"0.0-6.0-4.1-0.1","task_version":"battery-v0.2-trt"},{"rune":"2","rune_set":"elianto","hex":"#3366ff99","correct":-1,"choice":32,"rt":999.3249999824911,"accuracy":0,"outcome":"+1","keys":[2500.6550000980496],"total_keys":1,"block":0,"practice":2,"trial_type":"pit-trial","trial_index":16,"time_elapsed":149996,"internal_node_id":"0.0-6.0-4.2-0.2","task_version":"battery-v0.2-trt"},{"rune":"2","rune_set":"elianto","hex":"#3366ff99","correct":-1,"choice":-1,"rt":-1,"accuracy":1,"outcome":"+10","keys":[],"total_keys":0,"block":0,"practice":2,"trial_type":"pit-trial","trial_index":17,"time_elapsed":154001,"internal_node_id":"0.0-6.0-4.3-0.3","task_version":"battery-v0.2-trt"},{"rune":"2","rune_set":"elianto","hex":"#3366ff99","correct":-1,"choice":-1,"rt":-1,"accuracy":1,"outcome":"+10","keys":[],"total_keys":0,"block":0,"practice":2,"trial_type":"pit-trial","trial_index":18,"time_elapsed":158006,"internal_node_id":"0.0-6.0-4.4-0.4","task_version":"battery-v0.2-trt"},{"rune":"2","rune_set":"elianto","hex":"#3366ff99","correct":-1,"choice":-1,"rt":-1,"accuracy":1,"outcome":"+10","keys":[],"total_keys":0,"block":0,"practice":2,"trial_type":"pit-trial","trial_index":19,"time_elapsed":162012,"internal_node_id":"0.0-6.0-4.5-0.5","task_version":"battery-v0.2-trt"},{"trial_type":"call-function","trial_index":20,"time_elapsed":162016,"internal_node_id":"0.0-6.0-5.0","task_version":"battery-v0.2-trt"},{"view_history":"[{\"page_index\":0,\"viewing_time\":8312.619999982417},{\"page_index\":1,\"viewing_time\":1586.8699999991804}]","rt":9899.899999960326,"trial_type":"pit-instructions","trial_index":21,"time_elapsed":171916,"internal_node_id":"0.0-6.0-6.0","task_version":"battery-v0.2-trt"},{"rune":"3","rune_set":"elianto","hex":"#f73b6a7A","correct":-1,"choice":32,"rt":248.33500001113862,"accuracy":0,"outcome":"-10","keys":[1748.3949998859316],"total_keys":1,"block":0,"practice":3,"trial_type":"pit-trial","trial_index":22,"time_elapsed":174870,"internal_node_id":"0.0-6.0-7.0-0.0","task_version":"battery-v0.2-trt"},{"rune":"3","rune_set":"elianto","hex":"#f73b6a7A","correct":-1,"choice":32,"rt":867.3599999165162,"accuracy":0,"outcome":"-10","keys":[1328.9450000738725,2368.2850000914186],"total_keys":2,"block":0,"practice":3,"trial_type":"pit-trial","trial_index":23,"time_elapsed":178443,"internal_node_id":"0.0-6.0-7.1-0.1","task_version":"battery-v0.2-trt"},{"rune":"3","rune_set":"elianto","hex":"#f73b6a7A","correct":-1,"choice":-1,"rt":-1,"accuracy":1,"outcome":"-1","keys":[],"total_keys":0,"block":0,"practice":3,"trial_type":"pit-trial","trial_index":24,"time_elapsed":182448,"internal_node_id":"0.0-6.0-7.2-0.2","task_version":"battery-v0.2-trt"},{"rune":"3","rune_set":"elianto","hex":"#f73b6a7A","correct":-1,"choice":-1,"rt":-1,"accuracy":1,"outcome":"-1","keys":[],"total_keys":0,"block":0,"practice":3,"trial_type":"pit-trial","trial_index":25,"time_elapsed":186453,"internal_node_id":"0.0-6.0-7.3-0.3","task_version":"battery-v0.2-trt"},{"rune":"3","rune_set":"elianto","hex":"#f73b6a7A","correct":-1,"choice":-1,"rt":-1,"accuracy":1,"outcome":"-1","keys":[],"total_keys":0,"block":0,"practice":3,"trial_type":"pit-trial","trial_index":26,"time_elapsed":190459,"internal_node_id":"0.0-6.0-7.4-0.4","task_version":"battery-v0.2-trt"},{"trial_type":"call-function","trial_index":27,"time_elapsed":190462,"internal_node_id":"0.0-6.0-8.0","task_version":"battery-v0.2-trt"},{"view_history":"[{\"page_index\":0,\"viewing_time\":3288.8350000139326},{\"page_index\":1,\"viewing_time\":2969.9499999405816}]","rt":6259.154999977909,"trial_type":"pit-instructions","trial_index":28,"time_elapsed":196722,"internal_node_id":"0.0-6.0-9.0","task_version":"battery-v0.2-trt"},{"rune":"4","rune_set":"elianto","hex":"#f73b6a7A","correct":32,"choice":32,"rt":234.56500004976988,"accuracy":1,"outcome":"-1","keys":[1736.1999999266118],"total_keys":1,"block":0,"practice":4,"trial_type":"pit-trial","trial_index":29,"time_elapsed":199662,"internal_node_id":"0.0-6.0-10.0-0.0","task_version":"battery-v0.2-trt"},{"rune":"4","rune_set":"elianto","hex":"#f73b6a7A","correct":32,"choice":32,"rt":100.17500002868474,"accuracy":1,"outcome":"-1","keys":[1601.96499992162],"total_keys":1,"block":0,"practice":4,"trial_type":"pit-trial","trial_index":30,"time_elapsed":202469,"internal_node_id":"0.0-6.0-10.1-0.1","task_version":"battery-v0.2-trt"},{"rune":"4","rune_set":"elianto","hex":"#f73b6a7A","correct":32,"choice":32,"rt":179.14999998174608,"accuracy":1,"outcome":"-1","keys":[1679.8849999904633],"total_keys":1,"block":0,"practice":4,"trial_type":"pit-trial","trial_index":31,"time_elapsed":205355,"internal_node_id":"0.0-6.0-10.2-0.2","task_version":"battery-v0.2-trt"},{"rune":"4","rune_set":"elianto","hex":"#f73b6a7A","correct":32,"choice":32,"rt":587.7549999859184,"accuracy":1,"outcome":"-1","keys":[2088.8200000626966],"total_keys":1,"block":0,"practice":4,"trial_type":"pit-trial","trial_index":32,"time_elapsed":208649,"internal_node_id":"0.0-6.0-10.3-0.3","task_version":"battery-v0.2-trt"},{"trial_type":"call-function","trial_index":33,"time_elapsed":208653,"internal_node_id":"0.0-6.0-11.0","task_version":"battery-v0.2-trt"},{"view_history":"[{\"page_index\":0,\"viewing_time\":2669.2750001093373},{\"page_index\":1,\"viewing_time\":3106.054999982007},{\"page_index\":2,\"viewing_time\":2911.83999995701},{\"page_index\":3,\"viewing_time\":939.9500000290573},{\"page_index\":4,\"viewing_time\":715.0149999652058},{\"page_index\":5,\"viewing_time\":731.9500000448897}]","rt":11074.470000108704,"trial_type":"pit-instructions","trial_index":34,"time_elapsed":219728,"internal_node_id":"0.0-6.0-12.0","task_version":"battery-v0.2-trt"},{"responses":["Press SPACE","+10","-1","True","True"],"num_errors":0,"rt":12724.904999951832,"trial_type":"pit-comprehension","trial_index":35,"time_elapsed":232458,"internal_node_id":"0.0-6.0-13.0","task_version":"battery-v0.2-trt"},{"view_history":"[{\"page_index\":0,\"viewing_time\":12416.239999933168},{\"page_index\":1,\"viewing_time\":4633.930000010878}]","rt":17050.579999922775,"trial_type":"pit-instructions","trial_index":36,"time_elapsed":249516,"internal_node_id":"0.0-7.0","task_version":"battery-v0.2-trt"},{"rune":"H","rune_set":"bacs2","hex":"#3366ff99","correct":32,"choice":-1,"rt":-1,"accuracy":0,"outcome":"+10","keys":[],"total_keys":0,"block":1,"trial":1,"stimulus":3,"robot":1,"valence":"win","action":"go","sham":1,"trial_type":"pit-trial","trial_index":37,"time_elapsed":253523,"internal_node_id":"0.0-8.0","task_version":"battery-v0.2-trt"},{"rune":"T","rune_set":"bacs2","hex":"#3366ff99","correct":32,"choice":32,"rt":1196.4550000848249,"accuracy":1,"outcome":"+1","keys":[2697.6850000210106],"total_keys":1,"block":1,"trial":2,"stimulus":1,"robot":1,"valence":"win","action":"go","sham":1,"trial_type":"pit-trial","trial_index":38,"time_elapsed":257425,"internal_node_id":"0.0-9.0","task_version":"battery-v0.2-trt"},{"rune":"Y","rune_set":"bacs2","hex":"#3366ff99","correct":-1,"choice":32,"rt":820.9700000006706,"accuracy":0,"outcome":"+1","keys":[2321.345000062138],"total_keys":1,"block":1,"trial":3,"stimulus":0,"robot":2,"valence":"win","action":"no-go","sham":0,"trial_type":"pit-trial","trial_index":39,"time_elapsed":260952,"internal_node_id":"0.0-10.0","task_version":"battery-v0.2-trt"},{"rune":"Q","rune_set":"bacs2","hex":"#f73b6a7A","correct":-1,"choice":32,"rt":844.6199999889359,"accuracy":0,"outcome":"-10","keys":[2344.719999935478],"total_keys":1,"block":1,"trial":4,"stimulus":2,"robot":4,"valence":"lose","action":"no-go","sham":0,"trial_type":"pit-trial","trial_index":40,"time_elapsed":264501,"internal_node_id":"0.0-11.0","task_version":"battery-v0.2-trt"},{"rune":"T","rune_set":"bacs2","hex":"#3366ff99","correct":32,"choice":-1,"rt":-1,"accuracy":0,"outcome":"+1","keys":[],"total_keys":0,"block":1,"trial":5,"stimulus":1,"robot":1,"valence":"win","action":"go","sham":0,"trial_type":"pit-trial","trial_index":41,"time_elapsed":268507,"internal_node_id":"0.0-12.0","task_version":"battery-v0.2-trt"},{"rune":"H","rune_set":"bacs2","hex":"#3366ff99","correct":32,"choice":32,"rt":1098.219999927096,"accuracy":1,"outcome":"+1","keys":[2599.114999989979],"total_keys":1,"block":1,"trial":6,"stimulus":3,"robot":1,"valence":"win","action":"go","sham":1,"trial_type":"pit-trial","trial_index":42,"time_elapsed":272311,"internal_node_id":"0.0-13.0","task_version":"battery-v0.2-trt"},{"rune":"Y","rune_set":"bacs2","hex":"#3366ff99","correct":-1,"choice":-1,"rt":-1,"accuracy":1,"outcome":"+10","keys":[],"total_keys":0,"block":1,"trial":7,"stimulus":0,"robot":2,"valence":"win","action":"no-go","sham":0,"trial_type":"pit-trial","trial_index":43,"time_elapsed":276317,"internal_node_id":"0.0-14.0","task_version":"battery-v0.2-trt"},{"rune":"Q","rune_set":"bacs2","hex":"#f73b6a7A","correct":-1,"choice":32,"rt":1081.4499999396503,"accuracy":0,"outcome":"-10","keys":[2581.779999891296],"total_keys":1,"block":1,"trial":8,"stimulus":2,"robot":4,"valence":"lose","action":"no-go","sham":0,"trial_type":"pit-trial","trial_index":44,"time_elapsed":280103,"internal_node_id":"0.0-15.0","task_version":"battery-v0.2-trt"},{"rune":"H","rune_set":"bacs2","hex":"#3366ff99","correct":32,"choice":32,"rt":907.2999999625608,"accuracy":1,"outcome":"+10","keys":[2408.754999982193],"total_keys":1,"block":1,"trial":9,"stimulus":3,"robot":1,"valence":"win","action":"go","sham":0,"trial_type":"pit-trial","trial_index":45,"time_elapsed":283717,"internal_node_id":"0.0-16.0","task_version":"battery-v0.2-trt"},{"rune":"Y","rune_set":"bacs2","hex":"#3366ff99","correct":-1,"choice":-1,"rt":-1,"accuracy":1,"outcome":"+1","keys":[],"total_keys":0,"block":1,"trial":10,"stimulus":0,"robot":2,"valence":"win","action":"no-go","sham":1,"trial_type":"pit-trial","trial_index":46,"time_elapsed":287723,"internal_node_id":"0.0-17.0","task_version":"battery-v0.2-trt"},{"rune":"T","rune_set":"bacs2","hex":"#3366ff99","correct":32,"choice":32,"rt":683.6449999827892,"accuracy":1,"outcome":"+10","keys":[2185.0850000046194],"total_keys":1,"block":1,"trial":11,"stimulus":1,"robot":1,"valence":"win","action":"go","sham":0,"trial_type":"pit-trial","trial_index":47,"time_elapsed":291112,"internal_node_id":"0.0-18.0","task_version":"battery-v0.2-trt"},{"rune":"Q","rune_set":"bacs2","hex":"#f73b6a7A","correct":-1,"choice":32,"rt":893.6299999477342,"accuracy":0,"outcome":"-10","keys":[2394.1600000252947],"total_keys":1,"block":1,"trial":12,"stimulus":2,"robot":4,"valence":"lose","action":"no-go","sham":0,"trial_type":"pit-trial","trial_index":48,"time_elapsed":294711,"internal_node_id":"0.0-19.0","task_version":"battery-v0.2-trt"},{"rune":"H","rune_set":"bacs2","hex":"#3366ff99","correct":32,"choice":-1,"rt":-1,"accuracy":0,"outcome":"+1","keys":[],"total_keys":0,"block":1,"trial":13,"stimulus":3,"robot":1,"valence":"win","action":"go","sham":0,"trial_type":"pit-trial","trial_index":49,"time_elapsed":298716,"internal_node_id":"0.0-20.0","task_version":"battery-v0.2-trt"},{"rune":"Q","rune_set":"bacs2","hex":"#f73b6a7A","correct":-1,"choice":32,"rt":254.8399999504909,"accuracy":0,"outcome":"-10","keys":[1756.2350000953302],"total_keys":1,"block":1,"trial":14,"stimulus":2,"robot":4,"valence":"lose","action":"no-go","sham":0,"trial_type":"pit-trial","trial_index":50,"time_elapsed":301678,"internal_node_id":"0.0-21.0","task_version":"battery-v0.2-trt"},{"rune":"T","rune_set":"bacs2","hex":"#3366ff99","correct":32,"choice":32,"rt":53.55000006966293,"accuracy":1,"outcome":"+1","keys":[1554.050000035204],"total_keys":1,"block":1,"trial":15,"stimulus":1,"robot":1,"valence":"win","action":"go","sham":1,"trial_type":"pit-trial","trial_index":51,"time_elapsed":304437,"internal_node_id":"0.0-22.0","task_version":"battery-v0.2-trt"},{"rune":"Y","rune_set":"bacs2","hex":"#3366ff99","correct":-1,"choice":32,"rt":55.25500001385808,"accuracy":0,"outcome":"+1","keys":[1557.0299999089912],"total_keys":1,"block":1,"trial":16,"stimulus":0,"robot":2,"valence":"win","action":"no-go","sham":0,"trial_type":"pit-trial","trial_index":52,"time_elapsed":307200,"internal_node_id":"0.0-23.0","task_version":"battery-v0.2-trt"},{"rune":"H","rune_set":"bacs2","hex":"#3366ff99","correct":32,"choice":32,"rt":263.1050000200048,"accuracy":1,"outcome":"+10","keys":[1763.414999935776],"total_keys":1,"block":1,"trial":17,"stimulus":3,"robot":1,"valence":"win","action":"go","sham":0,"trial_type":"pit-trial","trial_index":53,"time_elapsed":310169,"internal_node_id":"0.0-24.0","task_version":"battery-v0.2-trt"},{"rune":"T","rune_set":"bacs2","hex":"#3366ff99","correct":32,"choice":32,"rt":642.8950000554323,"accuracy":1,"outcome":"+10","keys":[2143.8799999887124],"total_keys":1,"block":1,"trial":18,"stimulus":1,"robot":1,"valence":"win","action":"go","sham":0,"trial_type":"pit-trial","trial_index":54,"time_elapsed":313518,"internal_node_id":"0.0-25.0","task_version":"battery-v0.2-trt"},{"rune":"Y","rune_set":"bacs2","hex":"#3366ff99","correct":-1,"choice":32,"rt":683.6549999425188,"accuracy":0,"outcome":"+10","keys":[2185.0749999284744],"total_keys":1,"block":1,"trial":19,"stimulus":0,"robot":2,"valence":"win","action":"no-go","sham":1,"trial_type":"pit-trial","trial_index":55,"time_elapsed":316907,"internal_node_id":"0.0-26.0","task_version":"battery-v0.2-trt"},{"rune":"Q","rune_set":"bacs2","hex":"#f73b6a7A","correct":-1,"choice":-1,"rt":-1,"accuracy":1,"outcome":"-1","keys":[],"total_keys":0,"block":1,"trial":20,"stimulus":2,"robot":4,"valence":"lose","action":"no-go","sham":0,"trial_type":"pit-trial","trial_index":56,"time_elapsed":320914,"internal_node_id":"0.0-27.0","task_version":"battery-v0.2-trt"},{"rune":"H","rune_set":"bacs2","hex":"#3366ff99","correct":32,"choice":32,"rt":384.05500003136694,"accuracy":1,"outcome":"+10","keys":[1884.3799999449402],"total_keys":1,"block":1,"trial":21,"stimulus":3,"robot":1,"valence":"win","action":"go","sham":0,"trial_type":"pit-trial","trial_index":57,"time_elapsed":324004,"internal_node_id":"0.0-28.0","task_version":"battery-v0.2-trt"},{"rune":"Y","rune_set":"bacs2","hex":"#3366ff99","correct":-1,"choice":32,"rt":409.91499996744096,"accuracy":0,"outcome":"+1","keys":[1911.3450000295416],"total_keys":1,"block":1,"trial":22,"stimulus":0,"robot":2,"valence":"win","action":"no-go","sham":0,"trial_type":"pit-trial","trial_index":58,"time_elapsed":327120,"internal_node_id":"0.0-29.0","task_version":"battery-v0.2-trt"},{"rune":"T","rune_set":"bacs2","hex":"#3366ff99","correct":32,"choice":32,"rt":319.58999997004867,"accuracy":1,"outcome":"+10","keys":[1821.0099999560043],"total_keys":1,"block":1,"trial":23,"stimulus":1,"robot":1,"valence":"win","action":"go","sham":0,"trial_type":"pit-trial","trial_index":59,"time_elapsed":330145,"internal_node_id":"0.0-30.0","task_version":"battery-v0.2-trt"},{"rune":"Q","rune_set":"bacs2","hex":"#f73b6a7A","correct":-1,"choice":-1,"rt":-1,"accuracy":1,"outcome":"-10","keys":[],"total_keys":0,"block":1,"trial":24,"stimulus":2,"robot":4,"valence":"lose","action":"no-go","sham":1,"trial_type":"pit-trial","trial_index":60,"time_elapsed":334150,"internal_node_id":"0.0-31.0","task_version":"battery-v0.2-trt"},{"rune":"Q","rune_set":"bacs2","hex":"#f73b6a7A","correct":-1,"choice":32,"rt":1067.200000048615,"accuracy":0,"outcome":"-10","keys":[2567.4850000068545],"total_keys":1,"block":1,"trial":25,"stimulus":2,"robot":4,"valence":"lose","action":"no-go","sham":0,"trial_type":"pit-trial","trial_index":61,"time_elapsed":337922,"internal_node_id":"0.0-32.0","task_version":"battery-v0.2-trt"},{"rune":"H","rune_set":"bacs2","hex":"#3366ff99","correct":32,"choice":-1,"rt":-1,"accuracy":0,"outcome":"+1","keys":[],"total_keys":0,"block":1,"trial":26,"stimulus":3,"robot":1,"valence":"win","action":"go","sham":0,"trial_type":"pit-trial","trial_index":62,"time_elapsed":341928,"internal_node_id":"0.0-33.0","task_version":"battery-v0.2-trt"},{"rune":"Y","rune_set":"bacs2","hex":"#3366ff99","correct":-1,"choice":32,"rt":580.3399999858811,"accuracy":0,"outcome":"+1","keys":[2081.99999993667],"total_keys":1,"block":1,"trial":27,"stimulus":0,"robot":2,"valence":"win","action":"no-go","sham":0,"trial_type":"pit-trial","trial_index":63,"time_elapsed":345216,"internal_node_id":"0.0-34.0","task_version":"battery-v0.2-trt"},{"rune":"T","rune_set":"bacs2","hex":"#3366ff99","correct":32,"choice":32,"rt":442.3999999416992,"accuracy":1,"outcome":"+10","keys":[1943.5750000411645],"total_keys":1,"block":1,"trial":28,"stimulus":1,"robot":1,"valence":"win","action":"go","sham":0,"trial_type":"pit-trial","trial_index":64,"time_elapsed":348364,"internal_node_id":"0.0-35.0","task_version":"battery-v0.2-trt"},{"rune":"Q","rune_set":"bacs2","hex":"#f73b6a7A","correct":-1,"choice":32,"rt":910.9900000039488,"accuracy":0,"outcome":"-1","keys":[2412.034999928437],"total_keys":1,"block":1,"trial":29,"stimulus":2,"robot":4,"valence":"lose","action":"no-go","sham":1,"trial_type":"pit-trial","trial_index":65,"time_elapsed":351981,"internal_node_id":"0.0-36.0","task_version":"battery-v0.2-trt"},{"rune":"Y","rune_set":"bacs2","hex":"#3366ff99","correct":-1,"choice":32,"rt":519.7600000537932,"accuracy":0,"outcome":"+1","keys":[2020.105000003241],"total_keys":1,"block":1,"trial":30,"stimulus":0,"robot":2,"valence":"win","action":"no-go","sham":0,"trial_type":"pit-trial","trial_index":66,"time_elapsed":355206,"internal_node_id":"0.0-37.0","task_version":"battery-v0.2-trt"},{"rune":"H","rune_set":"bacs2","hex":"#3366ff99","correct":32,"choice":32,"rt":531.5999999875203,"accuracy":1,"outcome":"+10","keys":[2035.4950000764802],"total_keys":1,"block":1,"trial":31,"stimulus":3,"robot":1,"valence":"win","action":"go","sham":0,"trial_type":"pit-trial","trial_index":67,"time_elapsed":358446,"internal_node_id":"0.0-38.0","task_version":"battery-v0.2-trt"},{"rune":"T","rune_set":"bacs2","hex":"#3366ff99","correct":32,"choice":32,"rt":460.13000002130866,"accuracy":1,"outcome":"+10","keys":[1961.295000044629],"total_keys":1,"block":1,"trial":32,"stimulus":1,"robot":1,"valence":"win","action":"go","sham":0,"trial_type":"pit-trial","trial_index":68,"time_elapsed":361613,"internal_node_id":"0.0-39.0","task_version":"battery-v0.2-trt"},{"rune":"Y","rune_set":"bacs2","hex":"#3366ff99","correct":-1,"choice":32,"rt":323.07000004220754,"accuracy":0,"outcome":"+1","keys":[1823.8750000018626],"total_keys":1,"block":1,"trial":33,"stimulus":0,"robot":2,"valence":"win","action":"no-go","sham":0,"trial_type":"pit-trial","trial_index":69,"time_elapsed":364642,"internal_node_id":"0.0-40.0","task_version":"battery-v0.2-trt"},{"rune":"E","rune_set":"bacs2","hex":"#3366ff99","correct":32,"choice":32,"rt":446.2599999969825,"accuracy":1,"outcome":"+10","keys":[1947.180000017397],"total_keys":1,"block":1,"trial":34,"stimulus":4,"robot":1,"valence":"win","action":"go","sham":0,"trial_type":"pit-trial","trial_index":70,"time_elapsed":367794,"internal_node_id":"0.0-41.0","task_version":"battery-v0.2-trt"},{"rune":"H","rune_set":"bacs2","hex":"#3366ff99","correct":32,"choice":32,"rt":365.7149999635294,"accuracy":1,"outcome":"+10","keys":[1866.9750000117347],"total_keys":1,"block":1,"trial":35,"stimulus":3,"robot":1,"valence":"win","action":"go","sham":0,"trial_type":"pit-trial","trial_index":71,"time_elapsed":370865,"internal_node_id":"0.0-42.0","task_version":"battery-v0.2-trt"},{"rune":"Q","rune_set":"bacs2","hex":"#f73b6a7A","correct":-1,"choice":32,"rt":647.3149999510497,"accuracy":0,"outcome":"-10","keys":[2148.619999992661],"total_keys":1,"block":1,"trial":36,"stimulus":2,"robot":4,"valence":"lose","action":"no-go","sham":0,"trial_type":"pit-trial","trial_index":72,"time_elapsed":374218,"internal_node_id":"0.0-43.0","task_version":"battery-v0.2-trt"},{"rune":"Y","rune_set":"bacs2","hex":"#3366ff99","correct":-1,"choice":32,"rt":483.11499995179474,"accuracy":0,"outcome":"+1","keys":[1984.3550000805408],"total_keys":1,"block":1,"trial":37,"stimulus":0,"robot":2,"valence":"win","action":"no-go","sham":0,"trial_type":"pit-trial","trial_index":73,"time_elapsed":377407,"internal_node_id":"0.0-44.0","task_version":"battery-v0.2-trt"},{"rune":"Q","rune_set":"bacs2","hex":"#f73b6a7A","correct":-1,"choice":32,"rt":183.28500003553927,"accuracy":0,"outcome":"-1","keys":[1683.5100000025705],"total_keys":1,"block":1,"trial":38,"stimulus":2,"robot":4,"valence":"lose","action":"no-go","sham":1,"trial_type":"pit-trial","trial_index":74,"time_elapsed":380296,"internal_node_id":"0.0-45.0","task_version":"battery-v0.2-trt"},{"rune":"E","rune_set":"bacs2","hex":"#3366ff99","correct":32,"choice":32,"rt":252.7550000231713,"accuracy":1,"outcome":"+1","keys":[1753.2250001095235],"total_keys":1,"block":1,"trial":39,"stimulus":4,"robot":1,"valence":"win","action":"go","sham":1,"trial_type":"pit-trial","trial_index":75,"time_elapsed":383253,"internal_node_id":"0.0-46.0","task_version":"battery-v0.2-trt"},{"rune":"H","rune_set":"bacs2","hex":"#3366ff99","correct":32,"choice":32,"rt":155.49000003375113,"accuracy":1,"outcome":"+1","keys":[1656.3999999780208],"total_keys":1,"block":1,"trial":40,"stimulus":3,"robot":1,"valence":"win","action":"go","sham":1,"trial_type":"pit-trial","trial_index":76,"time_elapsed":386114,"internal_node_id":"0.0-47.0","task_version":"battery-v0.2-trt"},{"rune":"E","rune_set":"bacs2","hex":"#3366ff99","correct":32,"choice":32,"rt":328.24500009883195,"accuracy":1,"outcome":"+1","keys":[1828.8350000511855],"total_keys":1,"block":1,"trial":41,"stimulus":4,"robot":1,"valence":"win","action":"go","sham":1,"trial_type":"pit-trial","trial_index":77,"time_elapsed":389148,"internal_node_id":"0.0-48.0","task_version":"battery-v0.2-trt"},{"rune":"Y","rune_set":"bacs2","hex":"#3366ff99","correct":-1,"choice":32,"rt":1134.9250000203028,"accuracy":0,"outcome":"+1","keys":[2636.3649999257177],"total_keys":1,"block":1,"trial":42,"stimulus":0,"robot":2,"valence":"win","action":"no-go","sham":0,"trial_type":"pit-trial","trial_index":78,"time_elapsed":392988,"internal_node_id":"0.0-49.0","task_version":"battery-v0.2-trt"},{"rune":"O","rune_set":"bacs2","hex":"#f73b6a7A","correct":-1,"choice":-1,"rt":-1,"accuracy":1,"outcome":"-1","keys":[3107.2350000031292],"total_keys":1,"block":1,"trial":43,"stimulus":6,"robot":4,"valence":"lose","action":"no-go","sham":0,"trial_type":"pit-trial","trial_index":79,"time_elapsed":396994,"internal_node_id":"0.0-50.0","task_version":"battery-v0.2-trt"},{"rune":"C","rune_set":"bacs2","hex":"#f73b6a7A","correct":32,"choice":32,"rt":991.465000086464,"accuracy":1,"outcome":"-1","keys":[2491.855000029318],"total_keys":1,"block":1,"trial":44,"stimulus":5,"robot":3,"valence":"lose","action":"go","sham":0,"trial_type":"pit-trial","trial_index":80,"time_elapsed":400690,"internal_node_id":"0.0-51.0","task_version":"battery-v0.2-trt"},{"rune":"C","rune_set":"bacs2","hex":"#f73b6a7A","correct":32,"choice":32,"rt":1040.5899999896064,"accuracy":1,"outcome":"-10","keys":[2541.17999994196],"total_keys":1,"block":1,"trial":45,"stimulus":5,"robot":3,"valence":"lose","action":"go","sham":1,"trial_type":"pit-trial","trial_index":81,"time_elapsed":404437,"internal_node_id":"0.0-52.0","task_version":"battery-v0.2-trt"},{"rune":"E","rune_set":"bacs2","hex":"#3366ff99","correct":32,"choice":32,"rt":460.02999995835125,"accuracy":1,"outcome":"+10","keys":[1960.795000079088],"total_keys":1,"block":1,"trial":46,"stimulus":4,"robot":1,"valence":"win","action":"go","sham":0,"trial_type":"pit-trial","trial_index":82,"time_elapsed":407603,"internal_node_id":"0.0-53.0","task_version":"battery-v0.2-trt"},{"rune":"Y","rune_set":"bacs2","hex":"#3366ff99","correct":-1,"choice":32,"rt":607.5450000353158,"accuracy":0,"outcome":"+1","keys":[2107.9150000587106],"total_keys":1,"block":1,"trial":47,"stimulus":0,"robot":2,"valence":"win","action":"no-go","sham":0,"trial_type":"pit-trial","trial_index":83,"time_elapsed":410915,"internal_node_id":"0.0-54.0","task_version":"battery-v0.2-trt"},{"rune":"O","rune_set":"bacs2","hex":"#f73b6a7A","correct":-1,"choice":-1,"rt":-1,"accuracy":1,"outcome":"-1","keys":[],"total_keys":0,"block":1,"trial":48,"stimulus":6,"robot":4,"valence":"lose","action":"no-go","sham":0,"trial_type":"pit-trial","trial_index":84,"time_elapsed":414921,"internal_node_id":"0.0-55.0","task_version":"battery-v0.2-trt"},{"rune":"G","rune_set":"bacs2","hex":"#3366ff99","correct":-1,"choice":32,"rt":883.075000019744,"accuracy":0,"outcome":"+1","keys":[2384.044999955222],"total_keys":1,"block":1,"trial":49,"stimulus":7,"robot":2,"valence":"win","action":"no-go","sham":0,"trial_type":"pit-trial","trial_index":85,"time_elapsed":418510,"internal_node_id":"0.0-56.0","task_version":"battery-v0.2-trt"},{"rune":"E","rune_set":"bacs2","hex":"#3366ff99","correct":32,"choice":32,"rt":452.7150000212714,"accuracy":1,"outcome":"+10","keys":[1953.0850000446662],"total_keys":1,"block":1,"trial":50,"stimulus":4,"robot":1,"valence":"win","action":"go","sham":0,"trial_type":"pit-trial","trial_index":86,"time_elapsed":421668,"internal_node_id":"0.0-57.0","task_version":"battery-v0.2-trt"},{"rune":"C","rune_set":"bacs2","hex":"#f73b6a7A","correct":32,"choice":32,"rt":680.4949999786913,"accuracy":1,"outcome":"-10","keys":[2180.8100000489503],"total_keys":1,"block":1,"trial":51,"stimulus":5,"robot":3,"valence":"lose","action":"go","sham":1,"trial_type":"pit-trial","trial_index":87,"time_elapsed":425053,"internal_node_id":"0.0-58.0","task_version":"battery-v0.2-trt"},{"rune":"O","rune_set":"bacs2","hex":"#f73b6a7A","correct":-1,"choice":32,"rt":147.25000003818423,"accuracy":0,"outcome":"-10","keys":[1647.3550000227988],"total_keys":1,"block":1,"trial":52,"stimulus":6,"robot":4,"valence":"lose","action":"no-go","sham":0,"trial_type":"pit-trial","trial_index":88,"time_elapsed":427905,"internal_node_id":"0.0-59.0","task_version":"battery-v0.2-trt"},{"rune":"O","rune_set":"bacs2","hex":"#f73b6a7A","correct":-1,"choice":32,"rt":827.2100000176579,"accuracy":0,"outcome":"-10","keys":[2328.5499999765307],"total_keys":1,"block":1,"trial":53,"stimulus":6,"robot":4,"valence":"lose","action":"no-go","sham":0,"trial_type":"pit-trial","trial_index":89,"time_elapsed":431441,"internal_node_id":"0.0-60.0","task_version":"battery-v0.2-trt"},{"rune":"C","rune_set":"bacs2","hex":"#f73b6a7A","correct":32,"choice":32,"rt":1293.764999951236,"accuracy":1,"outcome":"-1","keys":[2794.7600000770763],"total_keys":1,"block":1,"trial":54,"stimulus":5,"robot":3,"valence":"lose","action":"go","sham":0,"trial_type":"pit-trial","trial_index":90,"time_elapsed":435441,"internal_node_id":"0.0-61.0","task_version":"battery-v0.2-trt"},{"rune":"E","rune_set":"bacs2","hex":"#3366ff99","correct":32,"choice":32,"rt":491.39500001911074,"accuracy":1,"outcome":"+10","keys":[1991.7800000403076],"total_keys":1,"block":1,"trial":55,"stimulus":4,"robot":1,"valence":"win","action":"go","sham":0,"trial_type":"pit-trial","trial_index":91,"time_elapsed":438637,"internal_node_id":"0.0-62.0","task_version":"battery-v0.2-trt"},{"rune":"G","rune_set":"bacs2","hex":"#3366ff99","correct":-1,"choice":-1,"rt":-1,"accuracy":1,"outcome":"+10","keys":[],"total_keys":0,"block":1,"trial":56,"stimulus":7,"robot":2,"valence":"win","action":"no-go","sham":0,"trial_type":"pit-trial","trial_index":92,"time_elapsed":443874,"internal_node_id":"0.0-63.0","task_version":"battery-v0.2-trt"},{"rune":"G","rune_set":"bacs2","hex":"#3366ff99","correct":-1,"choice":-1,"rt":-1,"accuracy":1,"outcome":"+10","keys":[3341.789999976754],"total_keys":1,"block":1,"trial":57,"stimulus":7,"robot":2,"valence":"win","action":"no-go","sham":0,"trial_type":"pit-trial","trial_index":93,"time_elapsed":447879,"internal_node_id":"0.0-64.0","task_version":"battery-v0.2-trt"},{"rune":"E","rune_set":"bacs2","hex":"#3366ff99","correct":32,"choice":32,"rt":141.05999993626028,"accuracy":1,"outcome":"+10","keys":[101.85000009369105,1641.8900000862777],"total_keys":2,"block":1,"trial":58,"stimulus":4,"robot":1,"valence":"win","action":"go","sham":0,"trial_type":"pit-trial","trial_index":94,"time_elapsed":450727,"internal_node_id":"0.0-65.0","task_version":"battery-v0.2-trt"},{"rune":"O","rune_set":"bacs2","hex":"#f73b6a7A","correct":-1,"choice":-1,"rt":-1,"accuracy":1,"outcome":"-1","keys":[],"total_keys":0,"block":1,"trial":59,"stimulus":6,"robot":4,"valence":"lose","action":"no-go","sham":0,"trial_type":"pit-trial","trial_index":95,"time_elapsed":455873,"internal_node_id":"0.0-66.0","task_version":"battery-v0.2-trt"},{"rune":"C","rune_set":"bacs2","hex":"#f73b6a7A","correct":32,"choice":-1,"rt":-1,"accuracy":0,"outcome":"-10","keys":[],"total_keys":0,"block":1,"trial":60,"stimulus":5,"robot":3,"valence":"lose","action":"go","sham":0,"trial_type":"pit-trial","trial_index":96,"time_elapsed":460873,"internal_node_id":"0.0-67.0","task_version":"battery-v0.2-trt"},{"rune":"G","rune_set":"bacs2","hex":"#3366ff99","correct":-1,"choice":32,"rt":673.0899999383837,"accuracy":0,"outcome":"+1","keys":[2174.294999917038],"total_keys":1,"block":1,"trial":61,"stimulus":7,"robot":2,"valence":"win","action":"no-go","sham":0,"trial_type":"pit-trial","trial_index":97,"time_elapsed":464252,"internal_node_id":"0.0-68.0","task_version":"battery-v0.2-trt"},{"rune":"C","rune_set":"bacs2","hex":"#f73b6a7A","correct":32,"choice":32,"rt":37.819999968633056,"accuracy":1,"outcome":"-1","keys":[1537.9449999891222],"total_keys":1,"block":1,"trial":62,"stimulus":5,"robot":3,"valence":"lose","action":"go","sham":0,"trial_type":"pit-trial","trial_index":98,"time_elapsed":466994,"internal_node_id":"0.0-69.0","task_version":"battery-v0.2-trt"},{"rune":"E","rune_set":"bacs2","hex":"#3366ff99","correct":32,"choice":32,"rt":197.85499991849065,"accuracy":1,"outcome":"+10","keys":[1698.3200000831857],"total_keys":1,"block":1,"trial":63,"stimulus":4,"robot":1,"valence":"win","action":"go","sham":0,"trial_type":"pit-trial","trial_index":99,"time_elapsed":470878,"internal_node_id":"0.0-70.0","task_version":"battery-v0.2-trt"},{"rune":"O","rune_set":"bacs2","hex":"#f73b6a7A","correct":-1,"choice":-1,"rt":-1,"accuracy":1,"outcome":"-1","keys":[],"total_keys":0,"block":1,"trial":64,"stimulus":6,"robot":4,"valence":"lose","action":"no-go","sham":0,"trial_type":"pit-trial","trial_index":100,"time_elapsed":475873,"internal_node_id":"0.0-71.0","task_version":"battery-v0.2-trt"},{"rune":"O","rune_set":"bacs2","hex":"#f73b6a7A","correct":-1,"choice":-1,"rt":-1,"accuracy":1,"outcome":"-10","keys":[],"total_keys":0,"block":1,"trial":65,"stimulus":6,"robot":4,"valence":"lose","action":"no-go","sham":1,"trial_type":"pit-trial","trial_index":101,"time_elapsed":480075,"internal_node_id":"0.0-72.0","task_version":"battery-v0.2-trt"},{"rune":"C","rune_set":"bacs2","hex":"#f73b6a7A","correct":32,"choice":32,"rt":218.65499997511506,"accuracy":1,"outcome":"-10","keys":[1719.5350000401959],"total_keys":1,"block":1,"trial":66,"stimulus":5,"robot":3,"valence":"lose","action":"go","sham":1,"trial_type":"pit-trial","trial_index":102,"time_elapsed":483000,"internal_node_id":"0.0-73.0","task_version":"battery-v0.2-trt"},{"rune":"E","rune_set":"bacs2","hex":"#3366ff99","correct":32,"choice":32,"rt":246.6599999461323,"accuracy":1,"outcome":"+1","keys":[1747.635000036098],"total_keys":1,"block":1,"trial":67,"stimulus":4,"robot":1,"valence":"win","action":"go","sham":1,"trial_type":"pit-trial","trial_index":103,"time_elapsed":485952,"internal_node_id":"0.0-74.0","task_version":"battery-v0.2-trt"},{"rune":"G","rune_set":"bacs2","hex":"#3366ff99","correct":-1,"choice":32,"rt":250.2000000094995,"accuracy":0,"outcome":"+10","keys":[1391.4799999911338,1751.5450000064448,1933.4749999688938],"total_keys":3,"block":1,"trial":68,"stimulus":7,"robot":2,"valence":"win","action":"no-go","sham":1,"trial_type":"pit-trial","trial_index":104,"time_elapsed":488908,"internal_node_id":"0.0-75.0","task_version":"battery-v0.2-trt"},{"rune":"C","rune_set":"bacs2","hex":"#f73b6a7A","correct":32,"choice":32,"rt":418.9699999988079,"accuracy":1,"outcome":"-10","keys":[1920.4150000587106],"total_keys":1,"block":1,"trial":69,"stimulus":5,"robot":3,"valence":"lose","action":"go","sham":1,"trial_type":"pit-trial","trial_index":105,"time_elapsed":492033,"internal_node_id":"0.0-76.0","task_version":"battery-v0.2-trt"},{"rune":"E","rune_set":"bacs2","hex":"#3366ff99","correct":32,"choice":32,"rt":675.6799999857321,"accuracy":1,"outcome":"+10","keys":[2176.175000029616],"total_keys":1,"block":1,"trial":70,"stimulus":4,"robot":1,"valence":"win","action":"go","sham":0,"trial_type":"pit-trial","trial_index":106,"time_elapsed":495414,"internal_node_id":"0.0-77.0","task_version":"battery-v0.2-trt"},{"rune":"O","rune_set":"bacs2","hex":"#f73b6a7A","correct":-1,"choice":32,"rt":355.6300000054762,"accuracy":0,"outcome":"-10","keys":[1856.4750000368804],"total_keys":1,"block":1,"trial":71,"stimulus":6,"robot":4,"valence":"lose","action":"no-go","sham":0,"trial_type":"pit-trial","trial_index":107,"time_elapsed":498476,"internal_node_id":"0.0-78.0","task_version":"battery-v0.2-trt"},{"rune":"G","rune_set":"bacs2","hex":"#3366ff99","correct":-1,"choice":-1,"rt":-1,"accuracy":1,"outcome":"+10","keys":[3265.705000027083],"total_keys":1,"block":1,"trial":72,"stimulus":7,"robot":2,"valence":"win","action":"no-go","sham":0,"trial_type":"pit-trial","trial_index":108,"time_elapsed":502481,"internal_node_id":"0.0-79.0","task_version":"battery-v0.2-trt"},{"rune":"E","rune_set":"bacs2","hex":"#3366ff99","correct":32,"choice":32,"rt":1157.9849999397993,"accuracy":1,"outcome":"+10","keys":[2658.144999993965],"total_keys":1,"block":1,"trial":73,"stimulus":4,"robot":1,"valence":"win","action":"go","sham":0,"trial_type":"pit-trial","trial_index":109,"time_elapsed":506345,"internal_node_id":"0.0-80.0","task_version":"battery-v0.2-trt"},{"rune":"Z","rune_set":"bacs2","hex":"#f73b6a7A","correct":32,"choice":32,"rt":470.7750000525266,"accuracy":1,"outcome":"-10","keys":[1970.8649999229237],"total_keys":1,"block":1,"trial":74,"stimulus":8,"robot":3,"valence":"lose","action":"go","sham":1,"trial_type":"pit-trial","trial_index":110,"time_elapsed":509521,"internal_node_id":"0.0-81.0","task_version":"battery-v0.2-trt"},{"rune":"G","rune_set":"bacs2","hex":"#3366ff99","correct":-1,"choice":32,"rt":557.8300000634044,"accuracy":0,"outcome":"+1","keys":[2057.990000001155],"total_keys":1,"block":1,"trial":75,"stimulus":7,"robot":2,"valence":"win","action":"no-go","sham":0,"trial_type":"pit-trial","trial_index":111,"time_elapsed":512783,"internal_node_id":"0.0-82.0","task_version":"battery-v0.2-trt"},{"rune":"O","rune_set":"bacs2","hex":"#f73b6a7A","correct":-1,"choice":32,"rt":739.0550000127405,"accuracy":0,"outcome":"-10","keys":[2239.8849999299273],"total_keys":1,"block":1,"trial":76,"stimulus":6,"robot":4,"valence":"lose","action":"no-go","sham":0,"trial_type":"pit-trial","trial_index":112,"time_elapsed":516228,"internal_node_id":"0.0-83.0","task_version":"battery-v0.2-trt"},{"rune":"Z","rune_set":"bacs2","hex":"#f73b6a7A","correct":32,"choice":-1,"rt":-1,"accuracy":0,"outcome":"-1","keys":[3578.2699999399483],"total_keys":1,"block":1,"trial":77,"stimulus":8,"robot":3,"valence":"lose","action":"go","sham":1,"trial_type":"pit-trial","trial_index":113,"time_elapsed":520235,"internal_node_id":"0.0-84.0","task_version":"battery-v0.2-trt"},{"rune":"O","rune_set":"bacs2","hex":"#f73b6a7A","correct":-1,"choice":32,"rt":368.5950000071898,"accuracy":0,"outcome":"-10","keys":[1869.0100000239909],"total_keys":1,"block":1,"trial":78,"stimulus":6,"robot":4,"valence":"lose","action":"no-go","sham":0,"trial_type":"pit-trial","trial_index":114,"time_elapsed":523309,"internal_node_id":"0.0-85.0","task_version":"battery-v0.2-trt"},{"rune":"G","rune_set":"bacs2","hex":"#3366ff99","correct":-1,"choice":32,"rt":214.36500002164394,"accuracy":0,"outcome":"+1","keys":[1715.04499996081],"total_keys":1,"block":1,"trial":79,"stimulus":7,"robot":2,"valence":"win","action":"no-go","sham":0,"trial_type":"pit-trial","trial_index":115,"time_elapsed":526229,"internal_node_id":"0.0-86.0","task_version":"battery-v0.2-trt"},{"rune":"E","rune_set":"bacs2","hex":"#3366ff99","correct":32,"choice":32,"rt":414.19999999925494,"accuracy":1,"outcome":"+10","keys":[1915.2549999998882],"total_keys":1,"block":1,"trial":80,"stimulus":4,"robot":1,"valence":"win","action":"go","sham":0,"trial_type":"pit-trial","trial_index":116,"time_elapsed":529350,"internal_node_id":"0.0-87.0","task_version":"battery-v0.2-trt"},{"rune":"O","rune_set":"bacs2","hex":"#f73b6a7A","correct":-1,"choice":32,"rt":678.1699999701232,"accuracy":0,"outcome":"-10","keys":[2179.1449999436736],"total_keys":1,"block":1,"trial":81,"stimulus":6,"robot":4,"valence":"lose","action":"no-go","sham":0,"trial_type":"pit-trial","trial_index":117,"time_elapsed":532735,"internal_node_id":"0.0-88.0","task_version":"battery-v0.2-trt"},{"rune":"G","rune_set":"bacs2","hex":"#3366ff99","correct":-1,"choice":32,"rt":623.894999967888,"accuracy":0,"outcome":"+1","keys":[2124.335000058636],"total_keys":1,"block":1,"trial":82,"stimulus":7,"robot":2,"valence":"win","action":"no-go","sham":0,"trial_type":"pit-trial","trial_index":118,"time_elapsed":536063,"internal_node_id":"0.0-89.0","task_version":"battery-v0.2-trt"},{"rune":"X","rune_set":"bacs2","hex":"#f73b6a7A","correct":32,"choice":-1,"rt":-1,"accuracy":0,"outcome":"-10","keys":[2863.9150001108646],"total_keys":1,"block":1,"trial":83,"stimulus":9,"robot":3,"valence":"lose","action":"go","sham":0,"trial_type":"pit-trial","trial_index":119,"time_elapsed":540069,"internal_node_id":"0.0-90.0","task_version":"battery-v0.2-trt"},{"rune":"Z","rune_set":"bacs2","hex":"#f73b6a7A","correct":32,"choice":-1,"rt":-1,"accuracy":0,"outcome":"-10","keys":[3317.5699999555945],"total_keys":1,"block":1,"trial":84,"stimulus":8,"robot":3,"valence":"lose","action":"go","sham":0,"trial_type":"pit-trial","trial_index":120,"time_elapsed":544075,"internal_node_id":"0.0-91.0","task_version":"battery-v0.2-trt"},{"rune":"X","rune_set":"bacs2","hex":"#f73b6a7A","correct":32,"choice":-1,"rt":-1,"accuracy":0,"outcome":"-10","keys":[3071.3150000665337],"total_keys":1,"block":1,"trial":85,"stimulus":9,"robot":3,"valence":"lose","action":"go","sham":0,"trial_type":"pit-trial","trial_index":121,"time_elapsed":548095,"internal_node_id":"0.0-92.0","task_version":"battery-v0.2-trt"},{"rune":"O","rune_set":"bacs2","hex":"#f73b6a7A","correct":-1,"choice":-1,"rt":-1,"accuracy":1,"outcome":"-10","keys":[],"total_keys":0,"block":1,"trial":86,"stimulus":6,"robot":4,"valence":"lose","action":"no-go","sham":1,"trial_type":"pit-trial","trial_index":122,"time_elapsed":552101,"internal_node_id":"0.0-93.0","task_version":"battery-v0.2-trt"},{"rune":"Z","rune_set":"bacs2","hex":"#f73b6a7A","correct":32,"choice":-1,"rt":-1,"accuracy":0,"outcome":"-10","keys":[],"total_keys":0,"block":1,"trial":87,"stimulus":8,"robot":3,"valence":"lose","action":"go","sham":0,"trial_type":"pit-trial","trial_index":123,"time_elapsed":556107,"internal_node_id":"0.0-94.0","task_version":"battery-v0.2-trt"},{"rune":"G","rune_set":"bacs2","hex":"#3366ff99","correct":-1,"choice":32,"rt":378.18500003777444,"accuracy":0,"outcome":"+1","keys":[1878.9200000464916],"total_keys":1,"block":1,"trial":88,"stimulus":7,"robot":2,"valence":"win","action":"no-go","sham":0,"trial_type":"pit-trial","trial_index":124,"time_elapsed":559191,"internal_node_id":"0.0-95.0","task_version":"battery-v0.2-trt"},{"rune":"X","rune_set":"bacs2","hex":"#f73b6a7A","correct":32,"choice":32,"rt":688.6449999874458,"accuracy":1,"outcome":"-1","keys":[2190.0249999016523],"total_keys":1,"block":1,"trial":89,"stimulus":9,"robot":3,"valence":"lose","action":"go","sham":0,"trial_type":"pit-trial","trial_index":125,"time_elapsed":562585,"internal_node_id":"0.0-96.0","task_version":"battery-v0.2-trt"},{"rune":"Z","rune_set":"bacs2","hex":"#f73b6a7A","correct":32,"choice":32,"rt":452.1399999503046,"accuracy":1,"outcome":"-1","keys":[1952.8199998894706],"total_keys":1,"block":1,"trial":90,"stimulus":8,"robot":3,"valence":"lose","action":"go","sham":0,"trial_type":"pit-trial","trial_index":126,"time_elapsed":565743,"internal_node_id":"0.0-97.0","task_version":"battery-v0.2-trt"},{"rune":"J","rune_set":"bacs2","hex":"#3366ff99","correct":-1,"choice":32,"rt":282.36000007018447,"accuracy":0,"outcome":"+1","keys":[1783.3450000034645],"total_keys":1,"block":1,"trial":91,"stimulus":11,"robot":2,"valence":"win","action":"no-go","sham":0,"trial_type":"pit-trial","trial_index":127,"time_elapsed":568731,"internal_node_id":"0.0-98.0","task_version":"battery-v0.2-trt"},{"rune":"W","rune_set":"bacs2","hex":"#f73b6a7A","correct":-1,"choice":32,"rt":531.6050000255927,"accuracy":0,"outcome":"-10","keys":[2032.0000000065193],"total_keys":1,"block":1,"trial":92,"stimulus":10,"robot":4,"valence":"lose","action":"no-go","sham":0,"trial_type":"pit-trial","trial_index":128,"time_elapsed":571969,"internal_node_id":"0.0-99.0","task_version":"battery-v0.2-trt"},{"rune":"J","rune_set":"bacs2","hex":"#3366ff99","correct":-1,"choice":32,"rt":544.1250000149012,"accuracy":0,"outcome":"+1","keys":[1405.544999986887,2044.4450000068173],"total_keys":2,"block":1,"trial":93,"stimulus":11,"robot":2,"valence":"win","action":"no-go","sham":0,"trial_type":"pit-trial","trial_index":129,"time_elapsed":575218,"internal_node_id":"0.0-100.0","task_version":"battery-v0.2-trt"},{"rune":"X","rune_set":"bacs2","hex":"#f73b6a7A","correct":32,"choice":-1,"rt":-1,"accuracy":0,"outcome":"-10","keys":[],"total_keys":0,"block":1,"trial":94,"stimulus":9,"robot":3,"valence":"lose","action":"go","sham":0,"trial_type":"pit-trial","trial_index":130,"time_elapsed":579224,"internal_node_id":"0.0-101.0","task_version":"battery-v0.2-trt"},{"rune":"Z","rune_set":"bacs2","hex":"#f73b6a7A","correct":32,"choice":32,"rt":485.8150000218302,"accuracy":1,"outcome":"-10","keys":[1987.4650000128895],"total_keys":1,"block":1,"trial":95,"stimulus":8,"robot":3,"valence":"lose","action":"go","sham":1,"trial_type":"pit-trial","trial_index":131,"time_elapsed":582416,"internal_node_id":"0.0-102.0","task_version":"battery-v0.2-trt"},{"rune":"W","rune_set":"bacs2","hex":"#f73b6a7A","correct":-1,"choice":-1,"rt":-1,"accuracy":1,"outcome":"-1","keys":[],"total_keys":0,"block":1,"trial":96,"stimulus":10,"robot":4,"valence":"lose","action":"no-go","sham":0,"trial_type":"pit-trial","trial_index":132,"time_elapsed":586422,"internal_node_id":"0.0-103.0","task_version":"battery-v0.2-trt"},{"rune":"Z","rune_set":"bacs2","hex":"#f73b6a7A","correct":32,"choice":32,"rt":1034.1199999675155,"accuracy":1,"outcome":"-1","keys":[2535.0849999813363,2968.089999980293],"total_keys":2,"block":1,"trial":97,"stimulus":8,"robot":3,"valence":"lose","action":"go","sham":0,"trial_type":"pit-trial","trial_index":133,"time_elapsed":590163,"internal_node_id":"0.0-104.0","task_version":"battery-v0.2-trt"},{"rune":"W","rune_set":"bacs2","hex":"#f73b6a7A","correct":-1,"choice":32,"rt":639.2600000835955,"accuracy":0,"outcome":"-10","keys":[2140.1649999897927],"total_keys":1,"block":1,"trial":98,"stimulus":10,"robot":4,"valence":"lose","action":"no-go","sham":0,"trial_type":"pit-trial","trial_index":134,"time_elapsed":593510,"internal_node_id":"0.0-105.0","task_version":"battery-v0.2-trt"},{"rune":"J","rune_set":"bacs2","hex":"#3366ff99","correct":-1,"choice":-1,"rt":-1,"accuracy":1,"outcome":"+10","keys":[],"total_keys":0,"block":1,"trial":99,"stimulus":11,"robot":2,"valence":"win","action":"no-go","sham":0,"trial_type":"pit-trial","trial_index":135,"time_elapsed":597519,"internal_node_id":"0.0-106.0","task_version":"battery-v0.2-trt"},{"rune":"X","rune_set":"bacs2","hex":"#f73b6a7A","correct":32,"choice":-1,"rt":-1,"accuracy":0,"outcome":"-10","keys":[],"total_keys":0,"block":1,"trial":100,"stimulus":9,"robot":3,"valence":"lose","action":"go","sham":0,"trial_type":"pit-trial","trial_index":136,"time_elapsed":601524,"internal_node_id":"0.0-107.0","task_version":"battery-v0.2-trt"},{"rune":"J","rune_set":"bacs2","hex":"#3366ff99","correct":-1,"choice":-1,"rt":-1,"accuracy":1,"outcome":"+10","keys":[],"total_keys":0,"block":1,"trial":101,"stimulus":11,"robot":2,"valence":"win","action":"no-go","sham":0,"trial_type":"pit-trial","trial_index":137,"time_elapsed":605530,"internal_node_id":"0.0-108.0","task_version":"battery-v0.2-trt"},{"rune":"X","rune_set":"bacs2","hex":"#f73b6a7A","correct":32,"choice":32,"rt":768.7349999323487,"accuracy":1,"outcome":"-1","keys":[2270.009999978356],"total_keys":1,"block":1,"trial":102,"stimulus":9,"robot":3,"valence":"lose","action":"go","sham":0,"trial_type":"pit-trial","trial_index":138,"time_elapsed":609005,"internal_node_id":"0.0-109.0","task_version":"battery-v0.2-trt"},{"rune":"W","rune_set":"bacs2","hex":"#f73b6a7A","correct":-1,"choice":32,"rt":789.4650000380352,"accuracy":0,"outcome":"-10","keys":[2289.630000013858],"total_keys":1,"block":1,"trial":103,"stimulus":10,"robot":4,"valence":"lose","action":"no-go","sham":0,"trial_type":"pit-trial","trial_index":139,"time_elapsed":612499,"internal_node_id":"0.0-110.0","task_version":"battery-v0.2-trt"},{"rune":"Z","rune_set":"bacs2","hex":"#f73b6a7A","correct":32,"choice":32,"rt":710.1800000527874,"accuracy":1,"outcome":"-1","keys":[1495.630000019446,2210.659999982454],"total_keys":2,"block":1,"trial":104,"stimulus":8,"robot":3,"valence":"lose","action":"go","sham":0,"trial_type":"pit-trial","trial_index":140,"time_elapsed":615915,"internal_node_id":"0.0-111.0","task_version":"battery-v0.2-trt"},{"rune":"X","rune_set":"bacs2","hex":"#f73b6a7A","correct":32,"choice":32,"rt":615.0099999504164,"accuracy":1,"outcome":"-1","keys":[2116.840000031516],"total_keys":1,"block":1,"trial":105,"stimulus":9,"robot":3,"valence":"lose","action":"go","sham":0,"trial_type":"pit-trial","trial_index":141,"time_elapsed":619237,"internal_node_id":"0.0-112.0","task_version":"battery-v0.2-trt"},{"rune":"W","rune_set":"bacs2","hex":"#f73b6a7A","correct":-1,"choice":-1,"rt":-1,"accuracy":1,"outcome":"-1","keys":[],"total_keys":0,"block":1,"trial":106,"stimulus":10,"robot":4,"valence":"lose","action":"no-go","sham":0,"trial_type":"pit-trial","trial_index":142,"time_elapsed":623243,"internal_node_id":"0.0-113.0","task_version":"battery-v0.2-trt"},{"rune":"Z","rune_set":"bacs2","hex":"#f73b6a7A","correct":32,"choice":32,"rt":542.4099999945611,"accuracy":1,"outcome":"-1","keys":[2043.7399999937043],"total_keys":1,"block":1,"trial":107,"stimulus":8,"robot":3,"valence":"lose","action":"go","sham":0,"trial_type":"pit-trial","trial_index":143,"time_elapsed":626491,"internal_node_id":"0.0-114.0","task_version":"battery-v0.2-trt"},{"rune":"J","rune_set":"bacs2","hex":"#3366ff99","correct":-1,"choice":32,"rt":433.27500007580966,"accuracy":0,"outcome":"+1","keys":[1934.4699999783188],"total_keys":1,"block":1,"trial":108,"stimulus":11,"robot":2,"valence":"win","action":"no-go","sham":0,"trial_type":"pit-trial","trial_index":144,"time_elapsed":629630,"internal_node_id":"0.0-115.0","task_version":"battery-v0.2-trt"},{"rune":"X","rune_set":"bacs2","hex":"#f73b6a7A","correct":32,"choice":32,"rt":178.88999998103827,"accuracy":1,"outcome":"-1","keys":[1260.0099999690428,1679.0000000037253],"total_keys":2,"block":1,"trial":109,"stimulus":9,"robot":3,"valence":"lose","action":"go","sham":0,"trial_type":"pit-trial","trial_index":145,"time_elapsed":632513,"internal_node_id":"0.0-116.0","task_version":"battery-v0.2-trt"},{"rune":"Z","rune_set":"bacs2","hex":"#f73b6a7A","correct":32,"choice":32,"rt":1080.889999982901,"accuracy":1,"outcome":"-10","keys":[2581.7800000077114],"total_keys":1,"block":1,"trial":110,"stimulus":8,"robot":3,"valence":"lose","action":"go","sham":1,"trial_type":"pit-trial","trial_index":146,"time_elapsed":636300,"internal_node_id":"0.0-117.0","task_version":"battery-v0.2-trt"},{"rune":"J","rune_set":"bacs2","hex":"#3366ff99","correct":-1,"choice":-1,"rt":-1,"accuracy":1,"outcome":"+1","keys":[],"total_keys":0,"block":1,"trial":111,"stimulus":11,"robot":2,"valence":"win","action":"no-go","sham":1,"trial_type":"pit-trial","trial_index":147,"time_elapsed":640305,"internal_node_id":"0.0-118.0","task_version":"battery-v0.2-trt"},{"rune":"W","rune_set":"bacs2","hex":"#f73b6a7A","correct":-1,"choice":-1,"rt":-1,"accuracy":1,"outcome":"-1","keys":[326.48999989032745],"total_keys":1,"block":1,"trial":112,"stimulus":10,"robot":4,"valence":"lose","action":"no-go","sham":0,"trial_type":"pit-trial","trial_index":148,"time_elapsed":644310,"internal_node_id":"0.0-119.0","task_version":"battery-v0.2-trt"},{"rune":"J","rune_set":"bacs2","hex":"#3366ff99","correct":-1,"choice":-1,"rt":-1,"accuracy":1,"outcome":"+1","keys":[],"total_keys":0,"block":1,"trial":113,"stimulus":11,"robot":2,"valence":"win","action":"no-go","sham":1,"trial_type":"pit-trial","trial_index":149,"time_elapsed":648316,"internal_node_id":"0.0-120.0","task_version":"battery-v0.2-trt"},{"rune":"Z","rune_set":"bacs2","hex":"#f73b6a7A","correct":32,"choice":32,"rt":309.37999999150634,"accuracy":1,"outcome":"-1","keys":[1809.8600000375882,2662.1649999869987],"total_keys":2,"block":1,"trial":114,"stimulus":8,"robot":3,"valence":"lose","action":"go","sham":0,"trial_type":"pit-trial","trial_index":150,"time_elapsed":651330,"internal_node_id":"0.0-121.0","task_version":"battery-v0.2-trt"},{"rune":"W","rune_set":"bacs2","hex":"#f73b6a7A","correct":-1,"choice":32,"rt":325.2450000727549,"accuracy":0,"outcome":"-10","keys":[1825.6149999797344],"total_keys":1,"block":1,"trial":115,"stimulus":10,"robot":4,"valence":"lose","action":"no-go","sham":0,"trial_type":"pit-trial","trial_index":151,"time_elapsed":654360,"internal_node_id":"0.0-122.0","task_version":"battery-v0.2-trt"},{"rune":"X","rune_set":"bacs2","hex":"#f73b6a7A","correct":32,"choice":-1,"rt":-1,"accuracy":0,"outcome":"-10","keys":[],"total_keys":0,"block":1,"trial":116,"stimulus":9,"robot":3,"valence":"lose","action":"go","sham":0,"trial_type":"pit-trial","trial_index":152,"time_elapsed":658365,"internal_node_id":"0.0-123.0","task_version":"battery-v0.2-trt"},{"rune":"Z","rune_set":"bacs2","hex":"#f73b6a7A","correct":32,"choice":-1,"rt":-1,"accuracy":0,"outcome":"-10","keys":[],"total_keys":0,"block":1,"trial":117,"stimulus":8,"robot":3,"valence":"lose","action":"go","sham":0,"trial_type":"pit-trial","trial_index":153,"time_elapsed":662371,"internal_node_id":"0.0-124.0","task_version":"battery-v0.2-trt"},{"rune":"W","rune_set":"bacs2","hex":"#f73b6a7A","correct":-1,"choice":-1,"rt":-1,"accuracy":1,"outcome":"-1","keys":[],"total_keys":0,"block":1,"trial":118,"stimulus":10,"robot":4,"valence":"lose","action":"no-go","sham":0,"trial_type":"pit-trial","trial_index":154,"time_elapsed":666377,"internal_node_id":"0.0-125.0","task_version":"battery-v0.2-trt"},{"rune":"X","rune_set":"bacs2","hex":"#f73b6a7A","correct":32,"choice":32,"rt":412.10999991744757,"accuracy":1,"outcome":"-1","keys":[1913.520000060089],"total_keys":1,"block":1,"trial":119,"stimulus":9,"robot":3,"valence":"lose","action":"go","sham":0,"trial_type":"pit-trial","trial_index":155,"time_elapsed":669494,"internal_node_id":"0.0-126.0","task_version":"battery-v0.2-trt"},{"rune":"J","rune_set":"bacs2","hex":"#3366ff99","correct":-1,"choice":32,"rt":100.8500000461936,"accuracy":0,"outcome":"+1","keys":[1282.7200000174344,1601.6550000058487,1938.7250000145286],"total_keys":3,"block":1,"trial":120,"stimulus":11,"robot":2,"valence":"win","action":"no-go","sham":0,"trial_type":"pit-trial","trial_index":156,"time_elapsed":672302,"internal_node_id":"0.0-127.0","task_version":"battery-v0.2-trt"},{"view_history":"[{\"page_index\":0,\"viewing_time\":3739.999999990687},{\"page_index\":1,\"viewing_time\":1442.2100000083447}]","rt":5182.705000042915,"trial_type":"pit-instructions","trial_index":157,"time_elapsed":677488,"internal_node_id":"0.0-128.0","task_version":"battery-v0.2-trt"},{"rune":"V","rune_set":"bacs2","hex":"#3366ff99","correct":-1,"choice":32,"rt":179.29500003810972,"accuracy":0,"outcome":"+1","keys":[1192.1699999365956,1680.1749999867752],"total_keys":2,"block":2,"trial":121,"stimulus":3,"robot":2,"valence":"win","action":"no-go","sham":0,"trial_type":"pit-trial","trial_index":158,"time_elapsed":680375,"internal_node_id":"0.0-129.0","task_version":"battery-v0.2-trt"},{"rune":"K","rune_set":"bacs2","hex":"#3366ff99","correct":32,"choice":32,"rt":1043.0700000142679,"accuracy":1,"outcome":"+10","keys":[1377.6099999668077,2544.649999937974,3332.659999956377],"total_keys":3,"block":2,"trial":122,"stimulus":2,"robot":1,"valence":"win","action":"go","sham":0,"trial_type":"pit-trial","trial_index":159,"time_elapsed":684125,"internal_node_id":"0.0-130.0","task_version":"battery-v0.2-trt"},{"rune":"B","rune_set":"bacs2","hex":"#f73b6a7A","correct":-1,"choice":-1,"rt":-1,"accuracy":1,"outcome":"-1","keys":[93.9099999377504,3227.714999928139],"total_keys":2,"block":2,"trial":123,"stimulus":1,"robot":4,"valence":"lose","action":"no-go","sham":0,"trial_type":"pit-trial","trial_index":160,"time_elapsed":688131,"internal_node_id":"0.0-131.0","task_version":"battery-v0.2-trt"},{"rune":"M","rune_set":"bacs2","hex":"#f73b6a7A","correct":-1,"choice":32,"rt":774.7300000628456,"accuracy":0,"outcome":"-1","keys":[2276.105000055395],"total_keys":1,"block":2,"trial":124,"stimulus":0,"robot":4,"valence":"lose","action":"no-go","sham":1,"trial_type":"pit-trial","trial_index":161,"time_elapsed":691611,"internal_node_id":"0.0-132.0","task_version":"battery-v0.2-trt"},{"rune":"B","rune_set":"bacs2","hex":"#f73b6a7A","correct":-1,"choice":32,"rt":1285.344999982044,"accuracy":0,"outcome":"-10","keys":[2786.614999989979],"total_keys":1,"block":2,"trial":125,"stimulus":1,"robot":4,"valence":"lose","action":"no-go","sham":0,"trial_type":"pit-trial","trial_index":162,"time_elapsed":695602,"internal_node_id":"0.0-133.0","task_version":"battery-v0.2-trt"},{"rune":"V","rune_set":"bacs2","hex":"#3366ff99","correct":-1,"choice":32,"rt":405.9550000820309,"accuracy":0,"outcome":"+1","keys":[1907.0899999933317],"total_keys":1,"block":2,"trial":126,"stimulus":3,"robot":2,"valence":"win","action":"no-go","sham":0,"trial_type":"pit-trial","trial_index":163,"time_elapsed":698714,"internal_node_id":"0.0-134.0","task_version":"battery-v0.2-trt"},{"rune":"K","rune_set":"bacs2","hex":"#3366ff99","correct":32,"choice":32,"rt":467.6599999656901,"accuracy":1,"outcome":"+10","keys":[1969.2949999589473],"total_keys":1,"block":2,"trial":127,"stimulus":2,"robot":1,"valence":"win","action":"go","sham":0,"trial_type":"pit-trial","trial_index":164,"time_elapsed":701888,"internal_node_id":"0.0-135.0","task_version":"battery-v0.2-trt"},{"rune":"M","rune_set":"bacs2","hex":"#f73b6a7A","correct":-1,"choice":32,"rt":651.4350000070408,"accuracy":0,"outcome":"-10","keys":[2152.0699999528006],"total_keys":1,"block":2,"trial":128,"stimulus":0,"robot":4,"valence":"lose","action":"no-go","sham":0,"trial_type":"pit-trial","trial_index":165,"time_elapsed":705245,"internal_node_id":"0.0-136.0","task_version":"battery-v0.2-trt"},{"rune":"V","rune_set":"bacs2","hex":"#3366ff99","correct":-1,"choice":32,"rt":820.4400000395253,"accuracy":0,"outcome":"+1","keys":[481.8199999863282,2321.914999978617,3018.6700000194833,3378.6550000077114],"total_keys":4,"block":2,"trial":129,"stimulus":3,"robot":2,"valence":"win","action":"no-go","sham":0,"trial_type":"pit-trial","trial_index":166,"time_elapsed":708772,"internal_node_id":"0.0-137.0","task_version":"battery-v0.2-trt"},{"rune":"M","rune_set":"bacs2","hex":"#f73b6a7A","correct":-1,"choice":-1,"rt":-1,"accuracy":1,"outcome":"-10","keys":[],"total_keys":0,"block":2,"trial":130,"stimulus":0,"robot":4,"valence":"lose","action":"no-go","sham":1,"trial_type":"pit-trial","trial_index":167,"time_elapsed":713073,"internal_node_id":"0.0-138.0","task_version":"battery-v0.2-trt"},{"rune":"K","rune_set":"bacs2","hex":"#3366ff99","correct":32,"choice":32,"rt":16.605000011622906,"accuracy":1,"outcome":"+10","keys":[988.6350000742823,1280.6649999693036,1517.6450000144541,1786.7750000441447],"total_keys":4,"block":2,"trial":131,"stimulus":2,"robot":1,"valence":"win","action":"go","sham":0,"trial_type":"pit-trial","trial_index":168,"time_elapsed":715796,"internal_node_id":"0.0-139.0","task_version":"battery-v0.2-trt"},{"rune":"B","rune_set":"bacs2","hex":"#f73b6a7A","correct":-1,"choice":32,"rt":334.44999996572733,"accuracy":0,"outcome":"-10","keys":[1834.9600000074133],"total_keys":1,"block":2,"trial":132,"stimulus":1,"robot":4,"valence":"lose","action":"no-go","sham":0,"trial_type":"pit-trial","trial_index":169,"time_elapsed":718835,"internal_node_id":"0.0-140.0","task_version":"battery-v0.2-trt"},{"rune":"B","rune_set":"bacs2","hex":"#f73b6a7A","correct":-1,"choice":32,"rt":298.2899999478832,"accuracy":0,"outcome":"-10","keys":[1798.5450000269338],"total_keys":1,"block":2,"trial":133,"stimulus":1,"robot":4,"valence":"lose","action":"no-go","sham":0,"trial_type":"pit-trial","trial_index":170,"time_elapsed":721838,"internal_node_id":"0.0-141.0","task_version":"battery-v0.2-trt"},{"rune":"V","rune_set":"bacs2","hex":"#3366ff99","correct":-1,"choice":32,"rt":572.9249999858439,"accuracy":0,"outcome":"+1","keys":[2074.765000026673],"total_keys":1,"block":2,"trial":134,"stimulus":3,"robot":2,"valence":"win","action":"no-go","sham":0,"trial_type":"pit-trial","trial_index":171,"time_elapsed":725118,"internal_node_id":"0.0-142.0","task_version":"battery-v0.2-trt"},{"rune":"K","rune_set":"bacs2","hex":"#3366ff99","correct":32,"choice":-1,"rt":-1,"accuracy":0,"outcome":"+1","keys":[527.1100000245497,2974.0900000324473],"total_keys":2,"block":2,"trial":135,"stimulus":2,"robot":1,"valence":"win","action":"go","sham":0,"trial_type":"pit-trial","trial_index":172,"time_elapsed":729124,"internal_node_id":"0.0-143.0","task_version":"battery-v0.2-trt"},{"rune":"M","rune_set":"bacs2","hex":"#f73b6a7A","correct":-1,"choice":32,"rt":639.7949999663979,"accuracy":0,"outcome":"-10","keys":[2140.264999936335],"total_keys":1,"block":2,"trial":136,"stimulus":0,"robot":4,"valence":"lose","action":"no-go","sham":0,"trial_type":"pit-trial","trial_index":173,"time_elapsed":732468,"internal_node_id":"0.0-144.0","task_version":"battery-v0.2-trt"},{"rune":"M","rune_set":"bacs2","hex":"#f73b6a7A","correct":-1,"choice":-1,"rt":-1,"accuracy":1,"outcome":"-1","keys":[],"total_keys":0,"block":2,"trial":137,"stimulus":0,"robot":4,"valence":"lose","action":"no-go","sham":0,"trial_type":"pit-trial","trial_index":174,"time_elapsed":736474,"internal_node_id":"0.0-145.0","task_version":"battery-v0.2-trt"},{"rune":"B","rune_set":"bacs2","hex":"#f73b6a7A","correct":-1,"choice":-1,"rt":-1,"accuracy":1,"outcome":"-1","keys":[],"total_keys":0,"block":2,"trial":138,"stimulus":1,"robot":4,"valence":"lose","action":"no-go","sham":0,"trial_type":"pit-trial","trial_index":175,"time_elapsed":740479,"internal_node_id":"0.0-146.0","task_version":"battery-v0.2-trt"},{"rune":"V","rune_set":"bacs2","hex":"#3366ff99","correct":-1,"choice":-1,"rt":-1,"accuracy":1,"outcome":"+10","keys":[],"total_keys":0,"block":2,"trial":139,"stimulus":3,"robot":2,"valence":"win","action":"no-go","sham":0,"trial_type":"pit-trial","trial_index":176,"time_elapsed":744485,"internal_node_id":"0.0-147.0","task_version":"battery-v0.2-trt"},{"rune":"K","rune_set":"bacs2","hex":"#3366ff99","correct":32,"choice":32,"rt":106.18000000249594,"accuracy":1,"outcome":"+1","keys":[1161.1249999841675,1406.929999939166,1607.8049999196082,1994.8699999367818,2171.9249999150634,2622.7999998955056],"total_keys":6,"block":2,"trial":140,"stimulus":2,"robot":1,"valence":"win","action":"go","sham":1,"trial_type":"pit-trial","trial_index":177,"time_elapsed":747297,"internal_node_id":"0.0-148.0","task_version":"battery-v0.2-trt"},{"rune":"M","rune_set":"bacs2","hex":"#f73b6a7A","correct":-1,"choice":32,"rt":1285.2000000420958,"accuracy":0,"outcome":"-1","keys":[1014.4249999430031,1237.4350000172853,1474.434999981895,2786.4299999782816],"total_keys":4,"block":2,"trial":141,"stimulus":0,"robot":4,"valence":"lose","action":"no-go","sham":1,"trial_type":"pit-trial","trial_index":178,"time_elapsed":751288,"internal_node_id":"0.0-149.0","task_version":"battery-v0.2-trt"},{"rune":"K","rune_set":"bacs2","hex":"#3366ff99","correct":32,"choice":32,"rt":1149.7249999083579,"accuracy":1,"outcome":"+10","keys":[2651.1500000488013,2888.2750000339,3161.2050000112504],"total_keys":3,"block":2,"trial":142,"stimulus":2,"robot":1,"valence":"win","action":"go","sham":0,"trial_type":"pit-trial","trial_index":179,"time_elapsed":755144,"internal_node_id":"0.0-150.0","task_version":"battery-v0.2-trt"},{"rune":"V","rune_set":"bacs2","hex":"#3366ff99","correct":-1,"choice":32,"rt":166.04999999981374,"accuracy":0,"outcome":"+1","keys":[1666.4099999470636],"total_keys":1,"block":2,"trial":143,"stimulus":3,"robot":2,"valence":"win","action":"no-go","sham":0,"trial_type":"pit-trial","trial_index":180,"time_elapsed":758015,"internal_node_id":"0.0-151.0","task_version":"battery-v0.2-trt"},{"rune":"B","rune_set":"bacs2","hex":"#f73b6a7A","correct":-1,"choice":32,"rt":28.664999990724027,"accuracy":0,"outcome":"-10","keys":[480.84500001277775,717.85000001546,945.8700000541285,1278.855000040494,1528.855000040494,1779.880000045523,2030.9150000102818,2271.8800000147894,2494.925000006333],"total_keys":9,"block":2,"trial":144,"stimulus":1,"robot":4,"valence":"lose","action":"no-go","sham":0,"trial_type":"pit-trial","trial_index":181,"time_elapsed":760749,"internal_node_id":"0.0-152.0","task_version":"battery-v0.2-trt"},{"rune":"M","rune_set":"bacs2","hex":"#f73b6a7A","correct":-1,"choice":32,"rt":853.995000012219,"accuracy":0,"outcome":"-10","keys":[7.544999942183495,226.2299999129027,499.6749999700114,755.4449999006465,1024.1949999472126,2354.2249999009073,2709.2849999899045,2997.38499999512,3211.2249999772757,3425.31500000041],"total_keys":10,"block":2,"trial":145,"stimulus":0,"robot":4,"valence":"lose","action":"no-go","sham":0,"trial_type":"pit-trial","trial_index":182,"time_elapsed":764308,"internal_node_id":"0.0-153.0","task_version":"battery-v0.2-trt"},{"rune":"B","rune_set":"bacs2","hex":"#f73b6a7A","correct":-1,"choice":32,"rt":118.20499994792044,"accuracy":0,"outcome":"-10","keys":[74.3149999761954,275.3600000869483,521.2750000646338,767.3850000137463,977.3000000277534,1191.3199999835342,1414.2800000263378,1619.2499999888241,1883.2900000270456],"total_keys":9,"block":2,"trial":146,"stimulus":1,"robot":4,"valence":"lose","action":"no-go","sham":0,"trial_type":"pit-trial","trial_index":183,"time_elapsed":767133,"internal_node_id":"0.0-154.0","task_version":"battery-v0.2-trt"},{"rune":"V","rune_set":"bacs2","hex":"#3366ff99","correct":-1,"choice":-1,"rt":-1,"accuracy":1,"outcome":"+1","keys":[],"total_keys":0,"block":2,"trial":147,"stimulus":3,"robot":2,"valence":"win","action":"no-go","sham":1,"trial_type":"pit-trial","trial_index":184,"time_elapsed":771138,"internal_node_id":"0.0-155.0","task_version":"battery-v0.2-trt"},{"rune":"K","rune_set":"bacs2","hex":"#3366ff99","correct":32,"choice":32,"rt":943.9049999928102,"accuracy":1,"outcome":"+10","keys":[2444.6549999993294],"total_keys":1,"block":2,"trial":148,"stimulus":2,"robot":1,"valence":"win","action":"go","sham":0,"trial_type":"pit-trial","trial_index":185,"time_elapsed":774788,"internal_node_id":"0.0-156.0","task_version":"battery-v0.2-trt"},{"rune":"V","rune_set":"bacs2","hex":"#3366ff99","correct":-1,"choice":-1,"rt":-1,"accuracy":1,"outcome":"+1","keys":[2928.730000043288],"total_keys":1,"block":2,"trial":149,"stimulus":3,"robot":2,"valence":"win","action":"no-go","sham":1,"trial_type":"pit-trial","trial_index":186,"time_elapsed":778794,"internal_node_id":"0.0-157.0","task_version":"battery-v0.2-trt"},{"rune":"B","rune_set":"bacs2","hex":"#f73b6a7A","correct":-1,"choice":-1,"rt":-1,"accuracy":1,"outcome":"-1","keys":[],"total_keys":0,"block":2,"trial":150,"stimulus":1,"robot":4,"valence":"lose","action":"no-go","sham":0,"trial_type":"pit-trial","trial_index":187,"time_elapsed":782799,"internal_node_id":"0.0-158.0","task_version":"battery-v0.2-trt"},{"rune":"M","rune_set":"bacs2","hex":"#f73b6a7A","correct":-1,"choice":32,"rt":938.9600000577047,"accuracy":0,"outcome":"-1","keys":[2439.5750000840053],"total_keys":1,"block":2,"trial":151,"stimulus":0,"robot":4,"valence":"lose","action":"no-go","sham":1,"trial_type":"pit-trial","trial_index":188,"time_elapsed":786445,"internal_node_id":"0.0-159.0","task_version":"battery-v0.2-trt"},{"rune":"K","rune_set":"bacs2","hex":"#3366ff99","correct":32,"choice":32,"rt":1085.5750000337139,"accuracy":1,"outcome":"+10","keys":[2586.98500005994],"total_keys":1,"block":2,"trial":152,"stimulus":2,"robot":1,"valence":"win","action":"go","sham":0,"trial_type":"pit-trial","trial_index":189,"time_elapsed":790237,"internal_node_id":"0.0-160.0","task_version":"battery-v0.2-trt"},{"rune":"M","rune_set":"bacs2","hex":"#f73b6a7A","correct":-1,"choice":32,"rt":1152.3349999915808,"accuracy":0,"outcome":"-1","keys":[2654.0449999738485],"total_keys":1,"block":2,"trial":153,"stimulus":0,"robot":4,"valence":"lose","action":"no-go","sham":1,"trial_type":"pit-trial","trial_index":190,"time_elapsed":794096,"internal_node_id":"0.0-161.0","task_version":"battery-v0.2-trt"},{"rune":"K","rune_set":"bacs2","hex":"#3366ff99","correct":32,"choice":-1,"rt":-1,"accuracy":0,"outcome":"+1","keys":[2888.3650000207126],"total_keys":1,"block":2,"trial":154,"stimulus":2,"robot":1,"valence":"win","action":"go","sham":0,"trial_type":"pit-trial","trial_index":191,"time_elapsed":798103,"internal_node_id":"0.0-162.0","task_version":"battery-v0.2-trt"},{"rune":"R","rune_set":"bacs2","hex":"#f73b6a7A","correct":32,"choice":-1,"rt":-1,"accuracy":0,"outcome":"-10","keys":[],"total_keys":0,"block":2,"trial":155,"stimulus":4,"robot":3,"valence":"lose","action":"go","sham":0,"trial_type":"pit-trial","trial_index":192,"time_elapsed":802109,"internal_node_id":"0.0-163.0","task_version":"battery-v0.2-trt"},{"rune":"V","rune_set":"bacs2","hex":"#3366ff99","correct":-1,"choice":32,"rt":1057.3899999726564,"accuracy":0,"outcome":"+1","keys":[2559.209999977611],"total_keys":1,"block":2,"trial":156,"stimulus":3,"robot":2,"valence":"win","action":"no-go","sham":0,"trial_type":"pit-trial","trial_index":193,"time_elapsed":805874,"internal_node_id":"0.0-164.0","task_version":"battery-v0.2-trt"},{"rune":"R","rune_set":"bacs2","hex":"#f73b6a7A","correct":32,"choice":32,"rt":433.65499994251877,"accuracy":1,"outcome":"-1","keys":[1934.889999916777],"total_keys":1,"block":2,"trial":157,"stimulus":4,"robot":3,"valence":"lose","action":"go","sham":0,"trial_type":"pit-trial","trial_index":194,"time_elapsed":809013,"internal_node_id":"0.0-165.0","task_version":"battery-v0.2-trt"},{"rune":"K","rune_set":"bacs2","hex":"#3366ff99","correct":32,"choice":32,"rt":197.86499999463558,"accuracy":1,"outcome":"+1","keys":[1698.1950000626966],"total_keys":1,"block":2,"trial":158,"stimulus":2,"robot":1,"valence":"win","action":"go","sham":1,"trial_type":"pit-trial","trial_index":195,"time_elapsed":811916,"internal_node_id":"0.0-166.0","task_version":"battery-v0.2-trt"},{"rune":"V","rune_set":"bacs2","hex":"#3366ff99","correct":-1,"choice":32,"rt":352.67000005114824,"accuracy":0,"outcome":"+10","keys":[1853.2999999588355],"total_keys":1,"block":2,"trial":159,"stimulus":3,"robot":2,"valence":"win","action":"no-go","sham":1,"trial_type":"pit-trial","trial_index":196,"time_elapsed":814974,"internal_node_id":"0.0-167.0","task_version":"battery-v0.2-trt"},{"rune":"M","rune_set":"bacs2","hex":"#f73b6a7A","correct":-1,"choice":-1,"rt":-1,"accuracy":1,"outcome":"-1","keys":[],"total_keys":0,"block":2,"trial":160,"stimulus":0,"robot":4,"valence":"lose","action":"no-go","sham":0,"trial_type":"pit-trial","trial_index":197,"time_elapsed":818978,"internal_node_id":"0.0-168.0","task_version":"battery-v0.2-trt"},{"rune":"L","rune_set":"bacs2","hex":"#3366ff99","correct":32,"choice":-1,"rt":-1,"accuracy":0,"outcome":"+1","keys":[],"total_keys":0,"block":2,"trial":161,"stimulus":6,"robot":1,"valence":"win","action":"go","sham":0,"trial_type":"pit-trial","trial_index":198,"time_elapsed":822984,"internal_node_id":"0.0-169.0","task_version":"battery-v0.2-trt"},{"rune":"M","rune_set":"bacs2","hex":"#f73b6a7A","correct":-1,"choice":-1,"rt":-1,"accuracy":1,"outcome":"-1","keys":[3105.3199999732897],"total_keys":1,"block":2,"trial":162,"stimulus":0,"robot":4,"valence":"lose","action":"no-go","sham":0,"trial_type":"pit-trial","trial_index":199,"time_elapsed":826991,"internal_node_id":"0.0-170.0","task_version":"battery-v0.2-trt"},{"rune":"R","rune_set":"bacs2","hex":"#f73b6a7A","correct":32,"choice":32,"rt":132.51499994657934,"accuracy":1,"outcome":"-1","keys":[1633.8299999479204,1821.0350000299513,2316.785000031814,2521.8950000125915,2722.8549999417737],"total_keys":5,"block":2,"trial":163,"stimulus":4,"robot":3,"valence":"lose","action":"go","sham":0,"trial_type":"pit-trial","trial_index":200,"time_elapsed":829830,"internal_node_id":"0.0-171.0","task_version":"battery-v0.2-trt"},{"rune":"P","rune_set":"bacs2","hex":"#3366ff99","correct":-1,"choice":32,"rt":711.9099999545142,"accuracy":0,"outcome":"+1","keys":[47.0500000519678,252.20500002615154,2212.1299999998882],"total_keys":3,"block":2,"trial":164,"stimulus":5,"robot":2,"valence":"win","action":"no-go","sham":0,"trial_type":"pit-trial","trial_index":201,"time_elapsed":833247,"internal_node_id":"0.0-172.0","task_version":"battery-v0.2-trt"},{"rune":"R","rune_set":"bacs2","hex":"#f73b6a7A","correct":32,"choice":-1,"rt":-1,"accuracy":0,"outcome":"-10","keys":[3498.28499997966],"total_keys":1,"block":2,"trial":165,"stimulus":4,"robot":3,"valence":"lose","action":"go","sham":0,"trial_type":"pit-trial","trial_index":202,"time_elapsed":837252,"internal_node_id":"0.0-173.0","task_version":"battery-v0.2-trt"},{"rune":"M","rune_set":"bacs2","hex":"#f73b6a7A","correct":-1,"choice":32,"rt":447.8649999946356,"accuracy":0,"outcome":"-10","keys":[1949.6049999725074],"total_keys":1,"block":2,"trial":166,"stimulus":0,"robot":4,"valence":"lose","action":"no-go","sham":0,"trial_type":"pit-trial","trial_index":203,"time_elapsed":840406,"internal_node_id":"0.0-174.0","task_version":"battery-v0.2-trt"},{"rune":"P","rune_set":"bacs2","hex":"#3366ff99","correct":-1,"choice":32,"rt":170.84000003524125,"accuracy":0,"outcome":"+1","keys":[1671.6249999590218,1954.3549999361858,2172.3950000014156,2414.2949999077246,2687.2899999143556],"total_keys":5,"block":2,"trial":167,"stimulus":5,"robot":2,"valence":"win","action":"no-go","sham":0,"trial_type":"pit-trial","trial_index":204,"time_elapsed":843282,"internal_node_id":"0.0-175.0","task_version":"battery-v0.2-trt"},{"rune":"L","rune_set":"bacs2","hex":"#3366ff99","correct":32,"choice":32,"rt":542.3249999294057,"accuracy":1,"outcome":"+10","keys":[71.23999996110797,340.18999990075827,600.2599999774247,828.2799998996779,1188.2699999259785,1429.2149998946115,2044.2449999973178,2212.199999950826],"total_keys":8,"block":2,"trial":168,"stimulus":6,"robot":1,"valence":"win","action":"go","sham":0,"trial_type":"pit-trial","trial_index":205,"time_elapsed":846531,"internal_node_id":"0.0-176.0","task_version":"battery-v0.2-trt"},{"rune":"S","rune_set":"bacs2","hex":"#f73b6a7A","correct":-1,"choice":32,"rt":505.2900000009686,"accuracy":0,"outcome":"-10","keys":[2007.2549999458715],"total_keys":1,"block":2,"trial":169,"stimulus":7,"robot":4,"valence":"lose","action":"no-go","sham":0,"trial_type":"pit-trial","trial_index":206,"time_elapsed":849743,"internal_node_id":"0.0-177.0","task_version":"battery-v0.2-trt"},{"rune":"P","rune_set":"bacs2","hex":"#3366ff99","correct":-1,"choice":32,"rt":597.8800000157207,"accuracy":0,"outcome":"+1","keys":[2098.3499999856576],"total_keys":1,"block":2,"trial":170,"stimulus":5,"robot":2,"valence":"win","action":"no-go","sham":0,"trial_type":"pit-trial","trial_index":207,"time_elapsed":853046,"internal_node_id":"0.0-178.0","task_version":"battery-v0.2-trt"},{"rune":"R","rune_set":"bacs2","hex":"#f73b6a7A","correct":32,"choice":32,"rt":1223.5649999929592,"accuracy":1,"outcome":"-1","keys":[2723.645000020042],"total_keys":1,"block":2,"trial":171,"stimulus":4,"robot":3,"valence":"lose","action":"go","sham":0,"trial_type":"pit-trial","trial_index":208,"time_elapsed":856974,"internal_node_id":"0.0-179.0","task_version":"battery-v0.2-trt"},{"rune":"L","rune_set":"bacs2","hex":"#3366ff99","correct":32,"choice":32,"rt":671.4900000952184,"accuracy":1,"outcome":"+10","keys":[2172.560000093654],"total_keys":1,"block":2,"trial":172,"stimulus":6,"robot":1,"valence":"win","action":"go","sham":0,"trial_type":"pit-trial","trial_index":209,"time_elapsed":860351,"internal_node_id":"0.0-180.0","task_version":"battery-v0.2-trt"},{"rune":"L","rune_set":"bacs2","hex":"#3366ff99","correct":32,"choice":32,"rt":576.035000034608,"accuracy":1,"outcome":"+10","keys":[2077.144999988377],"total_keys":1,"block":2,"trial":173,"stimulus":6,"robot":1,"valence":"win","action":"go","sham":0,"trial_type":"pit-trial","trial_index":210,"time_elapsed":863633,"internal_node_id":"0.0-181.0","task_version":"battery-v0.2-trt"},{"rune":"P","rune_set":"bacs2","hex":"#3366ff99","correct":-1,"choice":-1,"rt":-1,"accuracy":1,"outcome":"+10","keys":[],"total_keys":0,"block":2,"trial":174,"stimulus":5,"robot":2,"valence":"win","action":"no-go","sham":0,"trial_type":"pit-trial","trial_index":211,"time_elapsed":867639,"internal_node_id":"0.0-182.0","task_version":"battery-v0.2-trt"},{"rune":"S","rune_set":"bacs2","hex":"#f73b6a7A","correct":-1,"choice":32,"rt":1175.6700000260025,"accuracy":0,"outcome":"-10","keys":[2676.0400000493973],"total_keys":1,"block":2,"trial":175,"stimulus":7,"robot":4,"valence":"lose","action":"no-go","sham":0,"trial_type":"pit-trial","trial_index":212,"time_elapsed":871519,"internal_node_id":"0.0-183.0","task_version":"battery-v0.2-trt"},{"rune":"R","rune_set":"bacs2","hex":"#f73b6a7A","correct":32,"choice":32,"rt":725.3400000045076,"accuracy":1,"outcome":"-1","keys":[2225.689999992028],"total_keys":1,"block":2,"trial":176,"stimulus":4,"robot":3,"valence":"lose","action":"go","sham":0,"trial_type":"pit-trial","trial_index":213,"time_elapsed":874949,"internal_node_id":"0.0-184.0","task_version":"battery-v0.2-trt"},{"rune":"P","rune_set":"bacs2","hex":"#3366ff99","correct":-1,"choice":-1,"rt":-1,"accuracy":1,"outcome":"+10","keys":[],"total_keys":0,"block":2,"trial":177,"stimulus":5,"robot":2,"valence":"win","action":"no-go","sham":0,"trial_type":"pit-trial","trial_index":214,"time_elapsed":878955,"internal_node_id":"0.0-185.0","task_version":"battery-v0.2-trt"},{"rune":"R","rune_set":"bacs2","hex":"#f73b6a7A","correct":32,"choice":-1,"rt":-1,"accuracy":0,"outcome":"-10","keys":[],"total_keys":0,"block":2,"trial":178,"stimulus":4,"robot":3,"valence":"lose","action":"go","sham":0,"trial_type":"pit-trial","trial_index":215,"time_elapsed":882960,"internal_node_id":"0.0-186.0","task_version":"battery-v0.2-trt"},{"rune":"L","rune_set":"bacs2","hex":"#3366ff99","correct":32,"choice":32,"rt":1104.5049999374896,"accuracy":1,"outcome":"+10","keys":[2605.8699999703094],"total_keys":1,"block":2,"trial":179,"stimulus":6,"robot":1,"valence":"win","action":"go","sham":0,"trial_type":"pit-trial","trial_index":216,"time_elapsed":886771,"internal_node_id":"0.0-187.0","task_version":"battery-v0.2-trt"},{"rune":"S","rune_set":"bacs2","hex":"#f73b6a7A","correct":-1,"choice":32,"rt":15.039999969303608,"accuracy":0,"outcome":"-10","keys":[1516.4199999999255],"total_keys":1,"block":2,"trial":180,"stimulus":7,"robot":4,"valence":"lose","action":"no-go","sham":0,"trial_type":"pit-trial","trial_index":217,"time_elapsed":889493,"internal_node_id":"0.0-188.0","task_version":"battery-v0.2-trt"},{"rune":"S","rune_set":"bacs2","hex":"#f73b6a7A","correct":-1,"choice":32,"rt":659.8750000121072,"accuracy":0,"outcome":"-1","keys":[2161.3000000361353,2297.23499994725,3282.245000009425],"total_keys":3,"block":2,"trial":181,"stimulus":7,"robot":4,"valence":"lose","action":"no-go","sham":1,"trial_type":"pit-trial","trial_index":218,"time_elapsed":892859,"internal_node_id":"0.0-189.0","task_version":"battery-v0.2-trt"},{"rune":"P","rune_set":"bacs2","hex":"#3366ff99","correct":-1,"choice":32,"rt":61.69999996200204,"accuracy":0,"outcome":"+1","keys":[1562.1549999341369],"total_keys":1,"block":2,"trial":182,"stimulus":5,"robot":2,"valence":"win","action":"no-go","sham":0,"trial_type":"pit-trial","trial_index":219,"time_elapsed":895625,"internal_node_id":"0.0-190.0","task_version":"battery-v0.2-trt"},{"rune":"R","rune_set":"bacs2","hex":"#f73b6a7A","correct":32,"choice":-1,"rt":-1,"accuracy":0,"outcome":"-10","keys":[3298.0400000233203,3930.835000006482],"total_keys":2,"block":2,"trial":183,"stimulus":4,"robot":3,"valence":"lose","action":"go","sham":0,"trial_type":"pit-trial","trial_index":220,"time_elapsed":899631,"internal_node_id":"0.0-191.0","task_version":"battery-v0.2-trt"},{"rune":"L","rune_set":"bacs2","hex":"#3366ff99","correct":32,"choice":32,"rt":789.0699999406934,"accuracy":1,"outcome":"+10","keys":[2289.8300000233576],"total_keys":1,"block":2,"trial":184,"stimulus":6,"robot":1,"valence":"win","action":"go","sham":0,"trial_type":"pit-trial","trial_index":221,"time_elapsed":903126,"internal_node_id":"0.0-192.0","task_version":"battery-v0.2-trt"},{"rune":"P","rune_set":"bacs2","hex":"#3366ff99","correct":-1,"choice":-1,"rt":-1,"accuracy":1,"outcome":"+10","keys":[],"total_keys":0,"block":2,"trial":185,"stimulus":5,"robot":2,"valence":"win","action":"no-go","sham":0,"trial_type":"pit-trial","trial_index":222,"time_elapsed":907132,"internal_node_id":"0.0-193.0","task_version":"battery-v0.2-trt"},{"rune":"L","rune_set":"bacs2","hex":"#3366ff99","correct":32,"choice":32,"rt":1248.6250000074506,"accuracy":1,"outcome":"+10","keys":[2749.7849999926984],"total_keys":1,"block":2,"trial":186,"stimulus":6,"robot":1,"valence":"win","action":"go","sham":0,"trial_type":"pit-trial","trial_index":223,"time_elapsed":911086,"internal_node_id":"0.0-194.0","task_version":"battery-v0.2-trt"},{"rune":"R","rune_set":"bacs2","hex":"#f73b6a7A","correct":32,"choice":32,"rt":939.369999920018,"accuracy":1,"outcome":"-1","keys":[2440.2049999916926],"total_keys":1,"block":2,"trial":187,"stimulus":4,"robot":3,"valence":"lose","action":"go","sham":0,"trial_type":"pit-trial","trial_index":224,"time_elapsed":914731,"internal_node_id":"0.0-195.0","task_version":"battery-v0.2-trt"},{"rune":"S","rune_set":"bacs2","hex":"#f73b6a7A","correct":-1,"choice":-1,"rt":-1,"accuracy":1,"outcome":"-10","keys":[3733.7850000476465],"total_keys":1,"block":2,"trial":188,"stimulus":7,"robot":4,"valence":"lose","action":"no-go","sham":1,"trial_type":"pit-trial","trial_index":225,"time_elapsed":918737,"internal_node_id":"0.0-196.0","task_version":"battery-v0.2-trt"},{"rune":"L","rune_set":"bacs2","hex":"#3366ff99","correct":32,"choice":32,"rt":523.8999999128282,"accuracy":1,"outcome":"+10","keys":[2024.2750000907108],"total_keys":1,"block":2,"trial":189,"stimulus":6,"robot":1,"valence":"win","action":"go","sham":0,"trial_type":"pit-trial","trial_index":226,"time_elapsed":921967,"internal_node_id":"0.0-197.0","task_version":"battery-v0.2-trt"},{"rune":"P","rune_set":"bacs2","hex":"#3366ff99","correct":-1,"choice":32,"rt":538.4699999121949,"accuracy":0,"outcome":"+1","keys":[2039.3400000175461],"total_keys":1,"block":2,"trial":190,"stimulus":5,"robot":2,"valence":"win","action":"no-go","sham":0,"trial_type":"pit-trial","trial_index":227,"time_elapsed":925210,"internal_node_id":"0.0-198.0","task_version":"battery-v0.2-trt"},{"rune":"R","rune_set":"bacs2","hex":"#f73b6a7A","correct":32,"choice":32,"rt":333.42999999877065,"accuracy":1,"outcome":"-10","keys":[1278.6049999995157,1834.1300000902265],"total_keys":2,"block":2,"trial":191,"stimulus":4,"robot":3,"valence":"lose","action":"go","sham":1,"trial_type":"pit-trial","trial_index":228,"time_elapsed":928250,"internal_node_id":"0.0-199.0","task_version":"battery-v0.2-trt"},{"rune":"S","rune_set":"bacs2","hex":"#f73b6a7A","correct":-1,"choice":32,"rt":1023.9850000943989,"accuracy":0,"outcome":"-10","keys":[2524.360000039451],"total_keys":1,"block":2,"trial":192,"stimulus":7,"robot":4,"valence":"lose","action":"no-go","sham":0,"trial_type":"pit-trial","trial_index":229,"time_elapsed":931980,"internal_node_id":"0.0-200.0","task_version":"battery-v0.2-trt"},{"rune":"P","rune_set":"bacs2","hex":"#3366ff99","correct":-1,"choice":32,"rt":483.805000083521,"accuracy":0,"outcome":"+1","keys":[1984.8800000036135],"total_keys":1,"block":2,"trial":193,"stimulus":5,"robot":2,"valence":"win","action":"no-go","sham":0,"trial_type":"pit-trial","trial_index":230,"time_elapsed":935170,"internal_node_id":"0.0-201.0","task_version":"battery-v0.2-trt"},{"rune":"S","rune_set":"bacs2","hex":"#f73b6a7A","correct":-1,"choice":-1,"rt":-1,"accuracy":1,"outcome":"-10","keys":[],"total_keys":0,"block":2,"trial":194,"stimulus":7,"robot":4,"valence":"lose","action":"no-go","sham":1,"trial_type":"pit-trial","trial_index":231,"time_elapsed":939177,"internal_node_id":"0.0-202.0","task_version":"battery-v0.2-trt"},{"rune":"U","rune_set":"bacs2","hex":"#3366ff99","correct":32,"choice":32,"rt":523.0000000447035,"accuracy":1,"outcome":"+10","keys":[2023.0400000000373],"total_keys":1,"block":2,"trial":195,"stimulus":8,"robot":1,"valence":"win","action":"go","sham":0,"trial_type":"pit-trial","trial_index":232,"time_elapsed":942405,"internal_node_id":"0.0-203.0","task_version":"battery-v0.2-trt"},{"rune":"A","rune_set":"bacs2","hex":"#f73b6a7A","correct":32,"choice":32,"rt":762.0850000530481,"accuracy":1,"outcome":"-1","keys":[2262.390000047162],"total_keys":1,"block":2,"trial":196,"stimulus":9,"robot":3,"valence":"lose","action":"go","sham":0,"trial_type":"pit-trial","trial_index":233,"time_elapsed":945872,"internal_node_id":"0.0-204.0","task_version":"battery-v0.2-trt"},{"rune":"U","rune_set":"bacs2","hex":"#3366ff99","correct":32,"choice":32,"rt":442.6349999848753,"accuracy":1,"outcome":"+10","keys":[1944.054999970831],"total_keys":1,"block":2,"trial":197,"stimulus":8,"robot":1,"valence":"win","action":"go","sham":0,"trial_type":"pit-trial","trial_index":234,"time_elapsed":949021,"internal_node_id":"0.0-205.0","task_version":"battery-v0.2-trt"},{"rune":"P","rune_set":"bacs2","hex":"#3366ff99","correct":-1,"choice":32,"rt":469.5350000401959,"accuracy":0,"outcome":"+1","keys":[1970.9300000686198],"total_keys":1,"block":2,"trial":198,"stimulus":5,"robot":2,"valence":"win","action":"no-go","sham":0,"trial_type":"pit-trial","trial_index":235,"time_elapsed":952196,"internal_node_id":"0.0-206.0","task_version":"battery-v0.2-trt"},{"rune":"A","rune_set":"bacs2","hex":"#f73b6a7A","correct":32,"choice":32,"rt":1226.3350000139326,"accuracy":1,"outcome":"-10","keys":[2727.4699999252334],"total_keys":1,"block":2,"trial":199,"stimulus":9,"robot":3,"valence":"lose","action":"go","sham":1,"trial_type":"pit-trial","trial_index":236,"time_elapsed":956128,"internal_node_id":"0.0-207.0","task_version":"battery-v0.2-trt"},{"rune":"S","rune_set":"bacs2","hex":"#f73b6a7A","correct":-1,"choice":32,"rt":151.62999997846782,"accuracy":0,"outcome":"-10","keys":[1000.9549999376759,1651.839999947697],"total_keys":2,"block":2,"trial":200,"stimulus":7,"robot":4,"valence":"lose","action":"no-go","sham":0,"trial_type":"pit-trial","trial_index":237,"time_elapsed":958984,"internal_node_id":"0.0-208.0","task_version":"battery-v0.2-trt"},{"rune":"A","rune_set":"bacs2","hex":"#f73b6a7A","correct":32,"choice":32,"rt":171.67000006884336,"accuracy":1,"outcome":"-1","keys":[1393.7849999638274,1671.7449999414384,1867.6849999465048],"total_keys":3,"block":2,"trial":201,"stimulus":9,"robot":3,"valence":"lose","action":"go","sham":0,"trial_type":"pit-trial","trial_index":238,"time_elapsed":961861,"internal_node_id":"0.0-209.0","task_version":"battery-v0.2-trt"},{"rune":"S","rune_set":"bacs2","hex":"#f73b6a7A","correct":-1,"choice":32,"rt":511.31500001065433,"accuracy":0,"outcome":"-10","keys":[2011.6250000428408],"total_keys":1,"block":2,"trial":202,"stimulus":7,"robot":4,"valence":"lose","action":"no-go","sham":0,"trial_type":"pit-trial","trial_index":239,"time_elapsed":965077,"internal_node_id":"0.0-210.0","task_version":"battery-v0.2-trt"},{"rune":"U","rune_set":"bacs2","hex":"#3366ff99","correct":32,"choice":32,"rt":455.9550000121817,"accuracy":1,"outcome":"+10","keys":[1956.0449999989942],"total_keys":1,"block":2,"trial":203,"stimulus":8,"robot":1,"valence":"win","action":"go","sham":0,"trial_type":"pit-trial","trial_index":240,"time_elapsed":968238,"internal_node_id":"0.0-211.0","task_version":"battery-v0.2-trt"},{"rune":"P","rune_set":"bacs2","hex":"#3366ff99","correct":-1,"choice":32,"rt":291.92999994847924,"accuracy":0,"outcome":"+1","keys":[1793.3949999278411],"total_keys":1,"block":2,"trial":204,"stimulus":5,"robot":2,"valence":"win","action":"no-go","sham":0,"trial_type":"pit-trial","trial_index":241,"time_elapsed":971236,"internal_node_id":"0.0-212.0","task_version":"battery-v0.2-trt"},{"rune":"U","rune_set":"bacs2","hex":"#3366ff99","correct":32,"choice":32,"rt":188.67000006139278,"accuracy":1,"outcome":"+10","keys":[1352.474999963306,1689.475000021048],"total_keys":2,"block":2,"trial":205,"stimulus":8,"robot":1,"valence":"win","action":"go","sham":0,"trial_type":"pit-trial","trial_index":242,"time_elapsed":974130,"internal_node_id":"0.0-213.0","task_version":"battery-v0.2-trt"},{"rune":"P","rune_set":"bacs2","hex":"#3366ff99","correct":-1,"choice":32,"rt":210.54000000003725,"accuracy":0,"outcome":"+10","keys":[1183.919999981299,1711.8699999991804],"total_keys":2,"block":2,"trial":206,"stimulus":5,"robot":2,"valence":"win","action":"no-go","sham":1,"trial_type":"pit-trial","trial_index":243,"time_elapsed":977046,"internal_node_id":"0.0-214.0","task_version":"battery-v0.2-trt"},{"rune":"S","rune_set":"bacs2","hex":"#f73b6a7A","correct":-1,"choice":32,"rt":164.31999998167157,"accuracy":0,"outcome":"-10","keys":[1169.4249999709427,1665.335000026971],"total_keys":2,"block":2,"trial":207,"stimulus":7,"robot":4,"valence":"lose","action":"no-go","sham":0,"trial_type":"pit-trial","trial_index":244,"time_elapsed":979916,"internal_node_id":"0.0-215.0","task_version":"battery-v0.2-trt"},{"rune":"A","rune_set":"bacs2","hex":"#f73b6a7A","correct":32,"choice":32,"rt":280.49999999348074,"accuracy":1,"outcome":"-1","keys":[1119.414999964647,1438.3450000314042,1780.7700000703335,2340.2700000442564,2636.629999964498,2896.7049999628216],"total_keys":6,"block":2,"trial":208,"stimulus":9,"robot":3,"valence":"lose","action":"go","sham":0,"trial_type":"pit-trial","trial_index":245,"time_elapsed":982901,"internal_node_id":"0.0-216.0","task_version":"battery-v0.2-trt"},{"rune":"A","rune_set":"bacs2","hex":"#f73b6a7A","correct":32,"choice":32,"rt":369.89500001072884,"accuracy":1,"outcome":"-1","keys":[1870.4999999608845,2207.4499999871477],"total_keys":2,"block":2,"trial":209,"stimulus":9,"robot":3,"valence":"lose","action":"go","sham":0,"trial_type":"pit-trial","trial_index":246,"time_elapsed":985976,"internal_node_id":"0.0-217.0","task_version":"battery-v0.2-trt"},{"rune":"U","rune_set":"bacs2","hex":"#3366ff99","correct":32,"choice":32,"rt":325.68500004708767,"accuracy":1,"outcome":"+10","keys":[1826.0699999518692,2104.0700000012293],"total_keys":2,"block":2,"trial":210,"stimulus":8,"robot":1,"valence":"win","action":"go","sham":0,"trial_type":"pit-trial","trial_index":247,"time_elapsed":989006,"internal_node_id":"0.0-218.0","task_version":"battery-v0.2-trt"},{"rune":"N","rune_set":"bacs2","hex":"#3366ff99","correct":-1,"choice":-1,"rt":-1,"accuracy":1,"outcome":"+1","keys":[],"total_keys":0,"block":2,"trial":211,"stimulus":11,"robot":2,"valence":"win","action":"no-go","sham":1,"trial_type":"pit-trial","trial_index":248,"time_elapsed":993011,"internal_node_id":"0.0-219.0","task_version":"battery-v0.2-trt"},{"rune":"F","rune_set":"bacs2","hex":"#f73b6a7A","correct":32,"choice":-1,"rt":-1,"accuracy":0,"outcome":"-10","keys":[431.93500000052154],"total_keys":1,"block":2,"trial":212,"stimulus":10,"robot":3,"valence":"lose","action":"go","sham":0,"trial_type":"pit-trial","trial_index":249,"time_elapsed":997654,"internal_node_id":"0.0-220.0","task_version":"battery-v0.2-trt"},{"rune":"N","rune_set":"bacs2","hex":"#3366ff99","correct":-1,"choice":32,"rt":279.39500007778406,"accuracy":0,"outcome":"+1","keys":[1780.4849999956787],"total_keys":1,"block":2,"trial":213,"stimulus":11,"robot":2,"valence":"win","action":"no-go","sham":0,"trial_type":"pit-trial","trial_index":250,"time_elapsed":1000873,"internal_node_id":"0.0-221.0","task_version":"battery-v0.2-trt"},{"rune":"A","rune_set":"bacs2","hex":"#f73b6a7A","correct":32,"choice":-1,"rt":-1,"accuracy":0,"outcome":"-10","keys":[],"total_keys":0,"block":2,"trial":214,"stimulus":9,"robot":3,"valence":"lose","action":"go","sham":0,"trial_type":"pit-trial","trial_index":251,"time_elapsed":1005873,"internal_node_id":"0.0-222.0","task_version":"battery-v0.2-trt"},{"rune":"U","rune_set":"bacs2","hex":"#3366ff99","correct":32,"choice":-1,"rt":-1,"accuracy":0,"outcome":"+1","keys":[],"total_keys":0,"block":2,"trial":215,"stimulus":8,"robot":1,"valence":"win","action":"go","sham":0,"trial_type":"pit-trial","trial_index":252,"time_elapsed":1010873,"internal_node_id":"0.0-223.0","task_version":"battery-v0.2-trt"},{"rune":"F","rune_set":"bacs2","hex":"#f73b6a7A","correct":32,"choice":-1,"rt":-1,"accuracy":0,"outcome":"-10","keys":[3977.629999979399],"total_keys":1,"block":2,"trial":216,"stimulus":10,"robot":3,"valence":"lose","action":"go","sham":0,"trial_type":"pit-trial","trial_index":253,"time_elapsed":1014876,"internal_node_id":"0.0-224.0","task_version":"battery-v0.2-trt"},{"rune":"A","rune_set":"bacs2","hex":"#f73b6a7A","correct":32,"choice":32,"rt":99.41999998409301,"accuracy":1,"outcome":"-1","keys":[196.7700000386685,1176.0250000515953,1398.7150000175461,1599.750000052154],"total_keys":4,"block":2,"trial":217,"stimulus":9,"robot":3,"valence":"lose","action":"go","sham":0,"trial_type":"pit-trial","trial_index":254,"time_elapsed":1017680,"internal_node_id":"0.0-225.0","task_version":"battery-v0.2-trt"},{"rune":"U","rune_set":"bacs2","hex":"#3366ff99","correct":32,"choice":-1,"rt":-1,"accuracy":0,"outcome":"+1","keys":[3478.9750000927597,3874.8400000622496],"total_keys":2,"block":2,"trial":218,"stimulus":8,"robot":1,"valence":"win","action":"go","sham":0,"trial_type":"pit-trial","trial_index":255,"time_elapsed":1021685,"internal_node_id":"0.0-226.0","task_version":"battery-v0.2-trt"},{"rune":"N","rune_set":"bacs2","hex":"#3366ff99","correct":-1,"choice":-1,"rt":-1,"accuracy":1,"outcome":"+10","keys":[2826.9049999071285],"total_keys":1,"block":2,"trial":219,"stimulus":11,"robot":2,"valence":"win","action":"no-go","sham":0,"trial_type":"pit-trial","trial_index":256,"time_elapsed":1025690,"internal_node_id":"0.0-227.0","task_version":"battery-v0.2-trt"},{"rune":"F","rune_set":"bacs2","hex":"#f73b6a7A","correct":32,"choice":32,"rt":194.9199999216944,"accuracy":1,"outcome":"-1","keys":[1696.3949999772012],"total_keys":1,"block":2,"trial":220,"stimulus":10,"robot":3,"valence":"lose","action":"go","sham":0,"trial_type":"pit-trial","trial_index":257,"time_elapsed":1028593,"internal_node_id":"0.0-228.0","task_version":"battery-v0.2-trt"},{"rune":"A","rune_set":"bacs2","hex":"#f73b6a7A","correct":32,"choice":32,"rt":313.4050000226125,"accuracy":1,"outcome":"-1","keys":[1491.05499999132,1814.0800000401214,2064.1100000357255],"total_keys":3,"block":2,"trial":221,"stimulus":9,"robot":3,"valence":"lose","action":"go","sham":0,"trial_type":"pit-trial","trial_index":258,"time_elapsed":1031611,"internal_node_id":"0.0-229.0","task_version":"battery-v0.2-trt"},{"rune":"F","rune_set":"bacs2","hex":"#f73b6a7A","correct":32,"choice":32,"rt":249.71999996341765,"accuracy":1,"outcome":"-1","keys":[1751.3650000328198],"total_keys":1,"block":2,"trial":222,"stimulus":10,"robot":3,"valence":"lose","action":"go","sham":0,"trial_type":"pit-trial","trial_index":259,"time_elapsed":1034567,"internal_node_id":"0.0-230.0","task_version":"battery-v0.2-trt"},{"rune":"N","rune_set":"bacs2","hex":"#3366ff99","correct":-1,"choice":-1,"rt":-1,"accuracy":1,"outcome":"+1","keys":[],"total_keys":0,"block":2,"trial":223,"stimulus":11,"robot":2,"valence":"win","action":"no-go","sham":1,"trial_type":"pit-trial","trial_index":260,"time_elapsed":1038588,"internal_node_id":"0.0-231.0","task_version":"battery-v0.2-trt"},{"rune":"U","rune_set":"bacs2","hex":"#3366ff99","correct":32,"choice":-1,"rt":-1,"accuracy":0,"outcome":"+10","keys":[86.81000000797212],"total_keys":1,"block":2,"trial":224,"stimulus":8,"robot":1,"valence":"win","action":"go","sham":1,"trial_type":"pit-trial","trial_index":261,"time_elapsed":1042641,"internal_node_id":"0.0-232.0","task_version":"battery-v0.2-trt"},{"rune":"U","rune_set":"bacs2","hex":"#3366ff99","correct":32,"choice":32,"rt":278.6550000309944,"accuracy":1,"outcome":"+10","keys":[1780.8199999853969,2123.0049999430776,2391.9199999654666],"total_keys":3,"block":2,"trial":225,"stimulus":8,"robot":1,"valence":"win","action":"go","sham":0,"trial_type":"pit-trial","trial_index":262,"time_elapsed":1045626,"internal_node_id":"0.0-233.0","task_version":"battery-v0.2-trt"},{"rune":"N","rune_set":"bacs2","hex":"#3366ff99","correct":-1,"choice":32,"rt":137.5600000610575,"accuracy":0,"outcome":"+1","keys":[225.87000008206815,566.9700000435114,835.8899999875575,1082.0550000062212,1373.920000041835,1638.0300000309944,1902.4699999717996,2161.8950000265613],"total_keys":8,"block":2,"trial":226,"stimulus