[{"view_history":"[{\"page_index\":0,\"viewing_time\":1686.6250000311993},{\"page_index\":1,\"viewing_time\":1139.644999988377},{\"page_index\":2,\"viewing_time\":6611.129999975674},{\"page_index\":3,\"viewing_time\":4171.685000008438},{\"page_index\":4,\"viewing_time\":3226.269999984652}]","rt":16836.424999986775,"trial_type":"pit-instructions","trial_index":0,"time_elapsed":16839,"internal_node_id":"0.0-0.0"},{"Valence":"Practice","Color":"#fffff080","Rune":"01","Correct":32,"Choice":32,"RT":765.5599999707192,"Accuracy":1,"Sham":0,"Outcome":"+10","Keys":[2267.2899999888614],"TotalKeys":1,"trial_type":"pit-trial","trial_index":1,"time_elapsed":20112,"internal_node_id":"0.0-1.0"},{"Valence":"Practice","Color":"#fffff080","Rune":"01","Correct":32,"Choice":32,"RT":430.79500005114824,"Accuracy":1,"Sham":0,"Outcome":"+10","Keys":[1931.8000000203028],"TotalKeys":1,"trial_type":"pit-trial","trial_index":2,"time_elapsed":23082,"internal_node_id":"0.0-2.0"},{"Valence":"Practice","Color":"#fffff080","Rune":"01","Correct":32,"Choice":32,"RT":410.97999998601153,"Accuracy":1,"Sham":0,"Outcome":"+10","Keys":[1911.6400000057183],"TotalKeys":1,"trial_type":"pit-trial","trial_index":3,"time_elapsed":25999,"internal_node_id":"0.0-3.0"},{"Valence":"Practice","Color":"#fffff080","Rune":"01","Correct":32,"Choice":32,"RT":327.31999998213723,"Accuracy":1,"Sham":0,"Outcome":"+10","Keys":[1828.0199999571778],"TotalKeys":1,"trial_type":"pit-trial","trial_index":4,"time_elapsed":28831,"internal_node_id":"0.0-4.0"},{"view_history":"[{\"page_index\":0,\"viewing_time\":4227.200000023004}]","rt":4227.725000004284,"trial_type":"pit-instructions","trial_index":5,"time_elapsed":33060,"internal_node_id":"0.0-5.0"},{"Valence":"Practice","Color":"#fffff080","Rune":"02","Correct":-1,"Choice":32,"RT":490.08499999763444,"Accuracy":0,"Sham":0,"Outcome":"+0","Keys":[1247.2750000306405,1991.9550000340678],"TotalKeys":2,"trial_type":"pit-trial","trial_index":6,"time_elapsed":36056,"internal_node_id":"0.0-6.0"},{"Valence":"Practice","Color":"#fffff080","Rune":"02","Correct":-1,"Choice":32,"RT":302.25000000791624,"Accuracy":0,"Sham":0,"Outcome":"+0","Keys":[1802.4100000038743],"TotalKeys":1,"trial_type":"pit-trial","trial_index":7,"time_elapsed":38861,"internal_node_id":"0.0-7.0"},{"Valence":"Practice","Color":"#fffff080","Rune":"02","Correct":-1,"Choice":32,"RT":473.1899999896996,"Accuracy":0,"Sham":0,"Outcome":"+0","Keys":[1973.249999980908],"TotalKeys":1,"trial_type":"pit-trial","trial_index":8,"time_elapsed":41837,"internal_node_id":"0.0-8.0"},{"Valence":"Practice","Color":"#fffff080","Rune":"02","Correct":-1,"Choice":-1,"RT":-1,"Accuracy":1,"Sham":0,"Outcome":"+10","Keys":[],"TotalKeys":0,"trial_type":"pit-trial","trial_index":9,"time_elapsed":45840,"internal_node_id":"0.0-9.0"},{"view_history":"[{\"page_index\":0,\"viewing_time\":4813.009999983478},{\"page_index\":1,\"viewing_time\":6187.32500000624},{\"page_index\":2,\"viewing_time\":6153.129999991506},{\"page_index\":3,\"viewing_time\":4591.840000008233},{\"page_index\":4,\"viewing_time\":1929.9950000131503},{\"page_index\":5,\"viewing_time\":5154.930000018794},{\"page_index\":6,\"viewing_time\":1140.9349999739788},{\"page_index\":7,\"viewing_time\":568.3399999979883}]","rt":30540.050000010524,"trial_type":"pit-instructions","trial_index":10,"time_elapsed":76382,"internal_node_id":"0.0-10.0"},{"rt":9377.564999973401,"responses":"{\"no-press\":\"Do nothing\",\"context-win\":\"+10\",\"context-lose\":\"-1\",\"feedback\":\"True\"}","errors":0,"trial_type":"pit-comprehension","trial_index":11,"time_elapsed":85763,"internal_node_id":"0.0-11.0"},{"view_history":"[{\"page_index\":0,\"viewing_time\":1612.1749999583699}]","rt":1612.7199999755248,"trial_type":"pit-instructions","trial_index":12,"time_elapsed":87379,"internal_node_id":"0.0-12.0"},{"Valence":"Win","Color":"#ffcc3399","Rune":"05","Correct":-1,"Choice":32,"RT":394.55500000622123,"Accuracy":0,"Sham":0,"Outcome":"+1","Keys":[1895.4200000152923],"TotalKeys":1,"Block":1,"Trial":1,"Action":"No-Go","Robot":2,"trial_type":"pit-trial","trial_index":13,"time_elapsed":90279,"internal_node_id":"0.0-13.0"},{"Valence":"Lose","Color":"#3366ff99","Rune":"03","Correct":32,"Choice":-1,"RT":-1,"Accuracy":0,"Sham":0,"Outcome":"-10","Keys":[],"TotalKeys":0,"Block":1,"Trial":2,"Action":"Go","Robot":3,"trial_type":"pit-trial","trial_index":14,"time_elapsed":94284,"internal_node_id":"0.0-14.0"},{"Valence":"Lose","Color":"#3366ff99","Rune":"04","Correct":-1,"Choice":32,"RT":738.5249999933876,"Accuracy":0,"Sham":0,"Outcome":"-10","Keys":[2239.4500000518747],"TotalKeys":1,"Block":1,"Trial":3,"Action":"No-Go","Robot":4,"trial_type":"pit-trial","trial_index":15,"time_elapsed":97527,"internal_node_id":"0.0-15.0"},{"Valence":"Win","Color":"#ffcc3399","Rune":"06","Correct":32,"Choice":32,"RT":287.68499998841435,"Accuracy":1,"Sham":0,"Outcome":"+10","Keys":[1788.0649999715388],"TotalKeys":1,"Block":1,"Trial":4,"Action":"Go","Robot":1,"trial_type":"pit-trial","trial_index":16,"time_elapsed":100319,"internal_node_id":"0.0-16.0"},{"Valence":"Lose","Color":"#3366ff99","Rune":"03","Correct":32,"Choice":-1,"RT":-1,"Accuracy":0,"Sham":1,"Outcome":"-1","Keys":[],"TotalKeys":0,"Block":1,"Trial":5,"Action":"Go","Robot":3,"trial_type":"pit-trial","trial_index":17,"time_elapsed":104324,"internal_node_id":"0.0-17.0"},{"Valence":"Lose","Color":"#3366ff99","Rune":"04","Correct":-1,"Choice":32,"RT":922.179999994114,"Accuracy":0,"Sham":0,"Outcome":"-10","Keys":[2423.464999999851],"TotalKeys":1,"Block":1,"Trial":6,"Action":"No-Go","Robot":4,"trial_type":"pit-trial","trial_index":18,"time_elapsed":107751,"internal_node_id":"0.0-18.0"},{"Valence":"Win","Color":"#ffcc3399","Rune":"06","Correct":32,"Choice":32,"RT":255.98000001627952,"Accuracy":1,"Sham":0,"Outcome":"+10","Keys":[1756.2749999924563],"TotalKeys":1,"Block":1,"Trial":7,"Action":"Go","Robot":1,"trial_type":"pit-trial","trial_index":19,"time_elapsed":110510,"internal_node_id":"0.0-19.0"},{"Valence":"Win","Color":"#ffcc3399","Rune":"05","Correct":-1,"Choice":32,"RT":296.84000002453104,"Accuracy":0,"Sham":0,"Outcome":"+1","Keys":[1797.1949999919161],"TotalKeys":1,"Block":1,"Trial":8,"Action":"No-Go","Robot":2,"trial_type":"pit-trial","trial_index":20,"time_elapsed":113310,"internal_node_id":"0.0-20.0"},{"Valence":"Win","Color":"#ffcc3399","Rune":"06","Correct":32,"Choice":32,"RT":328.719999990426,"Accuracy":1,"Sham":0,"Outcome":"+10","Keys":[1829.3800000101328],"TotalKeys":1,"Block":1,"Trial":9,"Action":"Go","Robot":1,"trial_type":"pit-trial","trial_index":21,"time_elapsed":116142,"internal_node_id":"0.0-21.0"},{"Valence":"Lose","Color":"#3366ff99","Rune":"03","Correct":32,"Choice":-1,"RT":-1,"Accuracy":0,"Sham":0,"Outcome":"-10","Keys":[],"TotalKeys":0,"Block":1,"Trial":10,"Action":"Go","Robot":3,"trial_type":"pit-trial","trial_index":22,"time_elapsed":120145,"internal_node_id":"0.0-22.0"},{"Valence":"Win","Color":"#ffcc3399","Rune":"05","Correct":-1,"Choice":32,"RT":437.3749999795109,"Accuracy":0,"Sham":0,"Outcome":"+1","Keys":[1937.7250000252388],"TotalKeys":1,"Block":1,"Trial":11,"Action":"No-Go","Robot":2,"trial_type":"pit-trial","trial_index":23,"time_elapsed":123085,"internal_node_id":"0.0-23.0"},{"Valence":"Lose","Color":"#3366ff99","Rune":"04","Correct":-1,"Choice":-1,"RT":-1,"Accuracy":1,"Sham":0,"Outcome":"-1","Keys":[],"TotalKeys":0,"Block":1,"Trial":12,"Action":"No-Go","Robot":4,"trial_type":"pit-trial","trial_index":24,"time_elapsed":127090,"internal_node_id":"0.0-24.0"},{"Valence":"Win","Color":"#ffcc3399","Rune":"06","Correct":32,"Choice":32,"RT":267.6699999719858,"Accuracy":1,"Sham":0,"Outcome":"+10","Keys":[1769.4799999590032],"TotalKeys":1,"Block":1,"Trial":13,"Action":"Go","Robot":1,"trial_type":"pit-trial","trial_index":25,"time_elapsed":129862,"internal_node_id":"0.0-25.0"},{"Valence":"Win","Color":"#ffcc3399","Rune":"05","Correct":-1,"Choice":32,"RT":321.1699999519624,"Accuracy":0,"Sham":0,"Outcome":"+1","Keys":[1821.3749999995343],"TotalKeys":1,"Block":1,"Trial":14,"Action":"No-Go","Robot":2,"trial_type":"pit-trial","trial_index":26,"time_elapsed":132686,"internal_node_id":"0.0-26.0"},{"Valence":"Lose","Color":"#3366ff99","Rune":"03","Correct":32,"Choice":-1,"RT":-1,"Accuracy":0,"Sham":0,"Outcome":"-10","Keys":[],"TotalKeys":0,"Block":1,"Trial":15,"Action":"Go","Robot":3,"trial_type":"pit-trial","trial_index":27,"time_elapsed":136691,"internal_node_id":"0.0-27.0"},{"Valence":"Lose","Color":"#3366ff99","Rune":"04","Correct":-1,"Choice":32,"RT":530.6350000319071,"Accuracy":0,"Sham":1,"Outcome":"-1","Keys":[2031.8700000061654],"TotalKeys":1,"Block":1,"Trial":16,"Action":"No-Go","Robot":4,"trial_type":"pit-trial","trial_index":28,"time_elapsed":139725,"internal_node_id":"0.0-28.0"},{"Valence":"Win","Color":"#ffcc3399","Rune":"06","Correct":32,"Choice":32,"RT":455.504999961704,"Accuracy":1,"Sham":1,"Outcome":"1","Keys":[1957.1399999549612],"TotalKeys":1,"Block":1,"Trial":17,"Action":"Go","Robot":1,"trial_type":"pit-trial","trial_index":29,"time_elapsed":142686,"internal_node_id":"0.0-29.0"},{"Valence":"Lose","Color":"#3366ff99","Rune":"03","Correct":32,"Choice":-1,"RT":-1,"Accuracy":0,"Sham":0,"Outcome":"-10","Keys":[],"TotalKeys":0,"Block":1,"Trial":18,"Action":"Go","Robot":3,"trial_type":"pit-trial","trial_index":30,"time_elapsed":146689,"internal_node_id":"0.0-30.0"},{"Valence":"Win","Color":"#ffcc3399","Rune":"05","Correct":-1,"Choice":32,"RT":461.2999999662861,"Accuracy":0,"Sham":1,"Outcome":"+10","Keys":[1962.0149999973364],"TotalKeys":1,"Block":1,"Trial":19,"Action":"No-Go","Robot":2,"trial_type":"pit-trial","trial_index":31,"time_elapsed":149654,"internal_node_id":"0.0-31.0"},{"Valence":"Lose","Color":"#3366ff99","Rune":"04","Correct":-1,"Choice":-1,"RT":-1,"Accuracy":1,"Sham":0,"Outcome":"-1","Keys":[],"TotalKeys":0,"Block":1,"Trial":20,"Action":"No-Go","Robot":4,"trial_type":"pit-trial","trial_index":32,"time_elapsed":153660,"internal_node_id":"0.0-32.0"},{"Valence":"Lose","Color":"#3366ff99","Rune":"04","Correct":-1,"Choice":-1,"RT":-1,"Accuracy":1,"Sham":0,"Outcome":"-1","Keys":[],"TotalKeys":0,"Block":1,"Trial":21,"Action":"No-Go","Robot":4,"trial_type":"pit-trial","trial_index":33,"time_elapsed":157663,"internal_node_id":"0.0-33.0"},{"Valence":"Win","Color":"#ffcc3399","Rune":"05","Correct":-1,"Choice":32,"RT":488.03499998757616,"Accuracy":0,"Sham":0,"Outcome":"+1","Keys":[1988.2399999769405],"TotalKeys":1,"Block":1,"Trial":22,"Action":"No-Go","Robot":2,"trial_type":"pit-trial","trial_index":34,"time_elapsed":160654,"internal_node_id":"0.0-34.0"},{"Valence":"Win","Color":"#ffcc3399","Rune":"06","Correct":32,"Choice":32,"RT":536.2850000383332,"Accuracy":1,"Sham":0,"Outcome":"+10","Keys":[2036.324999993667],"TotalKeys":1,"Block":1,"Trial":23,"Action":"Go","Robot":1,"trial_type":"pit-trial","trial_index":35,"time_elapsed":163694,"internal_node_id":"0.0-35.0"},{"Valence":"Lose","Color":"#3366ff99","Rune":"03","Correct":32,"Choice":32,"RT":472.3100000410341,"Accuracy":1,"Sham":0,"Outcome":"-1","Keys":[1972.9700000025332],"TotalKeys":1,"Block":1,"Trial":24,"Action":"Go","Robot":3,"trial_type":"pit-trial","trial_index":36,"time_elapsed":166669,"internal_node_id":"0.0-36.0"},{"Valence":"Lose","Color":"#3366ff99","Rune":"04","Correct":-1,"Choice":-1,"RT":-1,"Accuracy":1,"Sham":0,"Outcome":"-1","Keys":[],"TotalKeys":0,"Block":1,"Trial":25,"Action":"No-Go","Robot":4,"trial_type":"pit-trial","trial_index":37,"time_elapsed":170674,"internal_node_id":"0.0-37.0"},{"Valence":"Win","Color":"#ffcc3399","Rune":"06","Correct":32,"Choice":32,"RT":491.890000004787,"Accuracy":1,"Sham":0,"Outcome":"+10","Keys":[1993.1199999991804],"TotalKeys":1,"Block":1,"Trial":26,"Action":"Go","Robot":1,"trial_type":"pit-trial","trial_index":38,"time_elapsed":173670,"internal_node_id":"0.0-38.0"},{"Valence":"Lose","Color":"#3366ff99","Rune":"03","Correct":32,"Choice":-1,"RT":-1,"Accuracy":0,"Sham":0,"Outcome":"-10","Keys":[],"TotalKeys":0,"Block":1,"Trial":27,"Action":"Go","Robot":3,"trial_type":"pit-trial","trial_index":39,"time_elapsed":177673,"internal_node_id":"0.0-39.0"},{"Valence":"Win","Color":"#ffcc3399","Rune":"05","Correct":-1,"Choice":32,"RT":397.63500000117347,"Accuracy":0,"Sham":0,"Outcome":"+1","Keys":[1898.0350000201724],"TotalKeys":1,"Block":1,"Trial":28,"Action":"No-Go","Robot":2,"trial_type":"pit-trial","trial_index":40,"time_elapsed":180575,"internal_node_id":"0.0-40.0"},{"Valence":"Lose","Color":"#3366ff99","Rune":"03","Correct":32,"Choice":32,"RT":501.43499998375773,"Accuracy":1,"Sham":0,"Outcome":"-1","Keys":[2004.1800000471994],"TotalKeys":1,"Block":1,"Trial":29,"Action":"Go","Robot":3,"trial_type":"pit-trial","trial_index":41,"time_elapsed":183582,"internal_node_id":"0.0-41.0"},{"Valence":"Win","Color":"#ffcc3399","Rune":"05","Correct":-1,"Choice":32,"RT":670.3350000316277,"Accuracy":0,"Sham":1,"Outcome":"+10","Keys":[2172.6650000200607],"TotalKeys":1,"Block":1,"Trial":30,"Action":"No-Go","Robot":2,"trial_type":"pit-trial","trial_index":42,"time_elapsed":186759,"internal_node_id":"0.0-42.0"},{"Valence":"Win","Color":"#ffcc3399","Rune":"06","Correct":32,"Choice":32,"RT":486.32500000530854,"Accuracy":1,"Sham":1,"Outcome":"1","Keys":[1986.5550000104122],"TotalKeys":1,"Block":1,"Trial":31,"Action":"Go","Robot":1,"trial_type":"pit-trial","trial_index":43,"time_elapsed":189750,"internal_node_id":"0.0-43.0"},{"Valence":"Lose","Color":"#3366ff99","Rune":"04","Correct":-1,"Choice":-1,"RT":-1,"Accuracy":1,"Sham":0,"Outcome":"-1","Keys":[],"TotalKeys":0,"Block":1,"Trial":32,"Action":"No-Go","Robot":4,"trial_type":"pit-trial","trial_index":44,"time_elapsed":193754,"internal_node_id":"0.0-44.0"},{"Valence":"Lose","Color":"#3366ff99","Rune":"04","Correct":-1,"Choice":-1,"RT":-1,"Accuracy":1,"Sham":0,"Outcome":"-1","Keys":[],"TotalKeys":0,"Block":1,"Trial":33,"Action":"No-Go","Robot":4,"trial_type":"pit-trial","trial_index":45,"time_elapsed":197761,"internal_node_id":"0.0-45.0"},{"Valence":"Win","Color":"#ffcc3399","Rune":"05","Correct":-1,"Choice":32,"RT":349.0950000123121,"Accuracy":0,"Sham":0,"Outcome":"+1","Keys":[1850.0249999924563],"TotalKeys":1,"Block":1,"Trial":34,"Action":"No-Go","Robot":2,"trial_type":"pit-trial","trial_index":46,"time_elapsed":200613,"internal_node_id":"0.0-46.0"},{"Valence":"Win","Color":"#ffcc3399","Rune":"06","Correct":32,"Choice":32,"RT":784.1999999945983,"Accuracy":1,"Sham":0,"Outcome":"+10","Keys":[2285.600000002887],"TotalKeys":1,"Block":1,"Trial":35,"Action":"Go","Robot":1,"trial_type":"pit-trial","trial_index":47,"time_elapsed":203902,"internal_node_id":"0.0-47.0"},{"Valence":"Lose","Color":"#3366ff99","Rune":"03","Correct":32,"Choice":32,"RT":416.060000017751,"Accuracy":1,"Sham":1,"Outcome":"-10","Keys":[1916.3599999737926],"TotalKeys":1,"Block":1,"Trial":36,"Action":"Go","Robot":3,"trial_type":"pit-trial","trial_index":48,"time_elapsed":206821,"internal_node_id":"0.0-48.0"},{"Valence":"Lose","Color":"#3366ff99","Rune":"04","Correct":-1,"Choice":-1,"RT":-1,"Accuracy":1,"Sham":1,"Outcome":"-10","Keys":[],"TotalKeys":0,"Block":1,"Trial":37,"Action":"No-Go","Robot":4,"trial_type":"pit-trial","trial_index":49,"time_elapsed":210826,"internal_node_id":"0.0-49.0"},{"Valence":"Lose","Color":"#3366ff99","Rune":"03","Correct":32,"Choice":32,"RT":419.579999987036,"Accuracy":1,"Sham":0,"Outcome":"-1","Keys":[1920.4599999939092],"TotalKeys":1,"Block":1,"Trial":38,"Action":"Go","Robot":3,"trial_type":"pit-trial","trial_index":50,"time_elapsed":213749,"internal_node_id":"0.0-50.0"},{"Valence":"Win","Color":"#ffcc3399","Rune":"06","Correct":32,"Choice":32,"RT":375.7700000423938,"Accuracy":1,"Sham":0,"Outcome":"+10","Keys":[1877.2749999770895],"TotalKeys":1,"Block":1,"Trial":39,"Action":"Go","Robot":1,"trial_type":"pit-trial","trial_index":51,"time_elapsed":216629,"internal_node_id":"0.0-51.0"},{"Valence":"Win","Color":"#ffcc3399","Rune":"05","Correct":-1,"Choice":32,"RT":472.01500000664964,"Accuracy":0,"Sham":0,"Outcome":"+1","Keys":[1972.9550000047311],"TotalKeys":1,"Block":1,"Trial":40,"Action":"No-Go","Robot":2,"trial_type":"pit-trial","trial_index":52,"time_elapsed":219605,"internal_node_id":"0.0-52.0"},{"Valence":"Lose","Color":"#3366ff99","Rune":"03","Correct":32,"Choice":32,"RT":425.0599999795668,"Accuracy":1,"Sham":1,"Outcome":"-10","Keys":[1925.3500000340864],"TotalKeys":1,"Block":1,"Trial":41,"Action":"Go","Robot":3,"trial_type":"pit-trial","trial_index":53,"time_elapsed":222534,"internal_node_id":"0.0-53.0"},{"Valence":"Win","Color":"#ffcc3399","Rune":"05","Correct":-1,"Choice":32,"RT":350.18000000854954,"Accuracy":0,"Sham":0,"Outcome":"+1","Keys":[1852.0300000091083],"TotalKeys":1,"Block":1,"Trial":42,"Action":"No-Go","Robot":2,"trial_type":"pit-trial","trial_index":54,"time_elapsed":225389,"internal_node_id":"0.0-54.0"},{"Valence":"Lose","Color":"#3366ff99","Rune":"04","Correct":-1,"Choice":32,"RT":359.68499997397885,"Accuracy":0,"Sham":0,"Outcome":"-10","Keys":[1859.920000017155],"TotalKeys":1,"Block":1,"Trial":43,"Action":"No-Go","Robot":4,"trial_type":"pit-trial","trial_index":55,"time_elapsed":228253,"internal_node_id":"0.0-55.0"},{"Valence":"Win","Color":"#ffcc3399","Rune":"06","Correct":32,"Choice":32,"RT":368.17500001052395,"Accuracy":1,"Sham":0,"Outcome":"+10","Keys":[1869.0099999657832],"TotalKeys":1,"Block":1,"Trial":44,"Action":"Go","Robot":1,"trial_type":"pit-trial","trial_index":56,"time_elapsed":231126,"internal_node_id":"0.0-56.0"},{"Valence":"Lose","Color":"#3366ff99","Rune":"04","Correct":-1,"Choice":-1,"RT":-1,"Accuracy":1,"Sham":0,"Outcome":"-1","Keys":[],"TotalKeys":0,"Block":1,"Trial":45,"Action":"No-Go","Robot":4,"trial_type":"pit-trial","trial_index":57,"time_elapsed":235130,"internal_node_id":"0.0-57.0"},{"Valence":"Win","Color":"#ffcc3399","Rune":"05","Correct":-1,"Choice":32,"RT":442.7750000031665,"Accuracy":0,"Sham":1,"Outcome":"+10","Keys":[1431.6549999639392,1943.779999972321],"TotalKeys":2,"Block":1,"Trial":46,"Action":"No-Go","Robot":2,"trial_type":"pit-trial","trial_index":58,"time_elapsed":238077,"internal_node_id":"0.0-58.0"},{"Valence":"Lose","Color":"#3366ff99","Rune":"03","Correct":32,"Choice":32,"RT":511.4099999773316,"Accuracy":1,"Sham":0,"Outcome":"-1","Keys":[2013.039999990724],"TotalKeys":1,"Block":1,"Trial":47,"Action":"Go","Robot":3,"trial_type":"pit-trial","trial_index":59,"time_elapsed":241093,"internal_node_id":"0.0-59.0"},{"Valence":"Win","Color":"#ffcc3399","Rune":"06","Correct":32,"Choice":32,"RT":440.83999999566004,"Accuracy":1,"Sham":0,"Outcome":"+10","Keys":[1941.019999969285],"TotalKeys":1,"Block":1,"Trial":48,"Action":"Go","Robot":1,"trial_type":"pit-trial","trial_index":60,"time_elapsed":244036,"internal_node_id":"0.0-60.0"},{"Valence":"Lose","Color":"#3366ff99","Rune":"04","Correct":-1,"Choice":-1,"RT":-1,"Accuracy":1,"Sham":0,"Outcome":"-1","Keys":[],"TotalKeys":0,"Block":1,"Trial":49,"Action":"No-Go","Robot":4,"trial_type":"pit-trial","trial_index":61,"time_elapsed":248041,"internal_node_id":"0.0-61.0"},{"Valence":"Win","Color":"#ffcc3399","Rune":"06","Correct":32,"Choice":32,"RT":445.45499997911975,"Accuracy":1,"Sham":0,"Outcome":"+10","Keys":[1945.754999993369],"TotalKeys":1,"Block":1,"Trial":50,"Action":"Go","Robot":1,"trial_type":"pit-trial","trial_index":62,"time_elapsed":250990,"internal_node_id":"0.0-62.0"},{"Valence":"Win","Color":"#ffcc3399","Rune":"05","Correct":-1,"Choice":32,"RT":480.2700000000186,"Accuracy":0,"Sham":0,"Outcome":"+1","Keys":[1980.8350000530481],"TotalKeys":1,"Block":1,"Trial":51,"Action":"No-Go","Robot":2,"trial_type":"pit-trial","trial_index":63,"time_elapsed":253973,"internal_node_id":"0.0-63.0"},{"Valence":"Lose","Color":"#3366ff99","Rune":"03","Correct":32,"Choice":32,"RT":448.74999998137355,"Accuracy":1,"Sham":0,"Outcome":"-1","Keys":[1948.8099999725819],"TotalKeys":1,"Block":1,"Trial":52,"Action":"Go","Robot":3,"trial_type":"pit-trial","trial_index":64,"time_elapsed":256925,"internal_node_id":"0.0-64.0"},{"Valence":"Win","Color":"#ffcc3399","Rune":"05","Correct":-1,"Choice":32,"RT":489.110000024084,"Accuracy":0,"Sham":0,"Outcome":"+1","Keys":[1989.4149999599904],"TotalKeys":1,"Block":1,"Trial":53,"Action":"No-Go","Robot":2,"trial_type":"pit-trial","trial_index":65,"time_elapsed":259917,"internal_node_id":"0.0-65.0"},{"Valence":"Lose","Color":"#3366ff99","Rune":"03","Correct":32,"Choice":32,"RT":385.6000000378117,"Accuracy":1,"Sham":0,"Outcome":"-1","Keys":[1886.0899999854155],"TotalKeys":1,"Block":1,"Trial":54,"Action":"Go","Robot":3,"trial_type":"pit-trial","trial_index":66,"time_elapsed":262806,"internal_node_id":"0.0-66.0"},{"Valence":"Lose","Color":"#3366ff99","Rune":"04","Correct":-1,"Choice":-1,"RT":-1,"Accuracy":1,"Sham":0,"Outcome":"-1","Keys":[],"TotalKeys":0,"Block":1,"Trial":55,"Action":"No-Go","Robot":4,"trial_type":"pit-trial","trial_index":67,"time_elapsed":266810,"internal_node_id":"0.0-67.0"},{"Valence":"Win","Color":"#ffcc3399","Rune":"06","Correct":32,"Choice":32,"RT":379.8250000108965,"Accuracy":1,"Sham":0,"Outcome":"+10","Keys":[1880.0449999980628],"TotalKeys":1,"Block":1,"Trial":56,"Action":"Go","Robot":1,"trial_type":"pit-trial","trial_index":68,"time_elapsed":269693,"internal_node_id":"0.0-68.0"},{"Valence":"Win","Color":"#ffcc3399","Rune":"06","Correct":32,"Choice":32,"RT":430.7099999859929,"Accuracy":1,"Sham":1,"Outcome":"1","Keys":[1931.8250000360422],"TotalKeys":1,"Block":1,"Trial":57,"Action":"Go","Robot":1,"trial_type":"pit-trial","trial_index":69,"time_elapsed":272629,"internal_node_id":"0.0-69.0"},{"Valence":"Lose","Color":"#3366ff99","Rune":"03","Correct":32,"Choice":32,"RT":512.6499999896623,"Accuracy":1,"Sham":0,"Outcome":"-1","Keys":[2014.0250000404194],"TotalKeys":1,"Block":1,"Trial":58,"Action":"Go","Robot":3,"trial_type":"pit-trial","trial_index":70,"time_elapsed":275646,"internal_node_id":"0.0-70.0"},{"Valence":"Lose","Color":"#3366ff99","Rune":"04","Correct":-1,"Choice":-1,"RT":-1,"Accuracy":1,"Sham":1,"Outcome":"-10","Keys":[],"TotalKeys":0,"Block":1,"Trial":59,"Action":"No-Go","Robot":4,"trial_type":"pit-trial","trial_index":71,"time_elapsed":279650,"internal_node_id":"0.0-71.0"},{"Valence":"Win","Color":"#ffcc3399","Rune":"05","Correct":-1,"Choice":32,"RT":348.0300000519492,"Accuracy":0,"Sham":0,"Outcome":"+1","Keys":[1848.4499999904074],"TotalKeys":1,"Block":1,"Trial":60,"Action":"No-Go","Robot":2,"trial_type":"pit-trial","trial_index":72,"time_elapsed":282501,"internal_node_id":"0.0-72.0"},{"Valence":"Win","Color":"#ffcc3399","Rune":"05","Correct":-1,"Choice":32,"RT":289.8350000032224,"Accuracy":0,"Sham":0,"Outcome":"+1","Keys":[1789.9149999720976],"TotalKeys":1,"Block":1,"Trial":61,"Action":"No-Go","Robot":2,"trial_type":"pit-trial","trial_index":73,"time_elapsed":285294,"internal_node_id":"0.0-73.0"},{"Valence":"Lose","Color":"#3366ff99","Rune":"03","Correct":32,"Choice":32,"RT":472.05000004032627,"Accuracy":1,"Sham":0,"Outcome":"-1","Keys":[1972.669999988284],"TotalKeys":1,"Block":1,"Trial":62,"Action":"Go","Robot":3,"trial_type":"pit-trial","trial_index":74,"time_elapsed":288272,"internal_node_id":"0.0-74.0"},{"Valence":"Lose","Color":"#3366ff99","Rune":"04","Correct":-1,"Choice":-1,"RT":-1,"Accuracy":1,"Sham":0,"Outcome":"-1","Keys":[],"TotalKeys":0,"Block":1,"Trial":63,"Action":"No-Go","Robot":4,"trial_type":"pit-trial","trial_index":75,"time_elapsed":292277,"internal_node_id":"0.0-75.0"},{"Valence":"Win","Color":"#ffcc3399","Rune":"06","Correct":32,"Choice":32,"RT":488.660000031814,"Accuracy":1,"Sham":0,"Outcome":"+10","Keys":[1990.3500000364147],"TotalKeys":1,"Block":1,"Trial":64,"Action":"Go","Robot":1,"trial_type":"pit-trial","trial_index":76,"time_elapsed":295270,"internal_node_id":"0.0-76.0"},{"Valence":"Win","Color":"#ffcc3399","Rune":"05","Correct":-1,"Choice":32,"RT":367.2200000146404,"Accuracy":0,"Sham":0,"Outcome":"+1","Keys":[1867.3849999904633],"TotalKeys":1,"Block":1,"Trial":65,"Action":"No-Go","Robot":2,"trial_type":"pit-trial","trial_index":77,"time_elapsed":298141,"internal_node_id":"0.0-77.0"},{"Valence":"Lose","Color":"#3366ff99","Rune":"04","Correct":-1,"Choice":-1,"RT":-1,"Accuracy":1,"Sham":0,"Outcome":"-1","Keys":[],"TotalKeys":0,"Block":1,"Trial":66,"Action":"No-Go","Robot":4,"trial_type":"pit-trial","trial_index":78,"time_elapsed":302157,"internal_node_id":"0.0-78.0"},{"Valence":"Win","Color":"#ffcc3399","Rune":"06","Correct":32,"Choice":32,"RT":565.2400000253692,"Accuracy":1,"Sham":1,"Outcome":"1","Keys":[2066.9249999918975],"TotalKeys":1,"Block":1,"Trial":67,"Action":"Go","Robot":1,"trial_type":"pit-trial","trial_index":79,"time_elapsed":305230,"internal_node_id":"0.0-79.0"},{"Valence":"Lose","Color":"#3366ff99","Rune":"03","Correct":32,"Choice":32,"RT":879.4449999695644,"Accuracy":1,"Sham":0,"Outcome":"-1","Keys":[2379.895000020042],"TotalKeys":1,"Block":1,"Trial":68,"Action":"Go","Robot":3,"trial_type":"pit-trial","trial_index":80,"time_elapsed":308613,"internal_node_id":"0.0-80.0"},{"Valence":"Lose","Color":"#3366ff99","Rune":"04","Correct":-1,"Choice":-1,"RT":-1,"Accuracy":1,"Sham":1,"Outcome":"-10","Keys":[],"TotalKeys":0,"Block":1,"Trial":69,"Action":"No-Go","Robot":4,"trial_type":"pit-trial","trial_index":81,"time_elapsed":312617,"internal_node_id":"0.0-81.0"},{"Valence":"Lose","Color":"#3366ff99","Rune":"03","Correct":32,"Choice":-1,"RT":-1,"Accuracy":0,"Sham":0,"Outcome":"-10","Keys":[],"TotalKeys":0,"Block":1,"Trial":70,"Action":"Go","Robot":3,"trial_type":"pit-trial","trial_index":82,"time_elapsed":316621,"internal_node_id":"0.0-82.0"},{"Valence":"Win","Color":"#ffcc3399","Rune":"06","Correct":32,"Choice":32,"RT":527.3950000409968,"Accuracy":1,"Sham":0,"Outcome":"+10","Keys":[2029.1549999965355],"TotalKeys":1,"Block":1,"Trial":71,"Action":"Go","Robot":1,"trial_type":"pit-trial","trial_index":83,"time_elapsed":319654,"internal_node_id":"0.0-83.0"},{"Valence":"Win","Color":"#ffcc3399","Rune":"05","Correct":-1,"Choice":32,"RT":126.445000001695,"Accuracy":0,"Sham":0,"Outcome":"+1","Keys":[1627.4850000045262],"TotalKeys":1,"Block":1,"Trial":72,"Action":"No-Go","Robot":2,"trial_type":"pit-trial","trial_index":84,"time_elapsed":322285,"internal_node_id":"0.0-84.0"},{"Valence":"Win","Color":"#ffcc3399","Rune":"05","Correct":-1,"Choice":32,"RT":424.7200000099838,"Accuracy":0,"Sham":0,"Outcome":"+1","Keys":[1925.264999968931],"TotalKeys":1,"Block":1,"Trial":73,"Action":"No-Go","Robot":2,"trial_type":"pit-trial","trial_index":85,"time_elapsed":325213,"internal_node_id":"0.0-85.0"},{"Valence":"Lose","Color":"#3366ff99","Rune":"03","Correct":32,"Choice":32,"RT":448.3000000473112,"Accuracy":1,"Sham":1,"Outcome":"-10","Keys":[1948.8499999861233],"TotalKeys":1,"Block":1,"Trial":74,"Action":"Go","Robot":3,"trial_type":"pit-trial","trial_index":86,"time_elapsed":328165,"internal_node_id":"0.0-86.0"},{"Valence":"Win","Color":"#ffcc3399","Rune":"06","Correct":32,"Choice":32,"RT":551.2049999670126,"Accuracy":1,"Sham":0,"Outcome":"+10","Keys":[2052.670000004582],"TotalKeys":1,"Block":1,"Trial":75,"Action":"Go","Robot":1,"trial_type":"pit-trial","trial_index":87,"time_elapsed":331222,"internal_node_id":"0.0-87.0"},{"Valence":"Lose","Color":"#3366ff99","Rune":"04","Correct":-1,"Choice":-1,"RT":-1,"Accuracy":1,"Sham":0,"Outcome":"-1","Keys":[],"TotalKeys":0,"Block":1,"Trial":76,"Action":"No-Go","Robot":4,"trial_type":"pit-trial","trial_index":88,"time_elapsed":335227,"internal_node_id":"0.0-88.0"},{"Valence":"Win","Color":"#ffcc3399","Rune":"05","Correct":-1,"Choice":32,"RT":400.61499999137595,"Accuracy":0,"Sham":1,"Outcome":"+10","Keys":[1901.9850000040606],"TotalKeys":1,"Block":1,"Trial":77,"Action":"No-Go","Robot":2,"trial_type":"pit-trial","trial_index":89,"time_elapsed":338132,"internal_node_id":"0.0-89.0"},{"Valence":"Win","Color":"#ffcc3399","Rune":"06","Correct":32,"Choice":32,"RT":537.1199999935925,"Accuracy":1,"Sham":0,"Outcome":"+10","Keys":[2037.465000001248],"TotalKeys":1,"Block":1,"Trial":78,"Action":"Go","Robot":1,"trial_type":"pit-trial","trial_index":90,"time_elapsed":341173,"internal_node_id":"0.0-90.0"},{"Valence":"Lose","Color":"#3366ff99","Rune":"04","Correct":-1,"Choice":32,"RT":216.710000007879,"Accuracy":0,"Sham":0,"Outcome":"-10","Keys":[1716.8100000126287],"TotalKeys":1,"Block":1,"Trial":79,"Action":"No-Go","Robot":4,"trial_type":"pit-trial","trial_index":91,"time_elapsed":343893,"internal_node_id":"0.0-91.0"},{"Valence":"Lose","Color":"#3366ff99","Rune":"03","Correct":32,"Choice":32,"RT":392.96999998623505,"Accuracy":1,"Sham":0,"Outcome":"-1","Keys":[1893.5949999722652],"TotalKeys":1,"Block":1,"Trial":80,"Action":"Go","Robot":3,"trial_type":"pit-trial","trial_index":92,"time_elapsed":346928,"internal_node_id":"0.0-92.0"},{"value":false,"trial_type":"call-function","trial_index":93,"time_elapsed":346934,"internal_node_id":"0.0-93.0"},{"RT":3274.8300000093877,"trial_type":"pit-pause","trial_index":94,"time_elapsed":352380,"internal_node_id":"0.0-94.0"},{"Valence":"Win","Color":"#ffcc3399","Rune":"06","Correct":32,"Choice":32,"RT":329.5249999500811,"Accuracy":1,"Sham":0,"Outcome":"+10","Keys":[1830.5050000199117],"TotalKeys":1,"Block":2,"Trial":81,"Action":"Go","Robot":1,"trial_type":"pit-trial","trial_index":95,"time_elapsed":355214,"internal_node_id":"0.0-95.0"},{"Valence":"Win","Color":"#ffcc3399","Rune":"05","Correct":-1,"Choice":32,"RT":550.5450000055134,"Accuracy":0,"Sham":0,"Outcome":"+1","Keys":[2051.630000001751],"TotalKeys":1,"Block":2,"Trial":82,"Action":"No-Go","Robot":2,"trial_type":"pit-trial","trial_index":96,"time_elapsed":358268,"internal_node_id":"0.0-96.0"},{"Valence":"Lose","Color":"#3366ff99","Rune":"04","Correct":-1,"Choice":-1,"RT":-1,"Accuracy":1,"Sham":0,"Outcome":"-1","Keys":[],"TotalKeys":0,"Block":2,"Trial":83,"Action":"No-Go","Robot":4,"trial_type":"pit-trial","trial_index":97,"time_elapsed":362272,"internal_node_id":"0.0-97.0"},{"Valence":"Lose","Color":"#3366ff99","Rune":"03","Correct":32,"Choice":32,"RT":428.8949999609031,"Accuracy":1,"Sham":0,"Outcome":"-1","Keys":[1929.390000004787],"TotalKeys":1,"Block":2,"Trial":84,"Action":"Go","Robot":3,"trial_type":"pit-trial","trial_index":98,"time_elapsed":365204,"internal_node_id":"0.0-98.0"},{"Valence":"Win","Color":"#ffcc3399","Rune":"06","Correct":32,"Choice":32,"RT":305.1349999732338,"Accuracy":1,"Sham":0,"Outcome":"+10","Keys":[1806.0249999980442],"TotalKeys":1,"Block":2,"Trial":85,"Action":"Go","Robot":1,"trial_type":"pit-trial","trial_index":99,"time_elapsed":368013,"internal_node_id":"0.0-99.0"},{"Valence":"Win","Color":"#ffcc3399","Rune":"05","Correct":-1,"Choice":32,"RT":271.70500002102926,"Accuracy":0,"Sham":0,"Outcome":"+1","Keys":[1772.815000033006],"TotalKeys":1,"Block":2,"Trial":86,"Action":"No-Go","Robot":2,"trial_type":"pit-trial","trial_index":100,"time_elapsed":370789,"internal_node_id":"0.0-100.0"},{"Valence":"Lose","Color":"#3366ff99","Rune":"03","Correct":32,"Choice":32,"RT":178.4650000045076,"Accuracy":1,"Sham":0,"Outcome":"-1","Keys":[1683.2799999974668],"TotalKeys":1,"Block":2,"Trial":87,"Action":"Go","Robot":3,"trial_type":"pit-trial","trial_index":101,"time_elapsed":373478,"internal_node_id":"0.0-101.0"},{"Valence":"Lose","Color":"#3366ff99","Rune":"04","Correct":-1,"Choice":32,"RT":351.6749999835156,"Accuracy":0,"Sham":0,"Outcome":"-10","Keys":[1852.8100000112318],"TotalKeys":1,"Block":2,"Trial":88,"Action":"No-Go","Robot":4,"trial_type":"pit-trial","trial_index":102,"time_elapsed":376333,"internal_node_id":"0.0-102.0"},{"Valence":"Lose","Color":"#3366ff99","Rune":"03","Correct":32,"Choice":32,"RT":495.47500000335276,"Accuracy":1,"Sham":1,"Outcome":"-10","Keys":[1996.9249999849126],"TotalKeys":1,"Block":2,"Trial":89,"Action":"Go","Robot":3,"trial_type":"pit-trial","trial_index":103,"time_elapsed":379334,"internal_node_id":"0.0-103.0"},{"Valence":"Win","Color":"#ffcc3399","Rune":"06","Correct":32,"Choice":32,"RT":238.3399999816902,"Accuracy":1,"Sham":1,"Outcome":"1","Keys":[1739.2399999662302],"TotalKeys":1,"Block":2,"Trial":90,"Action":"Go","Robot":1,"trial_type":"pit-trial","trial_index":104,"time_elapsed":382077,"internal_node_id":"0.0-104.0"},{"Valence":"Win","Color":"#ffcc3399","Rune":"05","Correct":-1,"Choice":32,"RT":207.8099999926053,"Accuracy":0,"Sham":0,"Outcome":"+1","Keys":[1709.610000019893],"TotalKeys":1,"Block":2,"Trial":91,"Action":"No-Go","Robot":2,"trial_type":"pit-trial","trial_index":105,"time_elapsed":384789,"internal_node_id":"0.0-105.0"},{"Valence":"Lose","Color":"#3366ff99","Rune":"04","Correct":-1,"Choice":32,"RT":183.86499996995553,"Accuracy":0,"Sham":0,"Outcome":"-10","Keys":[1685.1950000273064],"TotalKeys":1,"Block":2,"Trial":92,"Action":"No-Go","Robot":4,"trial_type":"pit-trial","trial_index":106,"time_elapsed":387478,"internal_node_id":"0.0-106.0"},{"Valence":"Lose","Color":"#3366ff99","Rune":"04","Correct":-1,"Choice":32,"RT":335.09000000776723,"Accuracy":0,"Sham":0,"Outcome":"-10","Keys":[1835.5650000157766],"TotalKeys":1,"Block":2,"Trial":93,"Action":"No-Go","Robot":4,"trial_type":"pit-trial","trial_index":107,"time_elapsed":390317,"internal_node_id":"0.0-107.0"},{"Valence":"Win","Color":"#ffcc3399","Rune":"06","Correct":32,"Choice":32,"RT":456.3550000311807,"Accuracy":1,"Sham":0,"Outcome":"+10","Keys":[1956.4200000022538],"TotalKeys":1,"Block":2,"Trial":94,"Action":"Go","Robot":1,"trial_type":"pit-trial","trial_index":108,"time_elapsed":393276,"internal_node_id":"0.0-108.0"},{"Valence":"Lose","Color":"#3366ff99","Rune":"03","Correct":32,"Choice":32,"RT":392.0849999994971,"Accuracy":1,"Sham":0,"Outcome":"-1","Keys":[1893.0449999752454],"TotalKeys":1,"Block":2,"Trial":95,"Action":"Go","Robot":3,"trial_type":"pit-trial","trial_index":109,"time_elapsed":396173,"internal_node_id":"0.0-109.0"},{"Valence":"Win","Color":"#ffcc3399","Rune":"05","Correct":-1,"Choice":32,"RT":360.930000024382,"Accuracy":0,"Sham":1,"Outcome":"+10","Keys":[1861.4850000012666],"TotalKeys":1,"Block":2,"Trial":96,"Action":"No-Go","Robot":2,"trial_type":"pit-trial","trial_index":110,"time_elapsed":399037,"internal_node_id":"0.0-110.0"},{"Valence":"Lose","Color":"#3366ff99","Rune":"04","Correct":-1,"Choice":32,"RT":415.7400000258349,"Accuracy":0,"Sham":1,"Outcome":"-1","Keys":[1915.964999992866],"TotalKeys":1,"Block":2,"Trial":97,"Action":"No-Go","Robot":4,"trial_type":"pit-trial","trial_index":111,"time_elapsed":401957,"internal_node_id":"0.0-111.0"},{"Valence":"Win","Color":"#ffcc3399","Rune":"06","Correct":32,"Choice":32,"RT":433.2200000062585,"Accuracy":1,"Sham":0,"Outcome":"+10","Keys":[1933.3450000267476],"TotalKeys":1,"Block":2,"Trial":98,"Action":"Go","Robot":1,"trial_type":"pit-trial","trial_index":112,"time_elapsed":404894,"internal_node_id":"0.0-112.0"},{"Valence":"Lose","Color":"#3366ff99","Rune":"03","Correct":32,"Choice":32,"RT":407.210000033956,"Accuracy":1,"Sham":0,"Outcome":"-1","Keys":[1907.5549999834038],"TotalKeys":1,"Block":2,"Trial":99,"Action":"Go","Robot":3,"trial_type":"pit-trial","trial_index":113,"time_elapsed":407805,"internal_node_id":"0.0-113.0"},{"Valence":"Win","Color":"#ffcc3399","Rune":"05","Correct":-1,"Choice":32,"RT":103.0950000276789,"Accuracy":0,"Sham":0,"Outcome":"+1","Keys":[1604.0450000436977],"TotalKeys":1,"Block":2,"Trial":100,"Action":"No-Go","Robot":2,"trial_type":"pit-trial","trial_index":114,"time_elapsed":410413,"internal_node_id":"0.0-114.0"},{"Valence":"Lose","Color":"#3366ff99","Rune":"04","Correct":-1,"Choice":32,"RT":308.2150000263937,"Accuracy":0,"Sham":0,"Outcome":"-10","Keys":[1810.8900000224821],"TotalKeys":1,"Block":2,"Trial":101,"Action":"No-Go","Robot":4,"trial_type":"pit-trial","trial_index":115,"time_elapsed":413229,"internal_node_id":"0.0-115.0"},{"Valence":"Lose","Color":"#3366ff99","Rune":"03","Correct":32,"Choice":32,"RT":479.99500000150874,"Accuracy":1,"Sham":0,"Outcome":"-1","Keys":[1981.40000004787],"TotalKeys":1,"Block":2,"Trial":102,"Action":"Go","Robot":3,"trial_type":"pit-trial","trial_index":116,"time_elapsed":416214,"internal_node_id":"0.0-116.0"},{"Valence":"Win","Color":"#ffcc3399","Rune":"06","Correct":32,"Choice":32,"RT":270.3400000464171,"Accuracy":1,"Sham":1,"Outcome":"1","Keys":[1771.874999976717],"TotalKeys":1,"Block":2,"Trial":103,"Action":"Go","Robot":1,"trial_type":"pit-trial","trial_index":117,"time_elapsed":418988,"internal_node_id":"0.0-117.0"},{"Valence":"Win","Color":"#ffcc3399","Rune":"05","Correct":-1,"Choice":32,"RT":361.71500000637025,"Accuracy":0,"Sham":1,"Outcome":"+10","Keys":[1862.375000026077],"TotalKeys":1,"Block":2,"Trial":104,"Action":"No-Go","Robot":2,"trial_type":"pit-trial","trial_index":118,"time_elapsed":421853,"internal_node_id":"0.0-118.0"},{"Valence":"Lose","Color":"#3366ff99","Rune":"03","Correct":32,"Choice":32,"RT":445.1349999872036,"Accuracy":1,"Sham":0,"Outcome":"-1","Keys":[1948.5500000300817],"TotalKeys":1,"Block":2,"Trial":105,"Action":"Go","Robot":3,"trial_type":"pit-trial","trial_index":119,"time_elapsed":424806,"internal_node_id":"0.0-119.0"},{"Valence":"Win","Color":"#ffcc3399","Rune":"06","Correct":32,"Choice":32,"RT":236.70999996829778,"Accuracy":1,"Sham":0,"Outcome":"+10","Keys":[1737.844999996014],"TotalKeys":1,"Block":2,"Trial":106,"Action":"Go","Robot":1,"trial_type":"pit-trial","trial_index":120,"time_elapsed":427549,"internal_node_id":"0.0-120.0"},{"Valence":"Win","Color":"#ffcc3399","Rune":"05","Correct":-1,"Choice":32,"RT":388.7600000016391,"Accuracy":0,"Sham":0,"Outcome":"+1","Keys":[1890.914999996312],"TotalKeys":1,"Block":2,"Trial":107,"Action":"No-Go","Robot":2,"trial_type":"pit-trial","trial_index":121,"time_elapsed":430444,"internal_node_id":"0.0-121.0"},{"Valence":"Lose","Color":"#3366ff99","Rune":"04","Correct":-1,"Choice":32,"RT":248.56999999610707,"Accuracy":0,"Sham":0,"Outcome":"-10","Keys":[1748.8099999609403],"TotalKeys":1,"Block":2,"Trial":108,"Action":"No-Go","Robot":4,"trial_type":"pit-trial","trial_index":122,"time_elapsed":433196,"internal_node_id":"0.0-122.0"},{"Valence":"Win","Color":"#ffcc3399","Rune":"05","Correct":-1,"Choice":32,"RT":209.60000000195578,"Accuracy":0,"Sham":0,"Outcome":"+1","Keys":[1709.9800000432879],"TotalKeys":1,"Block":2,"Trial":109,"Action":"No-Go","Robot":2,"trial_type":"pit-trial","trial_index":123,"time_elapsed":435910,"internal_node_id":"0.0-123.0"},{"Valence":"Lose","Color":"#3366ff99","Rune":"04","Correct":-1,"Choice":-1,"RT":-1,"Accuracy":1,"Sham":0,"Outcome":"-1","Keys":[],"TotalKeys":0,"Block":2,"Trial":110,"Action":"No-Go","Robot":4,"trial_type":"pit-trial","trial_index":124,"time_elapsed":439916,"internal_node_id":"0.0-124.0"},{"Valence":"Win","Color":"#ffcc3399","Rune":"06","Correct":32,"Choice":32,"RT":119.99000003561378,"Accuracy":1,"Sham":0,"Outcome":"+10","Keys":[1621.6049999929965],"TotalKeys":1,"Block":2,"Trial":111,"Action":"Go","Robot":1,"trial_type":"pit-trial","trial_index":125,"time_elapsed":442541,"internal_node_id":"0.0-125.0"},{"Valence":"Lose","Color":"#3366ff99","Rune":"03","Correct":32,"Choice":32,"RT":519.7000000043772,"Accuracy":1,"Sham":0,"Outcome":"-1","Keys":[2019.994999980554],"TotalKeys":1,"Block":2,"Trial":112,"Action":"Go","Robot":3,"trial_type":"pit-trial","trial_index":126,"time_elapsed":445564,"internal_node_id":"0.0-126.0"},{"Valence":"Win","Color":"#ffcc3399","Rune":"05","Correct":-1,"Choice":32,"RT":287.55000000819564,"Accuracy":0,"Sham":0,"Outcome":"+1","Keys":[1789.4400000222959],"TotalKeys":1,"Block":2,"Trial":113,"Action":"No-Go","Robot":2,"trial_type":"pit-trial","trial_index":127,"time_elapsed":448357,"internal_node_id":"0.0-127.0"},{"Valence":"Lose","Color":"#3366ff99","Rune":"04","Correct":-1,"Choice":-1,"RT":-1,"Accuracy":1,"Sham":0,"Outcome":"-1","Keys":[],"TotalKeys":0,"Block":2,"Trial":114,"Action":"No-Go","Robot":4,"trial_type":"pit-trial","trial_index":128,"time_elapsed":452361,"internal_node_id":"0.0-128.0"},{"Valence":"Lose","Color":"#3366ff99","Rune":"03","Correct":32,"Choice":32,"RT":803.8850000011735,"Accuracy":1,"Sham":1,"Outcome":"-10","Keys":[2304.8500000149943],"TotalKeys":1,"Block":2,"Trial":115,"Action":"Go","Robot":3,"trial_type":"pit-trial","trial_index":129,"time_elapsed":455668,"internal_node_id":"0.0-129.0"},{"Valence":"Win","Color":"#ffcc3399","Rune":"06","Correct":32,"Choice":32,"RT":512.5150000094436,"Accuracy":1,"Sham":0,"Outcome":"+10","Keys":[2013.600000005681],"TotalKeys":1,"Block":2,"Trial":116,"Action":"Go","Robot":1,"trial_type":"pit-trial","trial_index":130,"time_elapsed":458686,"internal_node_id":"0.0-130.0"},{"Valence":"Lose","Color":"#3366ff99","Rune":"04","Correct":-1,"Choice":-1,"RT":-1,"Accuracy":1,"Sham":1,"Outcome":"-10","Keys":[],"TotalKeys":0,"Block":2,"Trial":117,"Action":"No-Go","Robot":4,"trial_type":"pit-trial","trial_index":131,"time_elapsed":462690,"internal_node_id":"0.0-131.0"},{"Valence":"Lose","Color":"#3366ff99","Rune":"03","Correct":32,"Choice":32,"RT":650.179999996908,"Accuracy":1,"Sham":0,"Outcome":"-1","Keys":[2151.624999998603],"TotalKeys":1,"Block":2,"Trial":118,"Action":"Go","Robot":3,"trial_type":"pit-trial","trial_index":132,"time_elapsed":465844,"internal_node_id":"0.0-132.0"},{"Valence":"Win","Color":"#ffcc3399","Rune":"05","Correct":-1,"Choice":32,"RT":447.8649999946356,"Accuracy":0,"Sham":0,"Outcome":"+1","Keys":[1949.2299999692477],"TotalKeys":1,"Block":2,"Trial":119,"Action":"No-Go","Robot":2,"trial_type":"pit-trial","trial_index":133,"time_elapsed":468797,"internal_node_id":"0.0-133.0"},{"Valence":"Win","Color":"#ffcc3399","Rune":"06","Correct":32,"Choice":32,"RT":527.0100000197999,"Accuracy":1,"Sham":0,"Outcome":"+10","Keys":[2027.3349999915808],"TotalKeys":1,"Block":2,"Trial":120,"Action":"Go","Robot":1,"trial_type":"pit-trial","trial_index":134,"time_elapsed":471829,"internal_node_id":"0.0-134.0"},{"Valence":"Win","Color":"#ffcc3399","Rune":"05","Correct":-1,"Choice":32,"RT":389.92500002495944,"Accuracy":0,"Sham":0,"Outcome":"+1","Keys":[1891.0850000102073],"TotalKeys":1,"Block":2,"Trial":121,"Action":"No-Go","Robot":2,"trial_type":"pit-trial","trial_index":135,"time_elapsed":474725,"internal_node_id":"0.0-135.0"},{"Valence":"Lose","Color":"#3366ff99","Rune":"04","Correct":-1,"Choice":32,"RT":584.5899999840185,"Accuracy":0,"Sham":0,"Outcome":"-10","Keys":[2084.8400000249967],"TotalKeys":1,"Block":2,"Trial":122,"Action":"No-Go","Robot":4,"trial_type":"pit-trial","trial_index":136,"time_elapsed":477812,"internal_node_id":"0.0-136.0"},{"Valence":"Lose","Color":"#3366ff99","Rune":"03","Correct":32,"Choice":32,"RT":512.300000002142,"Accuracy":1,"Sham":0,"Outcome":"-1","Keys":[2013.7399999657646],"TotalKeys":1,"Block":2,"Trial":123,"Action":"Go","Robot":3,"trial_type":"pit-trial","trial_index":137,"time_elapsed":480830,"internal_node_id":"0.0-137.0"},{"Valence":"Win","Color":"#ffcc3399","Rune":"06","Correct":32,"Choice":32,"RT":495.02999999094754,"Accuracy":1,"Sham":1,"Outcome":"1","Keys":[1995.6349999993108],"TotalKeys":1,"Block":2,"Trial":124,"Action":"Go","Robot":1,"trial_type":"pit-trial","trial_index":138,"time_elapsed":483829,"internal_node_id":"0.0-138.0"},{"Valence":"Lose","Color":"#3366ff99","Rune":"03","Correct":32,"Choice":32,"RT":446.3450000039302,"Accuracy":1,"Sham":1,"Outcome":"-10","Keys":[1948.9100000355393],"TotalKeys":1,"Block":2,"Trial":125,"Action":"Go","Robot":3,"trial_type":"pit-trial","trial_index":139,"time_elapsed":486781,"internal_node_id":"0.0-139.0"},{"Valence":"Lose","Color":"#3366ff99","Rune":"04","Correct":-1,"Choice":-1,"RT":-1,"Accuracy":1,"Sham":0,"Outcome":"-1","Keys":[],"TotalKeys":0,"Block":2,"Trial":126,"Action":"No-Go","Robot":4,"trial_type":"pit-trial","trial_index":140,"time_elapsed":490785,"internal_node_id":"0.0-140.0"},{"Valence":"Win","Color":"#ffcc3399","Rune":"05","Correct":-1,"Choice":32,"RT":594.4599999929778,"Accuracy":0,"Sham":0,"Outcome":"+1","Keys":[2095.530000049621],"TotalKeys":1,"Block":2,"Trial":127,"Action":"No-Go","Robot":2,"trial_type":"pit-trial","trial_index":141,"time_elapsed":493885,"internal_node_id":"0.0-141.0"},{"Valence":"Win","Color":"#ffcc3399","Rune":"06","Correct":32,"Choice":32,"RT":391.44000003580004,"Accuracy":1,"Sham":0,"Outcome":"+10","Keys":[1891.940000001341],"TotalKeys":1,"Block":2,"Trial":128,"Action":"Go","Robot":1,"trial_type":"pit-trial","trial_index":142,"time_elapsed":496780,"internal_node_id":"0.0-142.0"},{"Valence":"Lose","Color":"#3366ff99","Rune":"04","Correct":-1,"Choice":32,"RT":733.6150000337511,"Accuracy":0,"Sham":0,"Outcome":"-10","Keys":[2235.964999999851],"TotalKeys":1,"Block":2,"Trial":129,"Action":"No-Go","Robot":4,"trial_type":"pit-trial","trial_index":143,"time_elapsed":500020,"internal_node_id":"0.0-143.0"},{"Valence":"Win","Color":"#ffcc3399","Rune":"06","Correct":32,"Choice":32,"RT":312.12499999674037,"Accuracy":1,"Sham":0,"Outcome":"+10","Keys":[1813.1350000039674],"TotalKeys":1,"Block":2,"Trial":130,"Action":"Go","Robot":1,"trial_type":"pit-trial","trial_index":144,"time_elapsed":502837,"internal_node_id":"0.0-144.0"},{"Valence":"Lose","Color":"#3366ff99","Rune":"03","Correct":32,"Choice":32,"RT":408.2199999829754,"Accuracy":1,"Sham":0,"Outcome":"-1","Keys":[1908.6500000557862],"TotalKeys":1,"Block":2,"Trial":131,"Action":"Go","Robot":3,"trial_type":"pit-trial","trial_index":145,"time_elapsed":505750,"internal_node_id":"0.0-145.0"},{"Valence":"Win","Color":"#ffcc3399","Rune":"05","Correct":-1,"Choice":32,"RT":383.24500003363937,"Accuracy":0,"Sham":0,"Outcome":"+1","Keys":[1884.5800000126474],"TotalKeys":1,"Block":2,"Trial":132,"Action":"No-Go","Robot":2,"trial_type":"pit-trial","trial_index":146,"time_elapsed":508638,"internal_node_id":"0.0-146.0"},{"Valence":"Lose","Color":"#3366ff99","Rune":"04","Correct":-1,"Choice":-1,"RT":-1,"Accuracy":1,"Sham":0,"Outcome":"-1","Keys":[],"TotalKeys":0,"Block":2,"Trial":133,"Action":"No-Go","Robot":4,"trial_type":"pit-trial","trial_index":147,"time_elapsed":512642,"internal_node_id":"0.0-147.0"},{"Valence":"Win","Color":"#ffcc3399","Rune":"06","Correct":32,"Choice":32,"RT":282.805000024382,"Accuracy":1,"Sham":0,"Outcome":"+10","Keys":[1783.69000001112],"TotalKeys":1,"Block":2,"Trial":134,"Action":"Go","Robot":1,"trial_type":"pit-trial","trial_index":148,"time_elapsed":515429,"internal_node_id":"0.0-148.0"},{"Valence":"Lose","Color":"#3366ff99","Rune":"03","Correct":32,"Choice":32,"RT":377.08999996539205,"Accuracy":1,"Sham":0,"Outcome":"-1","Keys":[1877.1249999990687],"TotalKeys":1,"Block":2,"Trial":135,"Action":"Go","Robot":3,"trial_type":"pit-trial","trial_index":149,"time_elapsed":518309,"internal_node_id":"0.0-149.0"},{"Valence":"Win","Color":"#ffcc3399","Rune":"05","Correct":-1,"Choice":32,"RT":258.26500001130626,"Accuracy":0,"Sham":0,"Outcome":"+1","Keys":[1758.9099999750033],"TotalKeys":1,"Block":2,"Trial":136,"Action":"No-Go","Robot":2,"trial_type":"pit-trial","trial_index":150,"time_elapsed":521154,"internal_node_id":"0.0-150.0"},{"Valence":"Lose","Color":"#3366ff99","Rune":"04","Correct":-1,"Choice":-1,"RT":-1,"Accuracy":1,"Sham":1,"Outcome":"-10","Keys":[],"TotalKeys":0,"Block":2,"Trial":137,"Action":"No-Go","Robot":4,"trial_type":"pit-trial","trial_index":151,"time_elapsed":525263,"internal_node_id":"0.0-151.0"},{"Valence":"Win","Color":"#ffcc3399","Rune":"06","Correct":32,"Choice":32,"RT":350.36500002024695,"Accuracy":1,"Sham":0,"Outcome":"+10","Keys":[1850.6150000030175],"TotalKeys":1,"Block":2,"Trial":138,"Action":"Go","Robot":1,"trial_type":"pit-trial","trial_index":152,"time_elapsed":528117,"internal_node_id":"0.0-152.0"},{"Valence":"Lose","Color":"#3366ff99","Rune":"03","Correct":32,"Choice":32,"RT":504.1300000157207,"Accuracy":1,"Sham":0,"Outcome":"-1","Keys":[2004.285000031814],"TotalKeys":1,"Block":2,"Trial":139,"Action":"Go","Robot":3,"trial_type":"pit-trial","trial_index":153,"time_elapsed":531127,"internal_node_id":"0.0-153.0"},{"Valence":"Win","Color":"#ffcc3399","Rune":"05","Correct":-1,"Choice":32,"RT":325.2150000189431,"Accuracy":0,"Sham":1,"Outcome":"+10","Keys":[1825.864999962505],"TotalKeys":1,"Block":2,"Trial":140,"Action":"No-Go","Robot":2,"trial_type":"pit-trial","trial_index":154,"time_elapsed":533956,"internal_node_id":"0.0-154.0"},{"Valence":"Win","Color":"#ffcc3399","Rune":"05","Correct":-1,"Choice":32,"RT":320.4900000127964,"Accuracy":0,"Sham":1,"Outcome":"+10","Keys":[1821.89500000095],"TotalKeys":1,"Block":2,"Trial":141,"Action":"No-Go","Robot":2,"trial_type":"pit-trial","trial_index":155,"time_elapsed":536781,"internal_node_id":"0.0-155.0"},{"Valence":"Lose","Color":"#3366ff99","Rune":"03","Correct":32,"Choice":32,"RT":284.84999999636784,"Accuracy":1,"Sham":0,"Outcome":"-1","Keys":[1787.5549999880604],"TotalKeys":1,"Block":2,"Trial":142,"Action":"Go","Robot":3,"trial_type":"pit-trial","trial_index":156,"time_elapsed":539572,"internal_node_id":"0.0-156.0"},{"Valence":"Win","Color":"#ffcc3399","Rune":"06","Correct":32,"Choice":32,"RT":328.7000000127591,"Accuracy":1,"Sham":0,"Outcome":"+10","Keys":[1829.0949999936856],"TotalKeys":1,"Block":2,"Trial":143,"Action":"Go","Robot":1,"trial_type":"pit-trial","trial_index":157,"time_elapsed":542407,"internal_node_id":"0.0-157.0"},{"Valence":"Lose","Color":"#3366ff99","Rune":"04","Correct":-1,"Choice":32,"RT":263.09999998193234,"Accuracy":0,"Sham":0,"Outcome":"-10","Keys":[1763.2650000159629],"TotalKeys":1,"Block":2,"Trial":144,"Action":"No-Go","Robot":4,"trial_type":"pit-trial","trial_index":158,"time_elapsed":545173,"internal_node_id":"0.0-158.0"},{"Valence":"Lose","Color":"#3366ff99","Rune":"04","Correct":-1,"Choice":-1,"RT":-1,"Accuracy":1,"Sham":0,"Outcome":"-1","Keys":[],"TotalKeys":0,"Block":2,"Trial":145,"Action":"No-Go","Robot":4,"trial_type":"pit-trial","trial_index":159,"time_elapsed":549185,"internal_node_id":"0.0-159.0"},{"Valence":"Win","Color":"#ffcc3399","Rune":"06","Correct":32,"Choice":32,"RT":195.61500003328547,"Accuracy":1,"Sham":0,"Outcome":"+10","Keys":[1695.9049999713898],"TotalKeys":1,"Block":2,"Trial":146,"Action":"Go","Robot":1,"trial_type":"pit-trial","trial_index":160,"time_elapsed":551884,"internal_node_id":"0.0-160.0"},{"Valence":"Lose","Color":"#3366ff99","Rune":"03","Correct":32,"Choice":32,"RT":408.25999999651685,"Accuracy":1,"Sham":0,"Outcome":"-1","Keys":[1908.7550000404008],"TotalKeys":1,"Block":2,"Trial":147,"Action":"Go","Robot":3,"trial_type":"pit-trial","trial_index":161,"time_elapsed":554796,"internal_node_id":"0.0-161.0"},{"Valence":"Win","Color":"#ffcc3399","Rune":"05","Correct":-1,"Choice":32,"RT":311.41999998362735,"Accuracy":0,"Sham":0,"Outcome":"+1","Keys":[1813.4050000226125],"TotalKeys":1,"Block":2,"Trial":148,"Action":"No-Go","Robot":2,"trial_type":"pit-trial","trial_index":162,"time_elapsed":557613,"internal_node_id":"0.0-162.0"},{"Valence":"Win","Color":"#ffcc3399","Rune":"05","Correct":-1,"Choice":32,"RT":334.62999999755993,"Accuracy":0,"Sham":0,"Outcome":"+1","Keys":[1836.42999996664],"TotalKeys":1,"Block":2,"Trial":149,"Action":"No-Go","Robot":2,"trial_type":"pit-trial","trial_index":163,"time_elapsed":560452,"internal_node_id":"0.0-163.0"},{"Valence":"Lose","Color":"#3366ff99","Rune":"04","Correct":-1,"Choice":-1,"RT":-1,"Accuracy":1,"Sham":0,"Outcome":"-1","Keys":[],"TotalKeys":0,"Block":2,"Trial":150,"Action":"No-Go","Robot":4,"trial_type":"pit-trial","trial_index":164,"time_elapsed":564456,"internal_node_id":"0.0-164.0"},{"Valence":"Lose","Color":"#3366ff99","Rune":"03","Correct":32,"Choice":32,"RT":292.3750000190921,"Accuracy":1,"Sham":0,"Outcome":"-1","Keys":[1793.695000000298],"TotalKeys":1,"Block":2,"Trial":151,"Action":"Go","Robot":3,"trial_type":"pit-trial","trial_index":165,"time_elapsed":567252,"internal_node_id":"0.0-165.0"},{"Valence":"Win","Color":"#ffcc3399","Rune":"06","Correct":32,"Choice":32,"RT":416.8150000041351,"Accuracy":1,"Sham":0,"Outcome":"+10","Keys":[1917.8650000249036],"TotalKeys":1,"Block":2,"Trial":152,"Action":"Go","Robot":1,"trial_type":"pit-trial","trial_index":166,"time_elapsed":570172,"internal_node_id":"0.0-166.0"},{"Valence":"Win","Color":"#ffcc3399","Rune":"06","Correct":32,"Choice":32,"RT":320.82000002264977,"Accuracy":1,"Sham":0,"Outcome":"+10","Keys":[1820.914999989327],"TotalKeys":1,"Block":2,"Trial":153,"Action":"Go","Robot":1,"trial_type":"pit-trial","trial_index":167,"time_elapsed":572996,"internal_node_id":"0.0-167.0"},{"Valence":"Lose","Color":"#3366ff99","Rune":"04","Correct":-1,"Choice":-1,"RT":-1,"Accuracy":1,"Sham":0,"Outcome":"-1","Keys":[],"TotalKeys":0,"Block":2,"Trial":154,"Action":"No-Go","Robot":4,"trial_type":"pit-trial","trial_index":168,"time_elapsed":576999,"internal_node_id":"0.0-168.0"},{"Valence":"Lose","Color":"#3366ff99","Rune":"03","Correct":32,"Choice":32,"RT":747.9349999921396,"Accuracy":1,"Sham":0,"Outcome":"-1","Keys":[2249.840000004042],"TotalKeys":1,"Block":2,"Trial":155,"Action":"Go","Robot":3,"trial_type":"pit-trial","trial_index":169,"time_elapsed":580252,"internal_node_id":"0.0-169.0"},{"Valence":"Win","Color":"#ffcc3399","Rune":"05","Correct":-1,"Choice":32,"RT":376.8399999826215,"Accuracy":0,"Sham":0,"Outcome":"+1","Keys":[1877.2100000060163],"TotalKeys":1,"Block":2,"Trial":156,"Action":"No-Go","Robot":2,"trial_type":"pit-trial","trial_index":170,"time_elapsed":583132,"internal_node_id":"0.0-170.0"},{"Valence":"Lose","Color":"#3366ff99","Rune":"03","Correct":32,"Choice":32,"RT":855.4599999915808,"Accuracy":1,"Sham":1,"Outcome":"-10","Keys":[2356.115000031423],"TotalKeys":1,"Block":2,"Trial":157,"Action":"Go","Robot":3,"trial_type":"pit-trial","trial_index":171,"time_elapsed":586491,"internal_node_id":"0.0-171.0"},{"Valence":"Lose","Color":"#3366ff99","Rune":"04","Correct":-1,"Choice":-1,"RT":-1,"Accuracy":1,"Sham":1,"Outcome":"-10","Keys":[],"TotalKeys":0,"Block":2,"Trial":158,"Action":"No-Go","Robot":4,"trial_type":"pit-trial","trial_index":172,"time_elapsed":590495,"internal_node_id":"0.0-172.0"},{"Valence":"Win","Color":"#ffcc3399","Rune":"05","Correct":-1,"Choice":32,"RT":484.6499999985099,"Accuracy":0,"Sham":0,"Outcome":"+1","Keys":[1985.355000011623],"TotalKeys":1,"Block":2,"Trial":159,"Action":"No-Go","Robot":2,"trial_type":"pit-trial","trial_index":173,"time_elapsed":593484,"internal_node_id":"0.0-173.0"},{"Valence":"Win","Color":"#ffcc3399","Rune":"06","Correct":32,"Choice":32,"RT":982.5050000217743,"Accuracy":1,"Sham":1,"Outcome":"1","Keys":[2484.340000024531],"TotalKeys":1,"Block":2,"Trial":160,"Action":"Go","Robot":1,"trial_type":"pit-trial","trial_index":174,"time_elapsed":596972,"internal_node_id":"0.0-174.0"},{"rt":11095.100000035018,"demographics":{"age":"25","gender-categorical":"Female","ethnicity":"Not Hispanic or Latino","race":"White","english":"Yes","fluency":"Very well"},"trial_type":"survey-demo","trial_index":175,"time_elapsed":608070,"internal_node_id":"0.0-175.0"},{"rt":16119.825000001583,"debriefgraphics":{"difficulty":"5","fun":"5","clarity":"5","strategy":"no, just memory and logic","feedback":"No other comments"},"trial_type":"survey-debrief","trial_index":176,"time_elapsed":624194,"internal_node_id":"0.0-176.0","interactions":"[{\"event\":\"blur\",\"trial\":82,\"time\":312802},{\"event\":\"focus\",\"trial\":83,\"time\":318109},{\"event\":\"blur\",\"trial\":92,\"time\":346357},{\"event\":\"focus\",\"trial\":94,\"time\":347659},{\"event\":\"blur\",\"trial\":150,\"time\":520484},{\"event\":\"focus\",\"trial\":151,\"time\":521160},{\"event\":\"blur\",\"trial\":151,\"time\":524208},{\"event\":\"focus\",\"trial\":152,\"time\":525267}]"}]