[{"view_history":"[{\"page_index\":0,\"viewing_time\":1935.50999998115},{\"page_index\":1,\"viewing_time\":4943.250000011176},{\"page_index\":2,\"viewing_time\":6472.520000068471},{\"page_index\":3,\"viewing_time\":2983.3450000733137},{\"page_index\":4,\"viewing_time\":4207.914999919012}]","rt":20543.810000177473,"trial_type":"pit-instructions","trial_index":0,"time_elapsed":20546,"internal_node_id":"0.0-0.0"},{"Rune":"01","Correct":32,"Choice":32,"RT":837.8900000825524,"Accuracy":1,"Sham":0,"Outcome":"+10","Keys":[2337.834999896586],"TotalKeys":1,"trial_type":"pit-trial","trial_index":1,"time_elapsed":23891,"internal_node_id":"0.0-1.0"},{"Rune":"01","Correct":32,"Choice":32,"RT":442.6349999848753,"Accuracy":1,"Sham":0,"Outcome":"+10","Keys":[1944.1500001121312],"TotalKeys":1,"trial_type":"pit-trial","trial_index":2,"time_elapsed":26841,"internal_node_id":"0.0-2.0"},{"Rune":"01","Correct":32,"Choice":32,"RT":371.15499982610345,"Accuracy":1,"Sham":0,"Outcome":"+10","Keys":[1871.6299999505281],"TotalKeys":1,"trial_type":"pit-trial","trial_index":3,"time_elapsed":29721,"internal_node_id":"0.0-3.0"},{"Rune":"01","Correct":32,"Choice":32,"RT":449.9250000808388,"Accuracy":1,"Sham":0,"Outcome":"+10","Keys":[1951.5299999620765],"TotalKeys":1,"trial_type":"pit-trial","trial_index":4,"time_elapsed":32681,"internal_node_id":"0.0-4.0"},{"view_history":"[{\"page_index\":0,\"viewing_time\":6004.61499998346}]","rt":6005.129999946803,"trial_type":"pit-instructions","trial_index":5,"time_elapsed":38689,"internal_node_id":"0.0-5.0"},{"Rune":"02","Correct":-1,"Choice":-1,"RT":-1,"Accuracy":1,"Sham":0,"Outcome":"+10","Keys":[],"TotalKeys":0,"trial_type":"pit-trial","trial_index":6,"time_elapsed":42696,"internal_node_id":"0.0-6.0"},{"Rune":"02","Correct":-1,"Choice":-1,"RT":-1,"Accuracy":1,"Sham":0,"Outcome":"+10","Keys":[],"TotalKeys":0,"trial_type":"pit-trial","trial_index":7,"time_elapsed":46704,"internal_node_id":"0.0-7.0"},{"Rune":"02","Correct":-1,"Choice":-1,"RT":-1,"Accuracy":1,"Sham":0,"Outcome":"+10","Keys":[],"TotalKeys":0,"trial_type":"pit-trial","trial_index":8,"time_elapsed":50715,"internal_node_id":"0.0-8.0"},{"Rune":"02","Correct":-1,"Choice":-1,"RT":-1,"Accuracy":1,"Sham":0,"Outcome":"+10","Keys":[],"TotalKeys":0,"trial_type":"pit-trial","trial_index":9,"time_elapsed":54726,"internal_node_id":"0.0-9.0"},{"view_history":"[{\"page_index\":0,\"viewing_time\":3575.2149999607354},{\"page_index\":1,\"viewing_time\":10152.215000009164},{\"page_index\":2,\"viewing_time\":15207.44499983266},{\"page_index\":3,\"viewing_time\":4944.185000145808},{\"page_index\":4,\"viewing_time\":3992.189999902621},{\"page_index\":5,\"viewing_time\":5583.430000115186},{\"page_index\":6,\"viewing_time\":4207.775000017136},{\"page_index\":7,\"viewing_time\":2271.9900000374764}]","rt":49934.949999907985,"trial_type":"pit-instructions","trial_index":10,"time_elapsed":104664,"internal_node_id":"0.0-10.0"},{"rt":26308.87999990955,"responses":"{\"no-press\":\"Do nothing\",\"context-win\":\"+10\",\"context-lose\":\"+0\",\"feedback\":\"True\"}","errors":0,"trial_type":"pit-comprehension","trial_index":11,"time_elapsed":130979,"internal_node_id":"0.0-11.0"},{"view_history":"[{\"page_index\":0,\"viewing_time\":2488.374999957159}]","rt":2488.850000081584,"trial_type":"pit-instructions","trial_index":12,"time_elapsed":133472,"internal_node_id":"0.0-12.0"},{"Rune":"04","Correct":-1,"Choice":32,"RT":781.6800000146031,"Accuracy":0,"Sham":0,"Outcome":"+0","Keys":[2282.104999991134],"TotalKeys":1,"Block":1,"Trial":1,"Valence":"Win","Action":"No-Go","Robot":2,"trial_type":"pit-trial","trial_index":13,"time_elapsed":136760,"internal_node_id":"0.0-13.0"},{"Rune":"06","Correct":32,"Choice":-1,"RT":-1,"Accuracy":0,"Sham":0,"Outcome":"-10","Keys":[],"TotalKeys":0,"Block":1,"Trial":2,"Valence":"Lose","Action":"Go","Robot":3,"trial_type":"pit-trial","trial_index":14,"time_elapsed":140770,"internal_node_id":"0.0-14.0"},{"Rune":"05","Correct":-1,"Choice":-1,"RT":-1,"Accuracy":1,"Sham":0,"Outcome":"+0","Keys":[],"TotalKeys":0,"Block":1,"Trial":3,"Valence":"Lose","Action":"No-Go","Robot":4,"trial_type":"pit-trial","trial_index":15,"time_elapsed":144789,"internal_node_id":"0.0-15.0"},{"Rune":"03","Correct":32,"Choice":32,"RT":540.9949999302626,"Accuracy":1,"Sham":0,"Outcome":"+10","Keys":[2041.8199999257922],"TotalKeys":1,"Block":1,"Trial":4,"Valence":"Win","Action":"Go","Robot":1,"trial_type":"pit-trial","trial_index":16,"time_elapsed":147843,"internal_node_id":"0.0-16.0"},{"Rune":"06","Correct":32,"Choice":-1,"RT":-1,"Accuracy":0,"Sham":1,"Outcome":"+0","Keys":[],"TotalKeys":0,"Block":1,"Trial":5,"Valence":"Lose","Action":"Go","Robot":3,"trial_type":"pit-trial","trial_index":17,"time_elapsed":151852,"internal_node_id":"0.0-17.0"},{"Rune":"05","Correct":-1,"Choice":-1,"RT":-1,"Accuracy":1,"Sham":0,"Outcome":"+0","Keys":[],"TotalKeys":0,"Block":1,"Trial":6,"Valence":"Lose","Action":"No-Go","Robot":4,"trial_type":"pit-trial","trial_index":18,"time_elapsed":155862,"internal_node_id":"0.0-18.0"},{"Rune":"03","Correct":32,"Choice":32,"RT":640.1599999517202,"Accuracy":1,"Sham":0,"Outcome":"+10","Keys":[2141.044999938458],"TotalKeys":1,"Block":1,"Trial":7,"Valence":"Win","Action":"Go","Robot":1,"trial_type":"pit-trial","trial_index":19,"time_elapsed":159012,"internal_node_id":"0.0-19.0"},{"Rune":"04","Correct":-1,"Choice":32,"RT":524.8450001236051,"Accuracy":0,"Sham":0,"Outcome":"+0","Keys":[2025.764999911189],"TotalKeys":1,"Block":1,"Trial":8,"Valence":"Win","Action":"No-Go","Robot":2,"trial_type":"pit-trial","trial_index":20,"time_elapsed":162045,"internal_node_id":"0.0-20.0"},{"Rune":"03","Correct":32,"Choice":32,"RT":445.2949999831617,"Accuracy":1,"Sham":0,"Outcome":"+10","Keys":[1945.3500001691282],"TotalKeys":1,"Block":1,"Trial":9,"Valence":"Win","Action":"Go","Robot":1,"trial_type":"pit-trial","trial_index":21,"time_elapsed":164997,"internal_node_id":"0.0-21.0"},{"Rune":"06","Correct":32,"Choice":-1,"RT":-1,"Accuracy":0,"Sham":0,"Outcome":"-10","Keys":[],"TotalKeys":0,"Block":1,"Trial":10,"Valence":"Lose","Action":"Go","Robot":3,"trial_type":"pit-trial","trial_index":22,"time_elapsed":169006,"internal_node_id":"0.0-22.0"},{"Rune":"04","Correct":-1,"Choice":32,"RT":441.33999990299344,"Accuracy":0,"Sham":0,"Outcome":"+0","Keys":[1941.639999859035],"TotalKeys":1,"Block":1,"Trial":11,"Valence":"Win","Action":"No-Go","Robot":2,"trial_type":"pit-trial","trial_index":23,"time_elapsed":171956,"internal_node_id":"0.0-23.0"},{"Rune":"05","Correct":-1,"Choice":-1,"RT":-1,"Accuracy":1,"Sham":0,"Outcome":"+0","Keys":[],"TotalKeys":0,"Block":1,"Trial":12,"Valence":"Lose","Action":"No-Go","Robot":4,"trial_type":"pit-trial","trial_index":24,"time_elapsed":175965,"internal_node_id":"0.0-24.0"},{"Rune":"03","Correct":32,"Choice":32,"RT":414.57999986596406,"Accuracy":1,"Sham":0,"Outcome":"+10","Keys":[1915.5299998819828],"TotalKeys":1,"Block":1,"Trial":13,"Valence":"Win","Action":"Go","Robot":1,"trial_type":"pit-trial","trial_index":25,"time_elapsed":178889,"internal_node_id":"0.0-25.0"},{"Rune":"04","Correct":-1,"Choice":32,"RT":490.99499988369644,"Accuracy":0,"Sham":0,"Outcome":"+0","Keys":[1991.8450000695884],"TotalKeys":1,"Block":1,"Trial":14,"Valence":"Win","Action":"No-Go","Robot":2,"trial_type":"pit-trial","trial_index":26,"time_elapsed":181890,"internal_node_id":"0.0-26.0"},{"Rune":"06","Correct":32,"Choice":32,"RT":1290.0600000284612,"Accuracy":1,"Sham":0,"Outcome":"+0","Keys":[2790.4150001704693],"TotalKeys":1,"Block":1,"Trial":15,"Valence":"Lose","Action":"Go","Robot":3,"trial_type":"pit-trial","trial_index":27,"time_elapsed":185688,"internal_node_id":"0.0-27.0"},{"Rune":"05","Correct":-1,"Choice":-1,"RT":-1,"Accuracy":1,"Sham":1,"Outcome":"-10","Keys":[],"TotalKeys":0,"Block":1,"Trial":16,"Valence":"Lose","Action":"No-Go","Robot":4,"trial_type":"pit-trial","trial_index":28,"time_elapsed":189697,"internal_node_id":"0.0-28.0"},{"Rune":"03","Correct":32,"Choice":32,"RT":435.27500005438924,"Accuracy":1,"Sham":1,"Outcome":"+0","Keys":[1935.6400000397116],"TotalKeys":1,"Block":1,"Trial":17,"Valence":"Win","Action":"Go","Robot":1,"trial_type":"pit-trial","trial_index":29,"time_elapsed":192640,"internal_node_id":"0.0-29.0"},{"Rune":"06","Correct":32,"Choice":-1,"RT":-1,"Accuracy":0,"Sham":0,"Outcome":"-10","Keys":[],"TotalKeys":0,"Block":1,"Trial":18,"Valence":"Lose","Action":"Go","Robot":3,"trial_type":"pit-trial","trial_index":30,"time_elapsed":196650,"internal_node_id":"0.0-30.0"},{"Rune":"04","Correct":-1,"Choice":32,"RT":405.4300000425428,"Accuracy":0,"Sham":1,"Outcome":"+10","Keys":[1906.070000026375],"TotalKeys":1,"Block":1,"Trial":19,"Valence":"Win","Action":"No-Go","Robot":2,"trial_type":"pit-trial","trial_index":31,"time_elapsed":199563,"internal_node_id":"0.0-31.0"},{"Rune":"05","Correct":-1,"Choice":32,"RT":725.4600001033396,"Accuracy":0,"Sham":0,"Outcome":"-10","Keys":[2225.7450001779944],"TotalKeys":1,"Block":1,"Trial":20,"Valence":"Lose","Action":"No-Go","Robot":4,"trial_type":"pit-trial","trial_index":32,"time_elapsed":202798,"internal_node_id":"0.0-32.0"},{"Rune":"05","Correct":-1,"Choice":-1,"RT":-1,"Accuracy":1,"Sham":0,"Outcome":"+0","Keys":[],"TotalKeys":0,"Block":1,"Trial":21,"Valence":"Lose","Action":"No-Go","Robot":4,"trial_type":"pit-trial","trial_index":33,"time_elapsed":206811,"internal_node_id":"0.0-33.0"},{"Rune":"04","Correct":-1,"Choice":32,"RT":416.7599999345839,"Accuracy":0,"Sham":0,"Outcome":"+0","Keys":[1916.9050001073629],"TotalKeys":1,"Block":1,"Trial":22,"Valence":"Win","Action":"No-Go","Robot":2,"trial_type":"pit-trial","trial_index":34,"time_elapsed":209736,"internal_node_id":"0.0-34.0"},{"Rune":"03","Correct":32,"Choice":32,"RT":597.5099999923259,"Accuracy":1,"Sham":0,"Outcome":"+10","Keys":[2097.6500001270324],"TotalKeys":1,"Block":1,"Trial":23,"Valence":"Win","Action":"Go","Robot":1,"trial_type":"pit-trial","trial_index":35,"time_elapsed":212841,"internal_node_id":"0.0-35.0"},{"Rune":"06","Correct":32,"Choice":-1,"RT":-1,"Accuracy":0,"Sham":0,"Outcome":"-10","Keys":[],"TotalKeys":0,"Block":1,"Trial":24,"Valence":"Lose","Action":"Go","Robot":3,"trial_type":"pit-trial","trial_index":36,"time_elapsed":216850,"internal_node_id":"0.0-36.0"},{"Rune":"05","Correct":-1,"Choice":-1,"RT":-1,"Accuracy":1,"Sham":0,"Outcome":"+0","Keys":[],"TotalKeys":0,"Block":1,"Trial":25,"Valence":"Lose","Action":"No-Go","Robot":4,"trial_type":"pit-trial","trial_index":37,"time_elapsed":220858,"internal_node_id":"0.0-37.0"},{"Rune":"03","Correct":32,"Choice":32,"RT":380.27000008150935,"Accuracy":1,"Sham":0,"Outcome":"+10","Keys":[1880.7350001297891],"TotalKeys":1,"Block":1,"Trial":26,"Valence":"Win","Action":"Go","Robot":1,"trial_type":"pit-trial","trial_index":38,"time_elapsed":223745,"internal_node_id":"0.0-38.0"},{"Rune":"06","Correct":32,"Choice":-1,"RT":-1,"Accuracy":0,"Sham":0,"Outcome":"-10","Keys":[],"TotalKeys":0,"Block":1,"Trial":27,"Valence":"Lose","Action":"Go","Robot":3,"trial_type":"pit-trial","trial_index":39,"time_elapsed":227752,"internal_node_id":"0.0-39.0"},{"Rune":"04","Correct":-1,"Choice":32,"RT":423.05000009946525,"Accuracy":0,"Sham":0,"Outcome":"+0","Keys":[1924.739999929443],"TotalKeys":1,"Block":1,"Trial":28,"Valence":"Win","Action":"No-Go","Robot":2,"trial_type":"pit-trial","trial_index":40,"time_elapsed":230685,"internal_node_id":"0.0-40.0"},{"Rune":"06","Correct":32,"Choice":32,"RT":430.42000010609627,"Accuracy":1,"Sham":0,"Outcome":"+0","Keys":[1930.519999936223],"TotalKeys":1,"Block":1,"Trial":29,"Valence":"Lose","Action":"Go","Robot":3,"trial_type":"pit-trial","trial_index":41,"time_elapsed":233624,"internal_node_id":"0.0-41.0"},{"Rune":"04","Correct":-1,"Choice":32,"RT":418.7849999871105,"Accuracy":0,"Sham":1,"Outcome":"+10","Keys":[1920.719999819994],"TotalKeys":1,"Block":1,"Trial":30,"Valence":"Win","Action":"No-Go","Robot":2,"trial_type":"pit-trial","trial_index":42,"time_elapsed":236553,"internal_node_id":"0.0-42.0"},{"Rune":"03","Correct":32,"Choice":32,"RT":481.39999993145466,"Accuracy":1,"Sham":1,"Outcome":"+0","Keys":[1981.6700001247227],"TotalKeys":1,"Block":1,"Trial":31,"Valence":"Win","Action":"Go","Robot":1,"trial_type":"pit-trial","trial_index":43,"time_elapsed":239543,"internal_node_id":"0.0-43.0"},{"Rune":"05","Correct":-1,"Choice":-1,"RT":-1,"Accuracy":1,"Sham":0,"Outcome":"+0","Keys":[],"TotalKeys":0,"Block":1,"Trial":32,"Valence":"Lose","Action":"No-Go","Robot":4,"trial_type":"pit-trial","trial_index":44,"time_elapsed":243551,"internal_node_id":"0.0-44.0"},{"Rune":"05","Correct":-1,"Choice":-1,"RT":-1,"Accuracy":1,"Sham":0,"Outcome":"+0","Keys":[],"TotalKeys":0,"Block":1,"Trial":33,"Valence":"Lose","Action":"No-Go","Robot":4,"trial_type":"pit-trial","trial_index":45,"time_elapsed":247558,"internal_node_id":"0.0-45.0"},{"Rune":"04","Correct":-1,"Choice":32,"RT":520.0000000186265,"Accuracy":0,"Sham":0,"Outcome":"+0","Keys":[2021.924999775365],"TotalKeys":1,"Block":1,"Trial":34,"Valence":"Win","Action":"No-Go","Robot":2,"trial_type":"pit-trial","trial_index":46,"time_elapsed":250588,"internal_node_id":"0.0-46.0"},{"Rune":"03","Correct":32,"Choice":32,"RT":505.63000002875924,"Accuracy":1,"Sham":0,"Outcome":"+10","Keys":[2006.3300000037998],"TotalKeys":1,"Block":1,"Trial":35,"Valence":"Win","Action":"Go","Robot":1,"trial_type":"pit-trial","trial_index":47,"time_elapsed":253601,"internal_node_id":"0.0-47.0"},{"Rune":"06","Correct":32,"Choice":32,"RT":741.9600000139326,"Accuracy":1,"Sham":1,"Outcome":"-10","Keys":[2242.5800000783056],"TotalKeys":1,"Block":1,"Trial":36,"Valence":"Lose","Action":"Go","Robot":3,"trial_type":"pit-trial","trial_index":48,"time_elapsed":256849,"internal_node_id":"0.0-48.0"},{"Rune":"05","Correct":-1,"Choice":-1,"RT":-1,"Accuracy":1,"Sham":1,"Outcome":"-10","Keys":[],"TotalKeys":0,"Block":1,"Trial":37,"Valence":"Lose","Action":"No-Go","Robot":4,"trial_type":"pit-trial","trial_index":49,"time_elapsed":260856,"internal_node_id":"0.0-49.0"},{"Rune":"06","Correct":32,"Choice":32,"RT":738.795000128448,"Accuracy":1,"Sham":0,"Outcome":"+0","Keys":[2239.015000173822],"TotalKeys":1,"Block":1,"Trial":38,"Valence":"Lose","Action":"Go","Robot":3,"trial_type":"pit-trial","trial_index":50,"time_elapsed":264103,"internal_node_id":"0.0-50.0"},{"Rune":"03","Correct":32,"Choice":32,"RT":419.9399999342859,"Accuracy":1,"Sham":0,"Outcome":"+10","Keys":[1920.4850001260638],"TotalKeys":1,"Block":1,"Trial":39,"Valence":"Win","Action":"Go","Robot":1,"trial_type":"pit-trial","trial_index":51,"time_elapsed":267032,"internal_node_id":"0.0-51.0"},{"Rune":"04","Correct":-1,"Choice":32,"RT":465.6849999446422,"Accuracy":0,"Sham":0,"Outcome":"+0","Keys":[1966.2250000983477],"TotalKeys":1,"Block":1,"Trial":40,"Valence":"Win","Action":"No-Go","Robot":2,"trial_type":"pit-trial","trial_index":52,"time_elapsed":270008,"internal_node_id":"0.0-52.0"},{"Rune":"06","Correct":32,"Choice":32,"RT":867.3949998337775,"Accuracy":1,"Sham":1,"Outcome":"-10","Keys":[2367.880000034347],"TotalKeys":1,"Block":1,"Trial":41,"Valence":"Lose","Action":"Go","Robot":3,"trial_type":"pit-trial","trial_index":53,"time_elapsed":273384,"internal_node_id":"0.0-53.0"},{"Rune":"04","Correct":-1,"Choice":32,"RT":441.7950001079589,"Accuracy":0,"Sham":0,"Outcome":"+0","Keys":[1942.6299999468029],"TotalKeys":1,"Block":1,"Trial":42,"Valence":"Win","Action":"No-Go","Robot":2,"trial_type":"pit-trial","trial_index":54,"time_elapsed":276334,"internal_node_id":"0.0-54.0"},{"Rune":"05","Correct":-1,"Choice":-1,"RT":-1,"Accuracy":1,"Sham":0,"Outcome":"+0","Keys":[],"TotalKeys":0,"Block":1,"Trial":43,"Valence":"Lose","Action":"No-Go","Robot":4,"trial_type":"pit-trial","trial_index":55,"time_elapsed":280343,"internal_node_id":"0.0-55.0"},{"Rune":"03","Correct":32,"Choice":32,"RT":521.5099998749793,"Accuracy":1,"Sham":0,"Outcome":"+10","Keys":[2021.5549999848008],"TotalKeys":1,"Block":1,"Trial":44,"Valence":"Win","Action":"Go","Robot":1,"trial_type":"pit-trial","trial_index":56,"time_elapsed":283373,"internal_node_id":"0.0-56.0"},{"Rune":"05","Correct":-1,"Choice":-1,"RT":-1,"Accuracy":1,"Sham":0,"Outcome":"+0","Keys":[],"TotalKeys":0,"Block":1,"Trial":45,"Valence":"Lose","Action":"No-Go","Robot":4,"trial_type":"pit-trial","trial_index":57,"time_elapsed":287382,"internal_node_id":"0.0-57.0"},{"Rune":"04","Correct":-1,"Choice":32,"RT":383.7749999947846,"Accuracy":0,"Sham":1,"Outcome":"+10","Keys":[1883.8549999054521],"TotalKeys":1,"Block":1,"Trial":46,"Valence":"Win","Action":"No-Go","Robot":2,"trial_type":"pit-trial","trial_index":58,"time_elapsed":290274,"internal_node_id":"0.0-58.0"},{"Rune":"06","Correct":32,"Choice":32,"RT":855.3399997763336,"Accuracy":1,"Sham":0,"Outcome":"+0","Keys":[2355.8800001628697],"TotalKeys":1,"Block":1,"Trial":47,"Valence":"Lose","Action":"Go","Robot":3,"trial_type":"pit-trial","trial_index":59,"time_elapsed":293637,"internal_node_id":"0.0-59.0"},{"Rune":"03","Correct":32,"Choice":32,"RT":491.94000009447336,"Accuracy":1,"Sham":0,"Outcome":"+10","Keys":[1992.070000153035],"TotalKeys":1,"Block":1,"Trial":48,"Valence":"Win","Action":"Go","Robot":1,"trial_type":"pit-trial","trial_index":60,"time_elapsed":296637,"internal_node_id":"0.0-60.0"},{"Rune":"05","Correct":-1,"Choice":-1,"RT":-1,"Accuracy":1,"Sham":0,"Outcome":"+0","Keys":[],"TotalKeys":0,"Block":1,"Trial":49,"Valence":"Lose","Action":"No-Go","Robot":4,"trial_type":"pit-trial","trial_index":61,"time_elapsed":300643,"internal_node_id":"0.0-61.0"},{"Rune":"03","Correct":32,"Choice":32,"RT":448.4449999872595,"Accuracy":1,"Sham":0,"Outcome":"+10","Keys":[1948.8650001585484],"TotalKeys":1,"Block":1,"Trial":50,"Valence":"Win","Action":"Go","Robot":1,"trial_type":"pit-trial","trial_index":62,"time_elapsed":303598,"internal_node_id":"0.0-62.0"},{"Rune":"04","Correct":-1,"Choice":32,"RT":359.0749998111278,"Accuracy":0,"Sham":0,"Outcome":"+0","Keys":[1859.0949999634176],"TotalKeys":1,"Block":1,"Trial":51,"Valence":"Win","Action":"No-Go","Robot":2,"trial_type":"pit-trial","trial_index":63,"time_elapsed":306463,"internal_node_id":"0.0-63.0"},{"Rune":"06","Correct":32,"Choice":32,"RT":931.1200000811368,"Accuracy":1,"Sham":0,"Outcome":"+0","Keys":[2431.7149999551475],"TotalKeys":1,"Block":1,"Trial":52,"Valence":"Lose","Action":"Go","Robot":3,"trial_type":"pit-trial","trial_index":64,"time_elapsed":309904,"internal_node_id":"0.0-64.0"},{"Rune":"04","Correct":-1,"Choice":32,"RT":369.5849999785423,"Accuracy":0,"Sham":0,"Outcome":"+0","Keys":[1870.3850000165403],"TotalKeys":1,"Block":1,"Trial":53,"Valence":"Win","Action":"No-Go","Robot":2,"trial_type":"pit-trial","trial_index":65,"time_elapsed":312782,"internal_node_id":"0.0-65.0"},{"Rune":"06","Correct":32,"Choice":32,"RT":535.2350000757724,"Accuracy":1,"Sham":0,"Outcome":"+0","Keys":[2036.1300001386553],"TotalKeys":1,"Block":1,"Trial":54,"Valence":"Lose","Action":"Go","Robot":3,"trial_type":"pit-trial","trial_index":66,"time_elapsed":315827,"internal_node_id":"0.0-66.0"},{"Rune":"05","Correct":-1,"Choice":-1,"RT":-1,"Accuracy":1,"Sham":0,"Outcome":"+0","Keys":[],"TotalKeys":0,"Block":1,"Trial":55,"Valence":"Lose","Action":"No-Go","Robot":4,"trial_type":"pit-trial","trial_index":67,"time_elapsed":319835,"internal_node_id":"0.0-67.0"},{"Rune":"03","Correct":32,"Choice":32,"RT":410.12999997474253,"Accuracy":1,"Sham":0,"Outcome":"+10","Keys":[1910.2900000289083],"TotalKeys":1,"Block":1,"Trial":56,"Valence":"Win","Action":"Go","Robot":1,"trial_type":"pit-trial","trial_index":68,"time_elapsed":322754,"internal_node_id":"0.0-68.0"},{"Rune":"03","Correct":32,"Choice":32,"RT":465.2849999256432,"Accuracy":1,"Sham":1,"Outcome":"+0","Keys":[1966.014999896288],"TotalKeys":1,"Block":1,"Trial":57,"Valence":"Win","Action":"Go","Robot":1,"trial_type":"pit-trial","trial_index":69,"time_elapsed":325727,"internal_node_id":"0.0-69.0"},{"Rune":"06","Correct":32,"Choice":32,"RT":757.1699998807162,"Accuracy":1,"Sham":0,"Outcome":"+0","Keys":[2257.160000037402],"TotalKeys":1,"Block":1,"Trial":58,"Valence":"Lose","Action":"Go","Robot":3,"trial_type":"pit-trial","trial_index":70,"time_elapsed":328993,"internal_node_id":"0.0-70.0"},{"Rune":"05","Correct":-1,"Choice":-1,"RT":-1,"Accuracy":1,"Sham":1,"Outcome":"-10","Keys":[3571.880000177771],"TotalKeys":1,"Block":1,"Trial":59,"Valence":"Lose","Action":"No-Go","Robot":4,"trial_type":"pit-trial","trial_index":71,"time_elapsed":333001,"internal_node_id":"0.0-71.0"},{"Rune":"04","Correct":-1,"Choice":32,"RT":359.8700000438839,"Accuracy":0,"Sham":0,"Outcome":"+0","Keys":[1860.795000102371],"TotalKeys":1,"Block":1,"Trial":60,"Valence":"Win","Action":"No-Go","Robot":2,"trial_type":"pit-trial","trial_index":72,"time_elapsed":335870,"internal_node_id":"0.0-72.0"},{"Rune":"04","Correct":-1,"Choice":32,"RT":309.75999985821545,"Accuracy":0,"Sham":0,"Outcome":"+0","Keys":[1810.50999998115],"TotalKeys":1,"Block":1,"Trial":61,"Valence":"Win","Action":"No-Go","Robot":2,"trial_type":"pit-trial","trial_index":73,"time_elapsed":338688,"internal_node_id":"0.0-73.0"},{"Rune":"06","Correct":32,"Choice":32,"RT":648.6649999860674,"Accuracy":1,"Sham":0,"Outcome":"+0","Keys":[2170.6600000616163],"TotalKeys":1,"Block":1,"Trial":62,"Valence":"Lose","Action":"Go","Robot":3,"trial_type":"pit-trial","trial_index":74,"time_elapsed":341867,"internal_node_id":"0.0-74.0"},{"Rune":"05","Correct":-1,"Choice":32,"RT":599.1849999409169,"Accuracy":0,"Sham":0,"Outcome":"-10","Keys":[2099.980000173673],"TotalKeys":1,"Block":1,"Trial":63,"Valence":"Lose","Action":"No-Go","Robot":4,"trial_type":"pit-trial","trial_index":75,"time_elapsed":344975,"internal_node_id":"0.0-75.0"},{"Rune":"03","Correct":32,"Choice":32,"RT":384.980000089854,"Accuracy":1,"Sham":0,"Outcome":"+10","Keys":[1886.4800001028925],"TotalKeys":1,"Block":1,"Trial":64,"Valence":"Win","Action":"Go","Robot":1,"trial_type":"pit-trial","trial_index":76,"time_elapsed":347870,"internal_node_id":"0.0-76.0"},{"Rune":"04","Correct":-1,"Choice":32,"RT":367.34499991871417,"Accuracy":0,"Sham":0,"Outcome":"+0","Keys":[1868.294999934733],"TotalKeys":1,"Block":1,"Trial":65,"Valence":"Win","Action":"No-Go","Robot":2,"trial_type":"pit-trial","trial_index":77,"time_elapsed":350743,"internal_node_id":"0.0-77.0"},{"Rune":"05","Correct":-1,"Choice":-1,"RT":-1,"Accuracy":1,"Sham":0,"Outcome":"+0","Keys":[],"TotalKeys":0,"Block":1,"Trial":66,"Valence":"Lose","Action":"No-Go","Robot":4,"trial_type":"pit-trial","trial_index":78,"time_elapsed":354751,"internal_node_id":"0.0-78.0"},{"Rune":"03","Correct":32,"Choice":32,"RT":387.9100000485778,"Accuracy":1,"Sham":1,"Outcome":"+0","Keys":[1888.4850000031292],"TotalKeys":1,"Block":1,"Trial":67,"Valence":"Win","Action":"Go","Robot":1,"trial_type":"pit-trial","trial_index":79,"time_elapsed":357647,"internal_node_id":"0.0-79.0"},{"Rune":"06","Correct":32,"Choice":32,"RT":666.1149999126792,"Accuracy":1,"Sham":0,"Outcome":"+0","Keys":[2168.0299998261034],"TotalKeys":1,"Block":1,"Trial":68,"Valence":"Lose","Action":"Go","Robot":3,"trial_type":"pit-trial","trial_index":80,"time_elapsed":360822,"internal_node_id":"0.0-80.0"},{"Rune":"05","Correct":-1,"Choice":-1,"RT":-1,"Accuracy":1,"Sham":1,"Outcome":"-10","Keys":[],"TotalKeys":0,"Block":1,"Trial":69,"Valence":"Lose","Action":"No-Go","Robot":4,"trial_type":"pit-trial","trial_index":81,"time_elapsed":364831,"internal_node_id":"0.0-81.0"},{"Rune":"06","Correct":32,"Choice":32,"RT":817.9350001737475,"Accuracy":1,"Sham":0,"Outcome":"+0","Keys":[2318.629999877885],"TotalKeys":1,"Block":1,"Trial":70,"Valence":"Lose","Action":"Go","Robot":3,"trial_type":"pit-trial","trial_index":82,"time_elapsed":368158,"internal_node_id":"0.0-82.0"},{"Rune":"03","Correct":32,"Choice":32,"RT":255.14500006102026,"Accuracy":1,"Sham":0,"Outcome":"+10","Keys":[1755.8049999643117],"TotalKeys":1,"Block":1,"Trial":71,"Valence":"Win","Action":"Go","Robot":1,"trial_type":"pit-trial","trial_index":83,"time_elapsed":370922,"internal_node_id":"0.0-83.0"},{"Rune":"04","Correct":-1,"Choice":32,"RT":335.2250000461936,"Accuracy":0,"Sham":0,"Outcome":"+0","Keys":[1835.4400000534952],"TotalKeys":1,"Block":1,"Trial":72,"Valence":"Win","Action":"No-Go","Robot":2,"trial_type":"pit-trial","trial_index":84,"time_elapsed":373767,"internal_node_id":"0.0-84.0"},{"Rune":"04","Correct":-1,"Choice":32,"RT":349.2000000551343,"Accuracy":0,"Sham":0,"Outcome":"+0","Keys":[1849.980000173673],"TotalKeys":1,"Block":1,"Trial":73,"Valence":"Win","Action":"No-Go","Robot":2,"trial_type":"pit-trial","trial_index":85,"time_elapsed":376624,"internal_node_id":"0.0-85.0"},{"Rune":"06","Correct":32,"Choice":32,"RT":723.3450000640005,"Accuracy":1,"Sham":1,"Outcome":"-10","Keys":[2224.449999863282],"TotalKeys":1,"Block":1,"Trial":74,"Valence":"Lose","Action":"Go","Robot":3,"trial_type":"pit-trial","trial_index":86,"time_elapsed":379853,"internal_node_id":"0.0-86.0"},{"Rune":"03","Correct":32,"Choice":32,"RT":336.5400000475347,"Accuracy":1,"Sham":0,"Outcome":"+10","Keys":[1836.959999985993],"TotalKeys":1,"Block":1,"Trial":75,"Valence":"Win","Action":"Go","Robot":1,"trial_type":"pit-trial","trial_index":87,"time_elapsed":382697,"internal_node_id":"0.0-87.0"},{"Rune":"05","Correct":-1,"Choice":32,"RT":381.89500011503696,"Accuracy":0,"Sham":0,"Outcome":"-10","Keys":[1882.3550001252443],"TotalKeys":1,"Block":1,"Trial":76,"Valence":"Lose","Action":"No-Go","Robot":4,"trial_type":"pit-trial","trial_index":88,"time_elapsed":385587,"internal_node_id":"0.0-88.0"},{"Rune":"04","Correct":-1,"Choice":32,"RT":315.984999993816,"Accuracy":0,"Sham":1,"Outcome":"+10","Keys":[1816.6549999732524],"TotalKeys":1,"Block":1,"Trial":77,"Valence":"Win","Action":"No-Go","Robot":2,"trial_type":"pit-trial","trial_index":89,"time_elapsed":388410,"internal_node_id":"0.0-89.0"},{"Rune":"03","Correct":32,"Choice":32,"RT":405.34000005573034,"Accuracy":1,"Sham":0,"Outcome":"+10","Keys":[1905.4800001904368],"TotalKeys":1,"Block":1,"Trial":78,"Valence":"Win","Action":"Go","Robot":1,"trial_type":"pit-trial","trial_index":90,"time_elapsed":391320,"internal_node_id":"0.0-90.0"},{"Rune":"05","Correct":-1,"Choice":-1,"RT":-1,"Accuracy":1,"Sham":0,"Outcome":"+0","Keys":[],"TotalKeys":0,"Block":1,"Trial":79,"Valence":"Lose","Action":"No-Go","Robot":4,"trial_type":"pit-trial","trial_index":91,"time_elapsed":395329,"internal_node_id":"0.0-91.0"},{"Rune":"06","Correct":32,"Choice":32,"RT":1023.845000192523,"Accuracy":1,"Sham":0,"Outcome":"+0","Keys":[2525.8649999741465],"TotalKeys":1,"Block":1,"Trial":80,"Valence":"Lose","Action":"Go","Robot":3,"trial_type":"pit-trial","trial_index":92,"time_elapsed":398864,"internal_node_id":"0.0-92.0"},{"value":false,"trial_type":"call-function","trial_index":93,"time_elapsed":398872,"internal_node_id":"0.0-93.0"},{"RT":221072.67999998294,"trial_type":"pit-pause","trial_index":94,"time_elapsed":622546,"internal_node_id":"0.0-94.0"},{"Rune":"03","Correct":32,"Choice":32,"RT":537.3299999628216,"Accuracy":1,"Sham":0,"Outcome":"+10","Keys":[2039.1500000841916],"TotalKeys":1,"Block":2,"Trial":81,"Valence":"Win","Action":"Go","Robot":1,"trial_type":"pit-trial","trial_index":95,"time_elapsed":625593,"internal_node_id":"0.0-95.0"},{"Rune":"04","Correct":-1,"Choice":32,"RT":386.289999820292,"Accuracy":0,"Sham":0,"Outcome":"+0","Keys":[1887.4300001189113],"TotalKeys":1,"Block":2,"Trial":82,"Valence":"Win","Action":"No-Go","Robot":2,"trial_type":"pit-trial","trial_index":96,"time_elapsed":628491,"internal_node_id":"0.0-96.0"},{"Rune":"05","Correct":-1,"Choice":32,"RT":706.1650000978261,"Accuracy":0,"Sham":0,"Outcome":"-10","Keys":[2206.609999993816],"TotalKeys":1,"Block":2,"Trial":83,"Valence":"Lose","Action":"No-Go","Robot":4,"trial_type":"pit-trial","trial_index":97,"time_elapsed":631705,"internal_node_id":"0.0-97.0"},{"Rune":"06","Correct":32,"Choice":32,"RT":555.9400001075119,"Accuracy":1,"Sham":0,"Outcome":"+0","Keys":[2056.8600001279265],"TotalKeys":1,"Block":2,"Trial":84,"Valence":"Lose","Action":"Go","Robot":3,"trial_type":"pit-trial","trial_index":98,"time_elapsed":634770,"internal_node_id":"0.0-98.0"},{"Rune":"03","Correct":32,"Choice":32,"RT":465.5549998860806,"Accuracy":1,"Sham":0,"Outcome":"+10","Keys":[1966.1650001071393],"TotalKeys":1,"Block":2,"Trial":85,"Valence":"Win","Action":"Go","Robot":1,"trial_type":"pit-trial","trial_index":99,"time_elapsed":637745,"internal_node_id":"0.0-99.0"},{"Rune":"04","Correct":-1,"Choice":32,"RT":461.09999995678663,"Accuracy":0,"Sham":0,"Outcome":"+0","Keys":[1961.7200000211596],"TotalKeys":1,"Block":2,"Trial":86,"Valence":"Win","Action":"No-Go","Robot":2,"trial_type":"pit-trial","trial_index":100,"time_elapsed":640715,"internal_node_id":"0.0-100.0"},{"Rune":"06","Correct":32,"Choice":32,"RT":1095.7150000613183,"Accuracy":1,"Sham":0,"Outcome":"+0","Keys":[2596.4299999177456],"TotalKeys":1,"Block":2,"Trial":87,"Valence":"Lose","Action":"Go","Robot":3,"trial_type":"pit-trial","trial_index":101,"time_elapsed":644319,"internal_node_id":"0.0-101.0"},{"Rune":"05","Correct":-1,"Choice":32,"RT":800.5250000860542,"Accuracy":0,"Sham":0,"Outcome":"-10","Keys":[2300.8300000801682],"TotalKeys":1,"Block":2,"Trial":88,"Valence":"Lose","Action":"No-Go","Robot":4,"trial_type":"pit-trial","trial_index":102,"time_elapsed":647628,"internal_node_id":"0.0-102.0"},{"Rune":"06","Correct":32,"Choice":32,"RT":631.9600001443177,"Accuracy":1,"Sham":1,"Outcome":"-10","Keys":[2132.4700000695884],"TotalKeys":1,"Block":2,"Trial":89,"Valence":"Lose","Action":"Go","Robot":3,"trial_type":"pit-trial","trial_index":103,"time_elapsed":650769,"internal_node_id":"0.0-103.0"},{"Rune":"03","Correct":32,"Choice":32,"RT":391.31500013172626,"Accuracy":1,"Sham":1,"Outcome":"+0","Keys":[1891.4400001522154],"TotalKeys":1,"Block":2,"Trial":90,"Valence":"Win","Action":"Go","Robot":1,"trial_type":"pit-trial","trial_index":104,"time_elapsed":653669,"internal_node_id":"0.0-104.0"},{"Rune":"04","Correct":-1,"Choice":32,"RT":455.6100000627339,"Accuracy":0,"Sham":0,"Outcome":"+0","Keys":[1956.8499999586493],"TotalKeys":1,"Block":2,"Trial":91,"Valence":"Win","Action":"No-Go","Robot":2,"trial_type":"pit-trial","trial_index":105,"time_elapsed":656635,"internal_node_id":"0.0-105.0"},{"Rune":"05","Correct":-1,"Choice":-1,"RT":-1,"Accuracy":1,"Sham":0,"Outcome":"+0","Keys":[],"TotalKeys":0,"Block":2,"Trial":92,"Valence":"Lose","Action":"No-Go","Robot":4,"trial_type":"pit-trial","trial_index":106,"time_elapsed":660643,"internal_node_id":"0.0-106.0"},{"Rune":"05","Correct":-1,"Choice":-1,"RT":-1,"Accuracy":1,"Sham":0,"Outcome":"+0","Keys":[],"TotalKeys":0,"Block":2,"Trial":93,"Valence":"Lose","Action":"No-Go","Robot":4,"trial_type":"pit-trial","trial_index":107,"time_elapsed":664651,"internal_node_id":"0.0-107.0"},{"Rune":"03","Correct":32,"Choice":32,"RT":482.8599998727441,"Accuracy":1,"Sham":0,"Outcome":"+10","Keys":[1982.9500000923872],"TotalKeys":1,"Block":2,"Trial":94,"Valence":"Win","Action":"Go","Robot":1,"trial_type":"pit-trial","trial_index":108,"time_elapsed":667643,"internal_node_id":"0.0-108.0"},{"Rune":"06","Correct":32,"Choice":32,"RT":1199.8649998567998,"Accuracy":1,"Sham":0,"Outcome":"+0","Keys":[2700.3299999050796],"TotalKeys":1,"Block":2,"Trial":95,"Valence":"Lose","Action":"Go","Robot":3,"trial_type":"pit-trial","trial_index":109,"time_elapsed":671350,"internal_node_id":"0.0-109.0"},{"Rune":"04","Correct":-1,"Choice":32,"RT":427.8450000565499,"Accuracy":0,"Sham":1,"Outcome":"+10","Keys":[1928.5750000271946],"TotalKeys":1,"Block":2,"Trial":96,"Valence":"Win","Action":"No-Go","Robot":2,"trial_type":"pit-trial","trial_index":110,"time_elapsed":674286,"internal_node_id":"0.0-110.0"},{"Rune":"05","Correct":-1,"Choice":-1,"RT":-1,"Accuracy":1,"Sham":1,"Outcome":"-10","Keys":[],"TotalKeys":0,"Block":2,"Trial":97,"Valence":"Lose","Action":"No-Go","Robot":4,"trial_type":"pit-trial","trial_index":111,"time_elapsed":678299,"internal_node_id":"0.0-111.0"},{"Rune":"03","Correct":32,"Choice":32,"RT":377.68000015057623,"Accuracy":1,"Sham":0,"Outcome":"+10","Keys":[1878.474999917671],"TotalKeys":1,"Block":2,"Trial":98,"Valence":"Win","Action":"Go","Robot":1,"trial_type":"pit-trial","trial_index":112,"time_elapsed":681186,"internal_node_id":"0.0-112.0"},{"Rune":"06","Correct":32,"Choice":32,"RT":789.335000095889,"Accuracy":1,"Sham":0,"Outcome":"+0","Keys":[2289.7449999582022],"TotalKeys":1,"Block":2,"Trial":99,"Valence":"Lose","Action":"Go","Robot":3,"trial_type":"pit-trial","trial_index":113,"time_elapsed":684483,"internal_node_id":"0.0-113.0"},{"Rune":"04","Correct":-1,"Choice":32,"RT":394.1849998664111,"Accuracy":0,"Sham":0,"Outcome":"+0","Keys":[1895.8900000434369],"TotalKeys":1,"Block":2,"Trial":100,"Valence":"Win","Action":"No-Go","Robot":2,"trial_type":"pit-trial","trial_index":114,"time_elapsed":687389,"internal_node_id":"0.0-114.0"},{"Rune":"05","Correct":-1,"Choice":32,"RT":1194.7699999436736,"Accuracy":0,"Sham":0,"Outcome":"-10","Keys":[2695.479999994859],"TotalKeys":1,"Block":2,"Trial":101,"Valence":"Lose","Action":"No-Go","Robot":4,"trial_type":"pit-trial","trial_index":115,"time_elapsed":691089,"internal_node_id":"0.0-115.0"},{"Rune":"06","Correct":32,"Choice":32,"RT":713.6200000531971,"Accuracy":1,"Sham":0,"Outcome":"+0","Keys":[2213.719999883324],"TotalKeys":1,"Block":2,"Trial":102,"Valence":"Lose","Action":"Go","Robot":3,"trial_type":"pit-trial","trial_index":116,"time_elapsed":694311,"internal_node_id":"0.0-116.0"},{"Rune":"03","Correct":32,"Choice":32,"RT":446.3400000240654,"Accuracy":1,"Sham":1,"Outcome":"+0","Keys":[1946.8549999874085],"TotalKeys":1,"Block":2,"Trial":103,"Valence":"Win","Action":"Go","Robot":1,"trial_type":"pit-trial","trial_index":117,"time_elapsed":697265,"internal_node_id":"0.0-117.0"},{"Rune":"04","Correct":-1,"Choice":32,"RT":307.2050001937896,"Accuracy":0,"Sham":1,"Outcome":"+10","Keys":[1807.8099999111146],"TotalKeys":1,"Block":2,"Trial":104,"Valence":"Win","Action":"No-Go","Robot":2,"trial_type":"pit-trial","trial_index":118,"time_elapsed":700082,"internal_node_id":"0.0-118.0"},{"Rune":"06","Correct":32,"Choice":32,"RT":1324.2150000296533,"Accuracy":1,"Sham":0,"Outcome":"+0","Keys":[2825.0450000632554],"TotalKeys":1,"Block":2,"Trial":105,"Valence":"Lose","Action":"Go","Robot":3,"trial_type":"pit-trial","trial_index":119,"time_elapsed":703915,"internal_node_id":"0.0-119.0"},{"Rune":"03","Correct":32,"Choice":32,"RT":427.350000012666,"Accuracy":1,"Sham":0,"Outcome":"+10","Keys":[1927.6300000492483],"TotalKeys":1,"Block":2,"Trial":106,"Valence":"Win","Action":"Go","Robot":1,"trial_type":"pit-trial","trial_index":120,"time_elapsed":706850,"internal_node_id":"0.0-120.0"},{"Rune":"04","Correct":-1,"Choice":32,"RT":411.4850000478327,"Accuracy":0,"Sham":0,"Outcome":"+0","Keys":[1912.2900001239032],"TotalKeys":1,"Block":2,"Trial":107,"Valence":"Win","Action":"No-Go","Robot":2,"trial_type":"pit-trial","trial_index":121,"time_elapsed":709771,"internal_node_id":"0.0-121.0"},{"Rune":"05","Correct":-1,"Choice":32,"RT":960.97999997437,"Accuracy":0,"Sham":0,"Outcome":"-10","Keys":[2461.494999937713],"TotalKeys":1,"Block":2,"Trial":108,"Valence":"Lose","Action":"No-Go","Robot":4,"trial_type":"pit-trial","trial_index":122,"time_elapsed":713240,"internal_node_id":"0.0-122.0"},{"Rune":"04","Correct":-1,"Choice":32,"RT":351.77499987185,"Accuracy":0,"Sham":0,"Outcome":"+0","Keys":[1852.0649999845773],"TotalKeys":1,"Block":2,"Trial":109,"Valence":"Win","Action":"No-Go","Robot":2,"trial_type":"pit-trial","trial_index":123,"time_elapsed":716099,"internal_node_id":"0.0-123.0"},{"Rune":"05","Correct":-1,"Choice":32,"RT":1251.7550000920892,"Accuracy":0,"Sham":0,"Outcome":"-10","Keys":[2752.064999891445],"TotalKeys":1,"Block":2,"Trial":110,"Valence":"Lose","Action":"No-Go","Robot":4,"trial_type":"pit-trial","trial_index":124,"time_elapsed":719860,"internal_node_id":"0.0-124.0"},{"Rune":"03","Correct":32,"Choice":32,"RT":348.9749999716878,"Accuracy":1,"Sham":0,"Outcome":"+10","Keys":[1849.2749999277294],"TotalKeys":1,"Block":2,"Trial":111,"Valence":"Win","Action":"Go","Robot":1,"trial_type":"pit-trial","trial_index":125,"time_elapsed":722716,"internal_node_id":"0.0-125.0"},{"Rune":"06","Correct":32,"Choice":32,"RT":709.789999993518,"Accuracy":1,"Sham":0,"Outcome":"+0","Keys":[2209.809999912977],"TotalKeys":1,"Block":2,"Trial":112,"Valence":"Lose","Action":"Go","Robot":3,"trial_type":"pit-trial","trial_index":126,"time_elapsed":725936,"internal_node_id":"0.0-126.0"},{"Rune":"04","Correct":-1,"Choice":32,"RT":381.1850000638515,"Accuracy":0,"Sham":0,"Outcome":"+0","Keys":[1881.4700001385063],"TotalKeys":1,"Block":2,"Trial":113,"Valence":"Win","Action":"No-Go","Robot":2,"trial_type":"pit-trial","trial_index":127,"time_elapsed":728827,"internal_node_id":"0.0-127.0"},{"Rune":"05","Correct":-1,"Choice":-1,"RT":-1,"Accuracy":1,"Sham":0,"Outcome":"+0","Keys":[],"TotalKeys":0,"Block":2,"Trial":114,"Valence":"Lose","Action":"No-Go","Robot":4,"trial_type":"pit-trial","trial_index":128,"time_elapsed":732835,"internal_node_id":"0.0-128.0"},{"Rune":"06","Correct":32,"Choice":32,"RT":348.46999985165894,"Accuracy":1,"Sham":1,"Outcome":"-10","Keys":[1848.7100000493228],"TotalKeys":1,"Block":2,"Trial":115,"Valence":"Lose","Action":"Go","Robot":3,"trial_type":"pit-trial","trial_index":129,"time_elapsed":735690,"internal_node_id":"0.0-129.0"},{"Rune":"03","Correct":32,"Choice":32,"RT":421.27500008791685,"Accuracy":1,"Sham":0,"Outcome":"+10","Keys":[1922.6550001185387],"TotalKeys":1,"Block":2,"Trial":116,"Valence":"Win","Action":"Go","Robot":1,"trial_type":"pit-trial","trial_index":130,"time_elapsed":738621,"internal_node_id":"0.0-130.0"},{"Rune":"05","Correct":-1,"Choice":-1,"RT":-1,"Accuracy":1,"Sham":1,"Outcome":"-10","Keys":[],"TotalKeys":0,"Block":2,"Trial":117,"Valence":"Lose","Action":"No-Go","Robot":4,"trial_type":"pit-trial","trial_index":131,"time_elapsed":742629,"internal_node_id":"0.0-131.0"},{"Rune":"06","Correct":32,"Choice":32,"RT":631.6949999891222,"Accuracy":1,"Sham":0,"Outcome":"+0","Keys":[2132.715000072494],"TotalKeys":1,"Block":2,"Trial":118,"Valence":"Lose","Action":"Go","Robot":3,"trial_type":"pit-trial","trial_index":132,"time_elapsed":745802,"internal_node_id":"0.0-132.0"},{"Rune":"04","Correct":-1,"Choice":-1,"RT":-1,"Accuracy":1,"Sham":0,"Outcome":"+10","Keys":[3321.0999998264015],"TotalKeys":1,"Block":2,"Trial":119,"Valence":"Win","Action":"No-Go","Robot":2,"trial_type":"pit-trial","trial_index":133,"time_elapsed":749811,"internal_node_id":"0.0-133.0"},{"Rune":"03","Correct":32,"Choice":32,"RT":505.54000004194677,"Accuracy":1,"Sham":0,"Outcome":"+10","Keys":[2006.4250000286847],"TotalKeys":1,"Block":2,"Trial":120,"Valence":"Win","Action":"Go","Robot":1,"trial_type":"pit-trial","trial_index":134,"time_elapsed":752824,"internal_node_id":"0.0-134.0"},{"Rune":"04","Correct":-1,"Choice":32,"RT":401.77499991841614,"Accuracy":0,"Sham":0,"Outcome":"+0","Keys":[1902.6099999900907],"TotalKeys":1,"Block":2,"Trial":121,"Valence":"Win","Action":"No-Go","Robot":2,"trial_type":"pit-trial","trial_index":135,"time_elapsed":755735,"internal_node_id":"0.0-135.0"},{"Rune":"05","Correct":-1,"Choice":-1,"RT":-1,"Accuracy":1,"Sham":0,"Outcome":"+0","Keys":[],"TotalKeys":0,"Block":2,"Trial":122,"Valence":"Lose","Action":"No-Go","Robot":4,"trial_type":"pit-trial","trial_index":136,"time_elapsed":759743,"internal_node_id":"0.0-136.0"},{"Rune":"06","Correct":32,"Choice":32,"RT":1133.5299999918789,"Accuracy":1,"Sham":0,"Outcome":"+0","Keys":[2633.559999987483],"TotalKeys":1,"Block":2,"Trial":123,"Valence":"Lose","Action":"Go","Robot":3,"trial_type":"pit-trial","trial_index":137,"time_elapsed":763384,"internal_node_id":"0.0-137.0"},{"Rune":"03","Correct":32,"Choice":32,"RT":387.7199999988079,"Accuracy":1,"Sham":1,"Outcome":"+0","Keys":[1888.5800000280142],"TotalKeys":1,"Block":2,"Trial":124,"Valence":"Win","Action":"Go","Robot":1,"trial_type":"pit-trial","trial_index":138,"time_elapsed":766279,"internal_node_id":"0.0-138.0"},{"Rune":"06","Correct":32,"Choice":32,"RT":682.3850001674145,"Accuracy":1,"Sham":1,"Outcome":"-10","Keys":[2183.4549999330193],"TotalKeys":1,"Block":2,"Trial":125,"Valence":"Lose","Action":"Go","Robot":3,"trial_type":"pit-trial","trial_index":139,"time_elapsed":769470,"internal_node_id":"0.0-139.0"},{"Rune":"05","Correct":-1,"Choice":32,"RT":766.2700000219047,"Accuracy":0,"Sham":0,"Outcome":"-10","Keys":[2267.3149998299778],"TotalKeys":1,"Block":2,"Trial":126,"Valence":"Lose","Action":"No-Go","Robot":4,"trial_type":"pit-trial","trial_index":140,"time_elapsed":772745,"internal_node_id":"0.0-140.0"},{"Rune":"04","Correct":-1,"Choice":32,"RT":434.9200001452118,"Accuracy":0,"Sham":0,"Outcome":"+0","Keys":[1935.245000058785],"TotalKeys":1,"Block":2,"Trial":127,"Valence":"Win","Action":"No-Go","Robot":2,"trial_type":"pit-trial","trial_index":141,"time_elapsed":775691,"internal_node_id":"0.0-141.0"},{"Rune":"03","Correct":32,"Choice":32,"RT":462.7350000664592,"Accuracy":1,"Sham":0,"Outcome":"+10","Keys":[1963.2500000298023],"TotalKeys":1,"Block":2,"Trial":128,"Valence":"Win","Action":"Go","Robot":1,"trial_type":"pit-trial","trial_index":142,"time_elapsed":778662,"internal_node_id":"0.0-142.0"},{"Rune":"05","Correct":-1,"Choice":-1,"RT":-1,"Accuracy":1,"Sham":0,"Outcome":"+0","Keys":[],"TotalKeys":0,"Block":2,"Trial":129,"Valence":"Lose","Action":"No-Go","Robot":4,"trial_type":"pit-trial","trial_index":143,"time_elapsed":782670,"internal_node_id":"0.0-143.0"},{"Rune":"03","Correct":32,"Choice":32,"RT":516.6899999603629,"Accuracy":1,"Sham":0,"Outcome":"+10","Keys":[2016.7950000613928],"TotalKeys":1,"Block":2,"Trial":130,"Valence":"Win","Action":"Go","Robot":1,"trial_type":"pit-trial","trial_index":144,"time_elapsed":785695,"internal_node_id":"0.0-144.0"},{"Rune":"06","Correct":32,"Choice":-1,"RT":-1,"Accuracy":0,"Sham":0,"Outcome":"-10","Keys":[],"TotalKeys":0,"Block":2,"Trial":131,"Valence":"Lose","Action":"Go","Robot":3,"trial_type":"pit-trial","trial_index":145,"time_elapsed":789703,"internal_node_id":"0.0-145.0"},{"Rune":"04","Correct":-1,"Choice":32,"RT":432.10000009275973,"Accuracy":0,"Sham":0,"Outcome":"+0","Keys":[1932.3249999433756],"TotalKeys":1,"Block":2,"Trial":132,"Valence":"Win","Action":"No-Go","Robot":2,"trial_type":"pit-trial","trial_index":146,"time_elapsed":792643,"internal_node_id":"0.0-146.0"},{"Rune":"05","Correct":-1,"Choice":32,"RT":1272.0500000286847,"Accuracy":0,"Sham":0,"Outcome":"-10","Keys":[2772.025000071153],"TotalKeys":1,"Block":2,"Trial":133,"Valence":"Lose","Action":"No-Go","Robot":4,"trial_type":"pit-trial","trial_index":147,"time_elapsed":796434,"internal_node_id":"0.0-147.0"},{"Rune":"03","Correct":32,"Choice":32,"RT":301.1500001884997,"Accuracy":1,"Sham":0,"Outcome":"+10","Keys":[1801.4800001401454],"TotalKeys":1,"Block":2,"Trial":134,"Valence":"Win","Action":"Go","Robot":1,"trial_type":"pit-trial","trial_index":148,"time_elapsed":799244,"internal_node_id":"0.0-148.0"},{"Rune":"06","Correct":32,"Choice":32,"RT":952.0849999971688,"Accuracy":1,"Sham":0,"Outcome":"+0","Keys":[2452.314999885857],"TotalKeys":1,"Block":2,"Trial":135,"Valence":"Lose","Action":"Go","Robot":3,"trial_type":"pit-trial","trial_index":149,"time_elapsed":802704,"internal_node_id":"0.0-149.0"},{"Rune":"04","Correct":-1,"Choice":32,"RT":335.3949999436736,"Accuracy":0,"Sham":0,"Outcome":"+0","Keys":[1837.3750001192093],"TotalKeys":1,"Block":2,"Trial":136,"Valence":"Win","Action":"No-Go","Robot":2,"trial_type":"pit-trial","trial_index":150,"time_elapsed":805549,"internal_node_id":"0.0-150.0"},{"Rune":"05","Correct":-1,"Choice":32,"RT":294.3100000265986,"Accuracy":0,"Sham":1,"Outcome":"+0","Keys":[1794.9749999679625],"TotalKeys":1,"Block":2,"Trial":137,"Valence":"Lose","Action":"No-Go","Robot":4,"trial_type":"pit-trial","trial_index":151,"time_elapsed":808349,"internal_node_id":"0.0-151.0"},{"Rune":"03","Correct":32,"Choice":32,"RT":387.3750001657754,"Accuracy":1,"Sham":0,"Outcome":"+10","Keys":[1888.1349998991936],"TotalKeys":1,"Block":2,"Trial":138,"Valence":"Win","Action":"Go","Robot":1,"trial_type":"pit-trial","trial_index":152,"time_elapsed":811245,"internal_node_id":"0.0-152.0"},{"Rune":"06","Correct":32,"Choice":-1,"RT":-1,"Accuracy":0,"Sham":0,"Outcome":"-10","Keys":[],"TotalKeys":0,"Block":2,"Trial":139,"Valence":"Lose","Action":"Go","Robot":3,"trial_type":"pit-trial","trial_index":153,"time_elapsed":815254,"internal_node_id":"0.0-153.0"},{"Rune":"04","Correct":-1,"Choice":32,"RT":367.49000009149313,"Accuracy":0,"Sham":1,"Outcome":"+10","Keys":[1867.629999993369],"TotalKeys":1,"Block":2,"Trial":140,"Valence":"Win","Action":"No-Go","Robot":2,"trial_type":"pit-trial","trial_index":154,"time_elapsed":818129,"internal_node_id":"0.0-154.0"},{"Rune":"04","Correct":-1,"Choice":32,"RT":311.3500000908971,"Accuracy":0,"Sham":1,"Outcome":"+10","Keys":[1812.3299998696893],"TotalKeys":1,"Block":2,"Trial":141,"Valence":"Win","Action":"No-Go","Robot":2,"trial_type":"pit-trial","trial_index":155,"time_elapsed":820949,"internal_node_id":"0.0-155.0"},{"Rune":"06","Correct":32,"Choice":32,"RT":693.4999998193234,"Accuracy":1,"Sham":0,"Outcome":"+0","Keys":[2193.6249998398125],"TotalKeys":1,"Block":2,"Trial":142,"Valence":"Lose","Action":"Go","Robot":3,"trial_type":"pit-trial","trial_index":156,"time_elapsed":824149,"internal_node_id":"0.0-156.0"},{"Rune":"03","Correct":32,"Choice":32,"RT":472.99999999813735,"Accuracy":1,"Sham":0,"Outcome":"+10","Keys":[1972.8549998253584],"TotalKeys":1,"Block":2,"Trial":143,"Valence":"Win","Action":"Go","Robot":1,"trial_type":"pit-trial","trial_index":157,"time_elapsed":827129,"internal_node_id":"0.0-157.0"},{"Rune":"05","Correct":-1,"Choice":32,"RT":1181.184999877587,"Accuracy":0,"Sham":0,"Outcome":"-10","Keys":[2681.5049999859184],"TotalKeys":1,"Block":2,"Trial":144,"Valence":"Lose","Action":"No-Go","Robot":4,"trial_type":"pit-trial","trial_index":158,"time_elapsed":830818,"internal_node_id":"0.0-158.0"},{"Rune":"05","Correct":-1,"Choice":-1,"RT":-1,"Accuracy":1,"Sham":0,"Outcome":"+0","Keys":[],"TotalKeys":0,"Block":2,"Trial":145,"Valence":"Lose","Action":"No-Go","Robot":4,"trial_type":"pit-trial","trial_index":159,"time_elapsed":834826,"internal_node_id":"0.0-159.0"},{"Rune":"03","Correct":32,"Choice":32,"RT":337.569999974221,"Accuracy":1,"Sham":0,"Outcome":"+10","Keys":[1847.279999870807],"TotalKeys":1,"Block":2,"Trial":146,"Valence":"Win","Action":"Go","Robot":1,"trial_type":"pit-trial","trial_index":160,"time_elapsed":837681,"internal_node_id":"0.0-160.0"},{"Rune":"06","Correct":32,"Choice":32,"RT":1111.8350001052022,"Accuracy":1,"Sham":0,"Outcome":"+0","Keys":[2612.650000024587],"TotalKeys":1,"Block":2,"Trial":147,"Valence":"Lose","Action":"Go","Robot":3,"trial_type":"pit-trial","trial_index":161,"time_elapsed":841303,"internal_node_id":"0.0-161.0"},{"Rune":"04","Correct":-1,"Choice":32,"RT":509.7649998497218,"Accuracy":0,"Sham":0,"Outcome":"+0","Keys":[2010.275000007823],"TotalKeys":1,"Block":2,"Trial":148,"Valence":"Win","Action":"No-Go","Robot":2,"trial_type":"pit-trial","trial_index":162,"time_elapsed":844321,"internal_node_id":"0.0-162.0"},{"Rune":"04","Correct":-1,"Choice":32,"RT":466.5749999694526,"Accuracy":0,"Sham":0,"Outcome":"+0","Keys":[1966.95000003092],"TotalKeys":1,"Block":2,"Trial":149,"Valence":"Win","Action":"No-Go","Robot":2,"trial_type":"pit-trial","trial_index":163,"time_elapsed":847296,"internal_node_id":"0.0-163.0"},{"Rune":"05","Correct":-1,"Choice":-1,"RT":-1,"Accuracy":1,"Sham":0,"Outcome":"+0","Keys":[],"TotalKeys":0,"Block":2,"Trial":150,"Valence":"Lose","Action":"No-Go","Robot":4,"trial_type":"pit-trial","trial_index":164,"time_elapsed":851306,"internal_node_id":"0.0-164.0"},{"Rune":"06","Correct":32,"Choice":32,"RT":739.7249999921769,"Accuracy":1,"Sham":0,"Outcome":"+0","Keys":[2240.364999976009],"TotalKeys":1,"Block":2,"Trial":151,"Valence":"Lose","Action":"Go","Robot":3,"trial_type":"pit-trial","trial_index":165,"time_elapsed":854555,"internal_node_id":"0.0-165.0"},{"Rune":"03","Correct":32,"Choice":32,"RT":369.81000006198883,"Accuracy":1,"Sham":0,"Outcome":"+10","Keys":[1870.7200000062585],"TotalKeys":1,"Block":2,"Trial":152,"Valence":"Win","Action":"Go","Robot":1,"trial_type":"pit-trial","trial_index":166,"time_elapsed":857434,"internal_node_id":"0.0-166.0"},{"Rune":"03","Correct":32,"Choice":32,"RT":385.78999997116625,"Accuracy":1,"Sham":0,"Outcome":"+10","Keys":[1886.519999941811],"TotalKeys":1,"Block":2,"Trial":153,"Valence":"Win","Action":"Go","Robot":1,"trial_type":"pit-trial","trial_index":167,"time_elapsed":860329,"internal_node_id":"0.0-167.0"},{"Rune":"05","Correct":-1,"Choice":-1,"RT":-1,"Accuracy":1,"Sham":0,"Outcome":"+0","Keys":[],"TotalKeys":0,"Block":2,"Trial":154,"Valence":"Lose","Action":"No-Go","Robot":4,"trial_type":"pit-trial","trial_index":168,"time_elapsed":864338,"internal_node_id":"0.0-168.0"},{"Rune":"06","Correct":32,"Choice":32,"RT":1402.839999878779,"Accuracy":1,"Sham":0,"Outcome":"+0","Keys":[2904.97999987565],"TotalKeys":1,"Block":2,"Trial":155,"Valence":"Lose","Action":"Go","Robot":3,"trial_type":"pit-trial","trial_index":169,"time_elapsed":868252,"internal_node_id":"0.0-169.0"},{"Rune":"04","Correct":-1,"Choice":32,"RT":491.1400000564754,"Accuracy":0,"Sham":0,"Outcome":"+0","Keys":[1991.2000000476837],"TotalKeys":1,"Block":2,"Trial":156,"Valence":"Win","Action":"No-Go","Robot":2,"trial_type":"pit-trial","trial_index":170,"time_elapsed":871250,"internal_node_id":"0.0-170.0"},{"Rune":"06","Correct":32,"Choice":32,"RT":1215.6050000339746,"Accuracy":1,"Sham":1,"Outcome":"-10","Keys":[2716.4700001012534],"TotalKeys":1,"Block":2,"Trial":157,"Valence":"Lose","Action":"Go","Robot":3,"trial_type":"pit-trial","trial_index":171,"time_elapsed":874974,"internal_node_id":"0.0-171.0"},{"Rune":"05","Correct":-1,"Choice":-1,"RT":-1,"Accuracy":1,"Sham":1,"Outcome":"-10","Keys":[],"TotalKeys":0,"Block":2,"Trial":158,"Valence":"Lose","Action":"No-Go","Robot":4,"trial_type":"pit-trial","trial_index":172,"time_elapsed":878982,"internal_node_id":"0.0-172.0"},{"Rune":"04","Correct":-1,"Choice":32,"RT":415.3500001411885,"Accuracy":0,"Sham":0,"Outcome":"+0","Keys":[1917.3949998803437],"TotalKeys":1,"Block":2,"Trial":159,"Valence":"Win","Action":"No-Go","Robot":2,"trial_type":"pit-trial","trial_index":173,"time_elapsed":881906,"internal_node_id":"0.0-173.0"},{"Rune":"03","Correct":32,"Choice":32,"RT":412.3800001107156,"Accuracy":1,"Sham":1,"Outcome":"+0","Keys":[1913.135000038892],"TotalKeys":1,"Block":2,"Trial":160,"Valence":"Win","Action":"Go","Robot":1,"trial_type":"pit-trial","trial_index":174,"time_elapsed":884827,"internal_node_id":"0.0-174.0"},{"rt":26430.13500003144,"demographics":{"age":"44","gender-categorical":"Female","ethnicity":"Not Hispanic or Latino","race":"White","english":"Yes","fluency":"Very well"},"trial_type":"survey-demo","trial_index":175,"time_elapsed":911266,"internal_node_id":"0.0-175.0"},{"rt":19810.435000108555,"debriefgraphics":{"difficulty":"4","fun":"3","clarity":"4","strategy":"no","feedback":"nope"},"trial_type":"survey-debrief","trial_index":176,"time_elapsed":931081,"internal_node_id":"0.0-176.0","interactions":"[{\"event\":\"blur\",\"trial\":132,\"time\":745711},{\"event\":\"focus\",\"trial\":133,\"time\":747339}]"}]