[{"view_history":"[{\"page_index\":0,\"viewing_time\":2166},{\"page_index\":1,\"viewing_time\":4463},{\"page_index\":2,\"viewing_time\":7161},{\"page_index\":3,\"viewing_time\":5423},{\"page_index\":4,\"viewing_time\":4440}]","rt":23653,"trial_type":"pit-instructions","trial_index":0,"time_elapsed":23656,"internal_node_id":"0.0-0.0"},{"Correct":32,"Choice":32,"RT":510,"Accuracy":1,"Sham":0,"Outcome":1,"trial_type":"pit-trial","trial_index":1,"time_elapsed":26675,"internal_node_id":"0.0-1.0"},{"Correct":32,"Choice":32,"RT":671,"Accuracy":1,"Sham":0,"Outcome":1,"trial_type":"pit-trial","trial_index":2,"time_elapsed":29850,"internal_node_id":"0.0-2.0"},{"Correct":32,"Choice":32,"RT":630,"Accuracy":1,"Sham":0,"Outcome":1,"trial_type":"pit-trial","trial_index":3,"time_elapsed":32983,"internal_node_id":"0.0-3.0"},{"Correct":32,"Choice":32,"RT":465,"Accuracy":1,"Sham":0,"Outcome":1,"trial_type":"pit-trial","trial_index":4,"time_elapsed":35953,"internal_node_id":"0.0-4.0"},{"view_history":"[{\"page_index\":0,\"viewing_time\":3556}]","rt":3556,"trial_type":"pit-instructions","trial_index":5,"time_elapsed":39513,"internal_node_id":"0.0-5.0"},{"Correct":-1,"Choice":-1,"RT":-1,"Accuracy":1,"Sham":0,"Outcome":1,"trial_type":"pit-trial","trial_index":6,"time_elapsed":43518,"internal_node_id":"0.0-6.0"},{"Correct":-1,"Choice":-1,"RT":-1,"Accuracy":1,"Sham":0,"Outcome":1,"trial_type":"pit-trial","trial_index":7,"time_elapsed":47522,"internal_node_id":"0.0-7.0"},{"Correct":-1,"Choice":-1,"RT":-1,"Accuracy":1,"Sham":0,"Outcome":1,"trial_type":"pit-trial","trial_index":8,"time_elapsed":51529,"internal_node_id":"0.0-8.0"},{"Correct":-1,"Choice":-1,"RT":-1,"Accuracy":1,"Sham":0,"Outcome":1,"trial_type":"pit-trial","trial_index":9,"time_elapsed":55534,"internal_node_id":"0.0-9.0"},{"view_history":"[{\"page_index\":0,\"viewing_time\":3647},{\"page_index\":1,\"viewing_time\":9984},{\"page_index\":2,\"viewing_time\":9575},{\"page_index\":3,\"viewing_time\":4856},{\"page_index\":4,\"viewing_time\":303813},{\"page_index\":5,\"viewing_time\":9024},{\"page_index\":6,\"viewing_time\":4129},{\"page_index\":7,\"viewing_time\":2119}]","rt":347148,"trial_type":"pit-instructions","trial_index":10,"time_elapsed":402685,"internal_node_id":"0.0-10.0"},{"rt":15124,"responses":"{\"no-press\":\"Do nothing\",\"probability\":\"0\",\"bonus\":\"True\"}","errors":0,"trial_type":"pit-comprehension","trial_index":11,"time_elapsed":417816,"internal_node_id":"0.0-11.0"},{"view_history":"[{\"page_index\":0,\"viewing_time\":2711}]","rt":2711,"trial_type":"pit-instructions","trial_index":12,"time_elapsed":420532,"internal_node_id":"0.0-12.0"},{"Correct":-1,"Choice":32,"RT":530,"Accuracy":0,"Sham":0,"Outcome":0,"Block":1,"Trial":1,"Valence":"Win","Action":"No-Go","trial_type":"pit-trial","trial_index":13,"time_elapsed":423568,"internal_node_id":"0.0-13.0"},{"Correct":32,"Choice":32,"RT":665,"Accuracy":1,"Sham":0,"Outcome":0,"Block":1,"Trial":2,"Valence":"Lose","Action":"Go","trial_type":"pit-trial","trial_index":14,"time_elapsed":426738,"internal_node_id":"0.0-14.0"},{"Correct":-1,"Choice":32,"RT":794,"Accuracy":0,"Sham":0,"Outcome":-1,"Block":1,"Trial":3,"Valence":"Lose","Action":"No-Go","trial_type":"pit-trial","trial_index":15,"time_elapsed":430039,"internal_node_id":"0.0-15.0"},{"Correct":32,"Choice":32,"RT":732,"Accuracy":1,"Sham":0,"Outcome":1,"Block":1,"Trial":4,"Valence":"Win","Action":"Go","trial_type":"pit-trial","trial_index":16,"time_elapsed":433277,"internal_node_id":"0.0-16.0"},{"Correct":32,"Choice":32,"RT":989,"Accuracy":1,"Sham":1,"Outcome":-1,"Block":1,"Trial":5,"Valence":"Lose","Action":"Go","trial_type":"pit-trial","trial_index":17,"time_elapsed":436771,"internal_node_id":"0.0-17.0"},{"Correct":-1,"Choice":-1,"RT":-1,"Accuracy":1,"Sham":0,"Outcome":0,"Block":1,"Trial":6,"Valence":"Lose","Action":"No-Go","trial_type":"pit-trial","trial_index":18,"time_elapsed":440775,"internal_node_id":"0.0-18.0"},{"Correct":32,"Choice":32,"RT":487,"Accuracy":1,"Sham":0,"Outcome":1,"Block":1,"Trial":7,"Valence":"Win","Action":"Go","trial_type":"pit-trial","trial_index":19,"time_elapsed":443768,"internal_node_id":"0.0-19.0"},{"Correct":-1,"Choice":32,"RT":715,"Accuracy":0,"Sham":0,"Outcome":0,"Block":1,"Trial":8,"Valence":"Win","Action":"No-Go","trial_type":"pit-trial","trial_index":20,"time_elapsed":446987,"internal_node_id":"0.0-20.0"},{"Correct":32,"Choice":32,"RT":542,"Accuracy":1,"Sham":0,"Outcome":1,"Block":1,"Trial":9,"Valence":"Win","Action":"Go","trial_type":"pit-trial","trial_index":21,"time_elapsed":450035,"internal_node_id":"0.0-21.0"},{"Correct":32,"Choice":-1,"RT":-1,"Accuracy":0,"Sham":0,"Outcome":-1,"Block":1,"Trial":10,"Valence":"Lose","Action":"Go","trial_type":"pit-trial","trial_index":22,"time_elapsed":454040,"internal_node_id":"0.0-22.0"},{"Correct":-1,"Choice":32,"RT":698,"Accuracy":0,"Sham":0,"Outcome":0,"Block":1,"Trial":11,"Valence":"Win","Action":"No-Go","trial_type":"pit-trial","trial_index":23,"time_elapsed":457243,"internal_node_id":"0.0-23.0"},{"Correct":-1,"Choice":-1,"RT":-1,"Accuracy":1,"Sham":0,"Outcome":0,"Block":1,"Trial":12,"Valence":"Lose","Action":"No-Go","trial_type":"pit-trial","trial_index":24,"time_elapsed":461248,"internal_node_id":"0.0-24.0"},{"Correct":32,"Choice":32,"RT":613,"Accuracy":1,"Sham":0,"Outcome":1,"Block":1,"Trial":13,"Valence":"Win","Action":"Go","trial_type":"pit-trial","trial_index":25,"time_elapsed":464367,"internal_node_id":"0.0-25.0"},{"Correct":-1,"Choice":32,"RT":929,"Accuracy":0,"Sham":0,"Outcome":0,"Block":1,"Trial":14,"Valence":"Win","Action":"No-Go","trial_type":"pit-trial","trial_index":26,"time_elapsed":467802,"internal_node_id":"0.0-26.0"},{"Correct":32,"Choice":32,"RT":1048,"Accuracy":1,"Sham":0,"Outcome":0,"Block":1,"Trial":15,"Valence":"Lose","Action":"Go","trial_type":"pit-trial","trial_index":27,"time_elapsed":471355,"internal_node_id":"0.0-27.0"},{"Correct":-1,"Choice":-1,"RT":-1,"Accuracy":1,"Sham":1,"Outcome":-1,"Block":1,"Trial":16,"Valence":"Lose","Action":"No-Go","trial_type":"pit-trial","trial_index":28,"time_elapsed":475359,"internal_node_id":"0.0-28.0"},{"Correct":32,"Choice":32,"RT":504,"Accuracy":1,"Sham":1,"Outcome":0,"Block":1,"Trial":17,"Valence":"Win","Action":"Go","trial_type":"pit-trial","trial_index":29,"time_elapsed":478368,"internal_node_id":"0.0-29.0"},{"Correct":32,"Choice":32,"RT":950,"Accuracy":1,"Sham":0,"Outcome":0,"Block":1,"Trial":18,"Valence":"Lose","Action":"Go","trial_type":"pit-trial","trial_index":30,"time_elapsed":481822,"internal_node_id":"0.0-30.0"},{"Correct":-1,"Choice":32,"RT":983,"Accuracy":0,"Sham":1,"Outcome":1,"Block":1,"Trial":19,"Valence":"Win","Action":"No-Go","trial_type":"pit-trial","trial_index":31,"time_elapsed":485311,"internal_node_id":"0.0-31.0"},{"Correct":-1,"Choice":32,"RT":799,"Accuracy":0,"Sham":0,"Outcome":-1,"Block":1,"Trial":20,"Valence":"Lose","Action":"No-Go","trial_type":"pit-trial","trial_index":32,"time_elapsed":488615,"internal_node_id":"0.0-32.0"},{"Correct":-1,"Choice":-1,"RT":-1,"Accuracy":1,"Sham":0,"Outcome":0,"Block":1,"Trial":21,"Valence":"Lose","Action":"No-Go","trial_type":"pit-trial","trial_index":33,"time_elapsed":492620,"internal_node_id":"0.0-33.0"},{"Correct":-1,"Choice":32,"RT":645,"Accuracy":0,"Sham":0,"Outcome":0,"Block":1,"Trial":22,"Valence":"Win","Action":"No-Go","trial_type":"pit-trial","trial_index":34,"time_elapsed":495772,"internal_node_id":"0.0-34.0"},{"Correct":32,"Choice":32,"RT":548,"Accuracy":1,"Sham":0,"Outcome":1,"Block":1,"Trial":23,"Valence":"Win","Action":"Go","trial_type":"pit-trial","trial_index":35,"time_elapsed":498825,"internal_node_id":"0.0-35.0"},{"Correct":32,"Choice":32,"RT":713,"Accuracy":1,"Sham":0,"Outcome":0,"Block":1,"Trial":24,"Valence":"Lose","Action":"Go","trial_type":"pit-trial","trial_index":36,"time_elapsed":502043,"internal_node_id":"0.0-36.0"},{"Correct":-1,"Choice":-1,"RT":-1,"Accuracy":1,"Sham":0,"Outcome":0,"Block":1,"Trial":25,"Valence":"Lose","Action":"No-Go","trial_type":"pit-trial","trial_index":37,"time_elapsed":506048,"internal_node_id":"0.0-37.0"},{"Correct":32,"Choice":32,"RT":435,"Accuracy":1,"Sham":0,"Outcome":1,"Block":1,"Trial":26,"Valence":"Win","Action":"Go","trial_type":"pit-trial","trial_index":38,"time_elapsed":508987,"internal_node_id":"0.0-38.0"},{"Correct":32,"Choice":-1,"RT":-1,"Accuracy":0,"Sham":0,"Outcome":-1,"Block":1,"Trial":27,"Valence":"Lose","Action":"Go","trial_type":"pit-trial","trial_index":39,"time_elapsed":512991,"internal_node_id":"0.0-39.0"},{"Correct":-1,"Choice":32,"RT":696,"Accuracy":0,"Sham":0,"Outcome":0,"Block":1,"Trial":28,"Valence":"Win","Action":"No-Go","trial_type":"pit-trial","trial_index":40,"time_elapsed":516191,"internal_node_id":"0.0-40.0"},{"Correct":32,"Choice":32,"RT":570,"Accuracy":1,"Sham":0,"Outcome":0,"Block":1,"Trial":29,"Valence":"Lose","Action":"Go","trial_type":"pit-trial","trial_index":41,"time_elapsed":519266,"internal_node_id":"0.0-41.0"},{"Correct":-1,"Choice":32,"RT":881,"Accuracy":0,"Sham":1,"Outcome":1,"Block":1,"Trial":30,"Valence":"Win","Action":"No-Go","trial_type":"pit-trial","trial_index":42,"time_elapsed":522652,"internal_node_id":"0.0-42.0"},{"Correct":32,"Choice":32,"RT":483,"Accuracy":1,"Sham":1,"Outcome":0,"Block":1,"Trial":31,"Valence":"Win","Action":"Go","trial_type":"pit-trial","trial_index":43,"time_elapsed":525639,"internal_node_id":"0.0-43.0"},{"Correct":-1,"Choice":32,"RT":1031,"Accuracy":0,"Sham":0,"Outcome":-1,"Block":1,"Trial":32,"Valence":"Lose","Action":"No-Go","trial_type":"pit-trial","trial_index":44,"time_elapsed":529175,"internal_node_id":"0.0-44.0"},{"Correct":-1,"Choice":-1,"RT":-1,"Accuracy":1,"Sham":0,"Outcome":0,"Block":1,"Trial":33,"Valence":"Lose","Action":"No-Go","trial_type":"pit-trial","trial_index":45,"time_elapsed":533180,"internal_node_id":"0.0-45.0"},{"Correct":-1,"Choice":32,"RT":444,"Accuracy":0,"Sham":0,"Outcome":0,"Block":1,"Trial":34,"Valence":"Win","Action":"No-Go","trial_type":"pit-trial","trial_index":46,"time_elapsed":536128,"internal_node_id":"0.0-46.0"},{"Correct":32,"Choice":32,"RT":495,"Accuracy":1,"Sham":0,"Outcome":1,"Block":1,"Trial":35,"Valence":"Win","Action":"Go","trial_type":"pit-trial","trial_index":47,"time_elapsed":539128,"internal_node_id":"0.0-47.0"},{"Correct":32,"Choice":32,"RT":373,"Accuracy":1,"Sham":1,"Outcome":-1,"Block":1,"Trial":36,"Valence":"Lose","Action":"Go","trial_type":"pit-trial","trial_index":48,"time_elapsed":542005,"internal_node_id":"0.0-48.0"},{"Correct":-1,"Choice":-1,"RT":-1,"Accuracy":1,"Sham":1,"Outcome":-1,"Block":1,"Trial":37,"Valence":"Lose","Action":"No-Go","trial_type":"pit-trial","trial_index":49,"time_elapsed":546010,"internal_node_id":"0.0-49.0"},{"Correct":32,"Choice":32,"RT":758,"Accuracy":1,"Sham":0,"Outcome":0,"Block":1,"Trial":38,"Valence":"Lose","Action":"Go","trial_type":"pit-trial","trial_index":50,"time_elapsed":549273,"internal_node_id":"0.0-50.0"},{"Correct":32,"Choice":32,"RT":460,"Accuracy":1,"Sham":0,"Outcome":1,"Block":1,"Trial":39,"Valence":"Win","Action":"Go","trial_type":"pit-trial","trial_index":51,"time_elapsed":552240,"internal_node_id":"0.0-51.0"},{"Correct":-1,"Choice":32,"RT":644,"Accuracy":0,"Sham":0,"Outcome":0,"Block":1,"Trial":40,"Valence":"Win","Action":"No-Go","trial_type":"pit-trial","trial_index":52,"time_elapsed":555391,"internal_node_id":"0.0-52.0"},{"Correct":32,"Choice":32,"RT":551,"Accuracy":1,"Sham":1,"Outcome":-1,"Block":1,"Trial":41,"Valence":"Lose","Action":"Go","trial_type":"pit-trial","trial_index":53,"time_elapsed":558448,"internal_node_id":"0.0-53.0"},{"Correct":-1,"Choice":32,"RT":524,"Accuracy":0,"Sham":0,"Outcome":0,"Block":1,"Trial":42,"Valence":"Win","Action":"No-Go","trial_type":"pit-trial","trial_index":54,"time_elapsed":561476,"internal_node_id":"0.0-54.0"},{"Correct":-1,"Choice":-1,"RT":-1,"Accuracy":1,"Sham":0,"Outcome":0,"Block":1,"Trial":43,"Valence":"Lose","Action":"No-Go","trial_type":"pit-trial","trial_index":55,"time_elapsed":565480,"internal_node_id":"0.0-55.0"},{"Correct":32,"Choice":32,"RT":458,"Accuracy":1,"Sham":0,"Outcome":1,"Block":1,"Trial":44,"Valence":"Win","Action":"Go","trial_type":"pit-trial","trial_index":56,"time_elapsed":568443,"internal_node_id":"0.0-56.0"},{"Correct":-1,"Choice":-1,"RT":-1,"Accuracy":1,"Sham":0,"Outcome":0,"Block":1,"Trial":45,"Valence":"Lose","Action":"No-Go","trial_type":"pit-trial","trial_index":57,"time_elapsed":572449,"internal_node_id":"0.0-57.0"},{"Correct":-1,"Choice":32,"RT":709,"Accuracy":0,"Sham":1,"Outcome":1,"Block":1,"Trial":46,"Valence":"Win","Action":"No-Go","trial_type":"pit-trial","trial_index":58,"time_elapsed":575662,"internal_node_id":"0.0-58.0"},{"Correct":32,"Choice":32,"RT":970,"Accuracy":1,"Sham":0,"Outcome":0,"Block":1,"Trial":47,"Valence":"Lose","Action":"Go","trial_type":"pit-trial","trial_index":59,"time_elapsed":579138,"internal_node_id":"0.0-59.0"},{"Correct":32,"Choice":32,"RT":471,"Accuracy":1,"Sham":0,"Outcome":1,"Block":1,"Trial":48,"Valence":"Win","Action":"Go","trial_type":"pit-trial","trial_index":60,"time_elapsed":582113,"internal_node_id":"0.0-60.0"},{"Correct":-1,"Choice":-1,"RT":-1,"Accuracy":1,"Sham":0,"Outcome":0,"Block":1,"Trial":49,"Valence":"Lose","Action":"No-Go","trial_type":"pit-trial","trial_index":61,"time_elapsed":586118,"internal_node_id":"0.0-61.0"},{"Correct":32,"Choice":32,"RT":511,"Accuracy":1,"Sham":0,"Outcome":1,"Block":1,"Trial":50,"Valence":"Win","Action":"Go","trial_type":"pit-trial","trial_index":62,"time_elapsed":589132,"internal_node_id":"0.0-62.0"},{"Correct":-1,"Choice":32,"RT":445,"Accuracy":0,"Sham":0,"Outcome":0,"Block":1,"Trial":51,"Valence":"Win","Action":"No-Go","trial_type":"pit-trial","trial_index":63,"time_elapsed":592081,"internal_node_id":"0.0-63.0"},{"Correct":32,"Choice":32,"RT":425,"Accuracy":1,"Sham":0,"Outcome":0,"Block":1,"Trial":52,"Valence":"Lose","Action":"Go","trial_type":"pit-trial","trial_index":64,"time_elapsed":595012,"internal_node_id":"0.0-64.0"},{"Correct":-1,"Choice":32,"RT":569,"Accuracy":0,"Sham":0,"Outcome":0,"Block":1,"Trial":53,"Valence":"Win","Action":"No-Go","trial_type":"pit-trial","trial_index":65,"time_elapsed":598086,"internal_node_id":"0.0-65.0"},{"Correct":32,"Choice":32,"RT":619,"Accuracy":1,"Sham":0,"Outcome":0,"Block":1,"Trial":54,"Valence":"Lose","Action":"Go","trial_type":"pit-trial","trial_index":66,"time_elapsed":601208,"internal_node_id":"0.0-66.0"},{"Correct":-1,"Choice":-1,"RT":-1,"Accuracy":1,"Sham":0,"Outcome":0,"Block":1,"Trial":55,"Valence":"Lose","Action":"No-Go","trial_type":"pit-trial","trial_index":67,"time_elapsed":605213,"internal_node_id":"0.0-67.0"},{"Correct":32,"Choice":32,"RT":395,"Accuracy":1,"Sham":0,"Outcome":1,"Block":1,"Trial":56,"Valence":"Win","Action":"Go","trial_type":"pit-trial","trial_index":68,"time_elapsed":608114,"internal_node_id":"0.0-68.0"},{"Correct":32,"Choice":32,"RT":425,"Accuracy":1,"Sham":1,"Outcome":0,"Block":1,"Trial":57,"Valence":"Win","Action":"Go","trial_type":"pit-trial","trial_index":69,"time_elapsed":611045,"internal_node_id":"0.0-69.0"},{"Correct":32,"Choice":32,"RT":554,"Accuracy":1,"Sham":0,"Outcome":0,"Block":1,"Trial":58,"Valence":"Lose","Action":"Go","trial_type":"pit-trial","trial_index":70,"time_elapsed":614104,"internal_node_id":"0.0-70.0"},{"Correct":-1,"Choice":-1,"RT":-1,"Accuracy":1,"Sham":1,"Outcome":-1,"Block":1,"Trial":59,"Valence":"Lose","Action":"No-Go","trial_type":"pit-trial","trial_index":71,"time_elapsed":618109,"internal_node_id":"0.0-71.0"},{"Correct":-1,"Choice":32,"RT":508,"Accuracy":0,"Sham":0,"Outcome":0,"Block":1,"Trial":60,"Valence":"Win","Action":"No-Go","trial_type":"pit-trial","trial_index":72,"time_elapsed":621121,"internal_node_id":"0.0-72.0"},{"Correct":-1,"Choice":32,"RT":569,"Accuracy":0,"Sham":0,"Outcome":0,"Block":1,"Trial":61,"Valence":"Win","Action":"No-Go","trial_type":"pit-trial","trial_index":73,"time_elapsed":624194,"internal_node_id":"0.0-73.0"},{"Correct":32,"Choice":32,"RT":714,"Accuracy":1,"Sham":0,"Outcome":0,"Block":1,"Trial":62,"Valence":"Lose","Action":"Go","trial_type":"pit-trial","trial_index":74,"time_elapsed":627412,"internal_node_id":"0.0-74.0"},{"Correct":-1,"Choice":-1,"RT":-1,"Accuracy":1,"Sham":0,"Outcome":0,"Block":1,"Trial":63,"Valence":"Lose","Action":"No-Go","trial_type":"pit-trial","trial_index":75,"time_elapsed":631417,"internal_node_id":"0.0-75.0"},{"Correct":32,"Choice":32,"RT":470,"Accuracy":1,"Sham":0,"Outcome":1,"Block":1,"Trial":64,"Valence":"Win","Action":"Go","trial_type":"pit-trial","trial_index":76,"time_elapsed":634393,"internal_node_id":"0.0-76.0"},{"Correct":-1,"Choice":32,"RT":468,"Accuracy":0,"Sham":0,"Outcome":0,"Block":1,"Trial":65,"Valence":"Win","Action":"No-Go","trial_type":"pit-trial","trial_index":77,"time_elapsed":637365,"internal_node_id":"0.0-77.0"},{"Correct":-1,"Choice":-1,"RT":-1,"Accuracy":1,"Sham":0,"Outcome":0,"Block":1,"Trial":66,"Valence":"Lose","Action":"No-Go","trial_type":"pit-trial","trial_index":78,"time_elapsed":641370,"internal_node_id":"0.0-78.0"},{"Correct":32,"Choice":32,"RT":442,"Accuracy":1,"Sham":1,"Outcome":0,"Block":1,"Trial":67,"Valence":"Win","Action":"Go","trial_type":"pit-trial","trial_index":79,"time_elapsed":644317,"internal_node_id":"0.0-79.0"},{"Correct":32,"Choice":32,"RT":608,"Accuracy":1,"Sham":0,"Outcome":0,"Block":1,"Trial":68,"Valence":"Lose","Action":"Go","trial_type":"pit-trial","trial_index":80,"time_elapsed":647430,"internal_node_id":"0.0-80.0"},{"Correct":-1,"Choice":-1,"RT":-1,"Accuracy":1,"Sham":1,"Outcome":-1,"Block":1,"Trial":69,"Valence":"Lose","Action":"No-Go","trial_type":"pit-trial","trial_index":81,"time_elapsed":651435,"internal_node_id":"0.0-81.0"},{"Correct":32,"Choice":32,"RT":718,"Accuracy":1,"Sham":0,"Outcome":0,"Block":1,"Trial":70,"Valence":"Lose","Action":"Go","trial_type":"pit-trial","trial_index":82,"time_elapsed":654657,"internal_node_id":"0.0-82.0"},{"Correct":32,"Choice":32,"RT":471,"Accuracy":1,"Sham":0,"Outcome":1,"Block":1,"Trial":71,"Valence":"Win","Action":"Go","trial_type":"pit-trial","trial_index":83,"time_elapsed":657632,"internal_node_id":"0.0-83.0"},{"Correct":-1,"Choice":32,"RT":535,"Accuracy":0,"Sham":0,"Outcome":0,"Block":1,"Trial":72,"Valence":"Win","Action":"No-Go","trial_type":"pit-trial","trial_index":84,"time_elapsed":660671,"internal_node_id":"0.0-84.0"},{"Correct":-1,"Choice":32,"RT":469,"Accuracy":0,"Sham":0,"Outcome":0,"Block":1,"Trial":73,"Valence":"Win","Action":"No-Go","trial_type":"pit-trial","trial_index":85,"time_elapsed":663645,"internal_node_id":"0.0-85.0"},{"Correct":32,"Choice":32,"RT":745,"Accuracy":1,"Sham":1,"Outcome":-1,"Block":1,"Trial":74,"Valence":"Lose","Action":"Go","trial_type":"pit-trial","trial_index":86,"time_elapsed":666894,"internal_node_id":"0.0-86.0"},{"Correct":32,"Choice":32,"RT":446,"Accuracy":1,"Sham":0,"Outcome":1,"Block":1,"Trial":75,"Valence":"Win","Action":"Go","trial_type":"pit-trial","trial_index":87,"time_elapsed":669846,"internal_node_id":"0.0-87.0"},{"Correct":-1,"Choice":-1,"RT":-1,"Accuracy":1,"Sham":0,"Outcome":0,"Block":1,"Trial":76,"Valence":"Lose","Action":"No-Go","trial_type":"pit-trial","trial_index":88,"time_elapsed":673852,"internal_node_id":"0.0-88.0"},{"Correct":-1,"Choice":32,"RT":529,"Accuracy":0,"Sham":1,"Outcome":1,"Block":1,"Trial":77,"Valence":"Win","Action":"No-Go","trial_type":"pit-trial","trial_index":89,"time_elapsed":676886,"internal_node_id":"0.0-89.0"},{"Correct":32,"Choice":32,"RT":396,"Accuracy":1,"Sham":0,"Outcome":1,"Block":1,"Trial":78,"Valence":"Win","Action":"Go","trial_type":"pit-trial","trial_index":90,"time_elapsed":679786,"internal_node_id":"0.0-90.0"},{"Correct":-1,"Choice":-1,"RT":-1,"Accuracy":1,"Sham":0,"Outcome":0,"Block":1,"Trial":79,"Valence":"Lose","Action":"No-Go","trial_type":"pit-trial","trial_index":91,"time_elapsed":683791,"internal_node_id":"0.0-91.0"},{"Correct":32,"Choice":32,"RT":808,"Accuracy":1,"Sham":0,"Outcome":0,"Block":1,"Trial":80,"Valence":"Lose","Action":"Go","trial_type":"pit-trial","trial_index":92,"time_elapsed":687104,"internal_node_id":"0.0-92.0"},{"value":false,"trial_type":"call-function","trial_index":93,"time_elapsed":687107,"internal_node_id":"0.0-93.0"},{"RT":5191,"trial_type":"pit-pause","trial_index":94,"time_elapsed":696167,"internal_node_id":"0.0-94.0"},{"Correct":32,"Choice":32,"RT":1172,"Accuracy":1,"Sham":0,"Outcome":1,"Block":2,"Trial":81,"Valence":"Win","Action":"Go","trial_type":"pit-trial","trial_index":95,"time_elapsed":699845,"internal_node_id":"0.0-95.0"},{"Correct":-1,"Choice":32,"RT":742,"Accuracy":0,"Sham":0,"Outcome":0,"Block":2,"Trial":82,"Valence":"Win","Action":"No-Go","trial_type":"pit-trial","trial_index":96,"time_elapsed":703092,"internal_node_id":"0.0-96.0"},{"Correct":-1,"Choice":32,"RT":703,"Accuracy":0,"Sham":0,"Outcome":-1,"Block":2,"Trial":83,"Valence":"Lose","Action":"No-Go","trial_type":"pit-trial","trial_index":97,"time_elapsed":706299,"internal_node_id":"0.0-97.0"},{"Correct":32,"Choice":32,"RT":610,"Accuracy":1,"Sham":0,"Outcome":0,"Block":2,"Trial":84,"Valence":"Lose","Action":"Go","trial_type":"pit-trial","trial_index":98,"time_elapsed":709414,"internal_node_id":"0.0-98.0"},{"Correct":32,"Choice":32,"RT":736,"Accuracy":1,"Sham":0,"Outcome":1,"Block":2,"Trial":85,"Valence":"Win","Action":"Go","trial_type":"pit-trial","trial_index":99,"time_elapsed":712655,"internal_node_id":"0.0-99.0"},{"Correct":-1,"Choice":-1,"RT":-1,"Accuracy":1,"Sham":0,"Outcome":1,"Block":2,"Trial":86,"Valence":"Win","Action":"No-Go","trial_type":"pit-trial","trial_index":100,"time_elapsed":716659,"internal_node_id":"0.0-100.0"},{"Correct":32,"Choice":-1,"RT":-1,"Accuracy":0,"Sham":0,"Outcome":-1,"Block":2,"Trial":87,"Valence":"Lose","Action":"Go","trial_type":"pit-trial","trial_index":101,"time_elapsed":720665,"internal_node_id":"0.0-101.0"},{"Correct":-1,"Choice":32,"RT":1012,"Accuracy":0,"Sham":0,"Outcome":-1,"Block":2,"Trial":88,"Valence":"Lose","Action":"No-Go","trial_type":"pit-trial","trial_index":102,"time_elapsed":724183,"internal_node_id":"0.0-102.0"},{"Correct":32,"Choice":32,"RT":904,"Accuracy":1,"Sham":1,"Outcome":-1,"Block":2,"Trial":89,"Valence":"Lose","Action":"Go","trial_type":"pit-trial","trial_index":103,"time_elapsed":727592,"internal_node_id":"0.0-103.0"},{"Correct":32,"Choice":32,"RT":620,"Accuracy":1,"Sham":1,"Outcome":0,"Block":2,"Trial":90,"Valence":"Win","Action":"Go","trial_type":"pit-trial","trial_index":104,"time_elapsed":730717,"internal_node_id":"0.0-104.0"},{"Correct":-1,"Choice":-1,"RT":-1,"Accuracy":1,"Sham":0,"Outcome":1,"Block":2,"Trial":91,"Valence":"Win","Action":"No-Go","trial_type":"pit-trial","trial_index":105,"time_elapsed":734722,"internal_node_id":"0.0-105.0"},{"Correct":-1,"Choice":-1,"RT":-1,"Accuracy":1,"Sham":0,"Outcome":0,"Block":2,"Trial":92,"Valence":"Lose","Action":"No-Go","trial_type":"pit-trial","trial_index":106,"time_elapsed":738727,"internal_node_id":"0.0-106.0"},{"Correct":-1,"Choice":-1,"RT":-1,"Accuracy":1,"Sham":0,"Outcome":0,"Block":2,"Trial":93,"Valence":"Lose","Action":"No-Go","trial_type":"pit-trial","trial_index":107,"time_elapsed":742732,"internal_node_id":"0.0-107.0"},{"Correct":32,"Choice":32,"RT":565,"Accuracy":1,"Sham":0,"Outcome":1,"Block":2,"Trial":94,"Valence":"Win","Action":"Go","trial_type":"pit-trial","trial_index":108,"time_elapsed":745802,"internal_node_id":"0.0-108.0"},{"Correct":32,"Choice":-1,"RT":-1,"Accuracy":0,"Sham":0,"Outcome":-1,"Block":2,"Trial":95,"Valence":"Lose","Action":"Go","trial_type":"pit-trial","trial_index":109,"time_elapsed":749806,"internal_node_id":"0.0-109.0"},{"Correct":-1,"Choice":-1,"RT":-1,"Accuracy":1,"Sham":1,"Outcome":0,"Block":2,"Trial":96,"Valence":"Win","Action":"No-Go","trial_type":"pit-trial","trial_index":110,"time_elapsed":753811,"internal_node_id":"0.0-110.0"},{"Correct":-1,"Choice":-1,"RT":-1,"Accuracy":1,"Sham":1,"Outcome":-1,"Block":2,"Trial":97,"Valence":"Lose","Action":"No-Go","trial_type":"pit-trial","trial_index":111,"time_elapsed":757815,"internal_node_id":"0.0-111.0"},{"Correct":32,"Choice":32,"RT":501,"Accuracy":1,"Sham":0,"Outcome":1,"Block":2,"Trial":98,"Valence":"Win","Action":"Go","trial_type":"pit-trial","trial_index":112,"time_elapsed":760820,"internal_node_id":"0.0-112.0"},{"Correct":32,"Choice":-1,"RT":-1,"Accuracy":0,"Sham":0,"Outcome":-1,"Block":2,"Trial":99,"Valence":"Lose","Action":"Go","trial_type":"pit-trial","trial_index":113,"time_elapsed":764825,"internal_node_id":"0.0-113.0"},{"Correct":-1,"Choice":-1,"RT":-1,"Accuracy":1,"Sham":0,"Outcome":1,"Block":2,"Trial":100,"Valence":"Win","Action":"No-Go","trial_type":"pit-trial","trial_index":114,"time_elapsed":768830,"internal_node_id":"0.0-114.0"},{"Correct":-1,"Choice":-1,"RT":-1,"Accuracy":1,"Sham":0,"Outcome":0,"Block":2,"Trial":101,"Valence":"Lose","Action":"No-Go","trial_type":"pit-trial","trial_index":115,"time_elapsed":772834,"internal_node_id":"0.0-115.0"},{"Correct":32,"Choice":-1,"RT":-1,"Accuracy":0,"Sham":0,"Outcome":-1,"Block":2,"Trial":102,"Valence":"Lose","Action":"Go","trial_type":"pit-trial","trial_index":116,"time_elapsed":776839,"internal_node_id":"0.0-116.0"},{"Correct":32,"Choice":32,"RT":1176,"Accuracy":1,"Sham":1,"Outcome":0,"Block":2,"Trial":103,"Valence":"Win","Action":"Go","trial_type":"pit-trial","trial_index":117,"time_elapsed":780520,"internal_node_id":"0.0-117.0"},{"Correct":-1,"Choice":-1,"RT":-1,"Accuracy":1,"Sham":1,"Outcome":0,"Block":2,"Trial":104,"Valence":"Win","Action":"No-Go","trial_type":"pit-trial","trial_index":118,"time_elapsed":784525,"internal_node_id":"0.0-118.0"},{"Correct":32,"Choice":32,"RT":920,"Accuracy":1,"Sham":0,"Outcome":0,"Block":2,"Trial":105,"Valence":"Lose","Action":"Go","trial_type":"pit-trial","trial_index":119,"time_elapsed":787948,"internal_node_id":"0.0-119.0"},{"Correct":32,"Choice":32,"RT":560,"Accuracy":1,"Sham":0,"Outcome":1,"Block":2,"Trial":106,"Valence":"Win","Action":"Go","trial_type":"pit-trial","trial_index":120,"time_elapsed":791014,"internal_node_id":"0.0-120.0"},{"Correct":-1,"Choice":-1,"RT":-1,"Accuracy":1,"Sham":0,"Outcome":1,"Block":2,"Trial":107,"Valence":"Win","Action":"No-Go","trial_type":"pit-trial","trial_index":121,"time_elapsed":795020,"internal_node_id":"0.0-121.0"},{"Correct":-1,"Choice":32,"RT":1404,"Accuracy":0,"Sham":0,"Outcome":-1,"Block":2,"Trial":108,"Valence":"Lose","Action":"No-Go","trial_type":"pit-trial","trial_index":122,"time_elapsed":798929,"internal_node_id":"0.0-122.0"},{"Correct":-1,"Choice":-1,"RT":-1,"Accuracy":1,"Sham":0,"Outcome":1,"Block":2,"Trial":109,"Valence":"Win","Action":"No-Go","trial_type":"pit-trial","trial_index":123,"time_elapsed":802933,"internal_node_id":"0.0-123.0"},{"Correct":-1,"Choice":-1,"RT":-1,"Accuracy":1,"Sham":0,"Outcome":0,"Block":2,"Trial":110,"Valence":"Lose","Action":"No-Go","trial_type":"pit-trial","trial_index":124,"time_elapsed":806937,"internal_node_id":"0.0-124.0"},{"Correct":32,"Choice":32,"RT":564,"Accuracy":1,"Sham":0,"Outcome":1,"Block":2,"Trial":111,"Valence":"Win","Action":"Go","trial_type":"pit-trial","trial_index":125,"time_elapsed":810007,"internal_node_id":"0.0-125.0"},{"Correct":32,"Choice":-1,"RT":-1,"Accuracy":0,"Sham":0,"Outcome":-1,"Block":2,"Trial":112,"Valence":"Lose","Action":"Go","trial_type":"pit-trial","trial_index":126,"time_elapsed":814011,"internal_node_id":"0.0-126.0"},{"Correct":-1,"Choice":-1,"RT":-1,"Accuracy":1,"Sham":0,"Outcome":1,"Block":2,"Trial":113,"Valence":"Win","Action":"No-Go","trial_type":"pit-trial","trial_index":127,"time_elapsed":818016,"internal_node_id":"0.0-127.0"},{"Correct":-1,"Choice":32,"RT":778,"Accuracy":0,"Sham":0,"Outcome":-1,"Block":2,"Trial":114,"Valence":"Lose","Action":"No-Go","trial_type":"pit-trial","trial_index":128,"time_elapsed":821299,"internal_node_id":"0.0-128.0"},{"Correct":32,"Choice":32,"RT":986,"Accuracy":1,"Sham":1,"Outcome":-1,"Block":2,"Trial":115,"Valence":"Lose","Action":"Go","trial_type":"pit-trial","trial_index":129,"time_elapsed":824790,"internal_node_id":"0.0-129.0"},{"Correct":32,"Choice":32,"RT":478,"Accuracy":1,"Sham":0,"Outcome":1,"Block":2,"Trial":116,"Valence":"Win","Action":"Go","trial_type":"pit-trial","trial_index":130,"time_elapsed":827773,"internal_node_id":"0.0-130.0"},{"Correct":-1,"Choice":-1,"RT":-1,"Accuracy":1,"Sham":1,"Outcome":-1,"Block":2,"Trial":117,"Valence":"Lose","Action":"No-Go","trial_type":"pit-trial","trial_index":131,"time_elapsed":831779,"internal_node_id":"0.0-131.0"},{"Correct":32,"Choice":-1,"RT":-1,"Accuracy":0,"Sham":0,"Outcome":-1,"Block":2,"Trial":118,"Valence":"Lose","Action":"Go","trial_type":"pit-trial","trial_index":132,"time_elapsed":835784,"internal_node_id":"0.0-132.0"},{"Correct":-1,"Choice":-1,"RT":-1,"Accuracy":1,"Sham":0,"Outcome":1,"Block":2,"Trial":119,"Valence":"Win","Action":"No-Go","trial_type":"pit-trial","trial_index":133,"time_elapsed":839792,"internal_node_id":"0.0-133.0"},{"Correct":32,"Choice":32,"RT":505,"Accuracy":1,"Sham":0,"Outcome":1,"Block":2,"Trial":120,"Valence":"Win","Action":"Go","trial_type":"pit-trial","trial_index":134,"time_elapsed":842802,"internal_node_id":"0.0-134.0"},{"Correct":-1,"Choice":-1,"RT":-1,"Accuracy":1,"Sham":0,"Outcome":1,"Block":2,"Trial":121,"Valence":"Win","Action":"No-Go","trial_type":"pit-trial","trial_index":135,"time_elapsed":846807,"internal_node_id":"0.0-135.0"},{"Correct":-1,"Choice":32,"RT":1397,"Accuracy":0,"Sham":0,"Outcome":-1,"Block":2,"Trial":122,"Valence":"Lose","Action":"No-Go","trial_type":"pit-trial","trial_index":136,"time_elapsed":850710,"internal_node_id":"0.0-136.0"},{"Correct":32,"Choice":32,"RT":1373,"Accuracy":1,"Sham":0,"Outcome":0,"Block":2,"Trial":123,"Valence":"Lose","Action":"Go","trial_type":"pit-trial","trial_index":137,"time_elapsed":854589,"internal_node_id":"0.0-137.0"},{"Correct":32,"Choice":32,"RT":532,"Accuracy":1,"Sham":1,"Outcome":0,"Block":2,"Trial":124,"Valence":"Win","Action":"Go","trial_type":"pit-trial","trial_index":138,"time_elapsed":857626,"internal_node_id":"0.0-138.0"},{"Correct":32,"Choice":-1,"RT":-1,"Accuracy":0,"Sham":1,"Outcome":0,"Block":2,"Trial":125,"Valence":"Lose","Action":"Go","trial_type":"pit-trial","trial_index":139,"time_elapsed":861629,"internal_node_id":"0.0-139.0"},{"Correct":-1,"Choice":-1,"RT":-1,"Accuracy":1,"Sham":0,"Outcome":0,"Block":2,"Trial":126,"Valence":"Lose","Action":"No-Go","trial_type":"pit-trial","trial_index":140,"time_elapsed":865634,"internal_node_id":"0.0-140.0"},{"Correct":-1,"Choice":-1,"RT":-1,"Accuracy":1,"Sham":0,"Outcome":1,"Block":2,"Trial":127,"Valence":"Win","Action":"No-Go","trial_type":"pit-trial","trial_index":141,"time_elapsed":869638,"internal_node_id":"0.0-141.0"},{"Correct":32,"Choice":32,"RT":502,"Accuracy":1,"Sham":0,"Outcome":1,"Block":2,"Trial":128,"Valence":"Win","Action":"Go","trial_type":"pit-trial","trial_index":142,"time_elapsed":872644,"internal_node_id":"0.0-142.0"},{"Correct":-1,"Choice":-1,"RT":-1,"Accuracy":1,"Sham":0,"Outcome":0,"Block":2,"Trial":129,"Valence":"Lose","Action":"No-Go","trial_type":"pit-trial","trial_index":143,"time_elapsed":876649,"internal_node_id":"0.0-143.0"},{"Correct":32,"Choice":32,"RT":746,"Accuracy":1,"Sham":0,"Outcome":1,"Block":2,"Trial":130,"Valence":"Win","Action":"Go","trial_type":"pit-trial","trial_index":144,"time_elapsed":879900,"internal_node_id":"0.0-144.0"},{"Correct":32,"Choice":32,"RT":1189,"Accuracy":1,"Sham":0,"Outcome":0,"Block":2,"Trial":131,"Valence":"Lose","Action":"Go","trial_type":"pit-trial","trial_index":145,"time_elapsed":883594,"internal_node_id":"0.0-145.0"},{"Correct":-1,"Choice":-1,"RT":-1,"Accuracy":1,"Sham":0,"Outcome":1,"Block":2,"Trial":132,"Valence":"Win","Action":"No-Go","trial_type":"pit-trial","trial_index":146,"time_elapsed":887599,"internal_node_id":"0.0-146.0"},{"Correct":-1,"Choice":-1,"RT":-1,"Accuracy":1,"Sham":0,"Outcome":0,"Block":2,"Trial":133,"Valence":"Lose","Action":"No-Go","trial_type":"pit-trial","trial_index":147,"time_elapsed":891604,"internal_node_id":"0.0-147.0"},{"Correct":32,"Choice":32,"RT":546,"Accuracy":1,"Sham":0,"Outcome":1,"Block":2,"Trial":134,"Valence":"Win","Action":"Go","trial_type":"pit-trial","trial_index":148,"time_elapsed":894653,"internal_node_id":"0.0-148.0"},{"Correct":32,"Choice":32,"RT":572,"Accuracy":1,"Sham":0,"Outcome":0,"Block":2,"Trial":135,"Valence":"Lose","Action":"Go","trial_type":"pit-trial","trial_index":149,"time_elapsed":897730,"internal_node_id":"0.0-149.0"},{"Correct":-1,"Choice":-1,"RT":-1,"Accuracy":1,"Sham":0,"Outcome":1,"Block":2,"Trial":136,"Valence":"Win","Action":"No-Go","trial_type":"pit-trial","trial_index":150,"time_elapsed":901735,"internal_node_id":"0.0-150.0"},{"Correct":-1,"Choice":-1,"RT":-1,"Accuracy":1,"Sham":1,"Outcome":-1,"Block":2,"Trial":137,"Valence":"Lose","Action":"No-Go","trial_type":"pit-trial","trial_index":151,"time_elapsed":905740,"internal_node_id":"0.0-151.0"},{"Correct":32,"Choice":32,"RT":471,"Accuracy":1,"Sham":0,"Outcome":1,"Block":2,"Trial":138,"Valence":"Win","Action":"Go","trial_type":"pit-trial","trial_index":152,"time_elapsed":908717,"internal_node_id":"0.0-152.0"},{"Correct":32,"Choice":32,"RT":384,"Accuracy":1,"Sham":0,"Outcome":0,"Block":2,"Trial":139,"Valence":"Lose","Action":"Go","trial_type":"pit-trial","trial_index":153,"time_elapsed":911606,"internal_node_id":"0.0-153.0"},{"Correct":-1,"Choice":-1,"RT":-1,"Accuracy":1,"Sham":1,"Outcome":0,"Block":2,"Trial":140,"Valence":"Win","Action":"No-Go","trial_type":"pit-trial","trial_index":154,"time_elapsed":915611,"internal_node_id":"0.0-154.0"},{"Correct":-1,"Choice":-1,"RT":-1,"Accuracy":1,"Sham":1,"Outcome":0,"Block":2,"Trial":141,"Valence":"Win","Action":"No-Go","trial_type":"pit-trial","trial_index":155,"time_elapsed":919615,"internal_node_id":"0.0-155.0"},{"Correct":32,"Choice":32,"RT":1002,"Accuracy":1,"Sham":0,"Outcome":0,"Block":2,"Trial":142,"Valence":"Lose","Action":"Go","trial_type":"pit-trial","trial_index":156,"time_elapsed":923121,"internal_node_id":"0.0-156.0"},{"Correct":32,"Choice":32,"RT":527,"Accuracy":1,"Sham":0,"Outcome":1,"Block":2,"Trial":143,"Valence":"Win","Action":"Go","trial_type":"pit-trial","trial_index":157,"time_elapsed":926153,"internal_node_id":"0.0-157.0"},{"Correct":-1,"Choice":-1,"RT":-1,"Accuracy":1,"Sham":0,"Outcome":0,"Block":2,"Trial":144,"Valence":"Lose","Action":"No-Go","trial_type":"pit-trial","trial_index":158,"time_elapsed":930159,"internal_node_id":"0.0-158.0"},{"Correct":-1,"Choice":-1,"RT":-1,"Accuracy":1,"Sham":0,"Outcome":0,"Block":2,"Trial":145,"Valence":"Lose","Action":"No-Go","trial_type":"pit-trial","trial_index":159,"time_elapsed":934163,"internal_node_id":"0.0-159.0"},{"Correct":32,"Choice":32,"RT":515,"Accuracy":1,"Sham":0,"Outcome":1,"Block":2,"Trial":146,"Valence":"Win","Action":"Go","trial_type":"pit-trial","trial_index":160,"time_elapsed":937183,"internal_node_id":"0.0-160.0"},{"Correct":32,"Choice":32,"RT":653,"Accuracy":1,"Sham":0,"Outcome":0,"Block":2,"Trial":147,"Valence":"Lose","Action":"Go","trial_type":"pit-trial","trial_index":161,"time_elapsed":940340,"internal_node_id":"0.0-161.0"},{"Correct":-1,"Choice":-1,"RT":-1,"Accuracy":1,"Sham":0,"Outcome":1,"Block":2,"Trial":148,"Valence":"Win","Action":"No-Go","trial_type":"pit-trial","trial_index":162,"time_elapsed":944345,"internal_node_id":"0.0-162.0"},{"Correct":-1,"Choice":-1,"RT":-1,"Accuracy":1,"Sham":0,"Outcome":1,"Block":2,"Trial":149,"Valence":"Win","Action":"No-Go","trial_type":"pit-trial","trial_index":163,"time_elapsed":948349,"internal_node_id":"0.0-163.0"},{"Correct":-1,"Choice":-1,"RT":-1,"Accuracy":1,"Sham":0,"Outcome":0,"Block":2,"Trial":150,"Valence":"Lose","Action":"No-Go","trial_type":"pit-trial","trial_index":164,"time_elapsed":952356,"internal_node_id":"0.0-164.0"},{"Correct":32,"Choice":32,"RT":556,"Accuracy":1,"Sham":0,"Outcome":0,"Block":2,"Trial":151,"Valence":"Lose","Action":"Go","trial_type":"pit-trial","trial_index":165,"time_elapsed":955417,"internal_node_id":"0.0-165.0"},{"Correct":32,"Choice":32,"RT":521,"Accuracy":1,"Sham":0,"Outcome":1,"Block":2,"Trial":152,"Valence":"Win","Action":"Go","trial_type":"pit-trial","trial_index":166,"time_elapsed":958442,"internal_node_id":"0.0-166.0"},{"Correct":32,"Choice":32,"RT":582,"Accuracy":1,"Sham":0,"Outcome":1,"Block":2,"Trial":153,"Valence":"Win","Action":"Go","trial_type":"pit-trial","trial_index":167,"time_elapsed":961528,"internal_node_id":"0.0-167.0"},{"Correct":-1,"Choice":-1,"RT":-1,"Accuracy":1,"Sham":0,"Outcome":0,"Block":2,"Trial":154,"Valence":"Lose","Action":"No-Go","trial_type":"pit-trial","trial_index":168,"time_elapsed":965532,"internal_node_id":"0.0-168.0"},{"Correct":32,"Choice":32,"RT":868,"Accuracy":1,"Sham":0,"Outcome":0,"Block":2,"Trial":155,"Valence":"Lose","Action":"Go","trial_type":"pit-trial","trial_index":169,"time_elapsed":968904,"internal_node_id":"0.0-169.0"},{"Correct":-1,"Choice":-1,"RT":-1,"Accuracy":1,"Sham":0,"Outcome":1,"Block":2,"Trial":156,"Valence":"Win","Action":"No-Go","trial_type":"pit-trial","trial_index":170,"time_elapsed":972908,"internal_node_id":"0.0-170.0"},{"Correct":32,"Choice":32,"RT":605,"Accuracy":1,"Sham":1,"Outcome":-1,"Block":2,"Trial":157,"Valence":"Lose","Action":"Go","trial_type":"pit-trial","trial_index":171,"time_elapsed":976019,"internal_node_id":"0.0-171.0"},{"Correct":-1,"Choice":-1,"RT":-1,"Accuracy":1,"Sham":1,"Outcome":-1,"Block":2,"Trial":158,"Valence":"Lose","Action":"No-Go","trial_type":"pit-trial","trial_index":172,"time_elapsed":980023,"internal_node_id":"0.0-172.0"},{"Correct":-1,"Choice":-1,"RT":-1,"Accuracy":1,"Sham":0,"Outcome":1,"Block":2,"Trial":159,"Valence":"Win","Action":"No-Go","trial_type":"pit-trial","trial_index":173,"time_elapsed":984028,"internal_node_id":"0.0-173.0"},{"Correct":32,"Choice":32,"RT":454,"Accuracy":1,"Sham":1,"Outcome":0,"Block":2,"Trial":160,"Valence":"Win","Action":"Go","trial_type":"pit-trial","trial_index":174,"time_elapsed":986988,"internal_node_id":"0.0-174.0"},{"rt":10361,"demographics":{"age":"58","gender-categorical":"Male","ethnicity":"Not Hispanic or Latino","race":"White","english":"Yes","fluency":"Very well"},"trial_type":"survey-demo","trial_index":175,"time_elapsed":997355,"internal_node_id":"0.0-175.0"},{"rt":39294,"debriefgraphics":{"difficulty":"2","fun":"2","clarity":"5","strategy":"I didn't write anything down. I tried to remember which symbols meant that the robot was assembled correctly.","feedback":"n/a"},"trial_type":"survey-debrief","trial_index":176,"time_elapsed":1036656,"internal_node_id":"0.0-176.0","interactions":"[{\"event\":\"focus\",\"trial\":0,\"time\":0},{\"event\":\"blur\",\"trial\":10,\"time\":375070},{\"event\":\"focus\",\"trial\":10,\"time\":386334},{\"event\":\"blur\",\"trial\":75,\"time\":627691},{\"event\":\"focus\",\"trial\":75,\"time\":627834},{\"event\":\"blur\",\"trial\":132,\"time\":834593},{\"event\":\"focus\",\"trial\":132,\"time\":835732},{\"event\":\"blur\",\"trial\":176,\"time\":1031303},{\"event\":\"focus\",\"trial\":176,\"time\":1033319}]"}]