[{"view_history":"[{\"page_index\":0,\"viewing_time\":2872},{\"page_index\":1,\"viewing_time\":6391},{\"page_index\":2,\"viewing_time\":13984},{\"page_index\":3,\"viewing_time\":6384},{\"page_index\":4,\"viewing_time\":8536}]","rt":38168,"trial_type":"pit-instructions","trial_index":0,"time_elapsed":38171,"internal_node_id":"0.0-0.0"},{"Correct":32,"Choice":32,"RT":892,"Accuracy":1,"Sham":0,"Outcome":1,"trial_type":"pit-trial","trial_index":1,"time_elapsed":41569,"internal_node_id":"0.0-1.0"},{"Correct":32,"Choice":32,"RT":818,"Accuracy":1,"Sham":0,"Outcome":1,"trial_type":"pit-trial","trial_index":2,"time_elapsed":44893,"internal_node_id":"0.0-2.0"},{"Correct":32,"Choice":32,"RT":798,"Accuracy":1,"Sham":0,"Outcome":1,"trial_type":"pit-trial","trial_index":3,"time_elapsed":48199,"internal_node_id":"0.0-3.0"},{"Correct":32,"Choice":32,"RT":735,"Accuracy":1,"Sham":0,"Outcome":1,"trial_type":"pit-trial","trial_index":4,"time_elapsed":51438,"internal_node_id":"0.0-4.0"},{"view_history":"[{\"page_index\":0,\"viewing_time\":6779}]","rt":6780,"trial_type":"pit-instructions","trial_index":5,"time_elapsed":58219,"internal_node_id":"0.0-5.0"},{"Correct":-1,"Choice":-1,"RT":-1,"Accuracy":1,"Sham":0,"Outcome":1,"trial_type":"pit-trial","trial_index":6,"time_elapsed":62223,"internal_node_id":"0.0-6.0"},{"Correct":-1,"Choice":-1,"RT":-1,"Accuracy":1,"Sham":0,"Outcome":1,"trial_type":"pit-trial","trial_index":7,"time_elapsed":66229,"internal_node_id":"0.0-7.0"},{"Correct":-1,"Choice":-1,"RT":-1,"Accuracy":1,"Sham":0,"Outcome":1,"trial_type":"pit-trial","trial_index":8,"time_elapsed":70232,"internal_node_id":"0.0-8.0"},{"Correct":-1,"Choice":-1,"RT":-1,"Accuracy":1,"Sham":0,"Outcome":1,"trial_type":"pit-trial","trial_index":9,"time_elapsed":74237,"internal_node_id":"0.0-9.0"},{"view_history":"[{\"page_index\":0,\"viewing_time\":4652},{\"page_index\":1,\"viewing_time\":9183},{\"page_index\":2,\"viewing_time\":8640},{\"page_index\":3,\"viewing_time\":5728},{\"page_index\":4,\"viewing_time\":3777},{\"page_index\":5,\"viewing_time\":6567},{\"page_index\":6,\"viewing_time\":3345},{\"page_index\":7,\"viewing_time\":2343}]","rt":44236,"trial_type":"pit-instructions","trial_index":10,"time_elapsed":118474,"internal_node_id":"0.0-10.0"},{"rt":22773,"responses":"{\"no-press\":\"Do nothing\",\"probability\":\"0\",\"bonus\":\"True\"}","errors":1,"trial_type":"pit-comprehension","trial_index":11,"time_elapsed":141252,"internal_node_id":"0.0-11.0"},{"view_history":"[{\"page_index\":0,\"viewing_time\":3220}]","rt":3220,"trial_type":"pit-instructions","trial_index":12,"time_elapsed":144473,"internal_node_id":"0.0-12.0"},{"Correct":-1,"Choice":32,"RT":1081,"Accuracy":0,"Sham":0,"Outcome":0,"Block":1,"Trial":1,"Valence":"Win","Action":"No-Go","trial_type":"pit-trial","trial_index":13,"time_elapsed":148059,"internal_node_id":"0.0-13.0"},{"Correct":32,"Choice":-1,"RT":-1,"Accuracy":0,"Sham":0,"Outcome":-1,"Block":1,"Trial":2,"Valence":"Lose","Action":"Go","trial_type":"pit-trial","trial_index":14,"time_elapsed":152065,"internal_node_id":"0.0-14.0"},{"Correct":-1,"Choice":32,"RT":896,"Accuracy":0,"Sham":0,"Outcome":-1,"Block":1,"Trial":3,"Valence":"Lose","Action":"No-Go","trial_type":"pit-trial","trial_index":15,"time_elapsed":155467,"internal_node_id":"0.0-15.0"},{"Correct":32,"Choice":32,"RT":647,"Accuracy":1,"Sham":0,"Outcome":1,"Block":1,"Trial":4,"Valence":"Win","Action":"Go","trial_type":"pit-trial","trial_index":16,"time_elapsed":158620,"internal_node_id":"0.0-16.0"},{"Correct":32,"Choice":-1,"RT":-1,"Accuracy":0,"Sham":1,"Outcome":0,"Block":1,"Trial":5,"Valence":"Lose","Action":"Go","trial_type":"pit-trial","trial_index":17,"time_elapsed":162625,"internal_node_id":"0.0-17.0"},{"Correct":-1,"Choice":-1,"RT":-1,"Accuracy":1,"Sham":0,"Outcome":0,"Block":1,"Trial":6,"Valence":"Lose","Action":"No-Go","trial_type":"pit-trial","trial_index":18,"time_elapsed":166628,"internal_node_id":"0.0-18.0"},{"Correct":32,"Choice":32,"RT":432,"Accuracy":1,"Sham":0,"Outcome":1,"Block":1,"Trial":7,"Valence":"Win","Action":"Go","trial_type":"pit-trial","trial_index":19,"time_elapsed":169566,"internal_node_id":"0.0-19.0"},{"Correct":-1,"Choice":32,"RT":614,"Accuracy":0,"Sham":0,"Outcome":0,"Block":1,"Trial":8,"Valence":"Win","Action":"No-Go","trial_type":"pit-trial","trial_index":20,"time_elapsed":172683,"internal_node_id":"0.0-20.0"},{"Correct":32,"Choice":32,"RT":497,"Accuracy":1,"Sham":0,"Outcome":1,"Block":1,"Trial":9,"Valence":"Win","Action":"Go","trial_type":"pit-trial","trial_index":21,"time_elapsed":175708,"internal_node_id":"0.0-21.0"},{"Correct":32,"Choice":-1,"RT":-1,"Accuracy":0,"Sham":0,"Outcome":-1,"Block":1,"Trial":10,"Valence":"Lose","Action":"Go","trial_type":"pit-trial","trial_index":22,"time_elapsed":179712,"internal_node_id":"0.0-22.0"},{"Correct":-1,"Choice":32,"RT":486,"Accuracy":0,"Sham":0,"Outcome":0,"Block":1,"Trial":11,"Valence":"Win","Action":"No-Go","trial_type":"pit-trial","trial_index":23,"time_elapsed":182701,"internal_node_id":"0.0-23.0"},{"Correct":-1,"Choice":-1,"RT":-1,"Accuracy":1,"Sham":0,"Outcome":0,"Block":1,"Trial":12,"Valence":"Lose","Action":"No-Go","trial_type":"pit-trial","trial_index":24,"time_elapsed":186703,"internal_node_id":"0.0-24.0"},{"Correct":32,"Choice":32,"RT":488,"Accuracy":1,"Sham":0,"Outcome":1,"Block":1,"Trial":13,"Valence":"Win","Action":"Go","trial_type":"pit-trial","trial_index":25,"time_elapsed":189695,"internal_node_id":"0.0-25.0"},{"Correct":-1,"Choice":32,"RT":697,"Accuracy":0,"Sham":0,"Outcome":0,"Block":1,"Trial":14,"Valence":"Win","Action":"No-Go","trial_type":"pit-trial","trial_index":26,"time_elapsed":192894,"internal_node_id":"0.0-26.0"},{"Correct":32,"Choice":-1,"RT":-1,"Accuracy":0,"Sham":0,"Outcome":-1,"Block":1,"Trial":15,"Valence":"Lose","Action":"Go","trial_type":"pit-trial","trial_index":27,"time_elapsed":196897,"internal_node_id":"0.0-27.0"},{"Correct":-1,"Choice":-1,"RT":-1,"Accuracy":1,"Sham":1,"Outcome":-1,"Block":1,"Trial":16,"Valence":"Lose","Action":"No-Go","trial_type":"pit-trial","trial_index":28,"time_elapsed":200901,"internal_node_id":"0.0-28.0"},{"Correct":32,"Choice":32,"RT":477,"Accuracy":1,"Sham":1,"Outcome":0,"Block":1,"Trial":17,"Valence":"Win","Action":"Go","trial_type":"pit-trial","trial_index":29,"time_elapsed":203882,"internal_node_id":"0.0-29.0"},{"Correct":32,"Choice":32,"RT":744,"Accuracy":1,"Sham":0,"Outcome":0,"Block":1,"Trial":18,"Valence":"Lose","Action":"Go","trial_type":"pit-trial","trial_index":30,"time_elapsed":207130,"internal_node_id":"0.0-30.0"},{"Correct":-1,"Choice":32,"RT":532,"Accuracy":0,"Sham":1,"Outcome":1,"Block":1,"Trial":19,"Valence":"Win","Action":"No-Go","trial_type":"pit-trial","trial_index":31,"time_elapsed":210170,"internal_node_id":"0.0-31.0"},{"Correct":-1,"Choice":32,"RT":1113,"Accuracy":0,"Sham":0,"Outcome":-1,"Block":1,"Trial":20,"Valence":"Lose","Action":"No-Go","trial_type":"pit-trial","trial_index":32,"time_elapsed":213785,"internal_node_id":"0.0-32.0"},{"Correct":-1,"Choice":-1,"RT":-1,"Accuracy":1,"Sham":0,"Outcome":0,"Block":1,"Trial":21,"Valence":"Lose","Action":"No-Go","trial_type":"pit-trial","trial_index":33,"time_elapsed":217789,"internal_node_id":"0.0-33.0"},{"Correct":-1,"Choice":32,"RT":476,"Accuracy":0,"Sham":0,"Outcome":0,"Block":1,"Trial":22,"Valence":"Win","Action":"No-Go","trial_type":"pit-trial","trial_index":34,"time_elapsed":220771,"internal_node_id":"0.0-34.0"},{"Correct":32,"Choice":32,"RT":601,"Accuracy":1,"Sham":0,"Outcome":1,"Block":1,"Trial":23,"Valence":"Win","Action":"Go","trial_type":"pit-trial","trial_index":35,"time_elapsed":223875,"internal_node_id":"0.0-35.0"},{"Correct":32,"Choice":32,"RT":473,"Accuracy":1,"Sham":0,"Outcome":0,"Block":1,"Trial":24,"Valence":"Lose","Action":"Go","trial_type":"pit-trial","trial_index":36,"time_elapsed":226851,"internal_node_id":"0.0-36.0"},{"Correct":-1,"Choice":32,"RT":952,"Accuracy":0,"Sham":0,"Outcome":-1,"Block":1,"Trial":25,"Valence":"Lose","Action":"No-Go","trial_type":"pit-trial","trial_index":37,"time_elapsed":230309,"internal_node_id":"0.0-37.0"},{"Correct":32,"Choice":32,"RT":536,"Accuracy":1,"Sham":0,"Outcome":1,"Block":1,"Trial":26,"Valence":"Win","Action":"Go","trial_type":"pit-trial","trial_index":38,"time_elapsed":233350,"internal_node_id":"0.0-38.0"},{"Correct":32,"Choice":32,"RT":589,"Accuracy":1,"Sham":0,"Outcome":0,"Block":1,"Trial":27,"Valence":"Lose","Action":"Go","trial_type":"pit-trial","trial_index":39,"time_elapsed":236446,"internal_node_id":"0.0-39.0"},{"Correct":-1,"Choice":32,"RT":599,"Accuracy":0,"Sham":0,"Outcome":0,"Block":1,"Trial":28,"Valence":"Win","Action":"No-Go","trial_type":"pit-trial","trial_index":40,"time_elapsed":239548,"internal_node_id":"0.0-40.0"},{"Correct":32,"Choice":32,"RT":745,"Accuracy":1,"Sham":0,"Outcome":0,"Block":1,"Trial":29,"Valence":"Lose","Action":"Go","trial_type":"pit-trial","trial_index":41,"time_elapsed":242797,"internal_node_id":"0.0-41.0"},{"Correct":-1,"Choice":32,"RT":593,"Accuracy":0,"Sham":1,"Outcome":1,"Block":1,"Trial":30,"Valence":"Win","Action":"No-Go","trial_type":"pit-trial","trial_index":42,"time_elapsed":245895,"internal_node_id":"0.0-42.0"},{"Correct":32,"Choice":32,"RT":527,"Accuracy":1,"Sham":1,"Outcome":0,"Block":1,"Trial":31,"Valence":"Win","Action":"Go","trial_type":"pit-trial","trial_index":43,"time_elapsed":248924,"internal_node_id":"0.0-43.0"},{"Correct":-1,"Choice":-1,"RT":-1,"Accuracy":1,"Sham":0,"Outcome":0,"Block":1,"Trial":32,"Valence":"Lose","Action":"No-Go","trial_type":"pit-trial","trial_index":44,"time_elapsed":252928,"internal_node_id":"0.0-44.0"},{"Correct":-1,"Choice":-1,"RT":-1,"Accuracy":1,"Sham":0,"Outcome":0,"Block":1,"Trial":33,"Valence":"Lose","Action":"No-Go","trial_type":"pit-trial","trial_index":45,"time_elapsed":256930,"internal_node_id":"0.0-45.0"},{"Correct":-1,"Choice":32,"RT":435,"Accuracy":0,"Sham":0,"Outcome":0,"Block":1,"Trial":34,"Valence":"Win","Action":"No-Go","trial_type":"pit-trial","trial_index":46,"time_elapsed":259870,"internal_node_id":"0.0-46.0"},{"Correct":32,"Choice":32,"RT":419,"Accuracy":1,"Sham":0,"Outcome":1,"Block":1,"Trial":35,"Valence":"Win","Action":"Go","trial_type":"pit-trial","trial_index":47,"time_elapsed":262792,"internal_node_id":"0.0-47.0"},{"Correct":32,"Choice":32,"RT":696,"Accuracy":1,"Sham":1,"Outcome":-1,"Block":1,"Trial":36,"Valence":"Lose","Action":"Go","trial_type":"pit-trial","trial_index":48,"time_elapsed":265993,"internal_node_id":"0.0-48.0"},{"Correct":-1,"Choice":-1,"RT":-1,"Accuracy":1,"Sham":1,"Outcome":-1,"Block":1,"Trial":37,"Valence":"Lose","Action":"No-Go","trial_type":"pit-trial","trial_index":49,"time_elapsed":269996,"internal_node_id":"0.0-49.0"},{"Correct":32,"Choice":32,"RT":629,"Accuracy":1,"Sham":0,"Outcome":0,"Block":1,"Trial":38,"Valence":"Lose","Action":"Go","trial_type":"pit-trial","trial_index":50,"time_elapsed":273129,"internal_node_id":"0.0-50.0"},{"Correct":32,"Choice":32,"RT":456,"Accuracy":1,"Sham":0,"Outcome":1,"Block":1,"Trial":39,"Valence":"Win","Action":"Go","trial_type":"pit-trial","trial_index":51,"time_elapsed":276089,"internal_node_id":"0.0-51.0"},{"Correct":-1,"Choice":32,"RT":493,"Accuracy":0,"Sham":0,"Outcome":0,"Block":1,"Trial":40,"Valence":"Win","Action":"No-Go","trial_type":"pit-trial","trial_index":52,"time_elapsed":279089,"internal_node_id":"0.0-52.0"},{"Correct":32,"Choice":-1,"RT":-1,"Accuracy":0,"Sham":1,"Outcome":0,"Block":1,"Trial":41,"Valence":"Lose","Action":"Go","trial_type":"pit-trial","trial_index":53,"time_elapsed":283092,"internal_node_id":"0.0-53.0"},{"Correct":-1,"Choice":32,"RT":583,"Accuracy":0,"Sham":0,"Outcome":0,"Block":1,"Trial":42,"Valence":"Win","Action":"No-Go","trial_type":"pit-trial","trial_index":54,"time_elapsed":286178,"internal_node_id":"0.0-54.0"},{"Correct":-1,"Choice":-1,"RT":-1,"Accuracy":1,"Sham":0,"Outcome":0,"Block":1,"Trial":43,"Valence":"Lose","Action":"No-Go","trial_type":"pit-trial","trial_index":55,"time_elapsed":290181,"internal_node_id":"0.0-55.0"},{"Correct":32,"Choice":32,"RT":487,"Accuracy":1,"Sham":0,"Outcome":1,"Block":1,"Trial":44,"Valence":"Win","Action":"Go","trial_type":"pit-trial","trial_index":56,"time_elapsed":293172,"internal_node_id":"0.0-56.0"},{"Correct":-1,"Choice":-1,"RT":-1,"Accuracy":1,"Sham":0,"Outcome":0,"Block":1,"Trial":45,"Valence":"Lose","Action":"No-Go","trial_type":"pit-trial","trial_index":57,"time_elapsed":297175,"internal_node_id":"0.0-57.0"},{"Correct":-1,"Choice":32,"RT":502,"Accuracy":0,"Sham":1,"Outcome":1,"Block":1,"Trial":46,"Valence":"Win","Action":"No-Go","trial_type":"pit-trial","trial_index":58,"time_elapsed":300181,"internal_node_id":"0.0-58.0"},{"Correct":32,"Choice":-1,"RT":-1,"Accuracy":0,"Sham":0,"Outcome":-1,"Block":1,"Trial":47,"Valence":"Lose","Action":"Go","trial_type":"pit-trial","trial_index":59,"time_elapsed":304184,"internal_node_id":"0.0-59.0"},{"Correct":32,"Choice":32,"RT":453,"Accuracy":1,"Sham":0,"Outcome":1,"Block":1,"Trial":48,"Valence":"Win","Action":"Go","trial_type":"pit-trial","trial_index":60,"time_elapsed":307141,"internal_node_id":"0.0-60.0"},{"Correct":-1,"Choice":-1,"RT":-1,"Accuracy":1,"Sham":0,"Outcome":0,"Block":1,"Trial":49,"Valence":"Lose","Action":"No-Go","trial_type":"pit-trial","trial_index":61,"time_elapsed":311147,"internal_node_id":"0.0-61.0"},{"Correct":32,"Choice":32,"RT":459,"Accuracy":1,"Sham":0,"Outcome":1,"Block":1,"Trial":50,"Valence":"Win","Action":"Go","trial_type":"pit-trial","trial_index":62,"time_elapsed":314110,"internal_node_id":"0.0-62.0"},{"Correct":-1,"Choice":32,"RT":631,"Accuracy":0,"Sham":0,"Outcome":0,"Block":1,"Trial":51,"Valence":"Win","Action":"No-Go","trial_type":"pit-trial","trial_index":63,"time_elapsed":317247,"internal_node_id":"0.0-63.0"},{"Correct":32,"Choice":32,"RT":490,"Accuracy":1,"Sham":0,"Outcome":0,"Block":1,"Trial":52,"Valence":"Lose","Action":"Go","trial_type":"pit-trial","trial_index":64,"time_elapsed":320238,"internal_node_id":"0.0-64.0"},{"Correct":-1,"Choice":32,"RT":649,"Accuracy":0,"Sham":0,"Outcome":0,"Block":1,"Trial":53,"Valence":"Win","Action":"No-Go","trial_type":"pit-trial","trial_index":65,"time_elapsed":323391,"internal_node_id":"0.0-65.0"},{"Correct":32,"Choice":32,"RT":776,"Accuracy":1,"Sham":0,"Outcome":0,"Block":1,"Trial":54,"Valence":"Lose","Action":"Go","trial_type":"pit-trial","trial_index":66,"time_elapsed":326672,"internal_node_id":"0.0-66.0"},{"Correct":-1,"Choice":32,"RT":391,"Accuracy":0,"Sham":0,"Outcome":-1,"Block":1,"Trial":55,"Valence":"Lose","Action":"No-Go","trial_type":"pit-trial","trial_index":67,"time_elapsed":329568,"internal_node_id":"0.0-67.0"},{"Correct":32,"Choice":32,"RT":320,"Accuracy":1,"Sham":0,"Outcome":1,"Block":1,"Trial":56,"Valence":"Win","Action":"Go","trial_type":"pit-trial","trial_index":68,"time_elapsed":332393,"internal_node_id":"0.0-68.0"},{"Correct":32,"Choice":32,"RT":479,"Accuracy":1,"Sham":1,"Outcome":0,"Block":1,"Trial":57,"Valence":"Win","Action":"Go","trial_type":"pit-trial","trial_index":69,"time_elapsed":335378,"internal_node_id":"0.0-69.0"},{"Correct":32,"Choice":-1,"RT":-1,"Accuracy":0,"Sham":0,"Outcome":-1,"Block":1,"Trial":58,"Valence":"Lose","Action":"Go","trial_type":"pit-trial","trial_index":70,"time_elapsed":339383,"internal_node_id":"0.0-70.0"},{"Correct":-1,"Choice":-1,"RT":-1,"Accuracy":1,"Sham":1,"Outcome":-1,"Block":1,"Trial":59,"Valence":"Lose","Action":"No-Go","trial_type":"pit-trial","trial_index":71,"time_elapsed":343387,"internal_node_id":"0.0-71.0"},{"Correct":-1,"Choice":32,"RT":519,"Accuracy":0,"Sham":0,"Outcome":0,"Block":1,"Trial":60,"Valence":"Win","Action":"No-Go","trial_type":"pit-trial","trial_index":72,"time_elapsed":346411,"internal_node_id":"0.0-72.0"},{"Correct":-1,"Choice":32,"RT":542,"Accuracy":0,"Sham":0,"Outcome":0,"Block":1,"Trial":61,"Valence":"Win","Action":"No-Go","trial_type":"pit-trial","trial_index":73,"time_elapsed":349458,"internal_node_id":"0.0-73.0"},{"Correct":32,"Choice":32,"RT":646,"Accuracy":1,"Sham":0,"Outcome":0,"Block":1,"Trial":62,"Valence":"Lose","Action":"Go","trial_type":"pit-trial","trial_index":74,"time_elapsed":352611,"internal_node_id":"0.0-74.0"},{"Correct":-1,"Choice":-1,"RT":-1,"Accuracy":1,"Sham":0,"Outcome":0,"Block":1,"Trial":63,"Valence":"Lose","Action":"No-Go","trial_type":"pit-trial","trial_index":75,"time_elapsed":356613,"internal_node_id":"0.0-75.0"},{"Correct":32,"Choice":32,"RT":470,"Accuracy":1,"Sham":0,"Outcome":1,"Block":1,"Trial":64,"Valence":"Win","Action":"Go","trial_type":"pit-trial","trial_index":76,"time_elapsed":359588,"internal_node_id":"0.0-76.0"},{"Correct":-1,"Choice":32,"RT":638,"Accuracy":0,"Sham":0,"Outcome":0,"Block":1,"Trial":65,"Valence":"Win","Action":"No-Go","trial_type":"pit-trial","trial_index":77,"time_elapsed":362733,"internal_node_id":"0.0-77.0"},{"Correct":-1,"Choice":-1,"RT":-1,"Accuracy":1,"Sham":0,"Outcome":0,"Block":1,"Trial":66,"Valence":"Lose","Action":"No-Go","trial_type":"pit-trial","trial_index":78,"time_elapsed":366739,"internal_node_id":"0.0-78.0"},{"Correct":32,"Choice":32,"RT":594,"Accuracy":1,"Sham":1,"Outcome":0,"Block":1,"Trial":67,"Valence":"Win","Action":"Go","trial_type":"pit-trial","trial_index":79,"time_elapsed":369837,"internal_node_id":"0.0-79.0"},{"Correct":32,"Choice":-1,"RT":-1,"Accuracy":0,"Sham":0,"Outcome":-1,"Block":1,"Trial":68,"Valence":"Lose","Action":"Go","trial_type":"pit-trial","trial_index":80,"time_elapsed":373841,"internal_node_id":"0.0-80.0"},{"Correct":-1,"Choice":-1,"RT":-1,"Accuracy":1,"Sham":1,"Outcome":-1,"Block":1,"Trial":69,"Valence":"Lose","Action":"No-Go","trial_type":"pit-trial","trial_index":81,"time_elapsed":377846,"internal_node_id":"0.0-81.0"},{"Correct":32,"Choice":32,"RT":786,"Accuracy":1,"Sham":0,"Outcome":0,"Block":1,"Trial":70,"Valence":"Lose","Action":"Go","trial_type":"pit-trial","trial_index":82,"time_elapsed":381135,"internal_node_id":"0.0-82.0"},{"Correct":32,"Choice":32,"RT":423,"Accuracy":1,"Sham":0,"Outcome":1,"Block":1,"Trial":71,"Valence":"Win","Action":"Go","trial_type":"pit-trial","trial_index":83,"time_elapsed":384062,"internal_node_id":"0.0-83.0"},{"Correct":-1,"Choice":32,"RT":761,"Accuracy":0,"Sham":0,"Outcome":0,"Block":1,"Trial":72,"Valence":"Win","Action":"No-Go","trial_type":"pit-trial","trial_index":84,"time_elapsed":387326,"internal_node_id":"0.0-84.0"},{"Correct":-1,"Choice":32,"RT":487,"Accuracy":0,"Sham":0,"Outcome":0,"Block":1,"Trial":73,"Valence":"Win","Action":"No-Go","trial_type":"pit-trial","trial_index":85,"time_elapsed":390319,"internal_node_id":"0.0-85.0"},{"Correct":32,"Choice":-1,"RT":-1,"Accuracy":0,"Sham":1,"Outcome":0,"Block":1,"Trial":74,"Valence":"Lose","Action":"Go","trial_type":"pit-trial","trial_index":86,"time_elapsed":394322,"internal_node_id":"0.0-86.0"},{"Correct":32,"Choice":32,"RT":630,"Accuracy":1,"Sham":0,"Outcome":1,"Block":1,"Trial":75,"Valence":"Win","Action":"Go","trial_type":"pit-trial","trial_index":87,"time_elapsed":397457,"internal_node_id":"0.0-87.0"},{"Correct":-1,"Choice":-1,"RT":-1,"Accuracy":1,"Sham":0,"Outcome":0,"Block":1,"Trial":76,"Valence":"Lose","Action":"No-Go","trial_type":"pit-trial","trial_index":88,"time_elapsed":401460,"internal_node_id":"0.0-88.0"},{"Correct":-1,"Choice":32,"RT":404,"Accuracy":0,"Sham":1,"Outcome":1,"Block":1,"Trial":77,"Valence":"Win","Action":"No-Go","trial_type":"pit-trial","trial_index":89,"time_elapsed":404369,"internal_node_id":"0.0-89.0"},{"Correct":32,"Choice":32,"RT":422,"Accuracy":1,"Sham":0,"Outcome":1,"Block":1,"Trial":78,"Valence":"Win","Action":"Go","trial_type":"pit-trial","trial_index":90,"time_elapsed":407297,"internal_node_id":"0.0-90.0"},{"Correct":-1,"Choice":-1,"RT":-1,"Accuracy":1,"Sham":0,"Outcome":0,"Block":1,"Trial":79,"Valence":"Lose","Action":"No-Go","trial_type":"pit-trial","trial_index":91,"time_elapsed":411302,"internal_node_id":"0.0-91.0"},{"Correct":32,"Choice":-1,"RT":-1,"Accuracy":0,"Sham":0,"Outcome":-1,"Block":1,"Trial":80,"Valence":"Lose","Action":"Go","trial_type":"pit-trial","trial_index":92,"time_elapsed":415307,"internal_node_id":"0.0-92.0"},{"value":false,"trial_type":"call-function","trial_index":93,"time_elapsed":415309,"internal_node_id":"0.0-93.0"},{"RT":10674,"trial_type":"pit-pause","trial_index":94,"time_elapsed":429612,"internal_node_id":"0.0-94.0"},{"Correct":32,"Choice":32,"RT":606,"Accuracy":1,"Sham":0,"Outcome":1,"Block":2,"Trial":81,"Valence":"Win","Action":"Go","trial_type":"pit-trial","trial_index":95,"time_elapsed":432725,"internal_node_id":"0.0-95.0"},{"Correct":-1,"Choice":32,"RT":782,"Accuracy":0,"Sham":0,"Outcome":0,"Block":2,"Trial":82,"Valence":"Win","Action":"No-Go","trial_type":"pit-trial","trial_index":96,"time_elapsed":436014,"internal_node_id":"0.0-96.0"},{"Correct":-1,"Choice":-1,"RT":-1,"Accuracy":1,"Sham":0,"Outcome":0,"Block":2,"Trial":83,"Valence":"Lose","Action":"No-Go","trial_type":"pit-trial","trial_index":97,"time_elapsed":440017,"internal_node_id":"0.0-97.0"},{"Correct":32,"Choice":-1,"RT":-1,"Accuracy":0,"Sham":0,"Outcome":-1,"Block":2,"Trial":84,"Valence":"Lose","Action":"Go","trial_type":"pit-trial","trial_index":98,"time_elapsed":444022,"internal_node_id":"0.0-98.0"},{"Correct":32,"Choice":32,"RT":567,"Accuracy":1,"Sham":0,"Outcome":1,"Block":2,"Trial":85,"Valence":"Win","Action":"Go","trial_type":"pit-trial","trial_index":99,"time_elapsed":447094,"internal_node_id":"0.0-99.0"},{"Correct":-1,"Choice":-1,"RT":-1,"Accuracy":1,"Sham":0,"Outcome":1,"Block":2,"Trial":86,"Valence":"Win","Action":"No-Go","trial_type":"pit-trial","trial_index":100,"time_elapsed":451100,"internal_node_id":"0.0-100.0"},{"Correct":32,"Choice":32,"RT":1092,"Accuracy":1,"Sham":0,"Outcome":0,"Block":2,"Trial":87,"Valence":"Lose","Action":"Go","trial_type":"pit-trial","trial_index":101,"time_elapsed":454695,"internal_node_id":"0.0-101.0"},{"Correct":-1,"Choice":-1,"RT":-1,"Accuracy":1,"Sham":0,"Outcome":0,"Block":2,"Trial":88,"Valence":"Lose","Action":"No-Go","trial_type":"pit-trial","trial_index":102,"time_elapsed":458699,"internal_node_id":"0.0-102.0"},{"Correct":32,"Choice":32,"RT":861,"Accuracy":1,"Sham":1,"Outcome":-1,"Block":2,"Trial":89,"Valence":"Lose","Action":"Go","trial_type":"pit-trial","trial_index":103,"time_elapsed":462065,"internal_node_id":"0.0-103.0"},{"Correct":32,"Choice":32,"RT":482,"Accuracy":1,"Sham":1,"Outcome":0,"Block":2,"Trial":90,"Valence":"Win","Action":"Go","trial_type":"pit-trial","trial_index":104,"time_elapsed":465050,"internal_node_id":"0.0-104.0"},{"Correct":-1,"Choice":-1,"RT":-1,"Accuracy":1,"Sham":0,"Outcome":1,"Block":2,"Trial":91,"Valence":"Win","Action":"No-Go","trial_type":"pit-trial","trial_index":105,"time_elapsed":469056,"internal_node_id":"0.0-105.0"},{"Correct":-1,"Choice":-1,"RT":-1,"Accuracy":1,"Sham":0,"Outcome":0,"Block":2,"Trial":92,"Valence":"Lose","Action":"No-Go","trial_type":"pit-trial","trial_index":106,"time_elapsed":473060,"internal_node_id":"0.0-106.0"},{"Correct":-1,"Choice":-1,"RT":-1,"Accuracy":1,"Sham":0,"Outcome":0,"Block":2,"Trial":93,"Valence":"Lose","Action":"No-Go","trial_type":"pit-trial","trial_index":107,"time_elapsed":477062,"internal_node_id":"0.0-107.0"},{"Correct":32,"Choice":32,"RT":389,"Accuracy":1,"Sham":0,"Outcome":1,"Block":2,"Trial":94,"Valence":"Win","Action":"Go","trial_type":"pit-trial","trial_index":108,"time_elapsed":479954,"internal_node_id":"0.0-108.0"},{"Correct":32,"Choice":32,"RT":729,"Accuracy":1,"Sham":0,"Outcome":0,"Block":2,"Trial":95,"Valence":"Lose","Action":"Go","trial_type":"pit-trial","trial_index":109,"time_elapsed":483186,"internal_node_id":"0.0-109.0"},{"Correct":-1,"Choice":-1,"RT":-1,"Accuracy":1,"Sham":1,"Outcome":0,"Block":2,"Trial":96,"Valence":"Win","Action":"No-Go","trial_type":"pit-trial","trial_index":110,"time_elapsed":487190,"internal_node_id":"0.0-110.0"},{"Correct":-1,"Choice":32,"RT":909,"Accuracy":0,"Sham":1,"Outcome":0,"Block":2,"Trial":97,"Valence":"Lose","Action":"No-Go","trial_type":"pit-trial","trial_index":111,"time_elapsed":490604,"internal_node_id":"0.0-111.0"},{"Correct":32,"Choice":32,"RT":360,"Accuracy":1,"Sham":0,"Outcome":1,"Block":2,"Trial":98,"Valence":"Win","Action":"Go","trial_type":"pit-trial","trial_index":112,"time_elapsed":493467,"internal_node_id":"0.0-112.0"},{"Correct":32,"Choice":-1,"RT":-1,"Accuracy":0,"Sham":0,"Outcome":-1,"Block":2,"Trial":99,"Valence":"Lose","Action":"Go","trial_type":"pit-trial","trial_index":113,"time_elapsed":497471,"internal_node_id":"0.0-113.0"},{"Correct":-1,"Choice":-1,"RT":-1,"Accuracy":1,"Sham":0,"Outcome":1,"Block":2,"Trial":100,"Valence":"Win","Action":"No-Go","trial_type":"pit-trial","trial_index":114,"time_elapsed":501474,"internal_node_id":"0.0-114.0"},{"Correct":-1,"Choice":-1,"RT":-1,"Accuracy":1,"Sham":0,"Outcome":0,"Block":2,"Trial":101,"Valence":"Lose","Action":"No-Go","trial_type":"pit-trial","trial_index":115,"time_elapsed":505477,"internal_node_id":"0.0-115.0"},{"Correct":32,"Choice":-1,"RT":-1,"Accuracy":0,"Sham":0,"Outcome":-1,"Block":2,"Trial":102,"Valence":"Lose","Action":"Go","trial_type":"pit-trial","trial_index":116,"time_elapsed":509483,"internal_node_id":"0.0-116.0"},{"Correct":32,"Choice":32,"RT":332,"Accuracy":1,"Sham":1,"Outcome":0,"Block":2,"Trial":103,"Valence":"Win","Action":"Go","trial_type":"pit-trial","trial_index":117,"time_elapsed":512318,"internal_node_id":"0.0-117.0"},{"Correct":-1,"Choice":-1,"RT":-1,"Accuracy":1,"Sham":1,"Outcome":0,"Block":2,"Trial":104,"Valence":"Win","Action":"No-Go","trial_type":"pit-trial","trial_index":118,"time_elapsed":516345,"internal_node_id":"0.0-118.0"},{"Correct":32,"Choice":32,"RT":527,"Accuracy":1,"Sham":0,"Outcome":0,"Block":2,"Trial":105,"Valence":"Lose","Action":"Go","trial_type":"pit-trial","trial_index":119,"time_elapsed":519375,"internal_node_id":"0.0-119.0"},{"Correct":32,"Choice":32,"RT":522,"Accuracy":1,"Sham":0,"Outcome":1,"Block":2,"Trial":106,"Valence":"Win","Action":"Go","trial_type":"pit-trial","trial_index":120,"time_elapsed":522400,"internal_node_id":"0.0-120.0"},{"Correct":-1,"Choice":-1,"RT":-1,"Accuracy":1,"Sham":0,"Outcome":1,"Block":2,"Trial":107,"Valence":"Win","Action":"No-Go","trial_type":"pit-trial","trial_index":121,"time_elapsed":526404,"internal_node_id":"0.0-121.0"},{"Correct":-1,"Choice":32,"RT":1325,"Accuracy":0,"Sham":0,"Outcome":-1,"Block":2,"Trial":108,"Valence":"Lose","Action":"No-Go","trial_type":"pit-trial","trial_index":122,"time_elapsed":530234,"internal_node_id":"0.0-122.0"},{"Correct":-1,"Choice":32,"RT":815,"Accuracy":0,"Sham":0,"Outcome":0,"Block":2,"Trial":109,"Valence":"Win","Action":"No-Go","trial_type":"pit-trial","trial_index":123,"time_elapsed":533554,"internal_node_id":"0.0-123.0"},{"Correct":-1,"Choice":32,"RT":831,"Accuracy":0,"Sham":0,"Outcome":-1,"Block":2,"Trial":110,"Valence":"Lose","Action":"No-Go","trial_type":"pit-trial","trial_index":124,"time_elapsed":536889,"internal_node_id":"0.0-124.0"},{"Correct":32,"Choice":32,"RT":496,"Accuracy":1,"Sham":0,"Outcome":1,"Block":2,"Trial":111,"Valence":"Win","Action":"Go","trial_type":"pit-trial","trial_index":125,"time_elapsed":539890,"internal_node_id":"0.0-125.0"},{"Correct":32,"Choice":-1,"RT":-1,"Accuracy":0,"Sham":0,"Outcome":-1,"Block":2,"Trial":112,"Valence":"Lose","Action":"Go","trial_type":"pit-trial","trial_index":126,"time_elapsed":543894,"internal_node_id":"0.0-126.0"},{"Correct":-1,"Choice":-1,"RT":-1,"Accuracy":1,"Sham":0,"Outcome":1,"Block":2,"Trial":113,"Valence":"Win","Action":"No-Go","trial_type":"pit-trial","trial_index":127,"time_elapsed":547899,"internal_node_id":"0.0-127.0"},{"Correct":-1,"Choice":-1,"RT":-1,"Accuracy":1,"Sham":0,"Outcome":0,"Block":2,"Trial":114,"Valence":"Lose","Action":"No-Go","trial_type":"pit-trial","trial_index":128,"time_elapsed":551904,"internal_node_id":"0.0-128.0"},{"Correct":32,"Choice":32,"RT":684,"Accuracy":1,"Sham":1,"Outcome":-1,"Block":2,"Trial":115,"Valence":"Lose","Action":"Go","trial_type":"pit-trial","trial_index":129,"time_elapsed":555092,"internal_node_id":"0.0-129.0"},{"Correct":32,"Choice":32,"RT":377,"Accuracy":1,"Sham":0,"Outcome":1,"Block":2,"Trial":116,"Valence":"Win","Action":"Go","trial_type":"pit-trial","trial_index":130,"time_elapsed":557971,"internal_node_id":"0.0-130.0"},{"Correct":-1,"Choice":-1,"RT":-1,"Accuracy":1,"Sham":1,"Outcome":-1,"Block":2,"Trial":117,"Valence":"Lose","Action":"No-Go","trial_type":"pit-trial","trial_index":131,"time_elapsed":561976,"internal_node_id":"0.0-131.0"},{"Correct":32,"Choice":32,"RT":556,"Accuracy":1,"Sham":0,"Outcome":0,"Block":2,"Trial":118,"Valence":"Lose","Action":"Go","trial_type":"pit-trial","trial_index":132,"time_elapsed":565036,"internal_node_id":"0.0-132.0"},{"Correct":-1,"Choice":32,"RT":674,"Accuracy":0,"Sham":0,"Outcome":0,"Block":2,"Trial":119,"Valence":"Win","Action":"No-Go","trial_type":"pit-trial","trial_index":133,"time_elapsed":568213,"internal_node_id":"0.0-133.0"},{"Correct":32,"Choice":32,"RT":410,"Accuracy":1,"Sham":0,"Outcome":1,"Block":2,"Trial":120,"Valence":"Win","Action":"Go","trial_type":"pit-trial","trial_index":134,"time_elapsed":571126,"internal_node_id":"0.0-134.0"},{"Correct":-1,"Choice":-1,"RT":-1,"Accuracy":1,"Sham":0,"Outcome":1,"Block":2,"Trial":121,"Valence":"Win","Action":"No-Go","trial_type":"pit-trial","trial_index":135,"time_elapsed":575131,"internal_node_id":"0.0-135.0"},{"Correct":-1,"Choice":-1,"RT":-1,"Accuracy":1,"Sham":0,"Outcome":0,"Block":2,"Trial":122,"Valence":"Lose","Action":"No-Go","trial_type":"pit-trial","trial_index":136,"time_elapsed":579137,"internal_node_id":"0.0-136.0"},{"Correct":32,"Choice":32,"RT":526,"Accuracy":1,"Sham":0,"Outcome":0,"Block":2,"Trial":123,"Valence":"Lose","Action":"Go","trial_type":"pit-trial","trial_index":137,"time_elapsed":582167,"internal_node_id":"0.0-137.0"},{"Correct":32,"Choice":32,"RT":473,"Accuracy":1,"Sham":1,"Outcome":0,"Block":2,"Trial":124,"Valence":"Win","Action":"Go","trial_type":"pit-trial","trial_index":138,"time_elapsed":585145,"internal_node_id":"0.0-138.0"},{"Correct":32,"Choice":32,"RT":532,"Accuracy":1,"Sham":1,"Outcome":-1,"Block":2,"Trial":125,"Valence":"Lose","Action":"Go","trial_type":"pit-trial","trial_index":139,"time_elapsed":588184,"internal_node_id":"0.0-139.0"},{"Correct":-1,"Choice":-1,"RT":-1,"Accuracy":1,"Sham":0,"Outcome":0,"Block":2,"Trial":126,"Valence":"Lose","Action":"No-Go","trial_type":"pit-trial","trial_index":140,"time_elapsed":592188,"internal_node_id":"0.0-140.0"},{"Correct":-1,"Choice":-1,"RT":-1,"Accuracy":1,"Sham":0,"Outcome":1,"Block":2,"Trial":127,"Valence":"Win","Action":"No-Go","trial_type":"pit-trial","trial_index":141,"time_elapsed":596193,"internal_node_id":"0.0-141.0"},{"Correct":32,"Choice":32,"RT":397,"Accuracy":1,"Sham":0,"Outcome":1,"Block":2,"Trial":128,"Valence":"Win","Action":"Go","trial_type":"pit-trial","trial_index":142,"time_elapsed":599097,"internal_node_id":"0.0-142.0"},{"Correct":-1,"Choice":-1,"RT":-1,"Accuracy":1,"Sham":0,"Outcome":0,"Block":2,"Trial":129,"Valence":"Lose","Action":"No-Go","trial_type":"pit-trial","trial_index":143,"time_elapsed":603100,"internal_node_id":"0.0-143.0"},{"Correct":32,"Choice":32,"RT":534,"Accuracy":1,"Sham":0,"Outcome":1,"Block":2,"Trial":130,"Valence":"Win","Action":"Go","trial_type":"pit-trial","trial_index":144,"time_elapsed":606138,"internal_node_id":"0.0-144.0"},{"Correct":32,"Choice":-1,"RT":-1,"Accuracy":0,"Sham":0,"Outcome":-1,"Block":2,"Trial":131,"Valence":"Lose","Action":"Go","trial_type":"pit-trial","trial_index":145,"time_elapsed":610142,"internal_node_id":"0.0-145.0"},{"Correct":-1,"Choice":-1,"RT":-1,"Accuracy":1,"Sham":0,"Outcome":1,"Block":2,"Trial":132,"Valence":"Win","Action":"No-Go","trial_type":"pit-trial","trial_index":146,"time_elapsed":614146,"internal_node_id":"0.0-146.0"},{"Correct":-1,"Choice":-1,"RT":-1,"Accuracy":1,"Sham":0,"Outcome":0,"Block":2,"Trial":133,"Valence":"Lose","Action":"No-Go","trial_type":"pit-trial","trial_index":147,"time_elapsed":618150,"internal_node_id":"0.0-147.0"},{"Correct":32,"Choice":32,"RT":334,"Accuracy":1,"Sham":0,"Outcome":1,"Block":2,"Trial":134,"Valence":"Win","Action":"Go","trial_type":"pit-trial","trial_index":148,"time_elapsed":620989,"internal_node_id":"0.0-148.0"},{"Correct":32,"Choice":32,"RT":775,"Accuracy":1,"Sham":0,"Outcome":0,"Block":2,"Trial":135,"Valence":"Lose","Action":"Go","trial_type":"pit-trial","trial_index":149,"time_elapsed":624268,"internal_node_id":"0.0-149.0"},{"Correct":-1,"Choice":32,"RT":677,"Accuracy":0,"Sham":0,"Outcome":0,"Block":2,"Trial":136,"Valence":"Win","Action":"No-Go","trial_type":"pit-trial","trial_index":150,"time_elapsed":627453,"internal_node_id":"0.0-150.0"},{"Correct":-1,"Choice":-1,"RT":-1,"Accuracy":1,"Sham":1,"Outcome":-1,"Block":2,"Trial":137,"Valence":"Lose","Action":"No-Go","trial_type":"pit-trial","trial_index":151,"time_elapsed":631458,"internal_node_id":"0.0-151.0"},{"Correct":32,"Choice":32,"RT":450,"Accuracy":1,"Sham":0,"Outcome":1,"Block":2,"Trial":138,"Valence":"Win","Action":"Go","trial_type":"pit-trial","trial_index":152,"time_elapsed":634413,"internal_node_id":"0.0-152.0"},{"Correct":32,"Choice":-1,"RT":-1,"Accuracy":0,"Sham":0,"Outcome":-1,"Block":2,"Trial":139,"Valence":"Lose","Action":"Go","trial_type":"pit-trial","trial_index":153,"time_elapsed":638418,"internal_node_id":"0.0-153.0"},{"Correct":-1,"Choice":-1,"RT":-1,"Accuracy":1,"Sham":1,"Outcome":0,"Block":2,"Trial":140,"Valence":"Win","Action":"No-Go","trial_type":"pit-trial","trial_index":154,"time_elapsed":642421,"internal_node_id":"0.0-154.0"},{"Correct":-1,"Choice":-1,"RT":-1,"Accuracy":1,"Sham":1,"Outcome":0,"Block":2,"Trial":141,"Valence":"Win","Action":"No-Go","trial_type":"pit-trial","trial_index":155,"time_elapsed":646424,"internal_node_id":"0.0-155.0"},{"Correct":32,"Choice":-1,"RT":-1,"Accuracy":0,"Sham":0,"Outcome":-1,"Block":2,"Trial":142,"Valence":"Lose","Action":"Go","trial_type":"pit-trial","trial_index":156,"time_elapsed":650429,"internal_node_id":"0.0-156.0"},{"Correct":32,"Choice":32,"RT":380,"Accuracy":1,"Sham":0,"Outcome":1,"Block":2,"Trial":143,"Valence":"Win","Action":"Go","trial_type":"pit-trial","trial_index":157,"time_elapsed":653313,"internal_node_id":"0.0-157.0"},{"Correct":-1,"Choice":32,"RT":744,"Accuracy":0,"Sham":0,"Outcome":-1,"Block":2,"Trial":144,"Valence":"Lose","Action":"No-Go","trial_type":"pit-trial","trial_index":158,"time_elapsed":656561,"internal_node_id":"0.0-158.0"},{"Correct":-1,"Choice":-1,"RT":-1,"Accuracy":1,"Sham":0,"Outcome":0,"Block":2,"Trial":145,"Valence":"Lose","Action":"No-Go","trial_type":"pit-trial","trial_index":159,"time_elapsed":660565,"internal_node_id":"0.0-159.0"},{"Correct":32,"Choice":32,"RT":493,"Accuracy":1,"Sham":0,"Outcome":1,"Block":2,"Trial":146,"Valence":"Win","Action":"Go","trial_type":"pit-trial","trial_index":160,"time_elapsed":663561,"internal_node_id":"0.0-160.0"},{"Correct":32,"Choice":32,"RT":970,"Accuracy":1,"Sham":0,"Outcome":0,"Block":2,"Trial":147,"Valence":"Lose","Action":"Go","trial_type":"pit-trial","trial_index":161,"time_elapsed":667033,"internal_node_id":"0.0-161.0"},{"Correct":-1,"Choice":-1,"RT":-1,"Accuracy":1,"Sham":0,"Outcome":1,"Block":2,"Trial":148,"Valence":"Win","Action":"No-Go","trial_type":"pit-trial","trial_index":162,"time_elapsed":671039,"internal_node_id":"0.0-162.0"},{"Correct":-1,"Choice":-1,"RT":-1,"Accuracy":1,"Sham":0,"Outcome":1,"Block":2,"Trial":149,"Valence":"Win","Action":"No-Go","trial_type":"pit-trial","trial_index":163,"time_elapsed":675043,"internal_node_id":"0.0-163.0"},{"Correct":-1,"Choice":-1,"RT":-1,"Accuracy":1,"Sham":0,"Outcome":0,"Block":2,"Trial":150,"Valence":"Lose","Action":"No-Go","trial_type":"pit-trial","trial_index":164,"time_elapsed":679045,"internal_node_id":"0.0-164.0"},{"Correct":32,"Choice":-1,"RT":-1,"Accuracy":0,"Sham":0,"Outcome":-1,"Block":2,"Trial":151,"Valence":"Lose","Action":"Go","trial_type":"pit-trial","trial_index":165,"time_elapsed":683050,"internal_node_id":"0.0-165.0"},{"Correct":32,"Choice":32,"RT":617,"Accuracy":1,"Sham":0,"Outcome":1,"Block":2,"Trial":152,"Valence":"Win","Action":"Go","trial_type":"pit-trial","trial_index":166,"time_elapsed":686173,"internal_node_id":"0.0-166.0"},{"Correct":32,"Choice":32,"RT":576,"Accuracy":1,"Sham":0,"Outcome":1,"Block":2,"Trial":153,"Valence":"Win","Action":"Go","trial_type":"pit-trial","trial_index":167,"time_elapsed":689252,"internal_node_id":"0.0-167.0"},{"Correct":-1,"Choice":-1,"RT":-1,"Accuracy":1,"Sham":0,"Outcome":0,"Block":2,"Trial":154,"Valence":"Lose","Action":"No-Go","trial_type":"pit-trial","trial_index":168,"time_elapsed":693255,"internal_node_id":"0.0-168.0"},{"Correct":32,"Choice":32,"RT":463,"Accuracy":1,"Sham":0,"Outcome":0,"Block":2,"Trial":155,"Valence":"Lose","Action":"Go","trial_type":"pit-trial","trial_index":169,"time_elapsed":696222,"internal_node_id":"0.0-169.0"},{"Correct":-1,"Choice":-1,"RT":-1,"Accuracy":1,"Sham":0,"Outcome":1,"Block":2,"Trial":156,"Valence":"Win","Action":"No-Go","trial_type":"pit-trial","trial_index":170,"time_elapsed":700226,"internal_node_id":"0.0-170.0"},{"Correct":32,"Choice":32,"RT":651,"Accuracy":1,"Sham":1,"Outcome":-1,"Block":2,"Trial":157,"Valence":"Lose","Action":"Go","trial_type":"pit-trial","trial_index":171,"time_elapsed":703383,"internal_node_id":"0.0-171.0"},{"Correct":-1,"Choice":-1,"RT":-1,"Accuracy":1,"Sham":1,"Outcome":-1,"Block":2,"Trial":158,"Valence":"Lose","Action":"No-Go","trial_type":"pit-trial","trial_index":172,"time_elapsed":707389,"internal_node_id":"0.0-172.0"},{"Correct":-1,"Choice":-1,"RT":-1,"Accuracy":1,"Sham":0,"Outcome":1,"Block":2,"Trial":159,"Valence":"Win","Action":"No-Go","trial_type":"pit-trial","trial_index":173,"time_elapsed":711394,"internal_node_id":"0.0-173.0"},{"Correct":32,"Choice":32,"RT":510,"Accuracy":1,"Sham":1,"Outcome":0,"Block":2,"Trial":160,"Valence":"Win","Action":"Go","trial_type":"pit-trial","trial_index":174,"time_elapsed":714409,"internal_node_id":"0.0-174.0"},{"rt":16276,"demographics":{"age":"53","gender-categorical":"Male","ethnicity":"Not Hispanic or Latino","race":"White","english":"Yes","fluency":"Very well"},"trial_type":"survey-demo","trial_index":175,"time_elapsed":730687,"internal_node_id":"0.0-175.0"},{"rt":36082,"debriefgraphics":{"difficulty":"3","fun":"4","clarity":"5","strategy":"Tried to figure a pattern.","feedback":"Everything was fine"},"trial_type":"survey-debrief","trial_index":176,"time_elapsed":766774,"internal_node_id":"0.0-176.0","interactions":"[{\"event\":\"focus\",\"trial\":0,\"time\":0}]"}]