[{"view_history":"[{\"page_index\":0,\"viewing_time\":2060.7399998698384},{\"page_index\":1,\"viewing_time\":4012.3000000603497},{\"page_index\":2,\"viewing_time\":3969.539999961853},{\"page_index\":3,\"viewing_time\":3785.7949999161065},{\"page_index\":4,\"viewing_time\":3248.9800001494586}]","rt":17079.870000015944,"trial_type":"pit-instructions","trial_index":0,"time_elapsed":17083,"internal_node_id":"0.0-0.0"},{"Rune":"01","Correct":32,"Choice":32,"RT":1405.1599998492748,"Accuracy":1,"Sham":0,"Outcome":"+10","Keys":[2918.040000135079],"TotalKeys":1,"trial_type":"pit-trial","trial_index":1,"time_elapsed":21020,"internal_node_id":"0.0-1.0"},{"Rune":"01","Correct":32,"Choice":32,"RT":1198.344999924302,"Accuracy":1,"Sham":0,"Outcome":"+10","Keys":[2698.6050000414252],"TotalKeys":1,"trial_type":"pit-trial","trial_index":2,"time_elapsed":24738,"internal_node_id":"0.0-2.0"},{"Rune":"01","Correct":32,"Choice":32,"RT":1206.6750000230968,"Accuracy":1,"Sham":0,"Outcome":"+10","Keys":[2707.590000005439],"TotalKeys":1,"trial_type":"pit-trial","trial_index":3,"time_elapsed":28468,"internal_node_id":"0.0-3.0"},{"Rune":"01","Correct":32,"Choice":32,"RT":807.1300000883639,"Accuracy":1,"Sham":0,"Outcome":"+10","Keys":[2308.6500000208616],"TotalKeys":1,"trial_type":"pit-trial","trial_index":4,"time_elapsed":31782,"internal_node_id":"0.0-4.0"},{"view_history":"[{\"page_index\":0,\"viewing_time\":2665.7650000415742}]","rt":2666.5700001176447,"trial_type":"pit-instructions","trial_index":5,"time_elapsed":34450,"internal_node_id":"0.0-5.0"},{"Rune":"02","Correct":-1,"Choice":-1,"RT":-1,"Accuracy":1,"Sham":0,"Outcome":"+10","Keys":[],"TotalKeys":0,"trial_type":"pit-trial","trial_index":6,"time_elapsed":38458,"internal_node_id":"0.0-6.0"},{"Rune":"02","Correct":-1,"Choice":-1,"RT":-1,"Accuracy":1,"Sham":0,"Outcome":"+10","Keys":[],"TotalKeys":0,"trial_type":"pit-trial","trial_index":7,"time_elapsed":42464,"internal_node_id":"0.0-7.0"},{"Rune":"02","Correct":-1,"Choice":-1,"RT":-1,"Accuracy":1,"Sham":0,"Outcome":"+10","Keys":[],"TotalKeys":0,"trial_type":"pit-trial","trial_index":8,"time_elapsed":46471,"internal_node_id":"0.0-8.0"},{"Rune":"02","Correct":-1,"Choice":-1,"RT":-1,"Accuracy":1,"Sham":0,"Outcome":"+10","Keys":[],"TotalKeys":0,"trial_type":"pit-trial","trial_index":9,"time_elapsed":50477,"internal_node_id":"0.0-9.0"},{"view_history":"[{\"page_index\":0,\"viewing_time\":3128.7650000303984},{\"page_index\":1,\"viewing_time\":5886.450000107288},{\"page_index\":2,\"viewing_time\":5585.574999917299},{\"page_index\":3,\"viewing_time\":6569.6950000710785},{\"page_index\":4,\"viewing_time\":4835.334999952465},{\"page_index\":5,\"viewing_time\":4563.314999919385},{\"page_index\":6,\"viewing_time\":3394.825000083074},{\"page_index\":7,\"viewing_time\":2322.195000015199}]","rt":36286.98500012979,"trial_type":"pit-instructions","trial_index":10,"time_elapsed":86766,"internal_node_id":"0.0-10.0"},{"rt":20209.484999999404,"responses":"{\"no-press\":\"Do nothing\",\"context-win\":\"+10\",\"context-lose\":\"+0\",\"feedback\":\"True\"}","errors":0,"trial_type":"pit-comprehension","trial_index":11,"time_elapsed":106988,"internal_node_id":"0.0-11.0"},{"view_history":"[{\"page_index\":0,\"viewing_time\":3531.9799999706447}]","rt":3532.77499997057,"trial_type":"pit-instructions","trial_index":12,"time_elapsed":110532,"internal_node_id":"0.0-12.0"},{"Rune":"04","Correct":-1,"Choice":-1,"RT":-1,"Accuracy":1,"Sham":0,"Outcome":"+10","Keys":[3565.7450000289828],"TotalKeys":1,"Block":1,"Trial":1,"Valence":"Win","Action":"No-Go","Robot":2,"trial_type":"pit-trial","trial_index":13,"time_elapsed":114539,"internal_node_id":"0.0-13.0"},{"Rune":"03","Correct":32,"Choice":-1,"RT":-1,"Accuracy":0,"Sham":0,"Outcome":"-10","Keys":[],"TotalKeys":0,"Block":1,"Trial":2,"Valence":"Lose","Action":"Go","Robot":3,"trial_type":"pit-trial","trial_index":14,"time_elapsed":118546,"internal_node_id":"0.0-14.0"},{"Rune":"05","Correct":-1,"Choice":-1,"RT":-1,"Accuracy":1,"Sham":0,"Outcome":"+0","Keys":[],"TotalKeys":0,"Block":1,"Trial":3,"Valence":"Lose","Action":"No-Go","Robot":4,"trial_type":"pit-trial","trial_index":15,"time_elapsed":122552,"internal_node_id":"0.0-15.0"},{"Rune":"06","Correct":32,"Choice":32,"RT":682.0950000546873,"Accuracy":1,"Sham":0,"Outcome":"+10","Keys":[2183.1650000531226],"TotalKeys":1,"Block":1,"Trial":4,"Valence":"Win","Action":"Go","Robot":1,"trial_type":"pit-trial","trial_index":16,"time_elapsed":125746,"internal_node_id":"0.0-16.0"},{"Rune":"03","Correct":32,"Choice":-1,"RT":-1,"Accuracy":0,"Sham":1,"Outcome":"+0","Keys":[],"TotalKeys":0,"Block":1,"Trial":5,"Valence":"Lose","Action":"Go","Robot":3,"trial_type":"pit-trial","trial_index":17,"time_elapsed":129752,"internal_node_id":"0.0-17.0"},{"Rune":"05","Correct":-1,"Choice":-1,"RT":-1,"Accuracy":1,"Sham":0,"Outcome":"+0","Keys":[],"TotalKeys":0,"Block":1,"Trial":6,"Valence":"Lose","Action":"No-Go","Robot":4,"trial_type":"pit-trial","trial_index":18,"time_elapsed":133759,"internal_node_id":"0.0-18.0"},{"Rune":"06","Correct":32,"Choice":32,"RT":997.1900000236928,"Accuracy":1,"Sham":0,"Outcome":"+10","Keys":[2497.9199999943376],"TotalKeys":1,"Block":1,"Trial":7,"Valence":"Win","Action":"Go","Robot":1,"trial_type":"pit-trial","trial_index":19,"time_elapsed":137262,"internal_node_id":"0.0-19.0"},{"Rune":"04","Correct":-1,"Choice":32,"RT":705.1900001242757,"Accuracy":0,"Sham":0,"Outcome":"+0","Keys":[2206.2999999616295],"TotalKeys":1,"Block":1,"Trial":8,"Valence":"Win","Action":"No-Go","Robot":2,"trial_type":"pit-trial","trial_index":20,"time_elapsed":140475,"internal_node_id":"0.0-20.0"},{"Rune":"06","Correct":32,"Choice":32,"RT":1057.1000000927597,"Accuracy":1,"Sham":0,"Outcome":"+10","Keys":[2558.6500000208616],"TotalKeys":1,"Block":1,"Trial":9,"Valence":"Win","Action":"Go","Robot":1,"trial_type":"pit-trial","trial_index":21,"time_elapsed":144039,"internal_node_id":"0.0-21.0"},{"Rune":"03","Correct":32,"Choice":-1,"RT":-1,"Accuracy":0,"Sham":0,"Outcome":"-10","Keys":[],"TotalKeys":0,"Block":1,"Trial":10,"Valence":"Lose","Action":"Go","Robot":3,"trial_type":"pit-trial","trial_index":22,"time_elapsed":148045,"internal_node_id":"0.0-22.0"},{"Rune":"04","Correct":-1,"Choice":32,"RT":681.8999999668449,"Accuracy":0,"Sham":0,"Outcome":"+0","Keys":[2182.075000135228],"TotalKeys":1,"Block":1,"Trial":11,"Valence":"Win","Action":"No-Go","Robot":2,"trial_type":"pit-trial","trial_index":23,"time_elapsed":151232,"internal_node_id":"0.0-23.0"},{"Rune":"05","Correct":-1,"Choice":-1,"RT":-1,"Accuracy":1,"Sham":0,"Outcome":"+0","Keys":[],"TotalKeys":0,"Block":1,"Trial":12,"Valence":"Lose","Action":"No-Go","Robot":4,"trial_type":"pit-trial","trial_index":24,"time_elapsed":155239,"internal_node_id":"0.0-24.0"},{"Rune":"06","Correct":32,"Choice":32,"RT":777.7899999637157,"Accuracy":1,"Sham":0,"Outcome":"+10","Keys":[2279.6350000426173],"TotalKeys":1,"Block":1,"Trial":13,"Valence":"Win","Action":"Go","Robot":1,"trial_type":"pit-trial","trial_index":25,"time_elapsed":158523,"internal_node_id":"0.0-25.0"},{"Rune":"04","Correct":-1,"Choice":32,"RT":803.4299998544157,"Accuracy":0,"Sham":0,"Outcome":"+0","Keys":[2304.2099999729544],"TotalKeys":1,"Block":1,"Trial":14,"Valence":"Win","Action":"No-Go","Robot":2,"trial_type":"pit-trial","trial_index":26,"time_elapsed":161833,"internal_node_id":"0.0-26.0"},{"Rune":"03","Correct":32,"Choice":-1,"RT":-1,"Accuracy":0,"Sham":0,"Outcome":"-10","Keys":[],"TotalKeys":0,"Block":1,"Trial":15,"Valence":"Lose","Action":"Go","Robot":3,"trial_type":"pit-trial","trial_index":27,"time_elapsed":165839,"internal_node_id":"0.0-27.0"},{"Rune":"05","Correct":-1,"Choice":-1,"RT":-1,"Accuracy":1,"Sham":1,"Outcome":"-10","Keys":[],"TotalKeys":0,"Block":1,"Trial":16,"Valence":"Lose","Action":"No-Go","Robot":4,"trial_type":"pit-trial","trial_index":28,"time_elapsed":169845,"internal_node_id":"0.0-28.0"},{"Rune":"06","Correct":32,"Choice":32,"RT":771.4850001502782,"Accuracy":1,"Sham":1,"Outcome":"+0","Keys":[2272.1899999305606],"TotalKeys":1,"Block":1,"Trial":17,"Valence":"Win","Action":"Go","Robot":1,"trial_type":"pit-trial","trial_index":29,"time_elapsed":173123,"internal_node_id":"0.0-29.0"},{"Rune":"03","Correct":32,"Choice":-1,"RT":-1,"Accuracy":0,"Sham":0,"Outcome":"-10","Keys":[],"TotalKeys":0,"Block":1,"Trial":18,"Valence":"Lose","Action":"Go","Robot":3,"trial_type":"pit-trial","trial_index":30,"time_elapsed":177129,"internal_node_id":"0.0-30.0"},{"Rune":"04","Correct":-1,"Choice":32,"RT":697.7949999272823,"Accuracy":0,"Sham":1,"Outcome":"+10","Keys":[2198.0899998452514],"TotalKeys":1,"Block":1,"Trial":19,"Valence":"Win","Action":"No-Go","Robot":2,"trial_type":"pit-trial","trial_index":31,"time_elapsed":180333,"internal_node_id":"0.0-31.0"},{"Rune":"05","Correct":-1,"Choice":-1,"RT":-1,"Accuracy":1,"Sham":0,"Outcome":"+0","Keys":[],"TotalKeys":0,"Block":1,"Trial":20,"Valence":"Lose","Action":"No-Go","Robot":4,"trial_type":"pit-trial","trial_index":32,"time_elapsed":184339,"internal_node_id":"0.0-32.0"},{"Rune":"05","Correct":-1,"Choice":-1,"RT":-1,"Accuracy":1,"Sham":0,"Outcome":"+0","Keys":[],"TotalKeys":0,"Block":1,"Trial":21,"Valence":"Lose","Action":"No-Go","Robot":4,"trial_type":"pit-trial","trial_index":33,"time_elapsed":188345,"internal_node_id":"0.0-33.0"},{"Rune":"04","Correct":-1,"Choice":32,"RT":671.4649999048561,"Accuracy":0,"Sham":0,"Outcome":"+0","Keys":[2171.9850001391023],"TotalKeys":1,"Block":1,"Trial":22,"Valence":"Win","Action":"No-Go","Robot":2,"trial_type":"pit-trial","trial_index":34,"time_elapsed":191524,"internal_node_id":"0.0-34.0"},{"Rune":"06","Correct":32,"Choice":32,"RT":662.0550001971424,"Accuracy":1,"Sham":0,"Outcome":"+10","Keys":[2162.5900000799447],"TotalKeys":1,"Block":1,"Trial":23,"Valence":"Win","Action":"Go","Robot":1,"trial_type":"pit-trial","trial_index":35,"time_elapsed":194693,"internal_node_id":"0.0-35.0"},{"Rune":"03","Correct":32,"Choice":-1,"RT":-1,"Accuracy":0,"Sham":0,"Outcome":"-10","Keys":[],"TotalKeys":0,"Block":1,"Trial":24,"Valence":"Lose","Action":"Go","Robot":3,"trial_type":"pit-trial","trial_index":36,"time_elapsed":198698,"internal_node_id":"0.0-36.0"},{"Rune":"05","Correct":-1,"Choice":-1,"RT":-1,"Accuracy":1,"Sham":0,"Outcome":"+0","Keys":[],"TotalKeys":0,"Block":1,"Trial":25,"Valence":"Lose","Action":"No-Go","Robot":4,"trial_type":"pit-trial","trial_index":37,"time_elapsed":202704,"internal_node_id":"0.0-37.0"},{"Rune":"06","Correct":32,"Choice":32,"RT":624.9449998140335,"Accuracy":1,"Sham":0,"Outcome":"+10","Keys":[2128.550000023097],"TotalKeys":1,"Block":1,"Trial":26,"Valence":"Win","Action":"Go","Robot":1,"trial_type":"pit-trial","trial_index":38,"time_elapsed":205839,"internal_node_id":"0.0-38.0"},{"Rune":"03","Correct":32,"Choice":-1,"RT":-1,"Accuracy":0,"Sham":0,"Outcome":"-10","Keys":[],"TotalKeys":0,"Block":1,"Trial":27,"Valence":"Lose","Action":"Go","Robot":3,"trial_type":"pit-trial","trial_index":39,"time_elapsed":209845,"internal_node_id":"0.0-39.0"},{"Rune":"04","Correct":-1,"Choice":32,"RT":751.844999846071,"Accuracy":0,"Sham":0,"Outcome":"+0","Keys":[2252.5949999690056],"TotalKeys":1,"Block":1,"Trial":28,"Valence":"Win","Action":"No-Go","Robot":2,"trial_type":"pit-trial","trial_index":40,"time_elapsed":213102,"internal_node_id":"0.0-40.0"},{"Rune":"03","Correct":32,"Choice":-1,"RT":-1,"Accuracy":0,"Sham":0,"Outcome":"-10","Keys":[],"TotalKeys":0,"Block":1,"Trial":29,"Valence":"Lose","Action":"Go","Robot":3,"trial_type":"pit-trial","trial_index":41,"time_elapsed":217109,"internal_node_id":"0.0-41.0"},{"Rune":"04","Correct":-1,"Choice":32,"RT":610.0149999838322,"Accuracy":0,"Sham":1,"Outcome":"+10","Keys":[2111.435000086203],"TotalKeys":1,"Block":1,"Trial":30,"Valence":"Win","Action":"No-Go","Robot":2,"trial_type":"pit-trial","trial_index":42,"time_elapsed":220226,"internal_node_id":"0.0-42.0"},{"Rune":"06","Correct":32,"Choice":32,"RT":558.8400000706315,"Accuracy":1,"Sham":1,"Outcome":"+0","Keys":[2059.594999998808],"TotalKeys":1,"Block":1,"Trial":31,"Valence":"Win","Action":"Go","Robot":1,"trial_type":"pit-trial","trial_index":43,"time_elapsed":223291,"internal_node_id":"0.0-43.0"},{"Rune":"05","Correct":-1,"Choice":-1,"RT":-1,"Accuracy":1,"Sham":0,"Outcome":"+0","Keys":[],"TotalKeys":0,"Block":1,"Trial":32,"Valence":"Lose","Action":"No-Go","Robot":4,"trial_type":"pit-trial","trial_index":44,"time_elapsed":227297,"internal_node_id":"0.0-44.0"},{"Rune":"05","Correct":-1,"Choice":-1,"RT":-1,"Accuracy":1,"Sham":0,"Outcome":"+0","Keys":[],"TotalKeys":0,"Block":1,"Trial":33,"Valence":"Lose","Action":"No-Go","Robot":4,"trial_type":"pit-trial","trial_index":45,"time_elapsed":231303,"internal_node_id":"0.0-45.0"},{"Rune":"04","Correct":-1,"Choice":32,"RT":560.1749999914318,"Accuracy":0,"Sham":0,"Outcome":"+0","Keys":[2062.249999959022],"TotalKeys":1,"Block":1,"Trial":34,"Valence":"Win","Action":"No-Go","Robot":2,"trial_type":"pit-trial","trial_index":46,"time_elapsed":234371,"internal_node_id":"0.0-46.0"},{"Rune":"06","Correct":32,"Choice":32,"RT":581.2250000890344,"Accuracy":1,"Sham":0,"Outcome":"+10","Keys":[2081.8799999542534],"TotalKeys":1,"Block":1,"Trial":35,"Valence":"Win","Action":"Go","Robot":1,"trial_type":"pit-trial","trial_index":47,"time_elapsed":237458,"internal_node_id":"0.0-47.0"},{"Rune":"03","Correct":32,"Choice":-1,"RT":-1,"Accuracy":0,"Sham":1,"Outcome":"+0","Keys":[],"TotalKeys":0,"Block":1,"Trial":36,"Valence":"Lose","Action":"Go","Robot":3,"trial_type":"pit-trial","trial_index":48,"time_elapsed":241464,"internal_node_id":"0.0-48.0"},{"Rune":"05","Correct":-1,"Choice":-1,"RT":-1,"Accuracy":1,"Sham":1,"Outcome":"-10","Keys":[],"TotalKeys":0,"Block":1,"Trial":37,"Valence":"Lose","Action":"No-Go","Robot":4,"trial_type":"pit-trial","trial_index":49,"time_elapsed":245473,"internal_node_id":"0.0-49.0"},{"Rune":"03","Correct":32,"Choice":-1,"RT":-1,"Accuracy":0,"Sham":0,"Outcome":"-10","Keys":[],"TotalKeys":0,"Block":1,"Trial":38,"Valence":"Lose","Action":"Go","Robot":3,"trial_type":"pit-trial","trial_index":50,"time_elapsed":249482,"internal_node_id":"0.0-50.0"},{"Rune":"06","Correct":32,"Choice":32,"RT":500.90500013902783,"Accuracy":1,"Sham":0,"Outcome":"+10","Keys":[2002.7850000187755],"TotalKeys":1,"Block":1,"Trial":39,"Valence":"Win","Action":"Go","Robot":1,"trial_type":"pit-trial","trial_index":51,"time_elapsed":252494,"internal_node_id":"0.0-51.0"},{"Rune":"04","Correct":-1,"Choice":32,"RT":924.9499998986721,"Accuracy":0,"Sham":0,"Outcome":"+0","Keys":[2429.180000210181],"TotalKeys":1,"Block":1,"Trial":40,"Valence":"Win","Action":"No-Go","Robot":2,"trial_type":"pit-trial","trial_index":52,"time_elapsed":255927,"internal_node_id":"0.0-52.0"},{"Rune":"03","Correct":32,"Choice":-1,"RT":-1,"Accuracy":0,"Sham":1,"Outcome":"+0","Keys":[],"TotalKeys":0,"Block":1,"Trial":41,"Valence":"Lose","Action":"Go","Robot":3,"trial_type":"pit-trial","trial_index":53,"time_elapsed":259934,"internal_node_id":"0.0-53.0"},{"Rune":"04","Correct":-1,"Choice":32,"RT":1246.4050000999123,"Accuracy":0,"Sham":0,"Outcome":"+0","Keys":[2750.4099998623133],"TotalKeys":1,"Block":1,"Trial":42,"Valence":"Win","Action":"No-Go","Robot":2,"trial_type":"pit-trial","trial_index":54,"time_elapsed":263692,"internal_node_id":"0.0-54.0"},{"Rune":"05","Correct":-1,"Choice":32,"RT":924.9650000128895,"Accuracy":0,"Sham":0,"Outcome":"-10","Keys":[2426.380000077188],"TotalKeys":1,"Block":1,"Trial":43,"Valence":"Lose","Action":"No-Go","Robot":4,"trial_type":"pit-trial","trial_index":55,"time_elapsed":267124,"internal_node_id":"0.0-55.0"},{"Rune":"06","Correct":32,"Choice":32,"RT":763.4300000499934,"Accuracy":1,"Sham":0,"Outcome":"+10","Keys":[2264.4950000103563],"TotalKeys":1,"Block":1,"Trial":44,"Valence":"Win","Action":"Go","Robot":1,"trial_type":"pit-trial","trial_index":56,"time_elapsed":270394,"internal_node_id":"0.0-56.0"},{"Rune":"05","Correct":-1,"Choice":-1,"RT":-1,"Accuracy":1,"Sham":0,"Outcome":"+0","Keys":[],"TotalKeys":0,"Block":1,"Trial":45,"Valence":"Lose","Action":"No-Go","Robot":4,"trial_type":"pit-trial","trial_index":57,"time_elapsed":274406,"internal_node_id":"0.0-57.0"},{"Rune":"04","Correct":-1,"Choice":32,"RT":1102.1350000519305,"Accuracy":0,"Sham":1,"Outcome":"+10","Keys":[2602.40999981761],"TotalKeys":1,"Block":1,"Trial":46,"Valence":"Win","Action":"No-Go","Robot":2,"trial_type":"pit-trial","trial_index":58,"time_elapsed":278014,"internal_node_id":"0.0-58.0"},{"Rune":"03","Correct":32,"Choice":-1,"RT":-1,"Accuracy":0,"Sham":0,"Outcome":"-10","Keys":[],"TotalKeys":0,"Block":1,"Trial":47,"Valence":"Lose","Action":"Go","Robot":3,"trial_type":"pit-trial","trial_index":59,"time_elapsed":282021,"internal_node_id":"0.0-59.0"},{"Rune":"06","Correct":32,"Choice":32,"RT":764.0500001143664,"Accuracy":1,"Sham":0,"Outcome":"+10","Keys":[2265.5699998140335],"TotalKeys":1,"Block":1,"Trial":48,"Valence":"Win","Action":"Go","Robot":1,"trial_type":"pit-trial","trial_index":60,"time_elapsed":285293,"internal_node_id":"0.0-60.0"},{"Rune":"05","Correct":-1,"Choice":-1,"RT":-1,"Accuracy":1,"Sham":0,"Outcome":"+0","Keys":[],"TotalKeys":0,"Block":1,"Trial":49,"Valence":"Lose","Action":"No-Go","Robot":4,"trial_type":"pit-trial","trial_index":61,"time_elapsed":289298,"internal_node_id":"0.0-61.0"},{"Rune":"06","Correct":32,"Choice":32,"RT":774.2049999069422,"Accuracy":1,"Sham":0,"Outcome":"+10","Keys":[2274.955000029877],"TotalKeys":1,"Block":1,"Trial":50,"Valence":"Win","Action":"Go","Robot":1,"trial_type":"pit-trial","trial_index":62,"time_elapsed":292578,"internal_node_id":"0.0-62.0"},{"Rune":"04","Correct":-1,"Choice":32,"RT":731.9050000514835,"Accuracy":0,"Sham":0,"Outcome":"+0","Keys":[2232.5900001451373],"TotalKeys":1,"Block":1,"Trial":51,"Valence":"Win","Action":"No-Go","Robot":2,"trial_type":"pit-trial","trial_index":63,"time_elapsed":295816,"internal_node_id":"0.0-63.0"},{"Rune":"03","Correct":32,"Choice":32,"RT":1146.5850002132356,"Accuracy":1,"Sham":0,"Outcome":"+0","Keys":[2647.1199998632073],"TotalKeys":1,"Block":1,"Trial":52,"Valence":"Lose","Action":"Go","Robot":3,"trial_type":"pit-trial","trial_index":64,"time_elapsed":299469,"internal_node_id":"0.0-64.0"},{"Rune":"04","Correct":-1,"Choice":32,"RT":1100.645000115037,"Accuracy":0,"Sham":0,"Outcome":"+0","Keys":[2601.3550001662225],"TotalKeys":1,"Block":1,"Trial":53,"Valence":"Win","Action":"No-Go","Robot":2,"trial_type":"pit-trial","trial_index":65,"time_elapsed":303076,"internal_node_id":"0.0-65.0"},{"Rune":"03","Correct":32,"Choice":-1,"RT":-1,"Accuracy":0,"Sham":0,"Outcome":"-10","Keys":[],"TotalKeys":0,"Block":1,"Trial":54,"Valence":"Lose","Action":"Go","Robot":3,"trial_type":"pit-trial","trial_index":66,"time_elapsed":307082,"internal_node_id":"0.0-66.0"},{"Rune":"05","Correct":-1,"Choice":-1,"RT":-1,"Accuracy":1,"Sham":0,"Outcome":"+0","Keys":[],"TotalKeys":0,"Block":1,"Trial":55,"Valence":"Lose","Action":"No-Go","Robot":4,"trial_type":"pit-trial","trial_index":67,"time_elapsed":311091,"internal_node_id":"0.0-67.0"},{"Rune":"06","Correct":32,"Choice":32,"RT":741.5150001179427,"Accuracy":1,"Sham":0,"Outcome":"+10","Keys":[2241.810000035912],"TotalKeys":1,"Block":1,"Trial":56,"Valence":"Win","Action":"Go","Robot":1,"trial_type":"pit-trial","trial_index":68,"time_elapsed":314338,"internal_node_id":"0.0-68.0"},{"Rune":"06","Correct":32,"Choice":32,"RT":704.179999884218,"Accuracy":1,"Sham":1,"Outcome":"+0","Keys":[2205.2250001579523],"TotalKeys":1,"Block":1,"Trial":57,"Valence":"Win","Action":"Go","Robot":1,"trial_type":"pit-trial","trial_index":69,"time_elapsed":317549,"internal_node_id":"0.0-69.0"},{"Rune":"03","Correct":32,"Choice":-1,"RT":-1,"Accuracy":0,"Sham":0,"Outcome":"-10","Keys":[],"TotalKeys":0,"Block":1,"Trial":58,"Valence":"Lose","Action":"Go","Robot":3,"trial_type":"pit-trial","trial_index":70,"time_elapsed":321556,"internal_node_id":"0.0-70.0"},{"Rune":"05","Correct":-1,"Choice":32,"RT":440.83500001579523,"Accuracy":0,"Sham":1,"Outcome":"+0","Keys":[1941.690000006929],"TotalKeys":1,"Block":1,"Trial":59,"Valence":"Lose","Action":"No-Go","Robot":4,"trial_type":"pit-trial","trial_index":71,"time_elapsed":324503,"internal_node_id":"0.0-71.0"},{"Rune":"04","Correct":-1,"Choice":32,"RT":926.7399997916073,"Accuracy":0,"Sham":0,"Outcome":"+0","Keys":[2426.9650001078844],"TotalKeys":1,"Block":1,"Trial":60,"Valence":"Win","Action":"No-Go","Robot":2,"trial_type":"pit-trial","trial_index":72,"time_elapsed":327935,"internal_node_id":"0.0-72.0"},{"Rune":"04","Correct":-1,"Choice":32,"RT":420.285000000149,"Accuracy":0,"Sham":0,"Outcome":"+0","Keys":[1921.2400000542402],"TotalKeys":1,"Block":1,"Trial":61,"Valence":"Win","Action":"No-Go","Robot":2,"trial_type":"pit-trial","trial_index":73,"time_elapsed":330862,"internal_node_id":"0.0-73.0"},{"Rune":"03","Correct":32,"Choice":-1,"RT":-1,"Accuracy":0,"Sham":0,"Outcome":"-10","Keys":[],"TotalKeys":0,"Block":1,"Trial":62,"Valence":"Lose","Action":"Go","Robot":3,"trial_type":"pit-trial","trial_index":74,"time_elapsed":334868,"internal_node_id":"0.0-74.0"},{"Rune":"05","Correct":-1,"Choice":32,"RT":704.8200001008809,"Accuracy":0,"Sham":0,"Outcome":"-10","Keys":[2205.485000042245],"TotalKeys":1,"Block":1,"Trial":63,"Valence":"Lose","Action":"No-Go","Robot":4,"trial_type":"pit-trial","trial_index":75,"time_elapsed":338079,"internal_node_id":"0.0-75.0"},{"Rune":"06","Correct":32,"Choice":32,"RT":418.6400000471622,"Accuracy":1,"Sham":0,"Outcome":"+10","Keys":[1919.705000007525],"TotalKeys":1,"Block":1,"Trial":64,"Valence":"Win","Action":"Go","Robot":1,"trial_type":"pit-trial","trial_index":76,"time_elapsed":341005,"internal_node_id":"0.0-76.0"},{"Rune":"04","Correct":-1,"Choice":32,"RT":348.4300000127405,"Accuracy":0,"Sham":0,"Outcome":"+0","Keys":[1848.5999999102205],"TotalKeys":1,"Block":1,"Trial":65,"Valence":"Win","Action":"No-Go","Robot":2,"trial_type":"pit-trial","trial_index":77,"time_elapsed":343859,"internal_node_id":"0.0-77.0"},{"Rune":"05","Correct":-1,"Choice":-1,"RT":-1,"Accuracy":1,"Sham":0,"Outcome":"+0","Keys":[],"TotalKeys":0,"Block":1,"Trial":66,"Valence":"Lose","Action":"No-Go","Robot":4,"trial_type":"pit-trial","trial_index":78,"time_elapsed":347868,"internal_node_id":"0.0-78.0"},{"Rune":"06","Correct":32,"Choice":-1,"RT":-1,"Accuracy":0,"Sham":1,"Outcome":"+10","Keys":[3507.6299998909235],"TotalKeys":1,"Block":1,"Trial":67,"Valence":"Win","Action":"Go","Robot":1,"trial_type":"pit-trial","trial_index":79,"time_elapsed":351880,"internal_node_id":"0.0-79.0"},{"Rune":"03","Correct":32,"Choice":-1,"RT":-1,"Accuracy":0,"Sham":0,"Outcome":"-10","Keys":[],"TotalKeys":0,"Block":1,"Trial":68,"Valence":"Lose","Action":"Go","Robot":3,"trial_type":"pit-trial","trial_index":80,"time_elapsed":355886,"internal_node_id":"0.0-80.0"},{"Rune":"05","Correct":-1,"Choice":-1,"RT":-1,"Accuracy":1,"Sham":1,"Outcome":"-10","Keys":[],"TotalKeys":0,"Block":1,"Trial":69,"Valence":"Lose","Action":"No-Go","Robot":4,"trial_type":"pit-trial","trial_index":81,"time_elapsed":359892,"internal_node_id":"0.0-81.0"},{"Rune":"03","Correct":32,"Choice":-1,"RT":-1,"Accuracy":0,"Sham":0,"Outcome":"-10","Keys":[],"TotalKeys":0,"Block":1,"Trial":70,"Valence":"Lose","Action":"Go","Robot":3,"trial_type":"pit-trial","trial_index":82,"time_elapsed":363899,"internal_node_id":"0.0-82.0"},{"Rune":"06","Correct":32,"Choice":32,"RT":1023.914999794215,"Accuracy":1,"Sham":0,"Outcome":"+10","Keys":[2524.8149998951703],"TotalKeys":1,"Block":1,"Trial":71,"Valence":"Win","Action":"Go","Robot":1,"trial_type":"pit-trial","trial_index":83,"time_elapsed":367429,"internal_node_id":"0.0-83.0"},{"Rune":"04","Correct":-1,"Choice":32,"RT":437.9299997817725,"Accuracy":0,"Sham":0,"Outcome":"+0","Keys":[1938.6599999852479],"TotalKeys":1,"Block":1,"Trial":72,"Valence":"Win","Action":"No-Go","Robot":2,"trial_type":"pit-trial","trial_index":84,"time_elapsed":370373,"internal_node_id":"0.0-84.0"},{"Rune":"04","Correct":-1,"Choice":32,"RT":555.7199998293072,"Accuracy":0,"Sham":0,"Outcome":"+0","Keys":[2057.6299999374896],"TotalKeys":1,"Block":1,"Trial":73,"Valence":"Win","Action":"No-Go","Robot":2,"trial_type":"pit-trial","trial_index":85,"time_elapsed":373439,"internal_node_id":"0.0-85.0"},{"Rune":"03","Correct":32,"Choice":-1,"RT":-1,"Accuracy":0,"Sham":1,"Outcome":"+0","Keys":[],"TotalKeys":0,"Block":1,"Trial":74,"Valence":"Lose","Action":"Go","Robot":3,"trial_type":"pit-trial","trial_index":86,"time_elapsed":377446,"internal_node_id":"0.0-86.0"},{"Rune":"06","Correct":32,"Choice":-1,"RT":-1,"Accuracy":0,"Sham":0,"Outcome":"+0","Keys":[3439.089999999851],"TotalKeys":1,"Block":1,"Trial":75,"Valence":"Win","Action":"Go","Robot":1,"trial_type":"pit-trial","trial_index":87,"time_elapsed":381452,"internal_node_id":"0.0-87.0"},{"Rune":"05","Correct":-1,"Choice":-1,"RT":-1,"Accuracy":1,"Sham":0,"Outcome":"+0","Keys":[],"TotalKeys":0,"Block":1,"Trial":76,"Valence":"Lose","Action":"No-Go","Robot":4,"trial_type":"pit-trial","trial_index":88,"time_elapsed":385457,"internal_node_id":"0.0-88.0"},{"Rune":"04","Correct":-1,"Choice":32,"RT":538.545000134036,"Accuracy":0,"Sham":1,"Outcome":"+10","Keys":[2040.0999998673797],"TotalKeys":1,"Block":1,"Trial":77,"Valence":"Win","Action":"No-Go","Robot":2,"trial_type":"pit-trial","trial_index":89,"time_elapsed":388502,"internal_node_id":"0.0-89.0"},{"Rune":"06","Correct":32,"Choice":32,"RT":584.3150001019239,"Accuracy":1,"Sham":0,"Outcome":"+10","Keys":[2085.875000106171],"TotalKeys":1,"Block":1,"Trial":78,"Valence":"Win","Action":"Go","Robot":1,"trial_type":"pit-trial","trial_index":90,"time_elapsed":391593,"internal_node_id":"0.0-90.0"},{"Rune":"05","Correct":-1,"Choice":-1,"RT":-1,"Accuracy":1,"Sham":0,"Outcome":"+0","Keys":[],"TotalKeys":0,"Block":1,"Trial":79,"Valence":"Lose","Action":"No-Go","Robot":4,"trial_type":"pit-trial","trial_index":91,"time_elapsed":395599,"internal_node_id":"0.0-91.0"},{"Rune":"03","Correct":32,"Choice":-1,"RT":-1,"Accuracy":0,"Sham":0,"Outcome":"-10","Keys":[],"TotalKeys":0,"Block":1,"Trial":80,"Valence":"Lose","Action":"Go","Robot":3,"trial_type":"pit-trial","trial_index":92,"time_elapsed":399604,"internal_node_id":"0.0-92.0"},{"value":false,"trial_type":"call-function","trial_index":93,"time_elapsed":399614,"internal_node_id":"0.0-93.0"},{"RT":85637.42500008084,"trial_type":"pit-pause","trial_index":94,"time_elapsed":487031,"internal_node_id":"0.0-94.0"},{"Rune":"06","Correct":32,"Choice":32,"RT":459.7450001165271,"Accuracy":1,"Sham":0,"Outcome":"+10","Keys":[1959.8399999085814],"TotalKeys":1,"Block":2,"Trial":81,"Valence":"Win","Action":"Go","Robot":1,"trial_type":"pit-trial","trial_index":95,"time_elapsed":489996,"internal_node_id":"0.0-95.0"},{"Rune":"04","Correct":-1,"Choice":32,"RT":683.3800000604242,"Accuracy":0,"Sham":0,"Outcome":"+0","Keys":[2184.4249998684973],"TotalKeys":1,"Block":2,"Trial":82,"Valence":"Win","Action":"No-Go","Robot":2,"trial_type":"pit-trial","trial_index":96,"time_elapsed":493185,"internal_node_id":"0.0-96.0"},{"Rune":"05","Correct":-1,"Choice":-1,"RT":-1,"Accuracy":1,"Sham":0,"Outcome":"+0","Keys":[],"TotalKeys":0,"Block":2,"Trial":83,"Valence":"Lose","Action":"No-Go","Robot":4,"trial_type":"pit-trial","trial_index":97,"time_elapsed":497192,"internal_node_id":"0.0-97.0"},{"Rune":"03","Correct":32,"Choice":-1,"RT":-1,"Accuracy":0,"Sham":0,"Outcome":"-10","Keys":[],"TotalKeys":0,"Block":2,"Trial":84,"Valence":"Lose","Action":"Go","Robot":3,"trial_type":"pit-trial","trial_index":98,"time_elapsed":501199,"internal_node_id":"0.0-98.0"},{"Rune":"06","Correct":32,"Choice":32,"RT":816.1199998576194,"Accuracy":1,"Sham":0,"Outcome":"+10","Keys":[2316.514999838546],"TotalKeys":1,"Block":2,"Trial":85,"Valence":"Win","Action":"Go","Robot":1,"trial_type":"pit-trial","trial_index":99,"time_elapsed":504520,"internal_node_id":"0.0-99.0"},{"Rune":"04","Correct":-1,"Choice":32,"RT":547.5649998988956,"Accuracy":0,"Sham":0,"Outcome":"+0","Keys":[2049.6150001417845],"TotalKeys":1,"Block":2,"Trial":86,"Valence":"Win","Action":"No-Go","Robot":2,"trial_type":"pit-trial","trial_index":100,"time_elapsed":507576,"internal_node_id":"0.0-100.0"},{"Rune":"03","Correct":32,"Choice":-1,"RT":-1,"Accuracy":0,"Sham":0,"Outcome":"-10","Keys":[],"TotalKeys":0,"Block":2,"Trial":87,"Valence":"Lose","Action":"Go","Robot":3,"trial_type":"pit-trial","trial_index":101,"time_elapsed":511583,"internal_node_id":"0.0-101.0"},{"Rune":"05","Correct":-1,"Choice":-1,"RT":-1,"Accuracy":1,"Sham":0,"Outcome":"+0","Keys":[],"TotalKeys":0,"Block":2,"Trial":88,"Valence":"Lose","Action":"No-Go","Robot":4,"trial_type":"pit-trial","trial_index":102,"time_elapsed":515589,"internal_node_id":"0.0-102.0"},{"Rune":"03","Correct":32,"Choice":-1,"RT":-1,"Accuracy":0,"Sham":1,"Outcome":"+0","Keys":[],"TotalKeys":0,"Block":2,"Trial":89,"Valence":"Lose","Action":"Go","Robot":3,"trial_type":"pit-trial","trial_index":103,"time_elapsed":519595,"internal_node_id":"0.0-103.0"},{"Rune":"06","Correct":32,"Choice":32,"RT":366.4249998982996,"Accuracy":1,"Sham":1,"Outcome":"+0","Keys":[1868.2799998205155],"TotalKeys":1,"Block":2,"Trial":90,"Valence":"Win","Action":"Go","Robot":1,"trial_type":"pit-trial","trial_index":104,"time_elapsed":522469,"internal_node_id":"0.0-104.0"},{"Rune":"04","Correct":-1,"Choice":32,"RT":294.46000000461936,"Accuracy":0,"Sham":0,"Outcome":"+0","Keys":[1794.96999992989],"TotalKeys":1,"Block":2,"Trial":91,"Valence":"Win","Action":"No-Go","Robot":2,"trial_type":"pit-trial","trial_index":105,"time_elapsed":525269,"internal_node_id":"0.0-105.0"},{"Rune":"05","Correct":-1,"Choice":-1,"RT":-1,"Accuracy":1,"Sham":0,"Outcome":"+0","Keys":[],"TotalKeys":0,"Block":2,"Trial":92,"Valence":"Lose","Action":"No-Go","Robot":4,"trial_type":"pit-trial","trial_index":106,"time_elapsed":529275,"internal_node_id":"0.0-106.0"},{"Rune":"05","Correct":-1,"Choice":-1,"RT":-1,"Accuracy":1,"Sham":0,"Outcome":"+0","Keys":[],"TotalKeys":0,"Block":2,"Trial":93,"Valence":"Lose","Action":"No-Go","Robot":4,"trial_type":"pit-trial","trial_index":107,"time_elapsed":533282,"internal_node_id":"0.0-107.0"},{"Rune":"06","Correct":32,"Choice":32,"RT":364.68999995850027,"Accuracy":1,"Sham":0,"Outcome":"+10","Keys":[1865.2049999218434],"TotalKeys":1,"Block":2,"Trial":94,"Valence":"Win","Action":"Go","Robot":1,"trial_type":"pit-trial","trial_index":108,"time_elapsed":536153,"internal_node_id":"0.0-108.0"},{"Rune":"03","Correct":32,"Choice":-1,"RT":-1,"Accuracy":0,"Sham":0,"Outcome":"-10","Keys":[],"TotalKeys":0,"Block":2,"Trial":95,"Valence":"Lose","Action":"Go","Robot":3,"trial_type":"pit-trial","trial_index":109,"time_elapsed":540158,"internal_node_id":"0.0-109.0"},{"Rune":"04","Correct":-1,"Choice":32,"RT":420.98499997518957,"Accuracy":0,"Sham":1,"Outcome":"+10","Keys":[1921.9249999150634],"TotalKeys":1,"Block":2,"Trial":96,"Valence":"Win","Action":"No-Go","Robot":2,"trial_type":"pit-trial","trial_index":110,"time_elapsed":543086,"internal_node_id":"0.0-110.0"},{"Rune":"05","Correct":-1,"Choice":-1,"RT":-1,"Accuracy":1,"Sham":1,"Outcome":"-10","Keys":[],"TotalKeys":0,"Block":2,"Trial":97,"Valence":"Lose","Action":"No-Go","Robot":4,"trial_type":"pit-trial","trial_index":111,"time_elapsed":547092,"internal_node_id":"0.0-111.0"},{"Rune":"06","Correct":32,"Choice":32,"RT":377.3849999997765,"Accuracy":1,"Sham":0,"Outcome":"+10","Keys":[1877.9249999206513],"TotalKeys":1,"Block":2,"Trial":98,"Valence":"Win","Action":"Go","Robot":1,"trial_type":"pit-trial","trial_index":112,"time_elapsed":549975,"internal_node_id":"0.0-112.0"},{"Rune":"03","Correct":32,"Choice":-1,"RT":-1,"Accuracy":0,"Sham":0,"Outcome":"-10","Keys":[],"TotalKeys":0,"Block":2,"Trial":99,"Valence":"Lose","Action":"Go","Robot":3,"trial_type":"pit-trial","trial_index":113,"time_elapsed":553982,"internal_node_id":"0.0-113.0"},{"Rune":"04","Correct":-1,"Choice":32,"RT":1431.6400000825524,"Accuracy":0,"Sham":0,"Outcome":"+0","Keys":[2932.1349998936057],"TotalKeys":1,"Block":2,"Trial":100,"Valence":"Win","Action":"No-Go","Robot":2,"trial_type":"pit-trial","trial_index":114,"time_elapsed":557919,"internal_node_id":"0.0-114.0"},{"Rune":"05","Correct":-1,"Choice":-1,"RT":-1,"Accuracy":1,"Sham":0,"Outcome":"+0","Keys":[],"TotalKeys":0,"Block":2,"Trial":101,"Valence":"Lose","Action":"No-Go","Robot":4,"trial_type":"pit-trial","trial_index":115,"time_elapsed":561930,"internal_node_id":"0.0-115.0"},{"Rune":"03","Correct":32,"Choice":-1,"RT":-1,"Accuracy":0,"Sham":0,"Outcome":"-10","Keys":[],"TotalKeys":0,"Block":2,"Trial":102,"Valence":"Lose","Action":"Go","Robot":3,"trial_type":"pit-trial","trial_index":116,"time_elapsed":565935,"internal_node_id":"0.0-116.0"},{"Rune":"06","Correct":32,"Choice":32,"RT":298.34500001743436,"Accuracy":1,"Sham":1,"Outcome":"+0","Keys":[1798.9850000012666],"TotalKeys":1,"Block":2,"Trial":103,"Valence":"Win","Action":"Go","Robot":1,"trial_type":"pit-trial","trial_index":117,"time_elapsed":568739,"internal_node_id":"0.0-117.0"},{"Rune":"04","Correct":-1,"Choice":32,"RT":320.88999985717237,"Accuracy":0,"Sham":1,"Outcome":"+10","Keys":[1822.355000069365],"TotalKeys":1,"Block":2,"Trial":104,"Valence":"Win","Action":"No-Go","Robot":2,"trial_type":"pit-trial","trial_index":118,"time_elapsed":571567,"internal_node_id":"0.0-118.0"},{"Rune":"03","Correct":32,"Choice":-1,"RT":-1,"Accuracy":0,"Sham":0,"Outcome":"-10","Keys":[],"TotalKeys":0,"Block":2,"Trial":105,"Valence":"Lose","Action":"Go","Robot":3,"trial_type":"pit-trial","trial_index":119,"time_elapsed":575574,"internal_node_id":"0.0-119.0"},{"Rune":"06","Correct":32,"Choice":32,"RT":600.5200000945479,"Accuracy":1,"Sham":0,"Outcome":"+10","Keys":[2102.6400001719594],"TotalKeys":1,"Block":2,"Trial":106,"Valence":"Win","Action":"Go","Robot":1,"trial_type":"pit-trial","trial_index":120,"time_elapsed":578681,"internal_node_id":"0.0-120.0"},{"Rune":"04","Correct":-1,"Choice":32,"RT":354.2349999770522,"Accuracy":0,"Sham":0,"Outcome":"+0","Keys":[1854.344999883324],"TotalKeys":1,"Block":2,"Trial":107,"Valence":"Win","Action":"No-Go","Robot":2,"trial_type":"pit-trial","trial_index":121,"time_elapsed":581541,"internal_node_id":"0.0-121.0"},{"Rune":"05","Correct":-1,"Choice":-1,"RT":-1,"Accuracy":1,"Sham":0,"Outcome":"+0","Keys":[],"TotalKeys":0,"Block":2,"Trial":108,"Valence":"Lose","Action":"No-Go","Robot":4,"trial_type":"pit-trial","trial_index":122,"time_elapsed":585548,"internal_node_id":"0.0-122.0"},{"Rune":"04","Correct":-1,"Choice":32,"RT":753.5899998620152,"Accuracy":0,"Sham":0,"Outcome":"+0","Keys":[2254.570000106469],"TotalKeys":1,"Block":2,"Trial":109,"Valence":"Win","Action":"No-Go","Robot":2,"trial_type":"pit-trial","trial_index":123,"time_elapsed":588808,"internal_node_id":"0.0-123.0"},{"Rune":"05","Correct":-1,"Choice":-1,"RT":-1,"Accuracy":1,"Sham":0,"Outcome":"+0","Keys":[],"TotalKeys":0,"Block":2,"Trial":110,"Valence":"Lose","Action":"No-Go","Robot":4,"trial_type":"pit-trial","trial_index":124,"time_elapsed":592814,"internal_node_id":"0.0-124.0"},{"Rune":"06","Correct":32,"Choice":32,"RT":385.2150000166148,"Accuracy":1,"Sham":0,"Outcome":"+10","Keys":[1885.414999909699],"TotalKeys":1,"Block":2,"Trial":111,"Valence":"Win","Action":"Go","Robot":1,"trial_type":"pit-trial","trial_index":125,"time_elapsed":595705,"internal_node_id":"0.0-125.0"},{"Rune":"03","Correct":32,"Choice":-1,"RT":-1,"Accuracy":0,"Sham":0,"Outcome":"-10","Keys":[],"TotalKeys":0,"Block":2,"Trial":112,"Valence":"Lose","Action":"Go","Robot":3,"trial_type":"pit-trial","trial_index":126,"time_elapsed":599712,"internal_node_id":"0.0-126.0"},{"Rune":"04","Correct":-1,"Choice":32,"RT":352.63000009581447,"Accuracy":0,"Sham":0,"Outcome":"+0","Keys":[1853.3149999566376],"TotalKeys":1,"Block":2,"Trial":113,"Valence":"Win","Action":"No-Go","Robot":2,"trial_type":"pit-trial","trial_index":127,"time_elapsed":602571,"internal_node_id":"0.0-127.0"},{"Rune":"05","Correct":-1,"Choice":-1,"RT":-1,"Accuracy":1,"Sham":0,"Outcome":"+0","Keys":[],"TotalKeys":0,"Block":2,"Trial":114,"Valence":"Lose","Action":"No-Go","Robot":4,"trial_type":"pit-trial","trial_index":128,"time_elapsed":606580,"internal_node_id":"0.0-128.0"},{"Rune":"03","Correct":32,"Choice":-1,"RT":-1,"Accuracy":0,"Sham":1,"Outcome":"+0","Keys":[],"TotalKeys":0,"Block":2,"Trial":115,"Valence":"Lose","Action":"Go","Robot":3,"trial_type":"pit-trial","trial_index":129,"time_elapsed":610587,"internal_node_id":"0.0-129.0"},{"Rune":"06","Correct":32,"Choice":32,"RT":460.8700000680983,"Accuracy":1,"Sham":0,"Outcome":"+10","Keys":[1961.3250000402331],"TotalKeys":1,"Block":2,"Trial":116,"Valence":"Win","Action":"Go","Robot":1,"trial_type":"pit-trial","trial_index":130,"time_elapsed":613553,"internal_node_id":"0.0-130.0"},{"Rune":"05","Correct":-1,"Choice":-1,"RT":-1,"Accuracy":1,"Sham":1,"Outcome":"-10","Keys":[],"TotalKeys":0,"Block":2,"Trial":117,"Valence":"Lose","Action":"No-Go","Robot":4,"trial_type":"pit-trial","trial_index":131,"time_elapsed":617560,"internal_node_id":"0.0-131.0"},{"Rune":"03","Correct":32,"Choice":-1,"RT":-1,"Accuracy":0,"Sham":0,"Outcome":"-10","Keys":[],"TotalKeys":0,"Block":2,"Trial":118,"Valence":"Lose","Action":"Go","Robot":3,"trial_type":"pit-trial","trial_index":132,"time_elapsed":621567,"internal_node_id":"0.0-132.0"},{"Rune":"04","Correct":-1,"Choice":32,"RT":322.58499995805323,"Accuracy":0,"Sham":0,"Outcome":"+0","Keys":[1823.4850000590086],"TotalKeys":1,"Block":2,"Trial":119,"Valence":"Win","Action":"No-Go","Robot":2,"trial_type":"pit-trial","trial_index":133,"time_elapsed":624396,"internal_node_id":"0.0-133.0"},{"Rune":"06","Correct":32,"Choice":32,"RT":355.31000001356006,"Accuracy":1,"Sham":0,"Outcome":"+10","Keys":[1857.3149999137968],"TotalKeys":1,"Block":2,"Trial":120,"Valence":"Win","Action":"Go","Robot":1,"trial_type":"pit-trial","trial_index":134,"time_elapsed":627273,"internal_node_id":"0.0-134.0"},{"Rune":"04","Correct":-1,"Choice":32,"RT":502.85999989137053,"Accuracy":0,"Sham":0,"Outcome":"+0","Keys":[2003.2900001388043],"TotalKeys":1,"Block":2,"Trial":121,"Valence":"Win","Action":"No-Go","Robot":2,"trial_type":"pit-trial","trial_index":135,"time_elapsed":630281,"internal_node_id":"0.0-135.0"},{"Rune":"05","Correct":-1,"Choice":-1,"RT":-1,"Accuracy":1,"Sham":0,"Outcome":"+0","Keys":[],"TotalKeys":0,"Block":2,"Trial":122,"Valence":"Lose","Action":"No-Go","Robot":4,"trial_type":"pit-trial","trial_index":136,"time_elapsed":634287,"internal_node_id":"0.0-136.0"},{"Rune":"03","Correct":32,"Choice":-1,"RT":-1,"Accuracy":0,"Sham":0,"Outcome":"-10","Keys":[],"TotalKeys":0,"Block":2,"Trial":123,"Valence":"Lose","Action":"Go","Robot":3,"trial_type":"pit-trial","trial_index":137,"time_elapsed":638293,"internal_node_id":"0.0-137.0"},{"Rune":"06","Correct":32,"Choice":32,"RT":423.19500003941357,"Accuracy":1,"Sham":1,"Outcome":"+0","Keys":[1927.6349998544902],"TotalKeys":1,"Block":2,"Trial":124,"Valence":"Win","Action":"Go","Robot":1,"trial_type":"pit-trial","trial_index":138,"time_elapsed":641227,"internal_node_id":"0.0-138.0"},{"Rune":"03","Correct":32,"Choice":-1,"RT":-1,"Accuracy":0,"Sham":1,"Outcome":"+0","Keys":[],"TotalKeys":0,"Block":2,"Trial":125,"Valence":"Lose","Action":"Go","Robot":3,"trial_type":"pit-trial","trial_index":139,"time_elapsed":645234,"internal_node_id":"0.0-139.0"},{"Rune":"05","Correct":-1,"Choice":-1,"RT":-1,"Accuracy":1,"Sham":0,"Outcome":"+0","Keys":[],"TotalKeys":0,"Block":2,"Trial":126,"Valence":"Lose","Action":"No-Go","Robot":4,"trial_type":"pit-trial","trial_index":140,"time_elapsed":649241,"internal_node_id":"0.0-140.0"},{"Rune":"04","Correct":-1,"Choice":32,"RT":474.4299999438226,"Accuracy":0,"Sham":0,"Outcome":"+0","Keys":[1975.730000063777],"TotalKeys":1,"Block":2,"Trial":127,"Valence":"Win","Action":"No-Go","Robot":2,"trial_type":"pit-trial","trial_index":141,"time_elapsed":652222,"internal_node_id":"0.0-141.0"},{"Rune":"06","Correct":32,"Choice":32,"RT":372.1399998757988,"Accuracy":1,"Sham":0,"Outcome":"+10","Keys":[1872.264999896288],"TotalKeys":1,"Block":2,"Trial":128,"Valence":"Win","Action":"Go","Robot":1,"trial_type":"pit-trial","trial_index":142,"time_elapsed":655099,"internal_node_id":"0.0-142.0"},{"Rune":"05","Correct":-1,"Choice":-1,"RT":-1,"Accuracy":1,"Sham":0,"Outcome":"+0","Keys":[],"TotalKeys":0,"Block":2,"Trial":129,"Valence":"Lose","Action":"No-Go","Robot":4,"trial_type":"pit-trial","trial_index":143,"time_elapsed":659105,"internal_node_id":"0.0-143.0"},{"Rune":"06","Correct":32,"Choice":32,"RT":342.98000019043684,"Accuracy":1,"Sham":0,"Outcome":"+10","Keys":[1844.6499998681247],"TotalKeys":1,"Block":2,"Trial":130,"Valence":"Win","Action":"Go","Robot":1,"trial_type":"pit-trial","trial_index":144,"time_elapsed":661955,"internal_node_id":"0.0-144.0"},{"Rune":"03","Correct":32,"Choice":-1,"RT":-1,"Accuracy":0,"Sham":0,"Outcome":"-10","Keys":[],"TotalKeys":0,"Block":2,"Trial":131,"Valence":"Lose","Action":"Go","Robot":3,"trial_type":"pit-trial","trial_index":145,"time_elapsed":665961,"internal_node_id":"0.0-145.0"},{"Rune":"04","Correct":-1,"Choice":32,"RT":365.39000016637146,"Accuracy":0,"Sham":0,"Outcome":"+0","Keys":[1865.7199998851866],"TotalKeys":1,"Block":2,"Trial":132,"Valence":"Win","Action":"No-Go","Robot":2,"trial_type":"pit-trial","trial_index":146,"time_elapsed":668832,"internal_node_id":"0.0-146.0"},{"Rune":"05","Correct":-1,"Choice":-1,"RT":-1,"Accuracy":1,"Sham":0,"Outcome":"+0","Keys":[],"TotalKeys":0,"Block":2,"Trial":133,"Valence":"Lose","Action":"No-Go","Robot":4,"trial_type":"pit-trial","trial_index":147,"time_elapsed":672838,"internal_node_id":"0.0-147.0"},{"Rune":"06","Correct":32,"Choice":32,"RT":462.22000010311604,"Accuracy":1,"Sham":0,"Outcome":"+10","Keys":[1963.1949998438358],"TotalKeys":1,"Block":2,"Trial":134,"Valence":"Win","Action":"Go","Robot":1,"trial_type":"pit-trial","trial_index":148,"time_elapsed":675807,"internal_node_id":"0.0-148.0"},{"Rune":"03","Correct":32,"Choice":-1,"RT":-1,"Accuracy":0,"Sham":0,"Outcome":"-10","Keys":[],"TotalKeys":0,"Block":2,"Trial":135,"Valence":"Lose","Action":"Go","Robot":3,"trial_type":"pit-trial","trial_index":149,"time_elapsed":679812,"internal_node_id":"0.0-149.0"},{"Rune":"04","Correct":-1,"Choice":32,"RT":429.5399999246001,"Accuracy":0,"Sham":0,"Outcome":"+0","Keys":[1932.4300000444055],"TotalKeys":1,"Block":2,"Trial":136,"Valence":"Win","Action":"No-Go","Robot":2,"trial_type":"pit-trial","trial_index":150,"time_elapsed":682751,"internal_node_id":"0.0-150.0"},{"Rune":"05","Correct":-1,"Choice":-1,"RT":-1,"Accuracy":1,"Sham":1,"Outcome":"-10","Keys":[],"TotalKeys":0,"Block":2,"Trial":137,"Valence":"Lose","Action":"No-Go","Robot":4,"trial_type":"pit-trial","trial_index":151,"time_elapsed":686757,"internal_node_id":"0.0-151.0"},{"Rune":"06","Correct":32,"Choice":32,"RT":429.78499992750585,"Accuracy":1,"Sham":0,"Outcome":"+10","Keys":[1929.9400001764297],"TotalKeys":1,"Block":2,"Trial":138,"Valence":"Win","Action":"Go","Robot":1,"trial_type":"pit-trial","trial_index":152,"time_elapsed":689693,"internal_node_id":"0.0-152.0"},{"Rune":"03","Correct":32,"Choice":-1,"RT":-1,"Accuracy":0,"Sham":0,"Outcome":"-10","Keys":[],"TotalKeys":0,"Block":2,"Trial":139,"Valence":"Lose","Action":"Go","Robot":3,"trial_type":"pit-trial","trial_index":153,"time_elapsed":693700,"internal_node_id":"0.0-153.0"},{"Rune":"04","Correct":-1,"Choice":32,"RT":504.0599999483675,"Accuracy":0,"Sham":1,"Outcome":"+10","Keys":[2004.9749999307096],"TotalKeys":1,"Block":2,"Trial":140,"Valence":"Win","Action":"No-Go","Robot":2,"trial_type":"pit-trial","trial_index":154,"time_elapsed":696710,"internal_node_id":"0.0-154.0"},{"Rune":"04","Correct":-1,"Choice":32,"RT":397.0649999100715,"Accuracy":0,"Sham":1,"Outcome":"+10","Keys":[1897.194999968633],"TotalKeys":1,"Block":2,"Trial":141,"Valence":"Win","Action":"No-Go","Robot":2,"trial_type":"pit-trial","trial_index":155,"time_elapsed":699614,"internal_node_id":"0.0-155.0"},{"Rune":"03","Correct":32,"Choice":-1,"RT":-1,"Accuracy":0,"Sham":0,"Outcome":"-10","Keys":[],"TotalKeys":0,"Block":2,"Trial":142,"Valence":"Lose","Action":"Go","Robot":3,"trial_type":"pit-trial","trial_index":156,"time_elapsed":703619,"internal_node_id":"0.0-156.0"},{"Rune":"06","Correct":32,"Choice":32,"RT":445.975000038743,"Accuracy":1,"Sham":0,"Outcome":"+10","Keys":[1946.5700001455843],"TotalKeys":1,"Block":2,"Trial":143,"Valence":"Win","Action":"Go","Robot":1,"trial_type":"pit-trial","trial_index":157,"time_elapsed":706572,"internal_node_id":"0.0-157.0"},{"Rune":"05","Correct":-1,"Choice":-1,"RT":-1,"Accuracy":1,"Sham":0,"Outcome":"+0","Keys":[],"TotalKeys":0,"Block":2,"Trial":144,"Valence":"Lose","Action":"No-Go","Robot":4,"trial_type":"pit-trial","trial_index":158,"time_elapsed":710578,"internal_node_id":"0.0-158.0"},{"Rune":"05","Correct":-1,"Choice":-1,"RT":-1,"Accuracy":1,"Sham":0,"Outcome":"+0","Keys":[],"TotalKeys":0,"Block":2,"Trial":145,"Valence":"Lose","Action":"No-Go","Robot":4,"trial_type":"pit-trial","trial_index":159,"time_elapsed":714586,"internal_node_id":"0.0-159.0"},{"Rune":"06","Correct":32,"Choice":32,"RT":524.0200001280755,"Accuracy":1,"Sham":0,"Outcome":"+10","Keys":[2024.6049999259412],"TotalKeys":1,"Block":2,"Trial":146,"Valence":"Win","Action":"Go","Robot":1,"trial_type":"pit-trial","trial_index":160,"time_elapsed":717616,"internal_node_id":"0.0-160.0"},{"Rune":"03","Correct":32,"Choice":-1,"RT":-1,"Accuracy":0,"Sham":0,"Outcome":"-10","Keys":[],"TotalKeys":0,"Block":2,"Trial":147,"Valence":"Lose","Action":"Go","Robot":3,"trial_type":"pit-trial","trial_index":161,"time_elapsed":721622,"internal_node_id":"0.0-161.0"},{"Rune":"04","Correct":-1,"Choice":32,"RT":501.6000000759959,"Accuracy":0,"Sham":0,"Outcome":"+0","Keys":[2001.8249999266118],"TotalKeys":1,"Block":2,"Trial":148,"Valence":"Win","Action":"No-Go","Robot":2,"trial_type":"pit-trial","trial_index":162,"time_elapsed":724630,"internal_node_id":"0.0-162.0"},{"Rune":"04","Correct":-1,"Choice":32,"RT":463.1300000473857,"Accuracy":0,"Sham":0,"Outcome":"+0","Keys":[1963.895000051707],"TotalKeys":1,"Block":2,"Trial":149,"Valence":"Win","Action":"No-Go","Robot":2,"trial_type":"pit-trial","trial_index":163,"time_elapsed":727601,"internal_node_id":"0.0-163.0"},{"Rune":"05","Correct":-1,"Choice":-1,"RT":-1,"Accuracy":1,"Sham":0,"Outcome":"+0","Keys":[],"TotalKeys":0,"Block":2,"Trial":150,"Valence":"Lose","Action":"No-Go","Robot":4,"trial_type":"pit-trial","trial_index":164,"time_elapsed":731607,"internal_node_id":"0.0-164.0"},{"Rune":"03","Correct":32,"Choice":-1,"RT":-1,"Accuracy":0,"Sham":0,"Outcome":"-10","Keys":[],"TotalKeys":0,"Block":2,"Trial":151,"Valence":"Lose","Action":"Go","Robot":3,"trial_type":"pit-trial","trial_index":165,"time_elapsed":735613,"internal_node_id":"0.0-165.0"},{"Rune":"06","Correct":32,"Choice":32,"RT":403.470000019297,"Accuracy":1,"Sham":0,"Outcome":"+10","Keys":[1904.524999903515],"TotalKeys":1,"Block":2,"Trial":152,"Valence":"Win","Action":"Go","Robot":1,"trial_type":"pit-trial","trial_index":166,"time_elapsed":738523,"internal_node_id":"0.0-166.0"},{"Rune":"06","Correct":32,"Choice":32,"RT":351.9249998498708,"Accuracy":1,"Sham":0,"Outcome":"+10","Keys":[1852.9799999669194],"TotalKeys":1,"Block":2,"Trial":153,"Valence":"Win","Action":"Go","Robot":1,"trial_type":"pit-trial","trial_index":167,"time_elapsed":741382,"internal_node_id":"0.0-167.0"},{"Rune":"05","Correct":-1,"Choice":-1,"RT":-1,"Accuracy":1,"Sham":0,"Outcome":"+0","Keys":[],"TotalKeys":0,"Block":2,"Trial":154,"Valence":"Lose","Action":"No-Go","Robot":4,"trial_type":"pit-trial","trial_index":168,"time_elapsed":745391,"internal_node_id":"0.0-168.0"},{"Rune":"03","Correct":32,"Choice":-1,"RT":-1,"Accuracy":0,"Sham":0,"Outcome":"-10","Keys":[],"TotalKeys":0,"Block":2,"Trial":155,"Valence":"Lose","Action":"Go","Robot":3,"trial_type":"pit-trial","trial_index":169,"time_elapsed":749397,"internal_node_id":"0.0-169.0"},{"Rune":"04","Correct":-1,"Choice":32,"RT":424.85000006854534,"Accuracy":0,"Sham":0,"Outcome":"+0","Keys":[1928.01499995403],"TotalKeys":1,"Block":2,"Trial":156,"Valence":"Win","Action":"No-Go","Robot":2,"trial_type":"pit-trial","trial_index":170,"time_elapsed":752330,"internal_node_id":"0.0-170.0"},{"Rune":"03","Correct":32,"Choice":-1,"RT":-1,"Accuracy":0,"Sham":1,"Outcome":"+0","Keys":[],"TotalKeys":0,"Block":2,"Trial":157,"Valence":"Lose","Action":"Go","Robot":3,"trial_type":"pit-trial","trial_index":171,"time_elapsed":756336,"internal_node_id":"0.0-171.0"},{"Rune":"05","Correct":-1,"Choice":-1,"RT":-1,"Accuracy":1,"Sham":1,"Outcome":"-10","Keys":[],"TotalKeys":0,"Block":2,"Trial":158,"Valence":"Lose","Action":"No-Go","Robot":4,"trial_type":"pit-trial","trial_index":172,"time_elapsed":760342,"internal_node_id":"0.0-172.0"},{"Rune":"04","Correct":-1,"Choice":32,"RT":544.9399999342859,"Accuracy":0,"Sham":0,"Outcome":"+0","Keys":[2045.2149999327958],"TotalKeys":1,"Block":2,"Trial":159,"Valence":"Win","Action":"No-Go","Robot":2,"trial_type":"pit-trial","trial_index":173,"time_elapsed":763392,"internal_node_id":"0.0-173.0"},{"Rune":"06","Correct":32,"Choice":32,"RT":410.9799999278039,"Accuracy":1,"Sham":1,"Outcome":"+0","Keys":[1911.3050000742078],"TotalKeys":1,"Block":2,"Trial":160,"Valence":"Win","Action":"Go","Robot":1,"trial_type":"pit-trial","trial_index":174,"time_elapsed":766309,"internal_node_id":"0.0-174.0"},{"rt":17631.07999996282,"demographics":{"age":"64","gender-categorical":"Female","ethnicity":"Not Hispanic or Latino","race":"White","english":"Yes","fluency":"Very well"},"trial_type":"survey-demo","trial_index":175,"time_elapsed":783949,"internal_node_id":"0.0-175.0"},{"rt":19836.555000161752,"debriefgraphics":{"difficulty":"4","fun":"2","clarity":"4","strategy":"No","feedback":""},"trial_type":"survey-debrief","trial_index":176,"time_elapsed":803797,"internal_node_id":"0.0-176.0","interactions":"[]"}]