[{"view_history":"[{\"page_index\":0,\"viewing_time\":2596.720000001369},{\"page_index\":1,\"viewing_time\":4887.659999978496},{\"page_index\":2,\"viewing_time\":10816.06000001193},{\"page_index\":3,\"viewing_time\":4248.070000001462},{\"page_index\":4,\"viewing_time\":4375.674999988405}]","rt":26926.164999982575,"trial_type":"pit-instructions","trial_index":0,"time_elapsed":26931,"internal_node_id":"0.0-0.0"},{"Valence":"Practice","Color":"#fffff080","Rune":"01","Correct":32,"Choice":-1,"RT":-1,"Accuracy":0,"Sham":0,"Outcome":"+0","Keys":[3196.7850000073668],"TotalKeys":1,"trial_type":"pit-trial","trial_index":1,"time_elapsed":30939,"internal_node_id":"0.0-1.0"},{"Valence":"Practice","Color":"#fffff080","Rune":"01","Correct":32,"Choice":-1,"RT":-1,"Accuracy":0,"Sham":0,"Outcome":"+0","Keys":[],"TotalKeys":0,"trial_type":"pit-trial","trial_index":2,"time_elapsed":34943,"internal_node_id":"0.0-2.0"},{"Valence":"Practice","Color":"#fffff080","Rune":"01","Correct":32,"Choice":32,"RT":410.1749999972526,"Accuracy":1,"Sham":0,"Outcome":"+10","Keys":[1910.234999988461],"TotalKeys":1,"trial_type":"pit-trial","trial_index":3,"time_elapsed":37859,"internal_node_id":"0.0-3.0"},{"Valence":"Practice","Color":"#fffff080","Rune":"01","Correct":32,"Choice":32,"RT":820.5550000129733,"Accuracy":1,"Sham":0,"Outcome":"+10","Keys":[2320.57499999064],"TotalKeys":1,"trial_type":"pit-trial","trial_index":4,"time_elapsed":41187,"internal_node_id":"0.0-4.0"},{"view_history":"[{\"page_index\":0,\"viewing_time\":4090.2899999928195}]","rt":4090.974999999162,"trial_type":"pit-instructions","trial_index":5,"time_elapsed":45281,"internal_node_id":"0.0-5.0"},{"Valence":"Practice","Color":"#fffff080","Rune":"02","Correct":-1,"Choice":32,"RT":971.0000000195578,"Accuracy":0,"Sham":0,"Outcome":"+0","Keys":[2472.169999993639],"TotalKeys":1,"trial_type":"pit-trial","trial_index":6,"time_elapsed":48758,"internal_node_id":"0.0-6.0"},{"Valence":"Practice","Color":"#fffff080","Rune":"02","Correct":-1,"Choice":-1,"RT":-1,"Accuracy":1,"Sham":0,"Outcome":"+10","Keys":[],"TotalKeys":0,"trial_type":"pit-trial","trial_index":7,"time_elapsed":52763,"internal_node_id":"0.0-7.0"},{"Valence":"Practice","Color":"#fffff080","Rune":"02","Correct":-1,"Choice":32,"RT":707.9699999885634,"Accuracy":0,"Sham":0,"Outcome":"+0","Keys":[2208.9799999957904],"TotalKeys":1,"trial_type":"pit-trial","trial_index":8,"time_elapsed":55981,"internal_node_id":"0.0-8.0"},{"Valence":"Practice","Color":"#fffff080","Rune":"02","Correct":-1,"Choice":32,"RT":627.4649999977555,"Accuracy":0,"Sham":0,"Outcome":"+0","Keys":[2129.0100000042003],"TotalKeys":1,"trial_type":"pit-trial","trial_index":9,"time_elapsed":59117,"internal_node_id":"0.0-9.0"},{"view_history":"[{\"page_index\":0,\"viewing_time\":9823.574999987613},{\"page_index\":1,\"viewing_time\":6247.660000022734},{\"page_index\":2,\"viewing_time\":3944.4749999966007},{\"page_index\":3,\"viewing_time\":3671.9649999868125},{\"page_index\":4,\"viewing_time\":2463.790000008885},{\"page_index\":5,\"viewing_time\":1159.6750000026077},{\"page_index\":6,\"viewing_time\":1776.2199999997392},{\"page_index\":5,\"viewing_time\":7064.164999988861},{\"page_index\":6,\"viewing_time\":1359.454999997979},{\"page_index\":7,\"viewing_time\":1352.1199999959208},{\"page_index\":6,\"viewing_time\":5551.930000016},{\"page_index\":7,\"viewing_time\":848.3300000079907}]","rt":45264.079999993555,"trial_type":"pit-instructions","trial_index":10,"time_elapsed":104384,"internal_node_id":"0.0-10.0"},{"rt":18748.48499998916,"responses":"{\"no-press\":\"Do nothing\",\"context-win\":\"+10\",\"context-lose\":\"-1\",\"feedback\":\"True\"}","errors":2,"trial_type":"pit-comprehension","trial_index":11,"time_elapsed":123139,"internal_node_id":"0.0-11.0"},{"view_history":"[{\"page_index\":0,\"viewing_time\":1895.1449999876786}]","rt":1895.7949999894481,"trial_type":"pit-instructions","trial_index":12,"time_elapsed":125040,"internal_node_id":"0.0-12.0"},{"Valence":"Win","Color":"#3366ff99","Rune":"05","Correct":-1,"Choice":32,"RT":509.85500001115724,"Accuracy":0,"Sham":0,"Outcome":"+1","Keys":[2010.1100000028964],"TotalKeys":1,"Block":1,"Trial":1,"Action":"No-Go","Robot":2,"trial_type":"pit-trial","trial_index":13,"time_elapsed":128056,"internal_node_id":"0.0-13.0"},{"Valence":"Lose","Color":"#ffcc3399","Rune":"04","Correct":32,"Choice":32,"RT":1000.9149999823421,"Accuracy":1,"Sham":0,"Outcome":"-1","Keys":[2501.2750000169035],"TotalKeys":1,"Block":1,"Trial":2,"Action":"Go","Robot":3,"trial_type":"pit-trial","trial_index":14,"time_elapsed":131566,"internal_node_id":"0.0-14.0"},{"Valence":"Lose","Color":"#ffcc3399","Rune":"03","Correct":-1,"Choice":-1,"RT":-1,"Accuracy":1,"Sham":0,"Outcome":"-1","Keys":[],"TotalKeys":0,"Block":1,"Trial":3,"Action":"No-Go","Robot":4,"trial_type":"pit-trial","trial_index":15,"time_elapsed":135574,"internal_node_id":"0.0-15.0"},{"Valence":"Win","Color":"#3366ff99","Rune":"06","Correct":32,"Choice":32,"RT":409.8600000143051,"Accuracy":1,"Sham":0,"Outcome":"+10","Keys":[1909.5350000134204],"TotalKeys":1,"Block":1,"Trial":4,"Action":"Go","Robot":1,"trial_type":"pit-trial","trial_index":16,"time_elapsed":138490,"internal_node_id":"0.0-16.0"},{"Valence":"Lose","Color":"#ffcc3399","Rune":"04","Correct":32,"Choice":32,"RT":601.8949999997858,"Accuracy":1,"Sham":1,"Outcome":"-10","Keys":[2102.969999978086],"TotalKeys":1,"Block":1,"Trial":5,"Action":"Go","Robot":3,"trial_type":"pit-trial","trial_index":17,"time_elapsed":141597,"internal_node_id":"0.0-17.0"},{"Valence":"Lose","Color":"#ffcc3399","Rune":"03","Correct":-1,"Choice":32,"RT":1325.8199999982025,"Accuracy":0,"Sham":0,"Outcome":"-10","Keys":[2826.089999987744],"TotalKeys":1,"Block":1,"Trial":6,"Action":"No-Go","Robot":4,"trial_type":"pit-trial","trial_index":18,"time_elapsed":145431,"internal_node_id":"0.0-18.0"},{"Valence":"Win","Color":"#3366ff99","Rune":"06","Correct":32,"Choice":32,"RT":835.7100000139326,"Accuracy":1,"Sham":0,"Outcome":"+10","Keys":[2337.1099999931175],"TotalKeys":1,"Block":1,"Trial":7,"Action":"Go","Robot":1,"trial_type":"pit-trial","trial_index":19,"time_elapsed":148779,"internal_node_id":"0.0-19.0"},{"Valence":"Win","Color":"#3366ff99","Rune":"05","Correct":-1,"Choice":32,"RT":576.0900000168476,"Accuracy":0,"Sham":0,"Outcome":"+1","Keys":[2076.374999975087],"TotalKeys":1,"Block":1,"Trial":8,"Action":"No-Go","Robot":2,"trial_type":"pit-trial","trial_index":20,"time_elapsed":151862,"internal_node_id":"0.0-20.0"},{"Valence":"Win","Color":"#3366ff99","Rune":"06","Correct":32,"Choice":32,"RT":622.5449999910779,"Accuracy":1,"Sham":0,"Outcome":"+10","Keys":[2124.035000015283],"TotalKeys":1,"Block":1,"Trial":9,"Action":"Go","Robot":1,"trial_type":"pit-trial","trial_index":21,"time_elapsed":154992,"internal_node_id":"0.0-21.0"},{"Valence":"Lose","Color":"#ffcc3399","Rune":"04","Correct":32,"Choice":32,"RT":764.4450000079814,"Accuracy":1,"Sham":0,"Outcome":"-1","Keys":[2266.169999988051],"TotalKeys":1,"Block":1,"Trial":10,"Action":"Go","Robot":3,"trial_type":"pit-trial","trial_index":22,"time_elapsed":158264,"internal_node_id":"0.0-22.0"},{"Valence":"Win","Color":"#3366ff99","Rune":"05","Correct":-1,"Choice":32,"RT":566.9749999942724,"Accuracy":0,"Sham":0,"Outcome":"+1","Keys":[2067.749999987427],"TotalKeys":1,"Block":1,"Trial":11,"Action":"No-Go","Robot":2,"trial_type":"pit-trial","trial_index":23,"time_elapsed":161341,"internal_node_id":"0.0-23.0"},{"Valence":"Lose","Color":"#ffcc3399","Rune":"03","Correct":-1,"Choice":32,"RT":1140.190000005532,"Accuracy":0,"Sham":0,"Outcome":"-10","Keys":[2640.9200000052806],"TotalKeys":1,"Block":1,"Trial":12,"Action":"No-Go","Robot":4,"trial_type":"pit-trial","trial_index":24,"time_elapsed":164989,"internal_node_id":"0.0-24.0"},{"Valence":"Win","Color":"#3366ff99","Rune":"06","Correct":32,"Choice":32,"RT":693.0749999883119,"Accuracy":1,"Sham":0,"Outcome":"+10","Keys":[2194.0900000045076],"TotalKeys":1,"Block":1,"Trial":13,"Action":"Go","Robot":1,"trial_type":"pit-trial","trial_index":25,"time_elapsed":168187,"internal_node_id":"0.0-25.0"},{"Valence":"Win","Color":"#3366ff99","Rune":"05","Correct":-1,"Choice":32,"RT":611.8650000134949,"Accuracy":0,"Sham":0,"Outcome":"+1","Keys":[2112.3399999924004],"TotalKeys":1,"Block":1,"Trial":14,"Action":"No-Go","Robot":2,"trial_type":"pit-trial","trial_index":26,"time_elapsed":171307,"internal_node_id":"0.0-26.0"},{"Valence":"Lose","Color":"#ffcc3399","Rune":"04","Correct":32,"Choice":-1,"RT":-1,"Accuracy":0,"Sham":0,"Outcome":"-10","Keys":[],"TotalKeys":0,"Block":1,"Trial":15,"Action":"Go","Robot":3,"trial_type":"pit-trial","trial_index":27,"time_elapsed":175318,"internal_node_id":"0.0-27.0"},{"Valence":"Lose","Color":"#ffcc3399","Rune":"03","Correct":-1,"Choice":32,"RT":1393.0699999909848,"Accuracy":0,"Sham":1,"Outcome":"-1","Keys":[2893.3599999872968],"TotalKeys":1,"Block":1,"Trial":16,"Action":"No-Go","Robot":4,"trial_type":"pit-trial","trial_index":28,"time_elapsed":179217,"internal_node_id":"0.0-28.0"},{"Valence":"Win","Color":"#3366ff99","Rune":"06","Correct":32,"Choice":-1,"RT":-1,"Accuracy":0,"Sham":1,"Outcome":"+10","Keys":[],"TotalKeys":0,"Block":1,"Trial":17,"Action":"Go","Robot":1,"trial_type":"pit-trial","trial_index":29,"time_elapsed":183222,"internal_node_id":"0.0-29.0"},{"Valence":"Lose","Color":"#ffcc3399","Rune":"04","Correct":32,"Choice":32,"RT":1044.7549999807961,"Accuracy":1,"Sham":0,"Outcome":"-1","Keys":[2545.620000018971],"TotalKeys":1,"Block":1,"Trial":18,"Action":"Go","Robot":3,"trial_type":"pit-trial","trial_index":30,"time_elapsed":186771,"internal_node_id":"0.0-30.0"},{"Valence":"Win","Color":"#3366ff99","Rune":"05","Correct":-1,"Choice":32,"RT":66.50000001536682,"Accuracy":0,"Sham":1,"Outcome":"+10","Keys":[1566.675000009127],"TotalKeys":1,"Block":1,"Trial":19,"Action":"No-Go","Robot":2,"trial_type":"pit-trial","trial_index":31,"time_elapsed":189343,"internal_node_id":"0.0-31.0"},{"Valence":"Lose","Color":"#ffcc3399","Rune":"03","Correct":-1,"Choice":32,"RT":521.8199999944773,"Accuracy":0,"Sham":0,"Outcome":"-10","Keys":[2022.4549999984447],"TotalKeys":1,"Block":1,"Trial":20,"Action":"No-Go","Robot":4,"trial_type":"pit-trial","trial_index":32,"time_elapsed":192374,"internal_node_id":"0.0-32.0"},{"Valence":"Lose","Color":"#ffcc3399","Rune":"03","Correct":-1,"Choice":-1,"RT":-1,"Accuracy":1,"Sham":0,"Outcome":"-1","Keys":[],"TotalKeys":0,"Block":1,"Trial":21,"Action":"No-Go","Robot":4,"trial_type":"pit-trial","trial_index":33,"time_elapsed":196382,"internal_node_id":"0.0-33.0"},{"Valence":"Win","Color":"#3366ff99","Rune":"05","Correct":-1,"Choice":32,"RT":475.9450000128709,"Accuracy":0,"Sham":0,"Outcome":"+1","Keys":[1977.839999977732],"TotalKeys":1,"Block":1,"Trial":22,"Action":"No-Go","Robot":2,"trial_type":"pit-trial","trial_index":34,"time_elapsed":199366,"internal_node_id":"0.0-34.0"},{"Valence":"Win","Color":"#3366ff99","Rune":"06","Correct":32,"Choice":32,"RT":338.4550000191666,"Accuracy":1,"Sham":0,"Outcome":"+10","Keys":[1839.3399999768008],"TotalKeys":1,"Block":1,"Trial":23,"Action":"Go","Robot":1,"trial_type":"pit-trial","trial_index":35,"time_elapsed":202215,"internal_node_id":"0.0-35.0"},{"Valence":"Lose","Color":"#ffcc3399","Rune":"04","Correct":32,"Choice":32,"RT":478.75499998917803,"Accuracy":1,"Sham":0,"Outcome":"-1","Keys":[1980.5999999807682],"TotalKeys":1,"Block":1,"Trial":24,"Action":"Go","Robot":3,"trial_type":"pit-trial","trial_index":36,"time_elapsed":205204,"internal_node_id":"0.0-36.0"},{"Valence":"Lose","Color":"#ffcc3399","Rune":"03","Correct":-1,"Choice":32,"RT":255.91499998699874,"Accuracy":0,"Sham":0,"Outcome":"-10","Keys":[1756.070000003092],"TotalKeys":1,"Block":1,"Trial":25,"Action":"No-Go","Robot":4,"trial_type":"pit-trial","trial_index":37,"time_elapsed":207967,"internal_node_id":"0.0-37.0"},{"Valence":"Win","Color":"#3366ff99","Rune":"06","Correct":32,"Choice":32,"RT":285.6599999940954,"Accuracy":1,"Sham":0,"Outcome":"+10","Keys":[1785.7399999920744],"TotalKeys":1,"Block":1,"Trial":26,"Action":"Go","Robot":1,"trial_type":"pit-trial","trial_index":38,"time_elapsed":210759,"internal_node_id":"0.0-38.0"},{"Valence":"Lose","Color":"#ffcc3399","Rune":"04","Correct":32,"Choice":32,"RT":146.47499998682179,"Accuracy":1,"Sham":0,"Outcome":"-1","Keys":[1646.5450000250712],"TotalKeys":1,"Block":1,"Trial":27,"Action":"Go","Robot":3,"trial_type":"pit-trial","trial_index":39,"time_elapsed":213416,"internal_node_id":"0.0-39.0"},{"Valence":"Win","Color":"#3366ff99","Rune":"05","Correct":-1,"Choice":32,"RT":181.55499998829328,"Accuracy":0,"Sham":0,"Outcome":"+1","Keys":[1682.04000001424],"TotalKeys":1,"Block":1,"Trial":28,"Action":"No-Go","Robot":2,"trial_type":"pit-trial","trial_index":40,"time_elapsed":216103,"internal_node_id":"0.0-40.0"},{"Valence":"Lose","Color":"#ffcc3399","Rune":"04","Correct":32,"Choice":32,"RT":536.5349999919999,"Accuracy":1,"Sham":0,"Outcome":"-1","Keys":[2037.1549999981653],"TotalKeys":1,"Block":1,"Trial":29,"Action":"Go","Robot":3,"trial_type":"pit-trial","trial_index":41,"time_elapsed":219150,"internal_node_id":"0.0-41.0"},{"Valence":"Win","Color":"#3366ff99","Rune":"05","Correct":-1,"Choice":-1,"RT":-1,"Accuracy":1,"Sham":1,"Outcome":"1","Keys":[1272.12999999756],"TotalKeys":1,"Block":1,"Trial":30,"Action":"No-Go","Robot":2,"trial_type":"pit-trial","trial_index":42,"time_elapsed":223157,"internal_node_id":"0.0-42.0"},{"Valence":"Win","Color":"#3366ff99","Rune":"06","Correct":32,"Choice":-1,"RT":-1,"Accuracy":0,"Sham":1,"Outcome":"+10","Keys":[64.23499999800697,1265.5099999974482,3474.320000008447],"TotalKeys":3,"Block":1,"Trial":31,"Action":"Go","Robot":1,"trial_type":"pit-trial","trial_index":43,"time_elapsed":227163,"internal_node_id":"0.0-43.0"},{"Valence":"Lose","Color":"#ffcc3399","Rune":"03","Correct":-1,"Choice":32,"RT":580.275000014808,"Accuracy":0,"Sham":0,"Outcome":"-10","Keys":[2080.359999992652],"TotalKeys":1,"Block":1,"Trial":32,"Action":"No-Go","Robot":4,"trial_type":"pit-trial","trial_index":44,"time_elapsed":230252,"internal_node_id":"0.0-44.0"},{"Valence":"Lose","Color":"#ffcc3399","Rune":"03","Correct":-1,"Choice":32,"RT":238.60000001150183,"Accuracy":0,"Sham":0,"Outcome":"-10","Keys":[1738.6249999981374],"TotalKeys":1,"Block":1,"Trial":33,"Action":"No-Go","Robot":4,"trial_type":"pit-trial","trial_index":45,"time_elapsed":232999,"internal_node_id":"0.0-45.0"},{"Valence":"Win","Color":"#3366ff99","Rune":"05","Correct":-1,"Choice":32,"RT":334.6999999776017,"Accuracy":0,"Sham":0,"Outcome":"+1","Keys":[1836.009999999078],"TotalKeys":1,"Block":1,"Trial":34,"Action":"No-Go","Robot":2,"trial_type":"pit-trial","trial_index":46,"time_elapsed":235844,"internal_node_id":"0.0-46.0"},{"Valence":"Win","Color":"#3366ff99","Rune":"06","Correct":32,"Choice":32,"RT":619.250000017928,"Accuracy":1,"Sham":0,"Outcome":"+10","Keys":[2119.5149999985006],"TotalKeys":1,"Block":1,"Trial":35,"Action":"Go","Robot":1,"trial_type":"pit-trial","trial_index":47,"time_elapsed":238973,"internal_node_id":"0.0-47.0"},{"Valence":"Lose","Color":"#ffcc3399","Rune":"04","Correct":32,"Choice":32,"RT":178.45999999553896,"Accuracy":1,"Sham":1,"Outcome":"-10","Keys":[1678.9200000057463],"TotalKeys":1,"Block":1,"Trial":36,"Action":"Go","Robot":3,"trial_type":"pit-trial","trial_index":48,"time_elapsed":241660,"internal_node_id":"0.0-48.0"},{"Valence":"Lose","Color":"#ffcc3399","Rune":"03","Correct":-1,"Choice":32,"RT":384.16500002495013,"Accuracy":0,"Sham":1,"Outcome":"-1","Keys":[1884.6149999881163],"TotalKeys":1,"Block":1,"Trial":37,"Action":"No-Go","Robot":4,"trial_type":"pit-trial","trial_index":49,"time_elapsed":244550,"internal_node_id":"0.0-49.0"},{"Valence":"Lose","Color":"#ffcc3399","Rune":"04","Correct":32,"Choice":32,"RT":587.4300000141375,"Accuracy":1,"Sham":0,"Outcome":"-1","Keys":[2087.645000021439],"TotalKeys":1,"Block":1,"Trial":38,"Action":"Go","Robot":3,"trial_type":"pit-trial","trial_index":50,"time_elapsed":247646,"internal_node_id":"0.0-50.0"},{"Valence":"Win","Color":"#3366ff99","Rune":"06","Correct":32,"Choice":32,"RT":198.36499998928048,"Accuracy":1,"Sham":0,"Outcome":"+10","Keys":[1699.3050000164658],"TotalKeys":1,"Block":1,"Trial":39,"Action":"Go","Robot":1,"trial_type":"pit-trial","trial_index":51,"time_elapsed":250353,"internal_node_id":"0.0-51.0"},{"Valence":"Win","Color":"#3366ff99","Rune":"05","Correct":-1,"Choice":32,"RT":651.9200000038836,"Accuracy":0,"Sham":0,"Outcome":"+1","Keys":[2152.9499999887776],"TotalKeys":1,"Block":1,"Trial":40,"Action":"No-Go","Robot":2,"trial_type":"pit-trial","trial_index":52,"time_elapsed":253513,"internal_node_id":"0.0-52.0"},{"Valence":"Lose","Color":"#ffcc3399","Rune":"04","Correct":32,"Choice":32,"RT":213.32999999867752,"Accuracy":1,"Sham":1,"Outcome":"-10","Keys":[1714.2800000146963],"TotalKeys":1,"Block":1,"Trial":41,"Action":"Go","Robot":3,"trial_type":"pit-trial","trial_index":53,"time_elapsed":256232,"internal_node_id":"0.0-53.0"},{"Valence":"Win","Color":"#3366ff99","Rune":"05","Correct":-1,"Choice":32,"RT":1085.2049999812152,"Accuracy":0,"Sham":0,"Outcome":"+1","Keys":[2586.940000008326],"TotalKeys":1,"Block":1,"Trial":42,"Action":"No-Go","Robot":2,"trial_type":"pit-trial","trial_index":54,"time_elapsed":259824,"internal_node_id":"0.0-54.0"},{"Valence":"Lose","Color":"#ffcc3399","Rune":"03","Correct":-1,"Choice":32,"RT":256.82000000961125,"Accuracy":0,"Sham":0,"Outcome":"-10","Keys":[1757.4449999956414],"TotalKeys":1,"Block":1,"Trial":43,"Action":"No-Go","Robot":4,"trial_type":"pit-trial","trial_index":55,"time_elapsed":262587,"internal_node_id":"0.0-55.0"},{"Valence":"Win","Color":"#3366ff99","Rune":"06","Correct":32,"Choice":32,"RT":394.2650000099093,"Accuracy":1,"Sham":0,"Outcome":"+10","Keys":[1894.3699999945238],"TotalKeys":1,"Block":1,"Trial":44,"Action":"Go","Robot":1,"trial_type":"pit-trial","trial_index":56,"time_elapsed":265487,"internal_node_id":"0.0-56.0"},{"Valence":"Lose","Color":"#ffcc3399","Rune":"03","Correct":-1,"Choice":-1,"RT":-1,"Accuracy":1,"Sham":0,"Outcome":"-1","Keys":[],"TotalKeys":0,"Block":1,"Trial":45,"Action":"No-Go","Robot":4,"trial_type":"pit-trial","trial_index":57,"time_elapsed":269492,"internal_node_id":"0.0-57.0"},{"Valence":"Win","Color":"#3366ff99","Rune":"05","Correct":-1,"Choice":32,"RT":217.8600000042934,"Accuracy":0,"Sham":1,"Outcome":"+10","Keys":[1719.1400000010617],"TotalKeys":1,"Block":1,"Trial":46,"Action":"No-Go","Robot":2,"trial_type":"pit-trial","trial_index":58,"time_elapsed":272216,"internal_node_id":"0.0-58.0"},{"Valence":"Lose","Color":"#ffcc3399","Rune":"04","Correct":32,"Choice":32,"RT":521.4749999868218,"Accuracy":1,"Sham":0,"Outcome":"-1","Keys":[2023.4800000034738],"TotalKeys":1,"Block":1,"Trial":47,"Action":"Go","Robot":3,"trial_type":"pit-trial","trial_index":59,"time_elapsed":275244,"internal_node_id":"0.0-59.0"},{"Valence":"Win","Color":"#3366ff99","Rune":"06","Correct":32,"Choice":32,"RT":430.34999998053536,"Accuracy":1,"Sham":0,"Outcome":"+10","Keys":[1931.460000021616],"TotalKeys":1,"Block":1,"Trial":48,"Action":"Go","Robot":1,"trial_type":"pit-trial","trial_index":60,"time_elapsed":278180,"internal_node_id":"0.0-60.0"},{"Valence":"Lose","Color":"#ffcc3399","Rune":"03","Correct":-1,"Choice":32,"RT":501.30999999237247,"Accuracy":0,"Sham":0,"Outcome":"-10","Keys":[2001.8899999849964],"TotalKeys":1,"Block":1,"Trial":49,"Action":"No-Go","Robot":4,"trial_type":"pit-trial","trial_index":61,"time_elapsed":281188,"internal_node_id":"0.0-61.0"},{"Valence":"Win","Color":"#3366ff99","Rune":"06","Correct":32,"Choice":32,"RT":334.2700000212062,"Accuracy":1,"Sham":0,"Outcome":"+10","Keys":[1835.1700000057463],"TotalKeys":1,"Block":1,"Trial":50,"Action":"Go","Robot":1,"trial_type":"pit-trial","trial_index":62,"time_elapsed":284031,"internal_node_id":"0.0-62.0"},{"Valence":"Win","Color":"#3366ff99","Rune":"05","Correct":-1,"Choice":32,"RT":327.5900000007823,"Accuracy":0,"Sham":0,"Outcome":"+1","Keys":[1829.0649999980815],"TotalKeys":1,"Block":1,"Trial":51,"Action":"No-Go","Robot":2,"trial_type":"pit-trial","trial_index":63,"time_elapsed":286867,"internal_node_id":"0.0-63.0"},{"Valence":"Lose","Color":"#ffcc3399","Rune":"04","Correct":32,"Choice":32,"RT":409.37499998835847,"Accuracy":1,"Sham":0,"Outcome":"-1","Keys":[1910.1499999815132],"TotalKeys":1,"Block":1,"Trial":52,"Action":"Go","Robot":3,"trial_type":"pit-trial","trial_index":64,"time_elapsed":289787,"internal_node_id":"0.0-64.0"},{"Valence":"Win","Color":"#3366ff99","Rune":"05","Correct":-1,"Choice":32,"RT":551.290000003064,"Accuracy":0,"Sham":0,"Outcome":"+1","Keys":[2052.7749999891967],"TotalKeys":1,"Block":1,"Trial":53,"Action":"No-Go","Robot":2,"trial_type":"pit-trial","trial_index":65,"time_elapsed":292848,"internal_node_id":"0.0-65.0"},{"Valence":"Lose","Color":"#ffcc3399","Rune":"04","Correct":32,"Choice":32,"RT":392.07999999052845,"Accuracy":1,"Sham":0,"Outcome":"-1","Keys":[1892.7250000124332],"TotalKeys":1,"Block":1,"Trial":54,"Action":"Go","Robot":3,"trial_type":"pit-trial","trial_index":66,"time_elapsed":295750,"internal_node_id":"0.0-66.0"},{"Valence":"Lose","Color":"#ffcc3399","Rune":"03","Correct":-1,"Choice":32,"RT":460.9950000012759,"Accuracy":0,"Sham":0,"Outcome":"-10","Keys":[1962.96999999322],"TotalKeys":1,"Block":1,"Trial":55,"Action":"No-Go","Robot":4,"trial_type":"pit-trial","trial_index":67,"time_elapsed":298722,"internal_node_id":"0.0-67.0"},{"Valence":"Win","Color":"#3366ff99","Rune":"06","Correct":32,"Choice":32,"RT":359.45499999797903,"Accuracy":1,"Sham":0,"Outcome":"+10","Keys":[1859.4800000137184],"TotalKeys":1,"Block":1,"Trial":56,"Action":"Go","Robot":1,"trial_type":"pit-trial","trial_index":68,"time_elapsed":301590,"internal_node_id":"0.0-68.0"},{"Valence":"Win","Color":"#3366ff99","Rune":"06","Correct":32,"Choice":32,"RT":451.7500000074506,"Accuracy":1,"Sham":1,"Outcome":"1","Keys":[1951.8800000078045],"TotalKeys":1,"Block":1,"Trial":57,"Action":"Go","Robot":1,"trial_type":"pit-trial","trial_index":69,"time_elapsed":304566,"internal_node_id":"0.0-69.0"},{"Valence":"Lose","Color":"#ffcc3399","Rune":"04","Correct":32,"Choice":-1,"RT":-1,"Accuracy":0,"Sham":0,"Outcome":"-10","Keys":[],"TotalKeys":0,"Block":1,"Trial":58,"Action":"Go","Robot":3,"trial_type":"pit-trial","trial_index":70,"time_elapsed":308576,"internal_node_id":"0.0-70.0"},{"Valence":"Lose","Color":"#ffcc3399","Rune":"03","Correct":-1,"Choice":32,"RT":351.1949999956414,"Accuracy":0,"Sham":1,"Outcome":"-1","Keys":[1034.6600000048056,1852.069999993546],"TotalKeys":2,"Block":1,"Trial":59,"Action":"No-Go","Robot":4,"trial_type":"pit-trial","trial_index":71,"time_elapsed":311435,"internal_node_id":"0.0-71.0"},{"Valence":"Win","Color":"#3366ff99","Rune":"05","Correct":-1,"Choice":32,"RT":473.744999995688,"Accuracy":0,"Sham":0,"Outcome":"+1","Keys":[1974.0700000256766],"TotalKeys":1,"Block":1,"Trial":60,"Action":"No-Go","Robot":2,"trial_type":"pit-trial","trial_index":72,"time_elapsed":314416,"internal_node_id":"0.0-72.0"},{"Valence":"Win","Color":"#3366ff99","Rune":"05","Correct":-1,"Choice":32,"RT":496.75000002025627,"Accuracy":0,"Sham":0,"Outcome":"+1","Keys":[1997.7000000071712],"TotalKeys":1,"Block":1,"Trial":61,"Action":"No-Go","Robot":2,"trial_type":"pit-trial","trial_index":73,"time_elapsed":317419,"internal_node_id":"0.0-73.0"},{"Valence":"Lose","Color":"#ffcc3399","Rune":"04","Correct":32,"Choice":32,"RT":964.8349999915808,"Accuracy":1,"Sham":0,"Outcome":"-1","Keys":[2465.4849999933504],"TotalKeys":1,"Block":1,"Trial":62,"Action":"Go","Robot":3,"trial_type":"pit-trial","trial_index":74,"time_elapsed":320890,"internal_node_id":"0.0-74.0"},{"Valence":"Lose","Color":"#ffcc3399","Rune":"03","Correct":-1,"Choice":32,"RT":556.4550000126474,"Accuracy":0,"Sham":0,"Outcome":"-10","Keys":[2057.215000008],"TotalKeys":1,"Block":1,"Trial":63,"Action":"No-Go","Robot":4,"trial_type":"pit-trial","trial_index":75,"time_elapsed":323952,"internal_node_id":"0.0-75.0"},{"Valence":"Win","Color":"#3366ff99","Rune":"06","Correct":32,"Choice":32,"RT":339.33499999693595,"Accuracy":1,"Sham":0,"Outcome":"+10","Keys":[1839.750000013737],"TotalKeys":1,"Block":1,"Trial":64,"Action":"Go","Robot":1,"trial_type":"pit-trial","trial_index":76,"time_elapsed":326797,"internal_node_id":"0.0-76.0"},{"Valence":"Win","Color":"#3366ff99","Rune":"05","Correct":-1,"Choice":32,"RT":443.91999999061227,"Accuracy":0,"Sham":0,"Outcome":"+1","Keys":[1944.3350000074133],"TotalKeys":1,"Block":1,"Trial":65,"Action":"No-Go","Robot":2,"trial_type":"pit-trial","trial_index":77,"time_elapsed":329748,"internal_node_id":"0.0-77.0"},{"Valence":"Lose","Color":"#ffcc3399","Rune":"03","Correct":-1,"Choice":32,"RT":549.9299999792129,"Accuracy":0,"Sham":0,"Outcome":"-10","Keys":[2050.1450000156183],"TotalKeys":1,"Block":1,"Trial":66,"Action":"No-Go","Robot":4,"trial_type":"pit-trial","trial_index":78,"time_elapsed":332805,"internal_node_id":"0.0-78.0"},{"Valence":"Win","Color":"#3366ff99","Rune":"06","Correct":32,"Choice":32,"RT":603.2549999945331,"Accuracy":1,"Sham":1,"Outcome":"1","Keys":[2103.4050000016578],"TotalKeys":1,"Block":1,"Trial":67,"Action":"Go","Robot":1,"trial_type":"pit-trial","trial_index":79,"time_elapsed":335917,"internal_node_id":"0.0-79.0"},{"Valence":"Lose","Color":"#ffcc3399","Rune":"04","Correct":32,"Choice":32,"RT":59.704999992391095,"Accuracy":1,"Sham":0,"Outcome":"-1","Keys":[1560.9199999889825],"TotalKeys":1,"Block":1,"Trial":68,"Action":"Go","Robot":3,"trial_type":"pit-trial","trial_index":80,"time_elapsed":338487,"internal_node_id":"0.0-80.0"},{"Valence":"Lose","Color":"#ffcc3399","Rune":"03","Correct":-1,"Choice":32,"RT":437.95500000123866,"Accuracy":0,"Sham":1,"Outcome":"-1","Keys":[1938.8049999834038],"TotalKeys":1,"Block":1,"Trial":69,"Action":"No-Go","Robot":4,"trial_type":"pit-trial","trial_index":81,"time_elapsed":341435,"internal_node_id":"0.0-81.0"},{"Valence":"Lose","Color":"#ffcc3399","Rune":"04","Correct":32,"Choice":32,"RT":437.11999998777173,"Accuracy":1,"Sham":0,"Outcome":"-1","Keys":[1938.3249999955297],"TotalKeys":1,"Block":1,"Trial":70,"Action":"Go","Robot":3,"trial_type":"pit-trial","trial_index":82,"time_elapsed":344380,"internal_node_id":"0.0-82.0"},{"Valence":"Win","Color":"#3366ff99","Rune":"06","Correct":32,"Choice":32,"RT":302.90499998955056,"Accuracy":1,"Sham":0,"Outcome":"+10","Keys":[1803.5999999847263],"TotalKeys":1,"Block":1,"Trial":71,"Action":"Go","Robot":1,"trial_type":"pit-trial","trial_index":83,"time_elapsed":347190,"internal_node_id":"0.0-83.0"},{"Valence":"Win","Color":"#3366ff99","Rune":"05","Correct":-1,"Choice":32,"RT":547.5299999816343,"Accuracy":0,"Sham":0,"Outcome":"+1","Keys":[2047.564999986207],"TotalKeys":1,"Block":1,"Trial":72,"Action":"No-Go","Robot":2,"trial_type":"pit-trial","trial_index":84,"time_elapsed":350246,"internal_node_id":"0.0-84.0"},{"Valence":"Win","Color":"#3366ff99","Rune":"05","Correct":-1,"Choice":32,"RT":433.7799999921117,"Accuracy":0,"Sham":0,"Outcome":"+1","Keys":[1934.739999996964],"TotalKeys":1,"Block":1,"Trial":73,"Action":"No-Go","Robot":2,"trial_type":"pit-trial","trial_index":85,"time_elapsed":353187,"internal_node_id":"0.0-85.0"},{"Valence":"Lose","Color":"#ffcc3399","Rune":"04","Correct":32,"Choice":32,"RT":452.4749999982305,"Accuracy":1,"Sham":1,"Outcome":"-10","Keys":[1953.475000016624],"TotalKeys":1,"Block":1,"Trial":74,"Action":"Go","Robot":3,"trial_type":"pit-trial","trial_index":86,"time_elapsed":356146,"internal_node_id":"0.0-86.0"},{"Valence":"Win","Color":"#3366ff99","Rune":"06","Correct":32,"Choice":32,"RT":219.53999999095686,"Accuracy":1,"Sham":0,"Outcome":"+10","Keys":[1720.4750000091735],"TotalKeys":1,"Block":1,"Trial":75,"Action":"Go","Robot":1,"trial_type":"pit-trial","trial_index":87,"time_elapsed":358874,"internal_node_id":"0.0-87.0"},{"Valence":"Lose","Color":"#ffcc3399","Rune":"03","Correct":-1,"Choice":32,"RT":697.5549999915529,"Accuracy":0,"Sham":0,"Outcome":"-10","Keys":[2197.9949999949895],"TotalKeys":1,"Block":1,"Trial":76,"Action":"No-Go","Robot":4,"trial_type":"pit-trial","trial_index":88,"time_elapsed":362079,"internal_node_id":"0.0-88.0"},{"Valence":"Win","Color":"#3366ff99","Rune":"05","Correct":-1,"Choice":32,"RT":454.68500000424683,"Accuracy":0,"Sham":1,"Outcome":"+10","Keys":[1954.7350000066217],"TotalKeys":1,"Block":1,"Trial":77,"Action":"No-Go","Robot":2,"trial_type":"pit-trial","trial_index":89,"time_elapsed":365042,"internal_node_id":"0.0-89.0"},{"Valence":"Win","Color":"#3366ff99","Rune":"06","Correct":32,"Choice":32,"RT":874.7250000014901,"Accuracy":1,"Sham":0,"Outcome":"+10","Keys":[2375.2950000052806],"TotalKeys":1,"Block":1,"Trial":78,"Action":"Go","Robot":1,"trial_type":"pit-trial","trial_index":90,"time_elapsed":368430,"internal_node_id":"0.0-90.0"},{"Valence":"Lose","Color":"#ffcc3399","Rune":"03","Correct":-1,"Choice":-1,"RT":-1,"Accuracy":1,"Sham":0,"Outcome":"-1","Keys":[],"TotalKeys":0,"Block":1,"Trial":79,"Action":"No-Go","Robot":4,"trial_type":"pit-trial","trial_index":91,"time_elapsed":372440,"internal_node_id":"0.0-91.0"},{"Valence":"Lose","Color":"#ffcc3399","Rune":"04","Correct":32,"Choice":32,"RT":148.16500002052635,"Accuracy":1,"Sham":0,"Outcome":"-1","Keys":[1648.6600000062026],"TotalKeys":1,"Block":1,"Trial":80,"Action":"Go","Robot":3,"trial_type":"pit-trial","trial_index":92,"time_elapsed":375093,"internal_node_id":"0.0-92.0"},{"value":false,"trial_type":"call-function","trial_index":93,"time_elapsed":375100,"internal_node_id":"0.0-93.0"},{"RT":23057.8600000008,"trial_type":"pit-pause","trial_index":94,"time_elapsed":401482,"internal_node_id":"0.0-94.0"},{"Valence":"Win","Color":"#3366ff99","Rune":"06","Correct":32,"Choice":32,"RT":242.1299999987241,"Accuracy":1,"Sham":0,"Outcome":"+10","Keys":[1742.5100000109524],"TotalKeys":1,"Block":2,"Trial":81,"Action":"Go","Robot":1,"trial_type":"pit-trial","trial_index":95,"time_elapsed":404231,"internal_node_id":"0.0-95.0"},{"Valence":"Win","Color":"#3366ff99","Rune":"05","Correct":-1,"Choice":32,"RT":465.4349999909755,"Accuracy":0,"Sham":0,"Outcome":"+1","Keys":[1966.1699999996927],"TotalKeys":1,"Block":2,"Trial":82,"Action":"No-Go","Robot":2,"trial_type":"pit-trial","trial_index":96,"time_elapsed":407213,"internal_node_id":"0.0-96.0"},{"Valence":"Lose","Color":"#ffcc3399","Rune":"03","Correct":-1,"Choice":32,"RT":290.3949999890756,"Accuracy":0,"Sham":0,"Outcome":"-10","Keys":[1791.8899999931455],"TotalKeys":1,"Block":2,"Trial":83,"Action":"No-Go","Robot":4,"trial_type":"pit-trial","trial_index":97,"time_elapsed":410012,"internal_node_id":"0.0-97.0"},{"Valence":"Lose","Color":"#ffcc3399","Rune":"04","Correct":32,"Choice":-1,"RT":-1,"Accuracy":0,"Sham":0,"Outcome":"-10","Keys":[],"TotalKeys":0,"Block":2,"Trial":84,"Action":"Go","Robot":3,"trial_type":"pit-trial","trial_index":98,"time_elapsed":414020,"internal_node_id":"0.0-98.0"},{"Valence":"Win","Color":"#3366ff99","Rune":"06","Correct":32,"Choice":32,"RT":54.2249999998603,"Accuracy":1,"Sham":0,"Outcome":"+10","Keys":[1554.294999979902],"TotalKeys":1,"Block":2,"Trial":85,"Action":"Go","Robot":1,"trial_type":"pit-trial","trial_index":99,"time_elapsed":416581,"internal_node_id":"0.0-99.0"},{"Valence":"Win","Color":"#3366ff99","Rune":"05","Correct":-1,"Choice":32,"RT":311.82000000262633,"Accuracy":0,"Sham":0,"Outcome":"+1","Keys":[1812.3000000196043],"TotalKeys":1,"Block":2,"Trial":86,"Action":"No-Go","Robot":2,"trial_type":"pit-trial","trial_index":100,"time_elapsed":419401,"internal_node_id":"0.0-100.0"},{"Valence":"Lose","Color":"#ffcc3399","Rune":"04","Correct":32,"Choice":32,"RT":88.52999997907318,"Accuracy":1,"Sham":0,"Outcome":"-1","Keys":[1588.8500000000931],"TotalKeys":1,"Block":2,"Trial":87,"Action":"Go","Robot":3,"trial_type":"pit-trial","trial_index":101,"time_elapsed":421999,"internal_node_id":"0.0-101.0"},{"Valence":"Lose","Color":"#ffcc3399","Rune":"03","Correct":-1,"Choice":32,"RT":368.88000002363697,"Accuracy":0,"Sham":0,"Outcome":"-10","Keys":[1869.3349999957718],"TotalKeys":1,"Block":2,"Trial":88,"Action":"No-Go","Robot":4,"trial_type":"pit-trial","trial_index":102,"time_elapsed":424875,"internal_node_id":"0.0-102.0"},{"Valence":"Lose","Color":"#ffcc3399","Rune":"04","Correct":32,"Choice":-1,"RT":-1,"Accuracy":0,"Sham":1,"Outcome":"-1","Keys":[],"TotalKeys":0,"Block":2,"Trial":89,"Action":"Go","Robot":3,"trial_type":"pit-trial","trial_index":103,"time_elapsed":428881,"internal_node_id":"0.0-103.0"},{"Valence":"Win","Color":"#3366ff99","Rune":"06","Correct":32,"Choice":32,"RT":539.5600000047125,"Accuracy":1,"Sham":1,"Outcome":"1","Keys":[1209.2199999897275,2041.5349999966566],"TotalKeys":2,"Block":2,"Trial":90,"Action":"Go","Robot":1,"trial_type":"pit-trial","trial_index":104,"time_elapsed":431930,"internal_node_id":"0.0-104.0"},{"Valence":"Win","Color":"#3366ff99","Rune":"05","Correct":-1,"Choice":32,"RT":395.4049999883864,"Accuracy":0,"Sham":0,"Outcome":"+1","Keys":[1897.3600000026636,2214.4200000038836],"TotalKeys":2,"Block":2,"Trial":91,"Action":"No-Go","Robot":2,"trial_type":"pit-trial","trial_index":105,"time_elapsed":434835,"internal_node_id":"0.0-105.0"},{"Valence":"Lose","Color":"#ffcc3399","Rune":"03","Correct":-1,"Choice":32,"RT":1379.5300000056159,"Accuracy":0,"Sham":0,"Outcome":"-10","Keys":[2881.185000005644],"TotalKeys":1,"Block":2,"Trial":92,"Action":"No-Go","Robot":4,"trial_type":"pit-trial","trial_index":106,"time_elapsed":438725,"internal_node_id":"0.0-106.0"},{"Valence":"Lose","Color":"#ffcc3399","Rune":"03","Correct":-1,"Choice":-1,"RT":-1,"Accuracy":1,"Sham":0,"Outcome":"-1","Keys":[],"TotalKeys":0,"Block":2,"Trial":93,"Action":"No-Go","Robot":4,"trial_type":"pit-trial","trial_index":107,"time_elapsed":442731,"internal_node_id":"0.0-107.0"},{"Valence":"Win","Color":"#3366ff99","Rune":"06","Correct":32,"Choice":32,"RT":513.375000009546,"Accuracy":1,"Sham":0,"Outcome":"+10","Keys":[2014.324999996461],"TotalKeys":1,"Block":2,"Trial":94,"Action":"Go","Robot":1,"trial_type":"pit-trial","trial_index":108,"time_elapsed":445749,"internal_node_id":"0.0-108.0"},{"Valence":"Lose","Color":"#ffcc3399","Rune":"04","Correct":32,"Choice":-1,"RT":-1,"Accuracy":0,"Sham":0,"Outcome":"-10","Keys":[],"TotalKeys":0,"Block":2,"Trial":95,"Action":"Go","Robot":3,"trial_type":"pit-trial","trial_index":109,"time_elapsed":449757,"internal_node_id":"0.0-109.0"},{"Valence":"Win","Color":"#3366ff99","Rune":"05","Correct":-1,"Choice":32,"RT":687.7549999917392,"Accuracy":0,"Sham":1,"Outcome":"+10","Keys":[1146.8800000147894,2188.430000009248],"TotalKeys":2,"Block":2,"Trial":96,"Action":"No-Go","Robot":2,"trial_type":"pit-trial","trial_index":110,"time_elapsed":452951,"internal_node_id":"0.0-110.0"},{"Valence":"Lose","Color":"#ffcc3399","Rune":"03","Correct":-1,"Choice":32,"RT":997.9799999855459,"Accuracy":0,"Sham":1,"Outcome":"-1","Keys":[387.9550000128802,2499.4650000007823],"TotalKeys":2,"Block":2,"Trial":97,"Action":"No-Go","Robot":4,"trial_type":"pit-trial","trial_index":111,"time_elapsed":456455,"internal_node_id":"0.0-111.0"},{"Valence":"Win","Color":"#3366ff99","Rune":"06","Correct":32,"Choice":32,"RT":438.4999999892898,"Accuracy":1,"Sham":0,"Outcome":"+10","Keys":[1939.4699999829754],"TotalKeys":1,"Block":2,"Trial":98,"Action":"Go","Robot":1,"trial_type":"pit-trial","trial_index":112,"time_elapsed":459402,"internal_node_id":"0.0-112.0"},{"Valence":"Lose","Color":"#ffcc3399","Rune":"04","Correct":32,"Choice":-1,"RT":-1,"Accuracy":0,"Sham":0,"Outcome":"-10","Keys":[3308.4749999979977],"TotalKeys":1,"Block":2,"Trial":99,"Action":"Go","Robot":3,"trial_type":"pit-trial","trial_index":113,"time_elapsed":463407,"internal_node_id":"0.0-113.0"},{"Valence":"Win","Color":"#3366ff99","Rune":"05","Correct":-1,"Choice":32,"RT":800.8549999794923,"Accuracy":0,"Sham":0,"Outcome":"+1","Keys":[2301.5900000173133],"TotalKeys":1,"Block":2,"Trial":100,"Action":"No-Go","Robot":2,"trial_type":"pit-trial","trial_index":114,"time_elapsed":466716,"internal_node_id":"0.0-114.0"},{"Valence":"Lose","Color":"#ffcc3399","Rune":"03","Correct":-1,"Choice":-1,"RT":-1,"Accuracy":1,"Sham":0,"Outcome":"-1","Keys":[],"TotalKeys":0,"Block":2,"Trial":101,"Action":"No-Go","Robot":4,"trial_type":"pit-trial","trial_index":115,"time_elapsed":470737,"internal_node_id":"0.0-115.0"},{"Valence":"Lose","Color":"#ffcc3399","Rune":"04","Correct":32,"Choice":32,"RT":171.844999975292,"Accuracy":1,"Sham":0,"Outcome":"-1","Keys":[878.3849999890663,1672.4450000037905],"TotalKeys":2,"Block":2,"Trial":102,"Action":"Go","Robot":3,"trial_type":"pit-trial","trial_index":116,"time_elapsed":473421,"internal_node_id":"0.0-116.0"},{"Valence":"Win","Color":"#3366ff99","Rune":"06","Correct":32,"Choice":32,"RT":1055.3000000072643,"Accuracy":1,"Sham":1,"Outcome":"1","Keys":[2556.030000007013],"TotalKeys":1,"Block":2,"Trial":103,"Action":"Go","Robot":1,"trial_type":"pit-trial","trial_index":117,"time_elapsed":476985,"internal_node_id":"0.0-117.0"},{"Valence":"Win","Color":"#3366ff99","Rune":"05","Correct":-1,"Choice":32,"RT":630.5950000241864,"Accuracy":0,"Sham":1,"Outcome":"+10","Keys":[2131.345000001602],"TotalKeys":1,"Block":2,"Trial":104,"Action":"No-Go","Robot":2,"trial_type":"pit-trial","trial_index":118,"time_elapsed":480123,"internal_node_id":"0.0-118.0"},{"Valence":"Lose","Color":"#ffcc3399","Rune":"04","Correct":32,"Choice":32,"RT":1072.5899999961257,"Accuracy":1,"Sham":0,"Outcome":"-1","Keys":[2573.9699999976438,3471.41999998712],"TotalKeys":2,"Block":2,"Trial":105,"Action":"Go","Robot":3,"trial_type":"pit-trial","trial_index":119,"time_elapsed":483705,"internal_node_id":"0.0-119.0"},{"Valence":"Win","Color":"#3366ff99","Rune":"06","Correct":32,"Choice":-1,"RT":-1,"Accuracy":0,"Sham":0,"Outcome":"+1","Keys":[],"TotalKeys":0,"Block":2,"Trial":106,"Action":"Go","Robot":1,"trial_type":"pit-trial","trial_index":120,"time_elapsed":487712,"internal_node_id":"0.0-120.0"},{"Valence":"Win","Color":"#3366ff99","Rune":"05","Correct":-1,"Choice":32,"RT":1098.950000014156,"Accuracy":0,"Sham":0,"Outcome":"+1","Keys":[2599.304999981541],"TotalKeys":1,"Block":2,"Trial":107,"Action":"No-Go","Robot":2,"trial_type":"pit-trial","trial_index":121,"time_elapsed":491319,"internal_node_id":"0.0-121.0"},{"Valence":"Lose","Color":"#ffcc3399","Rune":"03","Correct":-1,"Choice":-1,"RT":-1,"Accuracy":1,"Sham":0,"Outcome":"-1","Keys":[],"TotalKeys":0,"Block":2,"Trial":108,"Action":"No-Go","Robot":4,"trial_type":"pit-trial","trial_index":122,"time_elapsed":495325,"internal_node_id":"0.0-122.0"},{"Valence":"Win","Color":"#3366ff99","Rune":"05","Correct":-1,"Choice":32,"RT":354.82999999658205,"Accuracy":0,"Sham":0,"Outcome":"+1","Keys":[1854.9399999901652],"TotalKeys":1,"Block":2,"Trial":109,"Action":"No-Go","Robot":2,"trial_type":"pit-trial","trial_index":123,"time_elapsed":498185,"internal_node_id":"0.0-123.0"},{"Valence":"Lose","Color":"#ffcc3399","Rune":"03","Correct":-1,"Choice":32,"RT":932.360000006156,"Accuracy":0,"Sham":0,"Outcome":"-10","Keys":[2432.734999980312],"TotalKeys":1,"Block":2,"Trial":110,"Action":"No-Go","Robot":4,"trial_type":"pit-trial","trial_index":124,"time_elapsed":501624,"internal_node_id":"0.0-124.0"},{"Valence":"Win","Color":"#3366ff99","Rune":"06","Correct":32,"Choice":32,"RT":371.06500001391396,"Accuracy":1,"Sham":0,"Outcome":"+10","Keys":[1872.0350000075996],"TotalKeys":1,"Block":2,"Trial":111,"Action":"Go","Robot":1,"trial_type":"pit-trial","trial_index":125,"time_elapsed":504501,"internal_node_id":"0.0-125.0"},{"Valence":"Lose","Color":"#ffcc3399","Rune":"04","Correct":32,"Choice":-1,"RT":-1,"Accuracy":0,"Sham":0,"Outcome":"-10","Keys":[],"TotalKeys":0,"Block":2,"Trial":112,"Action":"Go","Robot":3,"trial_type":"pit-trial","trial_index":126,"time_elapsed":508510,"internal_node_id":"0.0-126.0"},{"Valence":"Win","Color":"#3366ff99","Rune":"05","Correct":-1,"Choice":32,"RT":174.96499998378567,"Accuracy":0,"Sham":0,"Outcome":"+1","Keys":[1675.8850000042003],"TotalKeys":1,"Block":2,"Trial":113,"Action":"No-Go","Robot":2,"trial_type":"pit-trial","trial_index":127,"time_elapsed":511195,"internal_node_id":"0.0-127.0"},{"Valence":"Lose","Color":"#ffcc3399","Rune":"03","Correct":-1,"Choice":-1,"RT":-1,"Accuracy":1,"Sham":0,"Outcome":"-1","Keys":[3366.5650000039022],"TotalKeys":1,"Block":2,"Trial":114,"Action":"No-Go","Robot":4,"trial_type":"pit-trial","trial_index":128,"time_elapsed":515207,"internal_node_id":"0.0-128.0"},{"Valence":"Lose","Color":"#ffcc3399","Rune":"04","Correct":32,"Choice":-1,"RT":-1,"Accuracy":0,"Sham":1,"Outcome":"-1","Keys":[],"TotalKeys":0,"Block":2,"Trial":115,"Action":"Go","Robot":3,"trial_type":"pit-trial","trial_index":129,"time_elapsed":519215,"internal_node_id":"0.0-129.0"},{"Valence":"Win","Color":"#3366ff99","Rune":"06","Correct":32,"Choice":32,"RT":45.58000000542961,"Accuracy":1,"Sham":0,"Outcome":"+10","Keys":[1546.0599999933038],"TotalKeys":1,"Block":2,"Trial":116,"Action":"Go","Robot":1,"trial_type":"pit-trial","trial_index":130,"time_elapsed":521767,"internal_node_id":"0.0-130.0"},{"Valence":"Lose","Color":"#ffcc3399","Rune":"03","Correct":-1,"Choice":-1,"RT":-1,"Accuracy":1,"Sham":1,"Outcome":"-10","Keys":[3680.159999988973],"TotalKeys":1,"Block":2,"Trial":117,"Action":"No-Go","Robot":4,"trial_type":"pit-trial","trial_index":131,"time_elapsed":525775,"internal_node_id":"0.0-131.0"},{"Valence":"Lose","Color":"#ffcc3399","Rune":"04","Correct":32,"Choice":-1,"RT":-1,"Accuracy":0,"Sham":0,"Outcome":"-10","Keys":[],"TotalKeys":0,"Block":2,"Trial":118,"Action":"Go","Robot":3,"trial_type":"pit-trial","trial_index":132,"time_elapsed":529783,"internal_node_id":"0.0-132.0"},{"Valence":"Win","Color":"#3366ff99","Rune":"05","Correct":-1,"Choice":32,"RT":581.46499999566,"Accuracy":0,"Sham":0,"Outcome":"+1","Keys":[2082.345000002533],"TotalKeys":1,"Block":2,"Trial":119,"Action":"No-Go","Robot":2,"trial_type":"pit-trial","trial_index":133,"time_elapsed":532872,"internal_node_id":"0.0-133.0"},{"Valence":"Win","Color":"#3366ff99","Rune":"06","Correct":32,"Choice":32,"RT":1137.1999999973923,"Accuracy":1,"Sham":0,"Outcome":"+10","Keys":[2637.3050000111107],"TotalKeys":1,"Block":2,"Trial":120,"Action":"Go","Robot":1,"trial_type":"pit-trial","trial_index":134,"time_elapsed":536518,"internal_node_id":"0.0-134.0"},{"Valence":"Win","Color":"#3366ff99","Rune":"05","Correct":-1,"Choice":32,"RT":549.4250000047032,"Accuracy":0,"Sham":0,"Outcome":"+1","Keys":[2049.76500000339],"TotalKeys":1,"Block":2,"Trial":121,"Action":"No-Go","Robot":2,"trial_type":"pit-trial","trial_index":135,"time_elapsed":539574,"internal_node_id":"0.0-135.0"},{"Valence":"Lose","Color":"#ffcc3399","Rune":"03","Correct":-1,"Choice":-1,"RT":-1,"Accuracy":1,"Sham":0,"Outcome":"-1","Keys":[],"TotalKeys":0,"Block":2,"Trial":122,"Action":"No-Go","Robot":4,"trial_type":"pit-trial","trial_index":136,"time_elapsed":543580,"internal_node_id":"0.0-136.0"},{"Valence":"Lose","Color":"#ffcc3399","Rune":"04","Correct":32,"Choice":-1,"RT":-1,"Accuracy":0,"Sham":0,"Outcome":"-10","Keys":[],"TotalKeys":0,"Block":2,"Trial":123,"Action":"Go","Robot":3,"trial_type":"pit-trial","trial_index":137,"time_elapsed":547588,"internal_node_id":"0.0-137.0"},{"Valence":"Win","Color":"#3366ff99","Rune":"06","Correct":32,"Choice":-1,"RT":-1,"Accuracy":0,"Sham":1,"Outcome":"+10","Keys":[],"TotalKeys":0,"Block":2,"Trial":124,"Action":"Go","Robot":1,"trial_type":"pit-trial","trial_index":138,"time_elapsed":551594,"internal_node_id":"0.0-138.0"},{"Valence":"Lose","Color":"#ffcc3399","Rune":"04","Correct":32,"Choice":-1,"RT":-1,"Accuracy":0,"Sham":1,"Outcome":"-1","Keys":[],"TotalKeys":0,"Block":2,"Trial":125,"Action":"Go","Robot":3,"trial_type":"pit-trial","trial_index":139,"time_elapsed":555600,"internal_node_id":"0.0-139.0"},{"Valence":"Lose","Color":"#ffcc3399","Rune":"03","Correct":-1,"Choice":-1,"RT":-1,"Accuracy":1,"Sham":0,"Outcome":"-1","Keys":[],"TotalKeys":0,"Block":2,"Trial":126,"Action":"No-Go","Robot":4,"trial_type":"pit-trial","trial_index":140,"time_elapsed":559608,"internal_node_id":"0.0-140.0"},{"Valence":"Win","Color":"#3366ff99","Rune":"05","Correct":-1,"Choice":32,"RT":86.23500002431683,"Accuracy":0,"Sham":0,"Outcome":"+1","Keys":[487.6850000000559,1066.7250000115018,1587.6850000058766],"TotalKeys":3,"Block":2,"Trial":127,"Action":"No-Go","Robot":2,"trial_type":"pit-trial","trial_index":141,"time_elapsed":562203,"internal_node_id":"0.0-141.0"},{"Valence":"Win","Color":"#3366ff99","Rune":"06","Correct":32,"Choice":32,"RT":417.4150000035297,"Accuracy":1,"Sham":0,"Outcome":"+10","Keys":[1918.2199999922886],"TotalKeys":1,"Block":2,"Trial":128,"Action":"Go","Robot":1,"trial_type":"pit-trial","trial_index":142,"time_elapsed":565128,"internal_node_id":"0.0-142.0"},{"Valence":"Lose","Color":"#ffcc3399","Rune":"03","Correct":-1,"Choice":-1,"RT":-1,"Accuracy":1,"Sham":0,"Outcome":"-1","Keys":[],"TotalKeys":0,"Block":2,"Trial":129,"Action":"No-Go","Robot":4,"trial_type":"pit-trial","trial_index":143,"time_elapsed":569135,"internal_node_id":"0.0-143.0"},{"Valence":"Win","Color":"#3366ff99","Rune":"06","Correct":32,"Choice":-1,"RT":-1,"Accuracy":0,"Sham":0,"Outcome":"+1","Keys":[],"TotalKeys":0,"Block":2,"Trial":130,"Action":"Go","Robot":1,"trial_type":"pit-trial","trial_index":144,"time_elapsed":573144,"internal_node_id":"0.0-144.0"},{"Valence":"Lose","Color":"#ffcc3399","Rune":"04","Correct":32,"Choice":32,"RT":339.27500000572763,"Accuracy":1,"Sham":0,"Outcome":"-1","Keys":[1839.7450000047684],"TotalKeys":1,"Block":2,"Trial":131,"Action":"Go","Robot":3,"trial_type":"pit-trial","trial_index":145,"time_elapsed":575992,"internal_node_id":"0.0-145.0"},{"Valence":"Win","Color":"#3366ff99","Rune":"05","Correct":-1,"Choice":32,"RT":253.8899999926798,"Accuracy":0,"Sham":0,"Outcome":"+1","Keys":[1754.8700000043027],"TotalKeys":1,"Block":2,"Trial":132,"Action":"No-Go","Robot":2,"trial_type":"pit-trial","trial_index":146,"time_elapsed":578761,"internal_node_id":"0.0-146.0"},{"Valence":"Lose","Color":"#ffcc3399","Rune":"03","Correct":-1,"Choice":32,"RT":774.6299999998882,"Accuracy":0,"Sham":0,"Outcome":"-10","Keys":[2275.695000018459],"TotalKeys":1,"Block":2,"Trial":133,"Action":"No-Go","Robot":4,"trial_type":"pit-trial","trial_index":147,"time_elapsed":582043,"internal_node_id":"0.0-147.0"},{"Valence":"Win","Color":"#3366ff99","Rune":"06","Correct":32,"Choice":32,"RT":621.6650000133086,"Accuracy":1,"Sham":0,"Outcome":"+10","Keys":[2123.040000005858],"TotalKeys":1,"Block":2,"Trial":134,"Action":"Go","Robot":1,"trial_type":"pit-trial","trial_index":148,"time_elapsed":585173,"internal_node_id":"0.0-148.0"},{"Valence":"Lose","Color":"#ffcc3399","Rune":"04","Correct":32,"Choice":-1,"RT":-1,"Accuracy":0,"Sham":0,"Outcome":"-10","Keys":[],"TotalKeys":0,"Block":2,"Trial":135,"Action":"Go","Robot":3,"trial_type":"pit-trial","trial_index":149,"time_elapsed":589184,"internal_node_id":"0.0-149.0"},{"Valence":"Win","Color":"#3366ff99","Rune":"05","Correct":-1,"Choice":-1,"RT":-1,"Accuracy":1,"Sham":0,"Outcome":"+10","Keys":[3930.7649999973364],"TotalKeys":1,"Block":2,"Trial":136,"Action":"No-Go","Robot":2,"trial_type":"pit-trial","trial_index":150,"time_elapsed":593193,"internal_node_id":"0.0-150.0"},{"Valence":"Lose","Color":"#ffcc3399","Rune":"03","Correct":-1,"Choice":-1,"RT":-1,"Accuracy":1,"Sham":1,"Outcome":"-10","Keys":[],"TotalKeys":0,"Block":2,"Trial":137,"Action":"No-Go","Robot":4,"trial_type":"pit-trial","trial_index":151,"time_elapsed":597198,"internal_node_id":"0.0-151.0"},{"Valence":"Win","Color":"#3366ff99","Rune":"06","Correct":32,"Choice":-1,"RT":-1,"Accuracy":0,"Sham":0,"Outcome":"+1","Keys":[],"TotalKeys":0,"Block":2,"Trial":138,"Action":"Go","Robot":1,"trial_type":"pit-trial","trial_index":152,"time_elapsed":601205,"internal_node_id":"0.0-152.0"},{"Valence":"Lose","Color":"#ffcc3399","Rune":"04","Correct":32,"Choice":32,"RT":966.3249999866821,"Accuracy":1,"Sham":0,"Outcome":"-1","Keys":[2467.340000002878],"TotalKeys":1,"Block":2,"Trial":139,"Action":"Go","Robot":3,"trial_type":"pit-trial","trial_index":153,"time_elapsed":604681,"internal_node_id":"0.0-153.0"},{"Valence":"Win","Color":"#3366ff99","Rune":"05","Correct":-1,"Choice":32,"RT":418.49499999079853,"Accuracy":0,"Sham":1,"Outcome":"+10","Keys":[1918.729999975767],"TotalKeys":1,"Block":2,"Trial":140,"Action":"No-Go","Robot":2,"trial_type":"pit-trial","trial_index":154,"time_elapsed":607606,"internal_node_id":"0.0-154.0"},{"Valence":"Win","Color":"#3366ff99","Rune":"05","Correct":-1,"Choice":-1,"RT":-1,"Accuracy":1,"Sham":1,"Outcome":"1","Keys":[],"TotalKeys":0,"Block":2,"Trial":141,"Action":"No-Go","Robot":2,"trial_type":"pit-trial","trial_index":155,"time_elapsed":611611,"internal_node_id":"0.0-155.0"},{"Valence":"Lose","Color":"#ffcc3399","Rune":"04","Correct":32,"Choice":32,"RT":226.4650000142865,"Accuracy":1,"Sham":0,"Outcome":"-1","Keys":[1726.569999998901],"TotalKeys":1,"Block":2,"Trial":142,"Action":"Go","Robot":3,"trial_type":"pit-trial","trial_index":156,"time_elapsed":614344,"internal_node_id":"0.0-156.0"},{"Valence":"Win","Color":"#3366ff99","Rune":"06","Correct":32,"Choice":32,"RT":303.49999997997656,"Accuracy":1,"Sham":0,"Outcome":"+10","Keys":[1803.8599999854341],"TotalKeys":1,"Block":2,"Trial":143,"Action":"Go","Robot":1,"trial_type":"pit-trial","trial_index":157,"time_elapsed":617155,"internal_node_id":"0.0-157.0"},{"Valence":"Lose","Color":"#ffcc3399","Rune":"03","Correct":-1,"Choice":-1,"RT":-1,"Accuracy":1,"Sham":0,"Outcome":"-1","Keys":[],"TotalKeys":0,"Block":2,"Trial":144,"Action":"No-Go","Robot":4,"trial_type":"pit-trial","trial_index":158,"time_elapsed":621162,"internal_node_id":"0.0-158.0"},{"Valence":"Lose","Color":"#ffcc3399","Rune":"03","Correct":-1,"Choice":-1,"RT":-1,"Accuracy":1,"Sham":0,"Outcome":"-1","Keys":[],"TotalKeys":0,"Block":2,"Trial":145,"Action":"No-Go","Robot":4,"trial_type":"pit-trial","trial_index":159,"time_elapsed":625167,"internal_node_id":"0.0-159.0"},{"Valence":"Win","Color":"#3366ff99","Rune":"06","Correct":32,"Choice":32,"RT":51.164999982574955,"Accuracy":1,"Sham":0,"Outcome":"+10","Keys":[907.3199999984354,1551.7800000088755],"TotalKeys":2,"Block":2,"Trial":146,"Action":"Go","Robot":1,"trial_type":"pit-trial","trial_index":160,"time_elapsed":627725,"internal_node_id":"0.0-160.0"},{"Valence":"Lose","Color":"#ffcc3399","Rune":"04","Correct":32,"Choice":-1,"RT":-1,"Accuracy":0,"Sham":0,"Outcome":"-10","Keys":[],"TotalKeys":0,"Block":2,"Trial":147,"Action":"Go","Robot":3,"trial_type":"pit-trial","trial_index":161,"time_elapsed":631731,"internal_node_id":"0.0-161.0"},{"Valence":"Win","Color":"#3366ff99","Rune":"05","Correct":-1,"Choice":-1,"RT":-1,"Accuracy":1,"Sham":0,"Outcome":"+10","Keys":[3114.419999998063],"TotalKeys":1,"Block":2,"Trial":148,"Action":"No-Go","Robot":2,"trial_type":"pit-trial","trial_index":162,"time_elapsed":635738,"internal_node_id":"0.0-162.0"},{"Valence":"Win","Color":"#3366ff99","Rune":"05","Correct":-1,"Choice":-1,"RT":-1,"Accuracy":1,"Sham":0,"Outcome":"+10","Keys":[],"TotalKeys":0,"Block":2,"Trial":149,"Action":"No-Go","Robot":2,"trial_type":"pit-trial","trial_index":163,"time_elapsed":639746,"internal_node_id":"0.0-163.0"},{"Valence":"Lose","Color":"#ffcc3399","Rune":"03","Correct":-1,"Choice":32,"RT":720.820000016829,"Accuracy":0,"Sham":0,"Outcome":"-10","Keys":[1001.8849999760278,2221.3899999915157],"TotalKeys":2,"Block":2,"Trial":150,"Action":"No-Go","Robot":4,"trial_type":"pit-trial","trial_index":164,"time_elapsed":642974,"internal_node_id":"0.0-164.0"},{"Valence":"Lose","Color":"#ffcc3399","Rune":"04","Correct":32,"Choice":-1,"RT":-1,"Accuracy":0,"Sham":0,"Outcome":"-10","Keys":[],"TotalKeys":0,"Block":2,"Trial":151,"Action":"Go","Robot":3,"trial_type":"pit-trial","trial_index":165,"time_elapsed":646982,"internal_node_id":"0.0-165.0"},{"Valence":"Win","Color":"#3366ff99","Rune":"06","Correct":32,"Choice":-1,"RT":-1,"Accuracy":0,"Sham":0,"Outcome":"+1","Keys":[],"TotalKeys":0,"Block":2,"Trial":152,"Action":"Go","Robot":1,"trial_type":"pit-trial","trial_index":166,"time_elapsed":650990,"internal_node_id":"0.0-166.0"},{"Valence":"Win","Color":"#3366ff99","Rune":"06","Correct":32,"Choice":32,"RT":203.6450000014156,"Accuracy":1,"Sham":0,"Outcome":"+10","Keys":[1050.93999998644,1704.1249999892898],"TotalKeys":2,"Block":2,"Trial":153,"Action":"Go","Robot":1,"trial_type":"pit-trial","trial_index":167,"time_elapsed":653701,"internal_node_id":"0.0-167.0"},{"Valence":"Lose","Color":"#ffcc3399","Rune":"03","Correct":-1,"Choice":32,"RT":745.824999990873,"Accuracy":0,"Sham":0,"Outcome":"-10","Keys":[1147.064999997383,2246.6399999975692],"TotalKeys":2,"Block":2,"Trial":154,"Action":"No-Go","Robot":4,"trial_type":"pit-trial","trial_index":168,"time_elapsed":656954,"internal_node_id":"0.0-168.0"},{"Valence":"Lose","Color":"#ffcc3399","Rune":"04","Correct":32,"Choice":-1,"RT":-1,"Accuracy":0,"Sham":0,"Outcome":"-10","Keys":[],"TotalKeys":0,"Block":2,"Trial":155,"Action":"Go","Robot":3,"trial_type":"pit-trial","trial_index":169,"time_elapsed":660957,"internal_node_id":"0.0-169.0"},{"Valence":"Win","Color":"#3366ff99","Rune":"05","Correct":-1,"Choice":-1,"RT":-1,"Accuracy":1,"Sham":0,"Outcome":"+10","Keys":[1025.324999995064],"TotalKeys":1,"Block":2,"Trial":156,"Action":"No-Go","Robot":2,"trial_type":"pit-trial","trial_index":170,"time_elapsed":664964,"internal_node_id":"0.0-170.0"},{"Valence":"Lose","Color":"#ffcc3399","Rune":"04","Correct":32,"Choice":-1,"RT":-1,"Accuracy":0,"Sham":1,"Outcome":"-1","Keys":[],"TotalKeys":0,"Block":2,"Trial":157,"Action":"Go","Robot":3,"trial_type":"pit-trial","trial_index":171,"time_elapsed":668975,"internal_node_id":"0.0-171.0"},{"Valence":"Lose","Color":"#ffcc3399","Rune":"03","Correct":-1,"Choice":32,"RT":338.7299999885727,"Accuracy":0,"Sham":1,"Outcome":"-1","Keys":[395.6400000024587,1016.2549999949988,1839.7249999979977],"TotalKeys":3,"Block":2,"Trial":158,"Action":"No-Go","Robot":4,"trial_type":"pit-trial","trial_index":172,"time_elapsed":671822,"internal_node_id":"0.0-172.0"},{"Valence":"Win","Color":"#3366ff99","Rune":"05","Correct":-1,"Choice":32,"RT":639.5849999971688,"Accuracy":0,"Sham":0,"Outcome":"+1","Keys":[2140.480000001844],"TotalKeys":1,"Block":2,"Trial":159,"Action":"No-Go","Robot":2,"trial_type":"pit-trial","trial_index":173,"time_elapsed":674971,"internal_node_id":"0.0-173.0"},{"Valence":"Win","Color":"#3366ff99","Rune":"06","Correct":32,"Choice":-1,"RT":-1,"Accuracy":0,"Sham":1,"Outcome":"+10","Keys":[],"TotalKeys":0,"Block":2,"Trial":160,"Action":"Go","Robot":1,"trial_type":"pit-trial","trial_index":174,"time_elapsed":678979,"internal_node_id":"0.0-174.0"},{"rt":25990.22999999579,"demographics":{"age":"26","gender-categorical":"Male","ethnicity":"Not Hispanic or Latino","race":"White","english":"Yes","fluency":"Very well"},"trial_type":"survey-demo","trial_index":175,"time_elapsed":704974,"internal_node_id":"0.0-175.0"},{"rt":40874.56500000553,"debriefgraphics":{"difficulty":"2","fun":"5","clarity":"5","strategy":"emotions to choose ","feedback":"none"},"trial_type":"survey-debrief","trial_index":176,"time_elapsed":745853,"internal_node_id":"0.0-176.0","interactions":"[{\"event\":\"blur\",\"trial\":42,\"time\":220852},{\"event\":\"focus\",\"trial\":42,\"time\":222802},{\"event\":\"blur\",\"trial\":54,\"time\":256526},{\"event\":\"focus\",\"trial\":54,\"time\":258743},{\"event\":\"blur\",\"trial\":92,\"time\":374519},{\"event\":\"focus\",\"trial\":94,\"time\":377458},{\"event\":\"blur\",\"trial\":94,\"time\":385703},{\"event\":\"focus\",\"trial\":94,\"time\":398016},{\"event\":\"blur\",\"trial\":175,\"time\":680741},{\"event\":\"focus\",\"trial\":175,\"time\":681910},{\"event\":\"blur\",\"trial\":175,\"time\":696317},{\"event\":\"focus\",\"trial\":175,\"time\":703272}]"}]