[{"view_history":"[{\"page_index\":0,\"viewing_time\":2894.3399999989197},{\"page_index\":1,\"viewing_time\":2383.2250000268687},{\"page_index\":2,\"viewing_time\":4333.2249999803025},{\"page_index\":3,\"viewing_time\":3723.1400000164285},{\"page_index\":4,\"viewing_time\":7803.799999994226}]","rt":21138.62500002142,"trial_type":"pit-instructions","trial_index":0,"time_elapsed":21141,"internal_node_id":"0.0-0.0"},{"Valence":"Practice","Color":"#fffff080","Rune":"01","Correct":32,"Choice":32,"RT":469.61499997996725,"Accuracy":1,"Sham":0,"Outcome":"+10","Keys":[1971.8949999951292],"TotalKeys":1,"trial_type":"pit-trial","trial_index":1,"time_elapsed":24118,"internal_node_id":"0.0-1.0"},{"Valence":"Practice","Color":"#fffff080","Rune":"01","Correct":32,"Choice":32,"RT":361.62499999045394,"Accuracy":1,"Sham":0,"Outcome":"+10","Keys":[1861.704999988433],"TotalKeys":1,"trial_type":"pit-trial","trial_index":2,"time_elapsed":26986,"internal_node_id":"0.0-2.0"},{"Valence":"Practice","Color":"#fffff080","Rune":"01","Correct":32,"Choice":32,"RT":354.5449999801349,"Accuracy":1,"Sham":0,"Outcome":"+10","Keys":[1856.3649999850895],"TotalKeys":1,"trial_type":"pit-trial","trial_index":3,"time_elapsed":29846,"internal_node_id":"0.0-3.0"},{"Valence":"Practice","Color":"#fffff080","Rune":"01","Correct":32,"Choice":32,"RT":461.00499999010935,"Accuracy":1,"Sham":0,"Outcome":"+10","Keys":[1961.2449999840464],"TotalKeys":1,"trial_type":"pit-trial","trial_index":4,"time_elapsed":32812,"internal_node_id":"0.0-4.0"},{"view_history":"[{\"page_index\":0,\"viewing_time\":2883.964999986347}]","rt":2884.380000003148,"trial_type":"pit-instructions","trial_index":5,"time_elapsed":35697,"internal_node_id":"0.0-5.0"},{"Valence":"Practice","Color":"#fffff080","Rune":"02","Correct":-1,"Choice":-1,"RT":-1,"Accuracy":1,"Sham":0,"Outcome":"+10","Keys":[],"TotalKeys":0,"trial_type":"pit-trial","trial_index":6,"time_elapsed":39705,"internal_node_id":"0.0-6.0"},{"Valence":"Practice","Color":"#fffff080","Rune":"02","Correct":-1,"Choice":-1,"RT":-1,"Accuracy":1,"Sham":0,"Outcome":"+10","Keys":[],"TotalKeys":0,"trial_type":"pit-trial","trial_index":7,"time_elapsed":43715,"internal_node_id":"0.0-7.0"},{"Valence":"Practice","Color":"#fffff080","Rune":"02","Correct":-1,"Choice":-1,"RT":-1,"Accuracy":1,"Sham":0,"Outcome":"+10","Keys":[],"TotalKeys":0,"trial_type":"pit-trial","trial_index":8,"time_elapsed":47723,"internal_node_id":"0.0-8.0"},{"Valence":"Practice","Color":"#fffff080","Rune":"02","Correct":-1,"Choice":-1,"RT":-1,"Accuracy":1,"Sham":0,"Outcome":"+10","Keys":[],"TotalKeys":0,"trial_type":"pit-trial","trial_index":9,"time_elapsed":51726,"internal_node_id":"0.0-9.0"},{"view_history":"[{\"page_index\":0,\"viewing_time\":4281.559999973979},{\"page_index\":1,\"viewing_time\":24395.785000000615},{\"page_index\":2,\"viewing_time\":6798.2150000170805},{\"page_index\":3,\"viewing_time\":3788.3100000035483},{\"page_index\":4,\"viewing_time\":2822.9449999926146},{\"page_index\":5,\"viewing_time\":20784.58999999566},{\"page_index\":6,\"viewing_time\":2708.585000014864},{\"page_index\":7,\"viewing_time\":1258.0249999882653}]","rt":66838.35499998531,"trial_type":"pit-instructions","trial_index":10,"time_elapsed":118567,"internal_node_id":"0.0-10.0"},{"rt":23288.20499998983,"responses":"{\"no-press\":\"Do nothing\",\"context-win\":\"+10\",\"context-lose\":\"-1\",\"feedback\":\"True\"}","errors":1,"trial_type":"pit-comprehension","trial_index":11,"time_elapsed":141860,"internal_node_id":"0.0-11.0"},{"view_history":"[{\"page_index\":0,\"viewing_time\":1879.3050000094809}]","rt":1879.6450000081677,"trial_type":"pit-instructions","trial_index":12,"time_elapsed":143742,"internal_node_id":"0.0-12.0"},{"Valence":"Win","Color":"#3366ff99","Rune":"04","Correct":-1,"Choice":32,"RT":823.2499999867287,"Accuracy":0,"Sham":0,"Outcome":"+1","Keys":[2323.6849999811966],"TotalKeys":1,"Block":1,"Trial":1,"Action":"No-Go","Robot":2,"trial_type":"pit-trial","trial_index":13,"time_elapsed":147071,"internal_node_id":"0.0-13.0"},{"Valence":"Lose","Color":"#ffcc3399","Rune":"05","Correct":32,"Choice":-1,"RT":-1,"Accuracy":0,"Sham":0,"Outcome":"-10","Keys":[],"TotalKeys":0,"Block":1,"Trial":2,"Action":"Go","Robot":3,"trial_type":"pit-trial","trial_index":14,"time_elapsed":151079,"internal_node_id":"0.0-14.0"},{"Valence":"Lose","Color":"#ffcc3399","Rune":"06","Correct":-1,"Choice":32,"RT":1271.6650000074878,"Accuracy":0,"Sham":0,"Outcome":"-10","Keys":[2771.724999998696],"TotalKeys":1,"Block":1,"Trial":3,"Action":"No-Go","Robot":4,"trial_type":"pit-trial","trial_index":15,"time_elapsed":154857,"internal_node_id":"0.0-15.0"},{"Valence":"Win","Color":"#3366ff99","Rune":"03","Correct":32,"Choice":32,"RT":922.1600000164472,"Accuracy":1,"Sham":0,"Outcome":"+10","Keys":[2425.1550000044517],"TotalKeys":1,"Block":1,"Trial":4,"Action":"Go","Robot":1,"trial_type":"pit-trial","trial_index":16,"time_elapsed":158288,"internal_node_id":"0.0-16.0"},{"Valence":"Lose","Color":"#ffcc3399","Rune":"05","Correct":32,"Choice":-1,"RT":-1,"Accuracy":0,"Sham":1,"Outcome":"-1","Keys":[],"TotalKeys":0,"Block":1,"Trial":5,"Action":"Go","Robot":3,"trial_type":"pit-trial","trial_index":17,"time_elapsed":162291,"internal_node_id":"0.0-17.0"},{"Valence":"Lose","Color":"#ffcc3399","Rune":"06","Correct":-1,"Choice":32,"RT":1242.3750000016298,"Accuracy":0,"Sham":0,"Outcome":"-10","Keys":[2744.3199999979697],"TotalKeys":1,"Block":1,"Trial":6,"Action":"No-Go","Robot":4,"trial_type":"pit-trial","trial_index":18,"time_elapsed":166042,"internal_node_id":"0.0-18.0"},{"Valence":"Win","Color":"#3366ff99","Rune":"03","Correct":32,"Choice":32,"RT":810.6749999860767,"Accuracy":1,"Sham":0,"Outcome":"+10","Keys":[2312.9250000056345],"TotalKeys":1,"Block":1,"Trial":7,"Action":"Go","Robot":1,"trial_type":"pit-trial","trial_index":19,"time_elapsed":169359,"internal_node_id":"0.0-19.0"},{"Valence":"Win","Color":"#3366ff99","Rune":"04","Correct":-1,"Choice":32,"RT":728.7750000250526,"Accuracy":0,"Sham":0,"Outcome":"+1","Keys":[2230.6249999965075],"TotalKeys":1,"Block":1,"Trial":8,"Action":"No-Go","Robot":2,"trial_type":"pit-trial","trial_index":20,"time_elapsed":172595,"internal_node_id":"0.0-20.0"},{"Valence":"Win","Color":"#3366ff99","Rune":"03","Correct":32,"Choice":32,"RT":658.625000010943,"Accuracy":1,"Sham":0,"Outcome":"+10","Keys":[2158.740000013495],"TotalKeys":1,"Block":1,"Trial":9,"Action":"Go","Robot":1,"trial_type":"pit-trial","trial_index":21,"time_elapsed":175760,"internal_node_id":"0.0-21.0"},{"Valence":"Lose","Color":"#ffcc3399","Rune":"05","Correct":32,"Choice":-1,"RT":-1,"Accuracy":0,"Sham":0,"Outcome":"-10","Keys":[],"TotalKeys":0,"Block":1,"Trial":10,"Action":"Go","Robot":3,"trial_type":"pit-trial","trial_index":22,"time_elapsed":179767,"internal_node_id":"0.0-22.0"},{"Valence":"Win","Color":"#3366ff99","Rune":"04","Correct":-1,"Choice":-1,"RT":-1,"Accuracy":1,"Sham":0,"Outcome":"+10","Keys":[],"TotalKeys":0,"Block":1,"Trial":11,"Action":"No-Go","Robot":2,"trial_type":"pit-trial","trial_index":23,"time_elapsed":183778,"internal_node_id":"0.0-23.0"},{"Valence":"Lose","Color":"#ffcc3399","Rune":"06","Correct":-1,"Choice":-1,"RT":-1,"Accuracy":1,"Sham":0,"Outcome":"-1","Keys":[],"TotalKeys":0,"Block":1,"Trial":12,"Action":"No-Go","Robot":4,"trial_type":"pit-trial","trial_index":24,"time_elapsed":187789,"internal_node_id":"0.0-24.0"},{"Valence":"Win","Color":"#3366ff99","Rune":"03","Correct":32,"Choice":32,"RT":622.1499999810476,"Accuracy":1,"Sham":0,"Outcome":"+10","Keys":[2122.9699999967124],"TotalKeys":1,"Block":1,"Trial":13,"Action":"Go","Robot":1,"trial_type":"pit-trial","trial_index":25,"time_elapsed":190918,"internal_node_id":"0.0-25.0"},{"Valence":"Win","Color":"#3366ff99","Rune":"04","Correct":-1,"Choice":32,"RT":939.7699999972247,"Accuracy":0,"Sham":0,"Outcome":"+1","Keys":[2440.1900000229944],"TotalKeys":1,"Block":1,"Trial":14,"Action":"No-Go","Robot":2,"trial_type":"pit-trial","trial_index":26,"time_elapsed":194360,"internal_node_id":"0.0-26.0"},{"Valence":"Lose","Color":"#ffcc3399","Rune":"05","Correct":32,"Choice":32,"RT":810.5299999879207,"Accuracy":1,"Sham":0,"Outcome":"-1","Keys":[2310.849999979837],"TotalKeys":1,"Block":1,"Trial":15,"Action":"Go","Robot":3,"trial_type":"pit-trial","trial_index":27,"time_elapsed":197673,"internal_node_id":"0.0-27.0"},{"Valence":"Lose","Color":"#ffcc3399","Rune":"06","Correct":-1,"Choice":32,"RT":1075.9600000164937,"Accuracy":0,"Sham":1,"Outcome":"-1","Keys":[2578.490000014426],"TotalKeys":1,"Block":1,"Trial":16,"Action":"No-Go","Robot":4,"trial_type":"pit-trial","trial_index":28,"time_elapsed":201253,"internal_node_id":"0.0-28.0"},{"Valence":"Win","Color":"#3366ff99","Rune":"03","Correct":32,"Choice":32,"RT":564.9750000156928,"Accuracy":1,"Sham":1,"Outcome":"1","Keys":[2065.050000004703],"TotalKeys":1,"Block":1,"Trial":17,"Action":"Go","Robot":1,"trial_type":"pit-trial","trial_index":29,"time_elapsed":204325,"internal_node_id":"0.0-29.0"},{"Valence":"Lose","Color":"#ffcc3399","Rune":"05","Correct":32,"Choice":-1,"RT":-1,"Accuracy":0,"Sham":0,"Outcome":"-10","Keys":[],"TotalKeys":0,"Block":1,"Trial":18,"Action":"Go","Robot":3,"trial_type":"pit-trial","trial_index":30,"time_elapsed":208330,"internal_node_id":"0.0-30.0"},{"Valence":"Win","Color":"#3366ff99","Rune":"04","Correct":-1,"Choice":32,"RT":1214.334999996936,"Accuracy":0,"Sham":1,"Outcome":"+10","Keys":[2714.734999986831],"TotalKeys":1,"Block":1,"Trial":19,"Action":"No-Go","Robot":2,"trial_type":"pit-trial","trial_index":31,"time_elapsed":212052,"internal_node_id":"0.0-31.0"},{"Valence":"Lose","Color":"#ffcc3399","Rune":"06","Correct":-1,"Choice":-1,"RT":-1,"Accuracy":1,"Sham":0,"Outcome":"-1","Keys":[],"TotalKeys":0,"Block":1,"Trial":20,"Action":"No-Go","Robot":4,"trial_type":"pit-trial","trial_index":32,"time_elapsed":216059,"internal_node_id":"0.0-32.0"},{"Valence":"Lose","Color":"#ffcc3399","Rune":"06","Correct":-1,"Choice":32,"RT":1302.224999992177,"Accuracy":0,"Sham":0,"Outcome":"-10","Keys":[2802.909999998519],"TotalKeys":1,"Block":1,"Trial":21,"Action":"No-Go","Robot":4,"trial_type":"pit-trial","trial_index":33,"time_elapsed":219867,"internal_node_id":"0.0-33.0"},{"Valence":"Win","Color":"#3366ff99","Rune":"04","Correct":-1,"Choice":32,"RT":1006.3350000127684,"Accuracy":0,"Sham":0,"Outcome":"+1","Keys":[2507.545000000391],"TotalKeys":1,"Block":1,"Trial":22,"Action":"No-Go","Robot":2,"trial_type":"pit-trial","trial_index":34,"time_elapsed":223380,"internal_node_id":"0.0-34.0"},{"Valence":"Win","Color":"#3366ff99","Rune":"03","Correct":32,"Choice":32,"RT":669.7400000120979,"Accuracy":1,"Sham":0,"Outcome":"+10","Keys":[2170.095000008587],"TotalKeys":1,"Block":1,"Trial":23,"Action":"Go","Robot":1,"trial_type":"pit-trial","trial_index":35,"time_elapsed":226554,"internal_node_id":"0.0-35.0"},{"Valence":"Lose","Color":"#ffcc3399","Rune":"05","Correct":32,"Choice":32,"RT":1256.744999991497,"Accuracy":1,"Sham":0,"Outcome":"-1","Keys":[2757.3750000155997],"TotalKeys":1,"Block":1,"Trial":24,"Action":"Go","Robot":3,"trial_type":"pit-trial","trial_index":36,"time_elapsed":230315,"internal_node_id":"0.0-36.0"},{"Valence":"Lose","Color":"#ffcc3399","Rune":"06","Correct":-1,"Choice":-1,"RT":-1,"Accuracy":1,"Sham":0,"Outcome":"-1","Keys":[],"TotalKeys":0,"Block":1,"Trial":25,"Action":"No-Go","Robot":4,"trial_type":"pit-trial","trial_index":37,"time_elapsed":234319,"internal_node_id":"0.0-37.0"},{"Valence":"Win","Color":"#3366ff99","Rune":"03","Correct":32,"Choice":32,"RT":694.9150000000373,"Accuracy":1,"Sham":0,"Outcome":"+10","Keys":[2195.605000015348],"TotalKeys":1,"Block":1,"Trial":26,"Action":"Go","Robot":1,"trial_type":"pit-trial","trial_index":38,"time_elapsed":237521,"internal_node_id":"0.0-38.0"},{"Valence":"Lose","Color":"#ffcc3399","Rune":"05","Correct":32,"Choice":32,"RT":1184.6549999900162,"Accuracy":1,"Sham":0,"Outcome":"-1","Keys":[2686.6549999976996],"TotalKeys":1,"Block":1,"Trial":27,"Action":"Go","Robot":3,"trial_type":"pit-trial","trial_index":39,"time_elapsed":241211,"internal_node_id":"0.0-39.0"},{"Valence":"Win","Color":"#3366ff99","Rune":"04","Correct":-1,"Choice":-1,"RT":-1,"Accuracy":1,"Sham":0,"Outcome":"+10","Keys":[],"TotalKeys":0,"Block":1,"Trial":28,"Action":"No-Go","Robot":2,"trial_type":"pit-trial","trial_index":40,"time_elapsed":245217,"internal_node_id":"0.0-40.0"},{"Valence":"Lose","Color":"#ffcc3399","Rune":"05","Correct":32,"Choice":32,"RT":1246.034999989206,"Accuracy":1,"Sham":0,"Outcome":"-1","Keys":[2746.964999998454],"TotalKeys":1,"Block":1,"Trial":29,"Action":"Go","Robot":3,"trial_type":"pit-trial","trial_index":41,"time_elapsed":248969,"internal_node_id":"0.0-41.0"},{"Valence":"Win","Color":"#3366ff99","Rune":"04","Correct":-1,"Choice":-1,"RT":-1,"Accuracy":1,"Sham":1,"Outcome":"1","Keys":[],"TotalKeys":0,"Block":1,"Trial":30,"Action":"No-Go","Robot":2,"trial_type":"pit-trial","trial_index":42,"time_elapsed":252979,"internal_node_id":"0.0-42.0"},{"Valence":"Win","Color":"#3366ff99","Rune":"03","Correct":32,"Choice":32,"RT":593.5400000016671,"Accuracy":1,"Sham":1,"Outcome":"1","Keys":[2093.8550000137184],"TotalKeys":1,"Block":1,"Trial":31,"Action":"Go","Robot":1,"trial_type":"pit-trial","trial_index":43,"time_elapsed":256076,"internal_node_id":"0.0-43.0"},{"Valence":"Lose","Color":"#ffcc3399","Rune":"06","Correct":-1,"Choice":-1,"RT":-1,"Accuracy":1,"Sham":0,"Outcome":"-1","Keys":[],"TotalKeys":0,"Block":1,"Trial":32,"Action":"No-Go","Robot":4,"trial_type":"pit-trial","trial_index":44,"time_elapsed":260083,"internal_node_id":"0.0-44.0"},{"Valence":"Lose","Color":"#ffcc3399","Rune":"06","Correct":-1,"Choice":-1,"RT":-1,"Accuracy":1,"Sham":0,"Outcome":"-1","Keys":[],"TotalKeys":0,"Block":1,"Trial":33,"Action":"No-Go","Robot":4,"trial_type":"pit-trial","trial_index":45,"time_elapsed":264091,"internal_node_id":"0.0-45.0"},{"Valence":"Win","Color":"#3366ff99","Rune":"04","Correct":-1,"Choice":-1,"RT":-1,"Accuracy":1,"Sham":0,"Outcome":"+10","Keys":[],"TotalKeys":0,"Block":1,"Trial":34,"Action":"No-Go","Robot":2,"trial_type":"pit-trial","trial_index":46,"time_elapsed":268094,"internal_node_id":"0.0-46.0"},{"Valence":"Win","Color":"#3366ff99","Rune":"03","Correct":32,"Choice":32,"RT":646.8100000056438,"Accuracy":1,"Sham":0,"Outcome":"+10","Keys":[2147.079999995185],"TotalKeys":1,"Block":1,"Trial":35,"Action":"Go","Robot":1,"trial_type":"pit-trial","trial_index":47,"time_elapsed":271246,"internal_node_id":"0.0-47.0"},{"Valence":"Lose","Color":"#ffcc3399","Rune":"05","Correct":32,"Choice":-1,"RT":-1,"Accuracy":0,"Sham":1,"Outcome":"-1","Keys":[],"TotalKeys":0,"Block":1,"Trial":36,"Action":"Go","Robot":3,"trial_type":"pit-trial","trial_index":48,"time_elapsed":275254,"internal_node_id":"0.0-48.0"},{"Valence":"Lose","Color":"#ffcc3399","Rune":"06","Correct":-1,"Choice":-1,"RT":-1,"Accuracy":1,"Sham":1,"Outcome":"-10","Keys":[],"TotalKeys":0,"Block":1,"Trial":37,"Action":"No-Go","Robot":4,"trial_type":"pit-trial","trial_index":49,"time_elapsed":279257,"internal_node_id":"0.0-49.0"},{"Valence":"Lose","Color":"#ffcc3399","Rune":"05","Correct":32,"Choice":-1,"RT":-1,"Accuracy":0,"Sham":0,"Outcome":"-10","Keys":[],"TotalKeys":0,"Block":1,"Trial":38,"Action":"Go","Robot":3,"trial_type":"pit-trial","trial_index":50,"time_elapsed":283268,"internal_node_id":"0.0-50.0"},{"Valence":"Win","Color":"#3366ff99","Rune":"03","Correct":32,"Choice":32,"RT":543.9699999988079,"Accuracy":1,"Sham":0,"Outcome":"+10","Keys":[2044.1050000081304],"TotalKeys":1,"Block":1,"Trial":39,"Action":"Go","Robot":1,"trial_type":"pit-trial","trial_index":51,"time_elapsed":286314,"internal_node_id":"0.0-51.0"},{"Valence":"Win","Color":"#3366ff99","Rune":"04","Correct":-1,"Choice":-1,"RT":-1,"Accuracy":1,"Sham":0,"Outcome":"+10","Keys":[],"TotalKeys":0,"Block":1,"Trial":40,"Action":"No-Go","Robot":2,"trial_type":"pit-trial","trial_index":52,"time_elapsed":290322,"internal_node_id":"0.0-52.0"},{"Valence":"Lose","Color":"#ffcc3399","Rune":"05","Correct":32,"Choice":32,"RT":1189.49000001885,"Accuracy":1,"Sham":1,"Outcome":"-10","Keys":[2692.0499999832828],"TotalKeys":1,"Block":1,"Trial":41,"Action":"Go","Robot":3,"trial_type":"pit-trial","trial_index":53,"time_elapsed":294017,"internal_node_id":"0.0-53.0"},{"Valence":"Win","Color":"#3366ff99","Rune":"04","Correct":-1,"Choice":-1,"RT":-1,"Accuracy":1,"Sham":0,"Outcome":"+10","Keys":[],"TotalKeys":0,"Block":1,"Trial":42,"Action":"No-Go","Robot":2,"trial_type":"pit-trial","trial_index":54,"time_elapsed":298024,"internal_node_id":"0.0-54.0"},{"Valence":"Lose","Color":"#ffcc3399","Rune":"06","Correct":-1,"Choice":-1,"RT":-1,"Accuracy":1,"Sham":0,"Outcome":"-1","Keys":[],"TotalKeys":0,"Block":1,"Trial":43,"Action":"No-Go","Robot":4,"trial_type":"pit-trial","trial_index":55,"time_elapsed":302035,"internal_node_id":"0.0-55.0"},{"Valence":"Win","Color":"#3366ff99","Rune":"03","Correct":32,"Choice":32,"RT":561.0100000048988,"Accuracy":1,"Sham":0,"Outcome":"+10","Keys":[2061.184999998659],"TotalKeys":1,"Block":1,"Trial":44,"Action":"Go","Robot":1,"trial_type":"pit-trial","trial_index":56,"time_elapsed":305103,"internal_node_id":"0.0-56.0"},{"Valence":"Lose","Color":"#ffcc3399","Rune":"06","Correct":-1,"Choice":-1,"RT":-1,"Accuracy":1,"Sham":0,"Outcome":"-1","Keys":[3040.245000011055],"TotalKeys":1,"Block":1,"Trial":45,"Action":"No-Go","Robot":4,"trial_type":"pit-trial","trial_index":57,"time_elapsed":309114,"internal_node_id":"0.0-57.0"},{"Valence":"Win","Color":"#3366ff99","Rune":"04","Correct":-1,"Choice":-1,"RT":-1,"Accuracy":1,"Sham":1,"Outcome":"1","Keys":[],"TotalKeys":0,"Block":1,"Trial":46,"Action":"No-Go","Robot":2,"trial_type":"pit-trial","trial_index":58,"time_elapsed":313118,"internal_node_id":"0.0-58.0"},{"Valence":"Lose","Color":"#ffcc3399","Rune":"05","Correct":32,"Choice":32,"RT":1253.020000003744,"Accuracy":1,"Sham":0,"Outcome":"-1","Keys":[2753.160000022035],"TotalKeys":1,"Block":1,"Trial":47,"Action":"Go","Robot":3,"trial_type":"pit-trial","trial_index":59,"time_elapsed":316878,"internal_node_id":"0.0-59.0"},{"Valence":"Win","Color":"#3366ff99","Rune":"03","Correct":32,"Choice":32,"RT":662.3799999943003,"Accuracy":1,"Sham":0,"Outcome":"+10","Keys":[2162.704999995185],"TotalKeys":1,"Block":1,"Trial":48,"Action":"Go","Robot":1,"trial_type":"pit-trial","trial_index":60,"time_elapsed":320045,"internal_node_id":"0.0-60.0"},{"Valence":"Lose","Color":"#ffcc3399","Rune":"06","Correct":-1,"Choice":32,"RT":1447.9999999748543,"Accuracy":0,"Sham":0,"Outcome":"-10","Keys":[2948.180000006687],"TotalKeys":1,"Block":1,"Trial":49,"Action":"No-Go","Robot":4,"trial_type":"pit-trial","trial_index":61,"time_elapsed":323998,"internal_node_id":"0.0-61.0"},{"Valence":"Win","Color":"#3366ff99","Rune":"03","Correct":32,"Choice":32,"RT":474.0200000233017,"Accuracy":1,"Sham":0,"Outcome":"+10","Keys":[1974.095000012312],"TotalKeys":1,"Block":1,"Trial":50,"Action":"Go","Robot":1,"trial_type":"pit-trial","trial_index":62,"time_elapsed":326977,"internal_node_id":"0.0-62.0"},{"Valence":"Win","Color":"#3366ff99","Rune":"04","Correct":-1,"Choice":32,"RT":1336.0549999924842,"Accuracy":0,"Sham":0,"Outcome":"+1","Keys":[2836.6899999964517],"TotalKeys":1,"Block":1,"Trial":51,"Action":"No-Go","Robot":2,"trial_type":"pit-trial","trial_index":63,"time_elapsed":330817,"internal_node_id":"0.0-63.0"},{"Valence":"Lose","Color":"#ffcc3399","Rune":"05","Correct":32,"Choice":-1,"RT":-1,"Accuracy":0,"Sham":0,"Outcome":"-10","Keys":[],"TotalKeys":0,"Block":1,"Trial":52,"Action":"Go","Robot":3,"trial_type":"pit-trial","trial_index":64,"time_elapsed":334824,"internal_node_id":"0.0-64.0"},{"Valence":"Win","Color":"#3366ff99","Rune":"04","Correct":-1,"Choice":-1,"RT":-1,"Accuracy":1,"Sham":0,"Outcome":"+10","Keys":[],"TotalKeys":0,"Block":1,"Trial":53,"Action":"No-Go","Robot":2,"trial_type":"pit-trial","trial_index":65,"time_elapsed":338835,"internal_node_id":"0.0-65.0"},{"Valence":"Lose","Color":"#ffcc3399","Rune":"05","Correct":32,"Choice":32,"RT":1427.8599999961443,"Accuracy":1,"Sham":0,"Outcome":"-1","Keys":[2928.649999987101],"TotalKeys":1,"Block":1,"Trial":54,"Action":"Go","Robot":3,"trial_type":"pit-trial","trial_index":66,"time_elapsed":342767,"internal_node_id":"0.0-66.0"},{"Valence":"Lose","Color":"#ffcc3399","Rune":"06","Correct":-1,"Choice":32,"RT":1368.0250000033993,"Accuracy":0,"Sham":0,"Outcome":"-10","Keys":[2868.2799999951385],"TotalKeys":1,"Block":1,"Trial":55,"Action":"No-Go","Robot":4,"trial_type":"pit-trial","trial_index":67,"time_elapsed":346643,"internal_node_id":"0.0-67.0"},{"Valence":"Win","Color":"#3366ff99","Rune":"03","Correct":32,"Choice":32,"RT":340.83500000997446,"Accuracy":1,"Sham":0,"Outcome":"+10","Keys":[1841.5150000073481],"TotalKeys":1,"Block":1,"Trial":56,"Action":"Go","Robot":1,"trial_type":"pit-trial","trial_index":68,"time_elapsed":349487,"internal_node_id":"0.0-68.0"},{"Valence":"Win","Color":"#3366ff99","Rune":"03","Correct":32,"Choice":32,"RT":554.5749999873806,"Accuracy":1,"Sham":1,"Outcome":"1","Keys":[2056.4700000104494],"TotalKeys":1,"Block":1,"Trial":57,"Action":"Go","Robot":1,"trial_type":"pit-trial","trial_index":69,"time_elapsed":352551,"internal_node_id":"0.0-69.0"},{"Valence":"Lose","Color":"#ffcc3399","Rune":"05","Correct":32,"Choice":-1,"RT":-1,"Accuracy":0,"Sham":0,"Outcome":"-10","Keys":[],"TotalKeys":0,"Block":1,"Trial":58,"Action":"Go","Robot":3,"trial_type":"pit-trial","trial_index":70,"time_elapsed":356564,"internal_node_id":"0.0-70.0"},{"Valence":"Lose","Color":"#ffcc3399","Rune":"06","Correct":-1,"Choice":-1,"RT":-1,"Accuracy":1,"Sham":1,"Outcome":"-10","Keys":[],"TotalKeys":0,"Block":1,"Trial":59,"Action":"No-Go","Robot":4,"trial_type":"pit-trial","trial_index":71,"time_elapsed":360573,"internal_node_id":"0.0-71.0"},{"Valence":"Win","Color":"#3366ff99","Rune":"04","Correct":-1,"Choice":32,"RT":935.3049999917857,"Accuracy":0,"Sham":0,"Outcome":"+1","Keys":[2436.084999993909],"TotalKeys":1,"Block":1,"Trial":60,"Action":"No-Go","Robot":2,"trial_type":"pit-trial","trial_index":72,"time_elapsed":364014,"internal_node_id":"0.0-72.0"},{"Valence":"Win","Color":"#3366ff99","Rune":"04","Correct":-1,"Choice":-1,"RT":-1,"Accuracy":1,"Sham":0,"Outcome":"+10","Keys":[],"TotalKeys":0,"Block":1,"Trial":61,"Action":"No-Go","Robot":2,"trial_type":"pit-trial","trial_index":73,"time_elapsed":368021,"internal_node_id":"0.0-73.0"},{"Valence":"Lose","Color":"#ffcc3399","Rune":"05","Correct":32,"Choice":-1,"RT":-1,"Accuracy":0,"Sham":0,"Outcome":"-10","Keys":[],"TotalKeys":0,"Block":1,"Trial":62,"Action":"Go","Robot":3,"trial_type":"pit-trial","trial_index":74,"time_elapsed":372028,"internal_node_id":"0.0-74.0"},{"Valence":"Lose","Color":"#ffcc3399","Rune":"06","Correct":-1,"Choice":32,"RT":899.5749999885447,"Accuracy":0,"Sham":0,"Outcome":"-10","Keys":[2400.679999991553],"TotalKeys":1,"Block":1,"Trial":63,"Action":"No-Go","Robot":4,"trial_type":"pit-trial","trial_index":75,"time_elapsed":375434,"internal_node_id":"0.0-75.0"},{"Valence":"Win","Color":"#3366ff99","Rune":"03","Correct":32,"Choice":32,"RT":525.6850000005215,"Accuracy":1,"Sham":0,"Outcome":"+10","Keys":[2025.8000000030734],"TotalKeys":1,"Block":1,"Trial":64,"Action":"Go","Robot":1,"trial_type":"pit-trial","trial_index":76,"time_elapsed":378462,"internal_node_id":"0.0-76.0"},{"Valence":"Win","Color":"#3366ff99","Rune":"04","Correct":-1,"Choice":-1,"RT":-1,"Accuracy":1,"Sham":0,"Outcome":"+10","Keys":[],"TotalKeys":0,"Block":1,"Trial":65,"Action":"No-Go","Robot":2,"trial_type":"pit-trial","trial_index":77,"time_elapsed":382466,"internal_node_id":"0.0-77.0"},{"Valence":"Lose","Color":"#ffcc3399","Rune":"06","Correct":-1,"Choice":-1,"RT":-1,"Accuracy":1,"Sham":0,"Outcome":"-1","Keys":[],"TotalKeys":0,"Block":1,"Trial":66,"Action":"No-Go","Robot":4,"trial_type":"pit-trial","trial_index":78,"time_elapsed":386475,"internal_node_id":"0.0-78.0"},{"Valence":"Win","Color":"#3366ff99","Rune":"03","Correct":32,"Choice":32,"RT":428.8499999966007,"Accuracy":1,"Sham":1,"Outcome":"1","Keys":[1931.27000000095],"TotalKeys":1,"Block":1,"Trial":67,"Action":"Go","Robot":1,"trial_type":"pit-trial","trial_index":79,"time_elapsed":389412,"internal_node_id":"0.0-79.0"},{"Valence":"Lose","Color":"#ffcc3399","Rune":"05","Correct":32,"Choice":-1,"RT":-1,"Accuracy":0,"Sham":0,"Outcome":"-10","Keys":[],"TotalKeys":0,"Block":1,"Trial":68,"Action":"Go","Robot":3,"trial_type":"pit-trial","trial_index":80,"time_elapsed":393423,"internal_node_id":"0.0-80.0"},{"Valence":"Lose","Color":"#ffcc3399","Rune":"06","Correct":-1,"Choice":32,"RT":1013.7600000016391,"Accuracy":0,"Sham":1,"Outcome":"-1","Keys":[2513.8300000107847],"TotalKeys":1,"Block":1,"Trial":69,"Action":"No-Go","Robot":4,"trial_type":"pit-trial","trial_index":81,"time_elapsed":396944,"internal_node_id":"0.0-81.0"},{"Valence":"Lose","Color":"#ffcc3399","Rune":"05","Correct":32,"Choice":32,"RT":1318.570000003092,"Accuracy":1,"Sham":0,"Outcome":"-1","Keys":[2818.8300000038],"TotalKeys":1,"Block":1,"Trial":70,"Action":"Go","Robot":3,"trial_type":"pit-trial","trial_index":82,"time_elapsed":400768,"internal_node_id":"0.0-82.0"},{"Valence":"Win","Color":"#3366ff99","Rune":"03","Correct":32,"Choice":32,"RT":453.58000000123866,"Accuracy":1,"Sham":0,"Outcome":"+10","Keys":[1954.584999999497],"TotalKeys":1,"Block":1,"Trial":71,"Action":"Go","Robot":1,"trial_type":"pit-trial","trial_index":83,"time_elapsed":403728,"internal_node_id":"0.0-83.0"},{"Valence":"Win","Color":"#3366ff99","Rune":"04","Correct":-1,"Choice":-1,"RT":-1,"Accuracy":1,"Sham":0,"Outcome":"+10","Keys":[],"TotalKeys":0,"Block":1,"Trial":72,"Action":"No-Go","Robot":2,"trial_type":"pit-trial","trial_index":84,"time_elapsed":407736,"internal_node_id":"0.0-84.0"},{"Valence":"Win","Color":"#3366ff99","Rune":"04","Correct":-1,"Choice":-1,"RT":-1,"Accuracy":1,"Sham":0,"Outcome":"+10","Keys":[],"TotalKeys":0,"Block":1,"Trial":73,"Action":"No-Go","Robot":2,"trial_type":"pit-trial","trial_index":85,"time_elapsed":411746,"internal_node_id":"0.0-85.0"},{"Valence":"Lose","Color":"#ffcc3399","Rune":"05","Correct":32,"Choice":32,"RT":1192.4500000022817,"Accuracy":1,"Sham":1,"Outcome":"-10","Keys":[2693.0949999950826],"TotalKeys":1,"Block":1,"Trial":74,"Action":"Go","Robot":3,"trial_type":"pit-trial","trial_index":86,"time_elapsed":415445,"internal_node_id":"0.0-86.0"},{"Valence":"Win","Color":"#3366ff99","Rune":"03","Correct":32,"Choice":32,"RT":581.319999997504,"Accuracy":1,"Sham":0,"Outcome":"+10","Keys":[2083.3649999985937],"TotalKeys":1,"Block":1,"Trial":75,"Action":"Go","Robot":1,"trial_type":"pit-trial","trial_index":87,"time_elapsed":418535,"internal_node_id":"0.0-87.0"},{"Valence":"Lose","Color":"#ffcc3399","Rune":"06","Correct":-1,"Choice":-1,"RT":-1,"Accuracy":1,"Sham":0,"Outcome":"-1","Keys":[],"TotalKeys":0,"Block":1,"Trial":76,"Action":"No-Go","Robot":4,"trial_type":"pit-trial","trial_index":88,"time_elapsed":422542,"internal_node_id":"0.0-88.0"},{"Valence":"Win","Color":"#3366ff99","Rune":"04","Correct":-1,"Choice":-1,"RT":-1,"Accuracy":1,"Sham":1,"Outcome":"1","Keys":[],"TotalKeys":0,"Block":1,"Trial":77,"Action":"No-Go","Robot":2,"trial_type":"pit-trial","trial_index":89,"time_elapsed":426548,"internal_node_id":"0.0-89.0"},{"Valence":"Win","Color":"#3366ff99","Rune":"03","Correct":32,"Choice":32,"RT":520.2949999948032,"Accuracy":1,"Sham":0,"Outcome":"+10","Keys":[2020.554999995511],"TotalKeys":1,"Block":1,"Trial":78,"Action":"Go","Robot":1,"trial_type":"pit-trial","trial_index":90,"time_elapsed":429573,"internal_node_id":"0.0-90.0"},{"Valence":"Lose","Color":"#ffcc3399","Rune":"06","Correct":-1,"Choice":-1,"RT":-1,"Accuracy":1,"Sham":0,"Outcome":"-1","Keys":[],"TotalKeys":0,"Block":1,"Trial":79,"Action":"No-Go","Robot":4,"trial_type":"pit-trial","trial_index":91,"time_elapsed":433580,"internal_node_id":"0.0-91.0"},{"Valence":"Lose","Color":"#ffcc3399","Rune":"05","Correct":32,"Choice":-1,"RT":-1,"Accuracy":0,"Sham":0,"Outcome":"-10","Keys":[],"TotalKeys":0,"Block":1,"Trial":80,"Action":"Go","Robot":3,"trial_type":"pit-trial","trial_index":92,"time_elapsed":437590,"internal_node_id":"0.0-92.0"},{"value":false,"trial_type":"call-function","trial_index":93,"time_elapsed":437592,"internal_node_id":"0.0-93.0"},{"RT":4147.239999991143,"trial_type":"pit-pause","trial_index":94,"time_elapsed":447094,"internal_node_id":"0.0-94.0"},{"Valence":"Win","Color":"#3366ff99","Rune":"03","Correct":32,"Choice":32,"RT":529.7649999847636,"Accuracy":1,"Sham":0,"Outcome":"+10","Keys":[2030.1499999768566],"TotalKeys":1,"Block":2,"Trial":81,"Action":"Go","Robot":1,"trial_type":"pit-trial","trial_index":95,"time_elapsed":450128,"internal_node_id":"0.0-95.0"},{"Valence":"Win","Color":"#3366ff99","Rune":"04","Correct":-1,"Choice":-1,"RT":-1,"Accuracy":1,"Sham":0,"Outcome":"+10","Keys":[],"TotalKeys":0,"Block":2,"Trial":82,"Action":"No-Go","Robot":2,"trial_type":"pit-trial","trial_index":96,"time_elapsed":454136,"internal_node_id":"0.0-96.0"},{"Valence":"Lose","Color":"#ffcc3399","Rune":"06","Correct":-1,"Choice":-1,"RT":-1,"Accuracy":1,"Sham":0,"Outcome":"-1","Keys":[],"TotalKeys":0,"Block":2,"Trial":83,"Action":"No-Go","Robot":4,"trial_type":"pit-trial","trial_index":97,"time_elapsed":458146,"internal_node_id":"0.0-97.0"},{"Valence":"Lose","Color":"#ffcc3399","Rune":"05","Correct":32,"Choice":32,"RT":439.93500000215136,"Accuracy":1,"Sham":0,"Outcome":"-1","Keys":[1940.2650000120047],"TotalKeys":1,"Block":2,"Trial":84,"Action":"Go","Robot":3,"trial_type":"pit-trial","trial_index":98,"time_elapsed":461089,"internal_node_id":"0.0-98.0"},{"Valence":"Win","Color":"#3366ff99","Rune":"03","Correct":32,"Choice":32,"RT":582.460000005085,"Accuracy":1,"Sham":0,"Outcome":"+10","Keys":[2084.614999999758],"TotalKeys":1,"Block":2,"Trial":85,"Action":"Go","Robot":1,"trial_type":"pit-trial","trial_index":99,"time_elapsed":464176,"internal_node_id":"0.0-99.0"},{"Valence":"Win","Color":"#3366ff99","Rune":"04","Correct":-1,"Choice":-1,"RT":-1,"Accuracy":1,"Sham":0,"Outcome":"+10","Keys":[],"TotalKeys":0,"Block":2,"Trial":86,"Action":"No-Go","Robot":2,"trial_type":"pit-trial","trial_index":100,"time_elapsed":468181,"internal_node_id":"0.0-100.0"},{"Valence":"Lose","Color":"#ffcc3399","Rune":"05","Correct":32,"Choice":32,"RT":573.8450000062585,"Accuracy":1,"Sham":0,"Outcome":"-1","Keys":[2073.9400000020396],"TotalKeys":1,"Block":2,"Trial":87,"Action":"Go","Robot":3,"trial_type":"pit-trial","trial_index":101,"time_elapsed":471258,"internal_node_id":"0.0-101.0"},{"Valence":"Lose","Color":"#ffcc3399","Rune":"06","Correct":-1,"Choice":-1,"RT":-1,"Accuracy":1,"Sham":0,"Outcome":"-1","Keys":[],"TotalKeys":0,"Block":2,"Trial":88,"Action":"No-Go","Robot":4,"trial_type":"pit-trial","trial_index":102,"time_elapsed":475263,"internal_node_id":"0.0-102.0"},{"Valence":"Lose","Color":"#ffcc3399","Rune":"05","Correct":32,"Choice":32,"RT":879.1199999977835,"Accuracy":1,"Sham":1,"Outcome":"-10","Keys":[2379.259999986971],"TotalKeys":1,"Block":2,"Trial":89,"Action":"Go","Robot":3,"trial_type":"pit-trial","trial_index":103,"time_elapsed":478649,"internal_node_id":"0.0-103.0"},{"Valence":"Win","Color":"#3366ff99","Rune":"03","Correct":32,"Choice":32,"RT":518.5599999967963,"Accuracy":1,"Sham":1,"Outcome":"1","Keys":[2018.9700000046287],"TotalKeys":1,"Block":2,"Trial":90,"Action":"Go","Robot":1,"trial_type":"pit-trial","trial_index":104,"time_elapsed":481673,"internal_node_id":"0.0-104.0"},{"Valence":"Win","Color":"#3366ff99","Rune":"04","Correct":-1,"Choice":-1,"RT":-1,"Accuracy":1,"Sham":0,"Outcome":"+10","Keys":[],"TotalKeys":0,"Block":2,"Trial":91,"Action":"No-Go","Robot":2,"trial_type":"pit-trial","trial_index":105,"time_elapsed":485682,"internal_node_id":"0.0-105.0"},{"Valence":"Lose","Color":"#ffcc3399","Rune":"06","Correct":-1,"Choice":-1,"RT":-1,"Accuracy":1,"Sham":0,"Outcome":"-1","Keys":[],"TotalKeys":0,"Block":2,"Trial":92,"Action":"No-Go","Robot":4,"trial_type":"pit-trial","trial_index":106,"time_elapsed":489688,"internal_node_id":"0.0-106.0"},{"Valence":"Lose","Color":"#ffcc3399","Rune":"06","Correct":-1,"Choice":-1,"RT":-1,"Accuracy":1,"Sham":0,"Outcome":"-1","Keys":[],"TotalKeys":0,"Block":2,"Trial":93,"Action":"No-Go","Robot":4,"trial_type":"pit-trial","trial_index":107,"time_elapsed":493695,"internal_node_id":"0.0-107.0"},{"Valence":"Win","Color":"#3366ff99","Rune":"03","Correct":32,"Choice":32,"RT":591.9500000018161,"Accuracy":1,"Sham":0,"Outcome":"+10","Keys":[2092.164999980014],"TotalKeys":1,"Block":2,"Trial":94,"Action":"Go","Robot":1,"trial_type":"pit-trial","trial_index":108,"time_elapsed":496792,"internal_node_id":"0.0-108.0"},{"Valence":"Lose","Color":"#ffcc3399","Rune":"05","Correct":32,"Choice":32,"RT":717.2200000204612,"Accuracy":1,"Sham":0,"Outcome":"-1","Keys":[2218.4549999947194],"TotalKeys":1,"Block":2,"Trial":95,"Action":"Go","Robot":3,"trial_type":"pit-trial","trial_index":109,"time_elapsed":500015,"internal_node_id":"0.0-109.0"},{"Valence":"Win","Color":"#3366ff99","Rune":"04","Correct":-1,"Choice":-1,"RT":-1,"Accuracy":1,"Sham":1,"Outcome":"1","Keys":[],"TotalKeys":0,"Block":2,"Trial":96,"Action":"No-Go","Robot":2,"trial_type":"pit-trial","trial_index":110,"time_elapsed":504024,"internal_node_id":"0.0-110.0"},{"Valence":"Lose","Color":"#ffcc3399","Rune":"06","Correct":-1,"Choice":32,"RT":1313.7450000212993,"Accuracy":0,"Sham":1,"Outcome":"-1","Keys":[2816.545000008773],"TotalKeys":1,"Block":2,"Trial":97,"Action":"No-Go","Robot":4,"trial_type":"pit-trial","trial_index":111,"time_elapsed":507844,"internal_node_id":"0.0-111.0"},{"Valence":"Win","Color":"#3366ff99","Rune":"03","Correct":32,"Choice":32,"RT":619.6300000010524,"Accuracy":1,"Sham":0,"Outcome":"+10","Keys":[2120.630000019446],"TotalKeys":1,"Block":2,"Trial":98,"Action":"Go","Robot":1,"trial_type":"pit-trial","trial_index":112,"time_elapsed":510969,"internal_node_id":"0.0-112.0"},{"Valence":"Lose","Color":"#ffcc3399","Rune":"05","Correct":32,"Choice":32,"RT":966.004999994766,"Accuracy":1,"Sham":0,"Outcome":"-1","Keys":[2466.085000021849],"TotalKeys":1,"Block":2,"Trial":99,"Action":"Go","Robot":3,"trial_type":"pit-trial","trial_index":113,"time_elapsed":514440,"internal_node_id":"0.0-113.0"},{"Valence":"Win","Color":"#3366ff99","Rune":"04","Correct":-1,"Choice":-1,"RT":-1,"Accuracy":1,"Sham":0,"Outcome":"+10","Keys":[],"TotalKeys":0,"Block":2,"Trial":100,"Action":"No-Go","Robot":2,"trial_type":"pit-trial","trial_index":114,"time_elapsed":518446,"internal_node_id":"0.0-114.0"},{"Valence":"Lose","Color":"#ffcc3399","Rune":"06","Correct":-1,"Choice":-1,"RT":-1,"Accuracy":1,"Sham":0,"Outcome":"-1","Keys":[],"TotalKeys":0,"Block":2,"Trial":101,"Action":"No-Go","Robot":4,"trial_type":"pit-trial","trial_index":115,"time_elapsed":522454,"internal_node_id":"0.0-115.0"},{"Valence":"Lose","Color":"#ffcc3399","Rune":"05","Correct":32,"Choice":32,"RT":747.784999985015,"Accuracy":1,"Sham":0,"Outcome":"-1","Keys":[2249.039999995148],"TotalKeys":1,"Block":2,"Trial":102,"Action":"Go","Robot":3,"trial_type":"pit-trial","trial_index":116,"time_elapsed":525705,"internal_node_id":"0.0-116.0"},{"Valence":"Win","Color":"#3366ff99","Rune":"03","Correct":32,"Choice":32,"RT":582.0200000016484,"Accuracy":1,"Sham":1,"Outcome":"1","Keys":[2082.299999980023],"TotalKeys":1,"Block":2,"Trial":103,"Action":"Go","Robot":1,"trial_type":"pit-trial","trial_index":117,"time_elapsed":528792,"internal_node_id":"0.0-117.0"},{"Valence":"Win","Color":"#3366ff99","Rune":"04","Correct":-1,"Choice":-1,"RT":-1,"Accuracy":1,"Sham":1,"Outcome":"1","Keys":[],"TotalKeys":0,"Block":2,"Trial":104,"Action":"No-Go","Robot":2,"trial_type":"pit-trial","trial_index":118,"time_elapsed":532801,"internal_node_id":"0.0-118.0"},{"Valence":"Lose","Color":"#ffcc3399","Rune":"05","Correct":32,"Choice":32,"RT":875.6850000063423,"Accuracy":1,"Sham":0,"Outcome":"-1","Keys":[2376.445000001695],"TotalKeys":1,"Block":2,"Trial":105,"Action":"Go","Robot":3,"trial_type":"pit-trial","trial_index":119,"time_elapsed":536179,"internal_node_id":"0.0-119.0"},{"Valence":"Win","Color":"#3366ff99","Rune":"03","Correct":32,"Choice":32,"RT":560.7299999974202,"Accuracy":1,"Sham":0,"Outcome":"+10","Keys":[2061.1949999874923],"TotalKeys":1,"Block":2,"Trial":106,"Action":"Go","Robot":1,"trial_type":"pit-trial","trial_index":120,"time_elapsed":539245,"internal_node_id":"0.0-120.0"},{"Valence":"Win","Color":"#3366ff99","Rune":"04","Correct":-1,"Choice":-1,"RT":-1,"Accuracy":1,"Sham":0,"Outcome":"+10","Keys":[],"TotalKeys":0,"Block":2,"Trial":107,"Action":"No-Go","Robot":2,"trial_type":"pit-trial","trial_index":121,"time_elapsed":543252,"internal_node_id":"0.0-121.0"},{"Valence":"Lose","Color":"#ffcc3399","Rune":"06","Correct":-1,"Choice":-1,"RT":-1,"Accuracy":1,"Sham":0,"Outcome":"-1","Keys":[],"TotalKeys":0,"Block":2,"Trial":108,"Action":"No-Go","Robot":4,"trial_type":"pit-trial","trial_index":122,"time_elapsed":547262,"internal_node_id":"0.0-122.0"},{"Valence":"Win","Color":"#3366ff99","Rune":"04","Correct":-1,"Choice":-1,"RT":-1,"Accuracy":1,"Sham":0,"Outcome":"+10","Keys":[],"TotalKeys":0,"Block":2,"Trial":109,"Action":"No-Go","Robot":2,"trial_type":"pit-trial","trial_index":123,"time_elapsed":551269,"internal_node_id":"0.0-123.0"},{"Valence":"Lose","Color":"#ffcc3399","Rune":"06","Correct":-1,"Choice":-1,"RT":-1,"Accuracy":1,"Sham":0,"Outcome":"-1","Keys":[],"TotalKeys":0,"Block":2,"Trial":110,"Action":"No-Go","Robot":4,"trial_type":"pit-trial","trial_index":124,"time_elapsed":555279,"internal_node_id":"0.0-124.0"},{"Valence":"Win","Color":"#3366ff99","Rune":"03","Correct":32,"Choice":32,"RT":528.4899999969639,"Accuracy":1,"Sham":0,"Outcome":"+10","Keys":[2029.2049999989104],"TotalKeys":1,"Block":2,"Trial":111,"Action":"Go","Robot":1,"trial_type":"pit-trial","trial_index":125,"time_elapsed":558314,"internal_node_id":"0.0-125.0"},{"Valence":"Lose","Color":"#ffcc3399","Rune":"05","Correct":32,"Choice":32,"RT":845.5850000027567,"Accuracy":1,"Sham":0,"Outcome":"-1","Keys":[2346.2299999955576],"TotalKeys":1,"Block":2,"Trial":112,"Action":"Go","Robot":3,"trial_type":"pit-trial","trial_index":126,"time_elapsed":561667,"internal_node_id":"0.0-126.0"},{"Valence":"Win","Color":"#3366ff99","Rune":"04","Correct":-1,"Choice":-1,"RT":-1,"Accuracy":1,"Sham":0,"Outcome":"+10","Keys":[],"TotalKeys":0,"Block":2,"Trial":113,"Action":"No-Go","Robot":2,"trial_type":"pit-trial","trial_index":127,"time_elapsed":565679,"internal_node_id":"0.0-127.0"},{"Valence":"Lose","Color":"#ffcc3399","Rune":"06","Correct":-1,"Choice":-1,"RT":-1,"Accuracy":1,"Sham":0,"Outcome":"-1","Keys":[],"TotalKeys":0,"Block":2,"Trial":114,"Action":"No-Go","Robot":4,"trial_type":"pit-trial","trial_index":128,"time_elapsed":569681,"internal_node_id":"0.0-128.0"},{"Valence":"Lose","Color":"#ffcc3399","Rune":"05","Correct":32,"Choice":32,"RT":758.8700000196695,"Accuracy":1,"Sham":1,"Outcome":"-10","Keys":[2259.0150000178255],"TotalKeys":1,"Block":2,"Trial":115,"Action":"Go","Robot":3,"trial_type":"pit-trial","trial_index":129,"time_elapsed":572943,"internal_node_id":"0.0-129.0"},{"Valence":"Win","Color":"#3366ff99","Rune":"03","Correct":32,"Choice":32,"RT":545.830000017304,"Accuracy":1,"Sham":0,"Outcome":"+10","Keys":[2047.7050000044983],"TotalKeys":1,"Block":2,"Trial":116,"Action":"Go","Robot":1,"trial_type":"pit-trial","trial_index":130,"time_elapsed":575997,"internal_node_id":"0.0-130.0"},{"Valence":"Lose","Color":"#ffcc3399","Rune":"06","Correct":-1,"Choice":-1,"RT":-1,"Accuracy":1,"Sham":1,"Outcome":"-10","Keys":[],"TotalKeys":0,"Block":2,"Trial":117,"Action":"No-Go","Robot":4,"trial_type":"pit-trial","trial_index":131,"time_elapsed":580007,"internal_node_id":"0.0-131.0"},{"Valence":"Lose","Color":"#ffcc3399","Rune":"05","Correct":32,"Choice":32,"RT":747.9549999989104,"Accuracy":1,"Sham":0,"Outcome":"-1","Keys":[2248.0800000193994],"TotalKeys":1,"Block":2,"Trial":118,"Action":"Go","Robot":3,"trial_type":"pit-trial","trial_index":132,"time_elapsed":583257,"internal_node_id":"0.0-132.0"},{"Valence":"Win","Color":"#3366ff99","Rune":"04","Correct":-1,"Choice":-1,"RT":-1,"Accuracy":1,"Sham":0,"Outcome":"+10","Keys":[],"TotalKeys":0,"Block":2,"Trial":119,"Action":"No-Go","Robot":2,"trial_type":"pit-trial","trial_index":133,"time_elapsed":587266,"internal_node_id":"0.0-133.0"},{"Valence":"Win","Color":"#3366ff99","Rune":"03","Correct":32,"Choice":32,"RT":461.55500001623295,"Accuracy":1,"Sham":0,"Outcome":"+10","Keys":[1961.8250000057742],"TotalKeys":1,"Block":2,"Trial":120,"Action":"Go","Robot":1,"trial_type":"pit-trial","trial_index":134,"time_elapsed":590234,"internal_node_id":"0.0-134.0"},{"Valence":"Win","Color":"#3366ff99","Rune":"04","Correct":-1,"Choice":-1,"RT":-1,"Accuracy":1,"Sham":0,"Outcome":"+10","Keys":[],"TotalKeys":0,"Block":2,"Trial":121,"Action":"No-Go","Robot":2,"trial_type":"pit-trial","trial_index":135,"time_elapsed":594244,"internal_node_id":"0.0-135.0"},{"Valence":"Lose","Color":"#ffcc3399","Rune":"06","Correct":-1,"Choice":-1,"RT":-1,"Accuracy":1,"Sham":0,"Outcome":"-1","Keys":[],"TotalKeys":0,"Block":2,"Trial":122,"Action":"No-Go","Robot":4,"trial_type":"pit-trial","trial_index":136,"time_elapsed":598251,"internal_node_id":"0.0-136.0"},{"Valence":"Lose","Color":"#ffcc3399","Rune":"05","Correct":32,"Choice":32,"RT":683.8799999968614,"Accuracy":1,"Sham":0,"Outcome":"-1","Keys":[2184.28999997559],"TotalKeys":1,"Block":2,"Trial":123,"Action":"Go","Robot":3,"trial_type":"pit-trial","trial_index":137,"time_elapsed":601438,"internal_node_id":"0.0-137.0"},{"Valence":"Win","Color":"#3366ff99","Rune":"03","Correct":32,"Choice":32,"RT":542.0049999956973,"Accuracy":1,"Sham":1,"Outcome":"1","Keys":[2042.4150000035297],"TotalKeys":1,"Block":2,"Trial":124,"Action":"Go","Robot":1,"trial_type":"pit-trial","trial_index":138,"time_elapsed":604485,"internal_node_id":"0.0-138.0"},{"Valence":"Lose","Color":"#ffcc3399","Rune":"05","Correct":32,"Choice":32,"RT":646.4250000135507,"Accuracy":1,"Sham":1,"Outcome":"-10","Keys":[2146.5949999983422],"TotalKeys":1,"Block":2,"Trial":125,"Action":"Go","Robot":3,"trial_type":"pit-trial","trial_index":139,"time_elapsed":607637,"internal_node_id":"0.0-139.0"},{"Valence":"Lose","Color":"#ffcc3399","Rune":"06","Correct":-1,"Choice":-1,"RT":-1,"Accuracy":1,"Sham":0,"Outcome":"-1","Keys":[],"TotalKeys":0,"Block":2,"Trial":126,"Action":"No-Go","Robot":4,"trial_type":"pit-trial","trial_index":140,"time_elapsed":611643,"internal_node_id":"0.0-140.0"},{"Valence":"Win","Color":"#3366ff99","Rune":"04","Correct":-1,"Choice":-1,"RT":-1,"Accuracy":1,"Sham":0,"Outcome":"+10","Keys":[],"TotalKeys":0,"Block":2,"Trial":127,"Action":"No-Go","Robot":2,"trial_type":"pit-trial","trial_index":141,"time_elapsed":615651,"internal_node_id":"0.0-141.0"},{"Valence":"Win","Color":"#3366ff99","Rune":"03","Correct":32,"Choice":32,"RT":534.3149999971502,"Accuracy":1,"Sham":0,"Outcome":"+10","Keys":[2034.5049999887124],"TotalKeys":1,"Block":2,"Trial":128,"Action":"Go","Robot":1,"trial_type":"pit-trial","trial_index":142,"time_elapsed":618691,"internal_node_id":"0.0-142.0"},{"Valence":"Lose","Color":"#ffcc3399","Rune":"06","Correct":-1,"Choice":-1,"RT":-1,"Accuracy":1,"Sham":0,"Outcome":"-1","Keys":[],"TotalKeys":0,"Block":2,"Trial":129,"Action":"No-Go","Robot":4,"trial_type":"pit-trial","trial_index":143,"time_elapsed":622693,"internal_node_id":"0.0-143.0"},{"Valence":"Win","Color":"#3366ff99","Rune":"03","Correct":32,"Choice":32,"RT":607.6349999930244,"Accuracy":1,"Sham":0,"Outcome":"+10","Keys":[2109.5949999871664],"TotalKeys":1,"Block":2,"Trial":130,"Action":"Go","Robot":1,"trial_type":"pit-trial","trial_index":144,"time_elapsed":625804,"internal_node_id":"0.0-144.0"},{"Valence":"Lose","Color":"#ffcc3399","Rune":"05","Correct":32,"Choice":32,"RT":856.0700000089128,"Accuracy":1,"Sham":0,"Outcome":"-1","Keys":[2356.4100000075996],"TotalKeys":1,"Block":2,"Trial":131,"Action":"Go","Robot":3,"trial_type":"pit-trial","trial_index":145,"time_elapsed":629164,"internal_node_id":"0.0-145.0"},{"Valence":"Win","Color":"#3366ff99","Rune":"04","Correct":-1,"Choice":-1,"RT":-1,"Accuracy":1,"Sham":0,"Outcome":"+10","Keys":[],"TotalKeys":0,"Block":2,"Trial":132,"Action":"No-Go","Robot":2,"trial_type":"pit-trial","trial_index":146,"time_elapsed":633173,"internal_node_id":"0.0-146.0"},{"Valence":"Lose","Color":"#ffcc3399","Rune":"06","Correct":-1,"Choice":-1,"RT":-1,"Accuracy":1,"Sham":0,"Outcome":"-1","Keys":[],"TotalKeys":0,"Block":2,"Trial":133,"Action":"No-Go","Robot":4,"trial_type":"pit-trial","trial_index":147,"time_elapsed":637180,"internal_node_id":"0.0-147.0"},{"Valence":"Win","Color":"#3366ff99","Rune":"03","Correct":32,"Choice":32,"RT":628.0700000061188,"Accuracy":1,"Sham":0,"Outcome":"+10","Keys":[2129.190000006929],"TotalKeys":1,"Block":2,"Trial":134,"Action":"Go","Robot":1,"trial_type":"pit-trial","trial_index":148,"time_elapsed":640314,"internal_node_id":"0.0-148.0"},{"Valence":"Lose","Color":"#ffcc3399","Rune":"05","Correct":32,"Choice":32,"RT":782.9250000067987,"Accuracy":1,"Sham":0,"Outcome":"-1","Keys":[2283.0449999892153],"TotalKeys":1,"Block":2,"Trial":135,"Action":"Go","Robot":3,"trial_type":"pit-trial","trial_index":149,"time_elapsed":643599,"internal_node_id":"0.0-149.0"},{"Valence":"Win","Color":"#3366ff99","Rune":"04","Correct":-1,"Choice":-1,"RT":-1,"Accuracy":1,"Sham":0,"Outcome":"+10","Keys":[],"TotalKeys":0,"Block":2,"Trial":136,"Action":"No-Go","Robot":2,"trial_type":"pit-trial","trial_index":150,"time_elapsed":647601,"internal_node_id":"0.0-150.0"},{"Valence":"Lose","Color":"#ffcc3399","Rune":"06","Correct":-1,"Choice":-1,"RT":-1,"Accuracy":1,"Sham":1,"Outcome":"-10","Keys":[],"TotalKeys":0,"Block":2,"Trial":137,"Action":"No-Go","Robot":4,"trial_type":"pit-trial","trial_index":151,"time_elapsed":651612,"internal_node_id":"0.0-151.0"},{"Valence":"Win","Color":"#3366ff99","Rune":"03","Correct":32,"Choice":32,"RT":583.1449999823235,"Accuracy":1,"Sham":0,"Outcome":"+10","Keys":[2084.2849999899045],"TotalKeys":1,"Block":2,"Trial":138,"Action":"Go","Robot":1,"trial_type":"pit-trial","trial_index":152,"time_elapsed":654699,"internal_node_id":"0.0-152.0"},{"Valence":"Lose","Color":"#ffcc3399","Rune":"05","Correct":32,"Choice":32,"RT":943.4350000228733,"Accuracy":1,"Sham":0,"Outcome":"-1","Keys":[2443.614999996498],"TotalKeys":1,"Block":2,"Trial":139,"Action":"Go","Robot":3,"trial_type":"pit-trial","trial_index":153,"time_elapsed":658147,"internal_node_id":"0.0-153.0"},{"Valence":"Win","Color":"#3366ff99","Rune":"04","Correct":-1,"Choice":-1,"RT":-1,"Accuracy":1,"Sham":1,"Outcome":"1","Keys":[],"TotalKeys":0,"Block":2,"Trial":140,"Action":"No-Go","Robot":2,"trial_type":"pit-trial","trial_index":154,"time_elapsed":662155,"internal_node_id":"0.0-154.0"},{"Valence":"Win","Color":"#3366ff99","Rune":"04","Correct":-1,"Choice":-1,"RT":-1,"Accuracy":1,"Sham":1,"Outcome":"1","Keys":[],"TotalKeys":0,"Block":2,"Trial":141,"Action":"No-Go","Robot":2,"trial_type":"pit-trial","trial_index":155,"time_elapsed":666161,"internal_node_id":"0.0-155.0"},{"Valence":"Lose","Color":"#ffcc3399","Rune":"05","Correct":32,"Choice":32,"RT":688.4349999891128,"Accuracy":1,"Sham":0,"Outcome":"-1","Keys":[2189.9200000043493],"TotalKeys":1,"Block":2,"Trial":142,"Action":"Go","Robot":3,"trial_type":"pit-trial","trial_index":156,"time_elapsed":669353,"internal_node_id":"0.0-156.0"},{"Valence":"Win","Color":"#3366ff99","Rune":"03","Correct":32,"Choice":32,"RT":591.4000000047963,"Accuracy":1,"Sham":0,"Outcome":"+10","Keys":[2091.6200000210665],"TotalKeys":1,"Block":2,"Trial":143,"Action":"Go","Robot":1,"trial_type":"pit-trial","trial_index":157,"time_elapsed":672447,"internal_node_id":"0.0-157.0"},{"Valence":"Lose","Color":"#ffcc3399","Rune":"06","Correct":-1,"Choice":-1,"RT":-1,"Accuracy":1,"Sham":0,"Outcome":"-1","Keys":[],"TotalKeys":0,"Block":2,"Trial":144,"Action":"No-Go","Robot":4,"trial_type":"pit-trial","trial_index":158,"time_elapsed":676457,"internal_node_id":"0.0-158.0"},{"Valence":"Lose","Color":"#ffcc3399","Rune":"06","Correct":-1,"Choice":-1,"RT":-1,"Accuracy":1,"Sham":0,"Outcome":"-1","Keys":[],"TotalKeys":0,"Block":2,"Trial":145,"Action":"No-Go","Robot":4,"trial_type":"pit-trial","trial_index":159,"time_elapsed":680466,"internal_node_id":"0.0-159.0"},{"Valence":"Win","Color":"#3366ff99","Rune":"03","Correct":32,"Choice":32,"RT":572.4399999890011,"Accuracy":1,"Sham":0,"Outcome":"+10","Keys":[2072.764999989886],"TotalKeys":1,"Block":2,"Trial":146,"Action":"Go","Robot":1,"trial_type":"pit-trial","trial_index":160,"time_elapsed":683542,"internal_node_id":"0.0-160.0"},{"Valence":"Lose","Color":"#ffcc3399","Rune":"05","Correct":32,"Choice":32,"RT":828.2649999891873,"Accuracy":1,"Sham":0,"Outcome":"-1","Keys":[2329.200000007404],"TotalKeys":1,"Block":2,"Trial":147,"Action":"Go","Robot":3,"trial_type":"pit-trial","trial_index":161,"time_elapsed":686874,"internal_node_id":"0.0-161.0"},{"Valence":"Win","Color":"#3366ff99","Rune":"04","Correct":-1,"Choice":-1,"RT":-1,"Accuracy":1,"Sham":0,"Outcome":"+10","Keys":[],"TotalKeys":0,"Block":2,"Trial":148,"Action":"No-Go","Robot":2,"trial_type":"pit-trial","trial_index":162,"time_elapsed":690881,"internal_node_id":"0.0-162.0"},{"Valence":"Win","Color":"#3366ff99","Rune":"04","Correct":-1,"Choice":-1,"RT":-1,"Accuracy":1,"Sham":0,"Outcome":"+10","Keys":[],"TotalKeys":0,"Block":2,"Trial":149,"Action":"No-Go","Robot":2,"trial_type":"pit-trial","trial_index":163,"time_elapsed":694892,"internal_node_id":"0.0-163.0"},{"Valence":"Lose","Color":"#ffcc3399","Rune":"06","Correct":-1,"Choice":-1,"RT":-1,"Accuracy":1,"Sham":0,"Outcome":"-1","Keys":[],"TotalKeys":0,"Block":2,"Trial":150,"Action":"No-Go","Robot":4,"trial_type":"pit-trial","trial_index":164,"time_elapsed":698897,"internal_node_id":"0.0-164.0"},{"Valence":"Lose","Color":"#ffcc3399","Rune":"05","Correct":32,"Choice":32,"RT":725.5799999984447,"Accuracy":1,"Sham":0,"Outcome":"-1","Keys":[2225.685000012163],"TotalKeys":1,"Block":2,"Trial":151,"Action":"Go","Robot":3,"trial_type":"pit-trial","trial_index":165,"time_elapsed":702131,"internal_node_id":"0.0-165.0"},{"Valence":"Win","Color":"#3366ff99","Rune":"03","Correct":32,"Choice":32,"RT":416.14000001573004,"Accuracy":1,"Sham":0,"Outcome":"+10","Keys":[1916.300000011688],"TotalKeys":1,"Block":2,"Trial":152,"Action":"Go","Robot":1,"trial_type":"pit-trial","trial_index":166,"time_elapsed":705052,"internal_node_id":"0.0-166.0"},{"Valence":"Win","Color":"#3366ff99","Rune":"03","Correct":32,"Choice":32,"RT":524.5250000152737,"Accuracy":1,"Sham":0,"Outcome":"+10","Keys":[2024.8499999870546],"TotalKeys":1,"Block":2,"Trial":153,"Action":"Go","Robot":1,"trial_type":"pit-trial","trial_index":167,"time_elapsed":708081,"internal_node_id":"0.0-167.0"},{"Valence":"Lose","Color":"#ffcc3399","Rune":"06","Correct":-1,"Choice":-1,"RT":-1,"Accuracy":1,"Sham":0,"Outcome":"-1","Keys":[],"TotalKeys":0,"Block":2,"Trial":154,"Action":"No-Go","Robot":4,"trial_type":"pit-trial","trial_index":168,"time_elapsed":712094,"internal_node_id":"0.0-168.0"},{"Valence":"Lose","Color":"#ffcc3399","Rune":"05","Correct":32,"Choice":32,"RT":592.2450000070967,"Accuracy":1,"Sham":0,"Outcome":"-1","Keys":[2093.7099999864586],"TotalKeys":1,"Block":2,"Trial":155,"Action":"Go","Robot":3,"trial_type":"pit-trial","trial_index":169,"time_elapsed":715190,"internal_node_id":"0.0-169.0"},{"Valence":"Win","Color":"#3366ff99","Rune":"04","Correct":-1,"Choice":-1,"RT":-1,"Accuracy":1,"Sham":0,"Outcome":"+10","Keys":[],"TotalKeys":0,"Block":2,"Trial":156,"Action":"No-Go","Robot":2,"trial_type":"pit-trial","trial_index":170,"time_elapsed":719196,"internal_node_id":"0.0-170.0"},{"Valence":"Lose","Color":"#ffcc3399","Rune":"05","Correct":32,"Choice":32,"RT":680.0299999886192,"Accuracy":1,"Sham":1,"Outcome":"-10","Keys":[2180.740000010701],"TotalKeys":1,"Block":2,"Trial":157,"Action":"Go","Robot":3,"trial_type":"pit-trial","trial_index":171,"time_elapsed":722382,"internal_node_id":"0.0-171.0"},{"Valence":"Lose","Color":"#ffcc3399","Rune":"06","Correct":-1,"Choice":-1,"RT":-1,"Accuracy":1,"Sham":1,"Outcome":"-10","Keys":[],"TotalKeys":0,"Block":2,"Trial":158,"Action":"No-Go","Robot":4,"trial_type":"pit-trial","trial_index":172,"time_elapsed":726387,"internal_node_id":"0.0-172.0"},{"Valence":"Win","Color":"#3366ff99","Rune":"04","Correct":-1,"Choice":-1,"RT":-1,"Accuracy":1,"Sham":0,"Outcome":"+10","Keys":[],"TotalKeys":0,"Block":2,"Trial":159,"Action":"No-Go","Robot":2,"trial_type":"pit-trial","trial_index":173,"time_elapsed":730393,"internal_node_id":"0.0-173.0"},{"Valence":"Win","Color":"#3366ff99","Rune":"03","Correct":32,"Choice":32,"RT":478.21500001009554,"Accuracy":1,"Sham":1,"Outcome":"1","Keys":[1980.8149999880698],"TotalKeys":1,"Block":2,"Trial":160,"Action":"Go","Robot":1,"trial_type":"pit-trial","trial_index":174,"time_elapsed":733380,"internal_node_id":"0.0-174.0"},{"rt":15817.714999982854,"demographics":{"age":"34","gender-categorical":"Male","ethnicity":"Not Hispanic or Latino","race":"White","english":"Yes","fluency":"Very well"},"trial_type":"survey-demo","trial_index":175,"time_elapsed":749201,"internal_node_id":"0.0-175.0"},{"rt":75501.3049999834,"debriefgraphics":{"difficulty":"2","fun":"4","clarity":"5","strategy":"Just memorizing which symbols typically were associated with a failed inspection and which were a passing inspection. But it wasn't always consistent...","feedback":""},"trial_type":"survey-debrief","trial_index":176,"time_elapsed":824706,"internal_node_id":"0.0-176.0","interactions":"[{\"event\":\"blur\",\"trial\":176,\"time\":783431},{\"event\":\"focus\",\"trial\":176,\"time\":787743}]"}]