[{"view_history":"[{\"page_index\":0,\"viewing_time\":7535.2600000042},{\"page_index\":1,\"viewing_time\":6623.77999999444},{\"page_index\":2,\"viewing_time\":8897.90000001085},{\"page_index\":3,\"viewing_time\":4792.054999998072},{\"page_index\":4,\"viewing_time\":5381.024999995134}]","rt":33230.710000003455,"trial_type":"pit-instructions","trial_index":0,"time_elapsed":33232,"internal_node_id":"0.0-0.0"},{"Rune":"01","Correct":32,"Choice":32,"RT":1292.8200000023935,"Accuracy":1,"Sham":0,"Outcome":"+10","Keys":[2793.630000000121],"TotalKeys":1,"trial_type":"pit-trial","trial_index":1,"time_elapsed":37029,"internal_node_id":"0.0-1.0"},{"Rune":"01","Correct":32,"Choice":32,"RT":544.6549999905983,"Accuracy":1,"Sham":0,"Outcome":"+10","Keys":[2044.770000007702],"TotalKeys":1,"trial_type":"pit-trial","trial_index":2,"time_elapsed":40077,"internal_node_id":"0.0-2.0"},{"Rune":"01","Correct":32,"Choice":32,"RT":560.6249999982538,"Accuracy":1,"Sham":0,"Outcome":"+10","Keys":[2061.3650000013877],"TotalKeys":1,"trial_type":"pit-trial","trial_index":3,"time_elapsed":43141,"internal_node_id":"0.0-3.0"},{"Rune":"01","Correct":32,"Choice":32,"RT":585.3550000028918,"Accuracy":1,"Sham":0,"Outcome":"+10","Keys":[2085.6799999892246],"TotalKeys":1,"trial_type":"pit-trial","trial_index":4,"time_elapsed":46229,"internal_node_id":"0.0-4.0"},{"view_history":"[{\"page_index\":0,\"viewing_time\":5588.75499998976}]","rt":5589.139999996405,"trial_type":"pit-instructions","trial_index":5,"time_elapsed":51819,"internal_node_id":"0.0-5.0"},{"Rune":"02","Correct":-1,"Choice":-1,"RT":-1,"Accuracy":1,"Sham":0,"Outcome":"+10","Keys":[],"TotalKeys":0,"trial_type":"pit-trial","trial_index":6,"time_elapsed":55821,"internal_node_id":"0.0-6.0"},{"Rune":"02","Correct":-1,"Choice":-1,"RT":-1,"Accuracy":1,"Sham":0,"Outcome":"+10","Keys":[],"TotalKeys":0,"trial_type":"pit-trial","trial_index":7,"time_elapsed":59822,"internal_node_id":"0.0-7.0"},{"Rune":"02","Correct":-1,"Choice":-1,"RT":-1,"Accuracy":1,"Sham":0,"Outcome":"+10","Keys":[],"TotalKeys":0,"trial_type":"pit-trial","trial_index":8,"time_elapsed":63824,"internal_node_id":"0.0-8.0"},{"Rune":"02","Correct":-1,"Choice":-1,"RT":-1,"Accuracy":1,"Sham":0,"Outcome":"+10","Keys":[],"TotalKeys":0,"trial_type":"pit-trial","trial_index":9,"time_elapsed":67829,"internal_node_id":"0.0-9.0"},{"view_history":"[{\"page_index\":0,\"viewing_time\":3313.2649999897694},{\"page_index\":1,\"viewing_time\":7193.00500000827},{\"page_index\":2,\"viewing_time\":5611.959999994724},{\"page_index\":3,\"viewing_time\":4915.055000004941},{\"page_index\":4,\"viewing_time\":3215.009999999893},{\"page_index\":5,\"viewing_time\":3434.9849999998696},{\"page_index\":6,\"viewing_time\":2373.9449999993667},{\"page_index\":7,\"viewing_time\":1652.9849999933504}]","rt":31710.574999990058,"trial_type":"pit-instructions","trial_index":10,"time_elapsed":99540,"internal_node_id":"0.0-10.0"},{"rt":23534.720000010566,"responses":"{\"no-press\":\"Do nothing\",\"context-win\":\"+10\",\"context-lose\":\"+0\",\"feedback\":\"True\"}","errors":1,"trial_type":"pit-comprehension","trial_index":11,"time_elapsed":123077,"internal_node_id":"0.0-11.0"},{"view_history":"[{\"page_index\":0,\"viewing_time\":2124.985000002198}]","rt":2125.339999998687,"trial_type":"pit-instructions","trial_index":12,"time_elapsed":125205,"internal_node_id":"0.0-12.0"},{"Rune":"04","Correct":-1,"Choice":32,"RT":712.8499999962514,"Accuracy":0,"Sham":0,"Outcome":"+0","Keys":[2213.5750000015832],"TotalKeys":1,"Block":1,"Trial":1,"Valence":"Win","Action":"No-Go","Robot":2,"trial_type":"pit-trial","trial_index":13,"time_elapsed":128421,"internal_node_id":"0.0-13.0"},{"Rune":"05","Correct":32,"Choice":32,"RT":640.8250000094995,"Accuracy":1,"Sham":0,"Outcome":"+0","Keys":[2141.9049999967683],"TotalKeys":1,"Block":1,"Trial":2,"Valence":"Lose","Action":"Go","Robot":3,"trial_type":"pit-trial","trial_index":14,"time_elapsed":131565,"internal_node_id":"0.0-14.0"},{"Rune":"06","Correct":-1,"Choice":32,"RT":616.9500000105472,"Accuracy":0,"Sham":0,"Outcome":"-10","Keys":[2117.8099999960978],"TotalKeys":1,"Block":1,"Trial":3,"Valence":"Lose","Action":"No-Go","Robot":4,"trial_type":"pit-trial","trial_index":15,"time_elapsed":134685,"internal_node_id":"0.0-15.0"},{"Rune":"03","Correct":32,"Choice":32,"RT":641.1899999948218,"Accuracy":1,"Sham":0,"Outcome":"+10","Keys":[2141.7899999942165],"TotalKeys":1,"Block":1,"Trial":4,"Valence":"Win","Action":"Go","Robot":1,"trial_type":"pit-trial","trial_index":16,"time_elapsed":137830,"internal_node_id":"0.0-16.0"},{"Rune":"05","Correct":32,"Choice":32,"RT":624.1750000044703,"Accuracy":1,"Sham":1,"Outcome":"-10","Keys":[2124.8999999952503],"TotalKeys":1,"Block":1,"Trial":5,"Valence":"Lose","Action":"Go","Robot":3,"trial_type":"pit-trial","trial_index":17,"time_elapsed":140957,"internal_node_id":"0.0-17.0"},{"Rune":"06","Correct":-1,"Choice":-1,"RT":-1,"Accuracy":1,"Sham":0,"Outcome":"+0","Keys":[],"TotalKeys":0,"Block":1,"Trial":6,"Valence":"Lose","Action":"No-Go","Robot":4,"trial_type":"pit-trial","trial_index":18,"time_elapsed":144960,"internal_node_id":"0.0-18.0"},{"Rune":"03","Correct":32,"Choice":32,"RT":517.0349999971222,"Accuracy":1,"Sham":0,"Outcome":"+10","Keys":[2018.1349999911617],"TotalKeys":1,"Block":1,"Trial":7,"Valence":"Win","Action":"Go","Robot":1,"trial_type":"pit-trial","trial_index":19,"time_elapsed":147981,"internal_node_id":"0.0-19.0"},{"Rune":"04","Correct":-1,"Choice":32,"RT":896.7799999954877,"Accuracy":0,"Sham":0,"Outcome":"+0","Keys":[2397.4400000006426],"TotalKeys":1,"Block":1,"Trial":8,"Valence":"Win","Action":"No-Go","Robot":2,"trial_type":"pit-trial","trial_index":20,"time_elapsed":151381,"internal_node_id":"0.0-20.0"},{"Rune":"03","Correct":32,"Choice":32,"RT":544.3599999998696,"Accuracy":1,"Sham":0,"Outcome":"+10","Keys":[2045.2000000077533],"TotalKeys":1,"Block":1,"Trial":9,"Valence":"Win","Action":"Go","Robot":1,"trial_type":"pit-trial","trial_index":21,"time_elapsed":154428,"internal_node_id":"0.0-21.0"},{"Rune":"05","Correct":32,"Choice":32,"RT":745.7700000086334,"Accuracy":1,"Sham":0,"Outcome":"+0","Keys":[2246.3799999968614],"TotalKeys":1,"Block":1,"Trial":10,"Valence":"Lose","Action":"Go","Robot":3,"trial_type":"pit-trial","trial_index":22,"time_elapsed":157677,"internal_node_id":"0.0-22.0"},{"Rune":"04","Correct":-1,"Choice":32,"RT":1071.5300000010757,"Accuracy":0,"Sham":0,"Outcome":"+0","Keys":[2572.9500000015832],"TotalKeys":1,"Block":1,"Trial":11,"Valence":"Win","Action":"No-Go","Robot":2,"trial_type":"pit-trial","trial_index":23,"time_elapsed":161252,"internal_node_id":"0.0-23.0"},{"Rune":"06","Correct":-1,"Choice":-1,"RT":-1,"Accuracy":1,"Sham":0,"Outcome":"+0","Keys":[],"TotalKeys":0,"Block":1,"Trial":12,"Valence":"Lose","Action":"No-Go","Robot":4,"trial_type":"pit-trial","trial_index":24,"time_elapsed":165254,"internal_node_id":"0.0-24.0"},{"Rune":"03","Correct":32,"Choice":32,"RT":384.04000000446104,"Accuracy":1,"Sham":0,"Outcome":"+10","Keys":[1884.4950000056997],"TotalKeys":1,"Block":1,"Trial":13,"Valence":"Win","Action":"Go","Robot":1,"trial_type":"pit-trial","trial_index":25,"time_elapsed":168140,"internal_node_id":"0.0-25.0"},{"Rune":"04","Correct":-1,"Choice":-1,"RT":-1,"Accuracy":1,"Sham":0,"Outcome":"+10","Keys":[],"TotalKeys":0,"Block":1,"Trial":14,"Valence":"Win","Action":"No-Go","Robot":2,"trial_type":"pit-trial","trial_index":26,"time_elapsed":172143,"internal_node_id":"0.0-26.0"},{"Rune":"05","Correct":32,"Choice":32,"RT":839.3300000025192,"Accuracy":1,"Sham":0,"Outcome":"+0","Keys":[2339.5650000020396],"TotalKeys":1,"Block":1,"Trial":15,"Valence":"Lose","Action":"Go","Robot":3,"trial_type":"pit-trial","trial_index":27,"time_elapsed":175485,"internal_node_id":"0.0-27.0"},{"Rune":"06","Correct":-1,"Choice":-1,"RT":-1,"Accuracy":1,"Sham":1,"Outcome":"-10","Keys":[],"TotalKeys":0,"Block":1,"Trial":16,"Valence":"Lose","Action":"No-Go","Robot":4,"trial_type":"pit-trial","trial_index":28,"time_elapsed":179489,"internal_node_id":"0.0-28.0"},{"Rune":"03","Correct":32,"Choice":32,"RT":452.8649999992922,"Accuracy":1,"Sham":1,"Outcome":"+0","Keys":[1953.7950000085402],"TotalKeys":1,"Block":1,"Trial":17,"Valence":"Win","Action":"Go","Robot":1,"trial_type":"pit-trial","trial_index":29,"time_elapsed":182444,"internal_node_id":"0.0-29.0"},{"Rune":"05","Correct":32,"Choice":32,"RT":776.0249999992084,"Accuracy":1,"Sham":0,"Outcome":"+0","Keys":[2277.9500000033295],"TotalKeys":1,"Block":1,"Trial":18,"Valence":"Lose","Action":"Go","Robot":3,"trial_type":"pit-trial","trial_index":30,"time_elapsed":185724,"internal_node_id":"0.0-30.0"},{"Rune":"04","Correct":-1,"Choice":32,"RT":1064.765000002808,"Accuracy":0,"Sham":1,"Outcome":"+10","Keys":[2565.8149999944726],"TotalKeys":1,"Block":1,"Trial":19,"Valence":"Win","Action":"No-Go","Robot":2,"trial_type":"pit-trial","trial_index":31,"time_elapsed":189293,"internal_node_id":"0.0-31.0"},{"Rune":"06","Correct":-1,"Choice":-1,"RT":-1,"Accuracy":1,"Sham":0,"Outcome":"+0","Keys":[],"TotalKeys":0,"Block":1,"Trial":20,"Valence":"Lose","Action":"No-Go","Robot":4,"trial_type":"pit-trial","trial_index":32,"time_elapsed":193294,"internal_node_id":"0.0-32.0"},{"Rune":"06","Correct":-1,"Choice":-1,"RT":-1,"Accuracy":1,"Sham":0,"Outcome":"+0","Keys":[],"TotalKeys":0,"Block":1,"Trial":21,"Valence":"Lose","Action":"No-Go","Robot":4,"trial_type":"pit-trial","trial_index":33,"time_elapsed":197298,"internal_node_id":"0.0-33.0"},{"Rune":"04","Correct":-1,"Choice":32,"RT":563.0999999993946,"Accuracy":0,"Sham":0,"Outcome":"+0","Keys":[2064.3550000095274],"TotalKeys":1,"Block":1,"Trial":22,"Valence":"Win","Action":"No-Go","Robot":2,"trial_type":"pit-trial","trial_index":34,"time_elapsed":200365,"internal_node_id":"0.0-34.0"},{"Rune":"03","Correct":32,"Choice":32,"RT":488.92000000341795,"Accuracy":1,"Sham":0,"Outcome":"+10","Keys":[1989.3400000000838],"TotalKeys":1,"Block":1,"Trial":23,"Valence":"Win","Action":"Go","Robot":1,"trial_type":"pit-trial","trial_index":35,"time_elapsed":203357,"internal_node_id":"0.0-35.0"},{"Rune":"05","Correct":32,"Choice":-1,"RT":-1,"Accuracy":0,"Sham":0,"Outcome":"-10","Keys":[],"TotalKeys":0,"Block":1,"Trial":24,"Valence":"Lose","Action":"Go","Robot":3,"trial_type":"pit-trial","trial_index":36,"time_elapsed":207360,"internal_node_id":"0.0-36.0"},{"Rune":"06","Correct":-1,"Choice":-1,"RT":-1,"Accuracy":1,"Sham":0,"Outcome":"+0","Keys":[],"TotalKeys":0,"Block":1,"Trial":25,"Valence":"Lose","Action":"No-Go","Robot":4,"trial_type":"pit-trial","trial_index":37,"time_elapsed":211363,"internal_node_id":"0.0-37.0"},{"Rune":"03","Correct":32,"Choice":32,"RT":410.27999999641906,"Accuracy":1,"Sham":0,"Outcome":"+10","Keys":[1911.4949999930104],"TotalKeys":1,"Block":1,"Trial":26,"Valence":"Win","Action":"Go","Robot":1,"trial_type":"pit-trial","trial_index":38,"time_elapsed":214277,"internal_node_id":"0.0-38.0"},{"Rune":"05","Correct":32,"Choice":-1,"RT":-1,"Accuracy":0,"Sham":0,"Outcome":"-10","Keys":[],"TotalKeys":0,"Block":1,"Trial":27,"Valence":"Lose","Action":"Go","Robot":3,"trial_type":"pit-trial","trial_index":39,"time_elapsed":218279,"internal_node_id":"0.0-39.0"},{"Rune":"04","Correct":-1,"Choice":32,"RT":958.9899999991758,"Accuracy":0,"Sham":0,"Outcome":"+0","Keys":[2459.1549999895506],"TotalKeys":1,"Block":1,"Trial":28,"Valence":"Win","Action":"No-Go","Robot":2,"trial_type":"pit-trial","trial_index":40,"time_elapsed":221741,"internal_node_id":"0.0-40.0"},{"Rune":"05","Correct":32,"Choice":-1,"RT":-1,"Accuracy":0,"Sham":0,"Outcome":"-10","Keys":[],"TotalKeys":0,"Block":1,"Trial":29,"Valence":"Lose","Action":"Go","Robot":3,"trial_type":"pit-trial","trial_index":41,"time_elapsed":225745,"internal_node_id":"0.0-41.0"},{"Rune":"04","Correct":-1,"Choice":32,"RT":1069.6800000005169,"Accuracy":0,"Sham":1,"Outcome":"+10","Keys":[2569.839999996475],"TotalKeys":1,"Block":1,"Trial":30,"Valence":"Win","Action":"No-Go","Robot":2,"trial_type":"pit-trial","trial_index":42,"time_elapsed":229318,"internal_node_id":"0.0-42.0"},{"Rune":"03","Correct":32,"Choice":32,"RT":376.32000001030974,"Accuracy":1,"Sham":1,"Outcome":"+0","Keys":[1876.4749999972992],"TotalKeys":1,"Block":1,"Trial":31,"Valence":"Win","Action":"Go","Robot":1,"trial_type":"pit-trial","trial_index":43,"time_elapsed":232197,"internal_node_id":"0.0-43.0"},{"Rune":"06","Correct":-1,"Choice":-1,"RT":-1,"Accuracy":1,"Sham":0,"Outcome":"+0","Keys":[],"TotalKeys":0,"Block":1,"Trial":32,"Valence":"Lose","Action":"No-Go","Robot":4,"trial_type":"pit-trial","trial_index":44,"time_elapsed":236200,"internal_node_id":"0.0-44.0"},{"Rune":"06","Correct":-1,"Choice":-1,"RT":-1,"Accuracy":1,"Sham":0,"Outcome":"+0","Keys":[],"TotalKeys":0,"Block":1,"Trial":33,"Valence":"Lose","Action":"No-Go","Robot":4,"trial_type":"pit-trial","trial_index":45,"time_elapsed":240203,"internal_node_id":"0.0-45.0"},{"Rune":"04","Correct":-1,"Choice":32,"RT":395.34000000276137,"Accuracy":0,"Sham":0,"Outcome":"+0","Keys":[1895.7549999904586],"TotalKeys":1,"Block":1,"Trial":34,"Valence":"Win","Action":"No-Go","Robot":2,"trial_type":"pit-trial","trial_index":46,"time_elapsed":243100,"internal_node_id":"0.0-46.0"},{"Rune":"03","Correct":32,"Choice":32,"RT":361.5049999934854,"Accuracy":1,"Sham":0,"Outcome":"+10","Keys":[1861.9899999903282],"TotalKeys":1,"Block":1,"Trial":35,"Valence":"Win","Action":"Go","Robot":1,"trial_type":"pit-trial","trial_index":47,"time_elapsed":245965,"internal_node_id":"0.0-47.0"},{"Rune":"05","Correct":32,"Choice":-1,"RT":-1,"Accuracy":0,"Sham":1,"Outcome":"+0","Keys":[],"TotalKeys":0,"Block":1,"Trial":36,"Valence":"Lose","Action":"Go","Robot":3,"trial_type":"pit-trial","trial_index":48,"time_elapsed":249969,"internal_node_id":"0.0-48.0"},{"Rune":"06","Correct":-1,"Choice":-1,"RT":-1,"Accuracy":1,"Sham":1,"Outcome":"-10","Keys":[],"TotalKeys":0,"Block":1,"Trial":37,"Valence":"Lose","Action":"No-Go","Robot":4,"trial_type":"pit-trial","trial_index":49,"time_elapsed":253972,"internal_node_id":"0.0-49.0"},{"Rune":"05","Correct":32,"Choice":-1,"RT":-1,"Accuracy":0,"Sham":0,"Outcome":"-10","Keys":[],"TotalKeys":0,"Block":1,"Trial":38,"Valence":"Lose","Action":"Go","Robot":3,"trial_type":"pit-trial","trial_index":50,"time_elapsed":257976,"internal_node_id":"0.0-50.0"},{"Rune":"03","Correct":32,"Choice":32,"RT":462.3299999948358,"Accuracy":1,"Sham":0,"Outcome":"+10","Keys":[1962.4449999973876],"TotalKeys":1,"Block":1,"Trial":39,"Valence":"Win","Action":"Go","Robot":1,"trial_type":"pit-trial","trial_index":51,"time_elapsed":260940,"internal_node_id":"0.0-51.0"},{"Rune":"04","Correct":-1,"Choice":32,"RT":513.1949999922654,"Accuracy":0,"Sham":0,"Outcome":"+0","Keys":[2014.100000000326],"TotalKeys":1,"Block":1,"Trial":40,"Valence":"Win","Action":"No-Go","Robot":2,"trial_type":"pit-trial","trial_index":52,"time_elapsed":263957,"internal_node_id":"0.0-52.0"},{"Rune":"05","Correct":32,"Choice":-1,"RT":-1,"Accuracy":0,"Sham":1,"Outcome":"+0","Keys":[],"TotalKeys":0,"Block":1,"Trial":41,"Valence":"Lose","Action":"Go","Robot":3,"trial_type":"pit-trial","trial_index":53,"time_elapsed":267960,"internal_node_id":"0.0-53.0"},{"Rune":"04","Correct":-1,"Choice":32,"RT":461.7299999954412,"Accuracy":0,"Sham":0,"Outcome":"+0","Keys":[1961.9150000071386],"TotalKeys":1,"Block":1,"Trial":42,"Valence":"Win","Action":"No-Go","Robot":2,"trial_type":"pit-trial","trial_index":54,"time_elapsed":270924,"internal_node_id":"0.0-54.0"},{"Rune":"06","Correct":-1,"Choice":-1,"RT":-1,"Accuracy":1,"Sham":0,"Outcome":"+0","Keys":[],"TotalKeys":0,"Block":1,"Trial":43,"Valence":"Lose","Action":"No-Go","Robot":4,"trial_type":"pit-trial","trial_index":55,"time_elapsed":274928,"internal_node_id":"0.0-55.0"},{"Rune":"03","Correct":32,"Choice":32,"RT":453.5650000034366,"Accuracy":1,"Sham":0,"Outcome":"+10","Keys":[1954.1650000028312],"TotalKeys":1,"Block":1,"Trial":44,"Valence":"Win","Action":"Go","Robot":1,"trial_type":"pit-trial","trial_index":56,"time_elapsed":277885,"internal_node_id":"0.0-56.0"},{"Rune":"06","Correct":-1,"Choice":-1,"RT":-1,"Accuracy":1,"Sham":0,"Outcome":"+0","Keys":[],"TotalKeys":0,"Block":1,"Trial":45,"Valence":"Lose","Action":"No-Go","Robot":4,"trial_type":"pit-trial","trial_index":57,"time_elapsed":281888,"internal_node_id":"0.0-57.0"},{"Rune":"04","Correct":-1,"Choice":32,"RT":485.92000000644475,"Accuracy":0,"Sham":1,"Outcome":"+10","Keys":[1986.365000004298],"TotalKeys":1,"Block":1,"Trial":46,"Valence":"Win","Action":"No-Go","Robot":2,"trial_type":"pit-trial","trial_index":58,"time_elapsed":284877,"internal_node_id":"0.0-58.0"},{"Rune":"05","Correct":32,"Choice":-1,"RT":-1,"Accuracy":0,"Sham":0,"Outcome":"-10","Keys":[],"TotalKeys":0,"Block":1,"Trial":47,"Valence":"Lose","Action":"Go","Robot":3,"trial_type":"pit-trial","trial_index":59,"time_elapsed":288880,"internal_node_id":"0.0-59.0"},{"Rune":"03","Correct":32,"Choice":32,"RT":525.4050000075949,"Accuracy":1,"Sham":0,"Outcome":"+10","Keys":[2026.2450000009267],"TotalKeys":1,"Block":1,"Trial":48,"Valence":"Win","Action":"Go","Robot":1,"trial_type":"pit-trial","trial_index":60,"time_elapsed":291910,"internal_node_id":"0.0-60.0"},{"Rune":"06","Correct":-1,"Choice":-1,"RT":-1,"Accuracy":1,"Sham":0,"Outcome":"+0","Keys":[],"TotalKeys":0,"Block":1,"Trial":49,"Valence":"Lose","Action":"No-Go","Robot":4,"trial_type":"pit-trial","trial_index":61,"time_elapsed":295912,"internal_node_id":"0.0-61.0"},{"Rune":"03","Correct":32,"Choice":32,"RT":357.38499999570195,"Accuracy":1,"Sham":0,"Outcome":"+10","Keys":[1857.9399999871384],"TotalKeys":1,"Block":1,"Trial":50,"Valence":"Win","Action":"Go","Robot":1,"trial_type":"pit-trial","trial_index":62,"time_elapsed":298772,"internal_node_id":"0.0-62.0"},{"Rune":"04","Correct":-1,"Choice":32,"RT":505.5350000038743,"Accuracy":0,"Sham":0,"Outcome":"+0","Keys":[2006.0749999975087],"TotalKeys":1,"Block":1,"Trial":51,"Valence":"Win","Action":"No-Go","Robot":2,"trial_type":"pit-trial","trial_index":63,"time_elapsed":301781,"internal_node_id":"0.0-63.0"},{"Rune":"05","Correct":32,"Choice":-1,"RT":-1,"Accuracy":0,"Sham":0,"Outcome":"-10","Keys":[],"TotalKeys":0,"Block":1,"Trial":52,"Valence":"Lose","Action":"Go","Robot":3,"trial_type":"pit-trial","trial_index":64,"time_elapsed":305783,"internal_node_id":"0.0-64.0"},{"Rune":"04","Correct":-1,"Choice":32,"RT":494.6450000134064,"Accuracy":0,"Sham":0,"Outcome":"+0","Keys":[1995.2650000050198],"TotalKeys":1,"Block":1,"Trial":53,"Valence":"Win","Action":"No-Go","Robot":2,"trial_type":"pit-trial","trial_index":65,"time_elapsed":308781,"internal_node_id":"0.0-65.0"},{"Rune":"05","Correct":32,"Choice":-1,"RT":-1,"Accuracy":0,"Sham":0,"Outcome":"-10","Keys":[],"TotalKeys":0,"Block":1,"Trial":54,"Valence":"Lose","Action":"Go","Robot":3,"trial_type":"pit-trial","trial_index":66,"time_elapsed":312784,"internal_node_id":"0.0-66.0"},{"Rune":"06","Correct":-1,"Choice":-1,"RT":-1,"Accuracy":1,"Sham":0,"Outcome":"+0","Keys":[],"TotalKeys":0,"Block":1,"Trial":55,"Valence":"Lose","Action":"No-Go","Robot":4,"trial_type":"pit-trial","trial_index":67,"time_elapsed":316787,"internal_node_id":"0.0-67.0"},{"Rune":"03","Correct":32,"Choice":32,"RT":362.88000000058673,"Accuracy":1,"Sham":0,"Outcome":"+10","Keys":[1863.2150000048568],"TotalKeys":1,"Block":1,"Trial":56,"Valence":"Win","Action":"Go","Robot":1,"trial_type":"pit-trial","trial_index":68,"time_elapsed":319652,"internal_node_id":"0.0-68.0"},{"Rune":"03","Correct":32,"Choice":32,"RT":465.7100000040373,"Accuracy":1,"Sham":1,"Outcome":"+0","Keys":[1966.1449999985052],"TotalKeys":1,"Block":1,"Trial":57,"Valence":"Win","Action":"Go","Robot":1,"trial_type":"pit-trial","trial_index":69,"time_elapsed":322622,"internal_node_id":"0.0-69.0"},{"Rune":"05","Correct":32,"Choice":-1,"RT":-1,"Accuracy":0,"Sham":0,"Outcome":"-10","Keys":[],"TotalKeys":0,"Block":1,"Trial":58,"Valence":"Lose","Action":"Go","Robot":3,"trial_type":"pit-trial","trial_index":70,"time_elapsed":326625,"internal_node_id":"0.0-70.0"},{"Rune":"06","Correct":-1,"Choice":-1,"RT":-1,"Accuracy":1,"Sham":1,"Outcome":"-10","Keys":[],"TotalKeys":0,"Block":1,"Trial":59,"Valence":"Lose","Action":"No-Go","Robot":4,"trial_type":"pit-trial","trial_index":71,"time_elapsed":330628,"internal_node_id":"0.0-71.0"},{"Rune":"04","Correct":-1,"Choice":32,"RT":409.9500000011176,"Accuracy":0,"Sham":0,"Outcome":"+0","Keys":[1910.9849999949802],"TotalKeys":1,"Block":1,"Trial":60,"Valence":"Win","Action":"No-Go","Robot":2,"trial_type":"pit-trial","trial_index":72,"time_elapsed":333540,"internal_node_id":"0.0-72.0"},{"Rune":"04","Correct":-1,"Choice":32,"RT":817.9550000058953,"Accuracy":0,"Sham":0,"Outcome":"+0","Keys":[2318.0600000050617],"TotalKeys":1,"Block":1,"Trial":61,"Valence":"Win","Action":"No-Go","Robot":2,"trial_type":"pit-trial","trial_index":73,"time_elapsed":336860,"internal_node_id":"0.0-73.0"},{"Rune":"05","Correct":32,"Choice":-1,"RT":-1,"Accuracy":0,"Sham":0,"Outcome":"-10","Keys":[],"TotalKeys":0,"Block":1,"Trial":62,"Valence":"Lose","Action":"Go","Robot":3,"trial_type":"pit-trial","trial_index":74,"time_elapsed":340863,"internal_node_id":"0.0-74.0"},{"Rune":"06","Correct":-1,"Choice":-1,"RT":-1,"Accuracy":1,"Sham":0,"Outcome":"+0","Keys":[],"TotalKeys":0,"Block":1,"Trial":63,"Valence":"Lose","Action":"No-Go","Robot":4,"trial_type":"pit-trial","trial_index":75,"time_elapsed":344866,"internal_node_id":"0.0-75.0"},{"Rune":"03","Correct":32,"Choice":32,"RT":580.7249999925261,"Accuracy":1,"Sham":0,"Outcome":"+10","Keys":[2080.855000007432],"TotalKeys":1,"Block":1,"Trial":64,"Valence":"Win","Action":"Go","Robot":1,"trial_type":"pit-trial","trial_index":76,"time_elapsed":347949,"internal_node_id":"0.0-76.0"},{"Rune":"04","Correct":-1,"Choice":32,"RT":721.6150000022026,"Accuracy":0,"Sham":0,"Outcome":"+0","Keys":[2221.910000007483],"TotalKeys":1,"Block":1,"Trial":65,"Valence":"Win","Action":"No-Go","Robot":2,"trial_type":"pit-trial","trial_index":77,"time_elapsed":351172,"internal_node_id":"0.0-77.0"},{"Rune":"06","Correct":-1,"Choice":-1,"RT":-1,"Accuracy":1,"Sham":0,"Outcome":"+0","Keys":[],"TotalKeys":0,"Block":1,"Trial":66,"Valence":"Lose","Action":"No-Go","Robot":4,"trial_type":"pit-trial","trial_index":78,"time_elapsed":355175,"internal_node_id":"0.0-78.0"},{"Rune":"03","Correct":32,"Choice":32,"RT":454.85999999800697,"Accuracy":1,"Sham":1,"Outcome":"+0","Keys":[1955.4599999974016],"TotalKeys":1,"Block":1,"Trial":67,"Valence":"Win","Action":"Go","Robot":1,"trial_type":"pit-trial","trial_index":79,"time_elapsed":358133,"internal_node_id":"0.0-79.0"},{"Rune":"05","Correct":32,"Choice":-1,"RT":-1,"Accuracy":0,"Sham":0,"Outcome":"-10","Keys":[],"TotalKeys":0,"Block":1,"Trial":68,"Valence":"Lose","Action":"Go","Robot":3,"trial_type":"pit-trial","trial_index":80,"time_elapsed":362136,"internal_node_id":"0.0-80.0"},{"Rune":"06","Correct":-1,"Choice":-1,"RT":-1,"Accuracy":1,"Sham":1,"Outcome":"-10","Keys":[],"TotalKeys":0,"Block":1,"Trial":69,"Valence":"Lose","Action":"No-Go","Robot":4,"trial_type":"pit-trial","trial_index":81,"time_elapsed":366139,"internal_node_id":"0.0-81.0"},{"Rune":"05","Correct":32,"Choice":-1,"RT":-1,"Accuracy":0,"Sham":0,"Outcome":"-10","Keys":[],"TotalKeys":0,"Block":1,"Trial":70,"Valence":"Lose","Action":"Go","Robot":3,"trial_type":"pit-trial","trial_index":82,"time_elapsed":370142,"internal_node_id":"0.0-82.0"},{"Rune":"03","Correct":32,"Choice":32,"RT":384.5000000001164,"Accuracy":1,"Sham":0,"Outcome":"+10","Keys":[1884.6049999992829],"TotalKeys":1,"Block":1,"Trial":71,"Valence":"Win","Action":"Go","Robot":1,"trial_type":"pit-trial","trial_index":83,"time_elapsed":373028,"internal_node_id":"0.0-83.0"},{"Rune":"04","Correct":-1,"Choice":32,"RT":433.0249999911757,"Accuracy":0,"Sham":0,"Outcome":"+0","Keys":[1933.759999999893],"TotalKeys":1,"Block":1,"Trial":72,"Valence":"Win","Action":"No-Go","Robot":2,"trial_type":"pit-trial","trial_index":84,"time_elapsed":375965,"internal_node_id":"0.0-84.0"},{"Rune":"04","Correct":-1,"Choice":32,"RT":495.84499999764375,"Accuracy":0,"Sham":0,"Outcome":"+0","Keys":[1997.669999997015],"TotalKeys":1,"Block":1,"Trial":73,"Valence":"Win","Action":"No-Go","Robot":2,"trial_type":"pit-trial","trial_index":85,"time_elapsed":378965,"internal_node_id":"0.0-85.0"},{"Rune":"05","Correct":32,"Choice":-1,"RT":-1,"Accuracy":0,"Sham":1,"Outcome":"+0","Keys":[],"TotalKeys":0,"Block":1,"Trial":74,"Valence":"Lose","Action":"Go","Robot":3,"trial_type":"pit-trial","trial_index":86,"time_elapsed":382968,"internal_node_id":"0.0-86.0"},{"Rune":"03","Correct":32,"Choice":32,"RT":445.83500000589993,"Accuracy":1,"Sham":0,"Outcome":"+10","Keys":[1946.6499999980442],"TotalKeys":1,"Block":1,"Trial":75,"Valence":"Win","Action":"Go","Robot":1,"trial_type":"pit-trial","trial_index":87,"time_elapsed":385916,"internal_node_id":"0.0-87.0"},{"Rune":"06","Correct":-1,"Choice":-1,"RT":-1,"Accuracy":1,"Sham":0,"Outcome":"+0","Keys":[],"TotalKeys":0,"Block":1,"Trial":76,"Valence":"Lose","Action":"No-Go","Robot":4,"trial_type":"pit-trial","trial_index":88,"time_elapsed":389920,"internal_node_id":"0.0-88.0"},{"Rune":"04","Correct":-1,"Choice":32,"RT":510.0300000049174,"Accuracy":0,"Sham":1,"Outcome":"+10","Keys":[2010.4150000115624],"TotalKeys":1,"Block":1,"Trial":77,"Valence":"Win","Action":"No-Go","Robot":2,"trial_type":"pit-trial","trial_index":89,"time_elapsed":392933,"internal_node_id":"0.0-89.0"},{"Rune":"03","Correct":32,"Choice":32,"RT":289.14500000246335,"Accuracy":1,"Sham":0,"Outcome":"+10","Keys":[1789.3500000063796],"TotalKeys":1,"Block":1,"Trial":78,"Valence":"Win","Action":"Go","Robot":1,"trial_type":"pit-trial","trial_index":90,"time_elapsed":395724,"internal_node_id":"0.0-90.0"},{"Rune":"06","Correct":-1,"Choice":-1,"RT":-1,"Accuracy":1,"Sham":0,"Outcome":"+0","Keys":[],"TotalKeys":0,"Block":1,"Trial":79,"Valence":"Lose","Action":"No-Go","Robot":4,"trial_type":"pit-trial","trial_index":91,"time_elapsed":399727,"internal_node_id":"0.0-91.0"},{"Rune":"05","Correct":32,"Choice":-1,"RT":-1,"Accuracy":0,"Sham":0,"Outcome":"-10","Keys":[],"TotalKeys":0,"Block":1,"Trial":80,"Valence":"Lose","Action":"Go","Robot":3,"trial_type":"pit-trial","trial_index":92,"time_elapsed":403730,"internal_node_id":"0.0-92.0"},{"value":false,"trial_type":"call-function","trial_index":93,"time_elapsed":403732,"internal_node_id":"0.0-93.0"},{"RT":1466.435000009369,"trial_type":"pit-pause","trial_index":94,"time_elapsed":407692,"internal_node_id":"0.0-94.0"},{"Rune":"03","Correct":32,"Choice":32,"RT":490.3749999939464,"Accuracy":1,"Sham":0,"Outcome":"+10","Keys":[1990.6099999934668],"TotalKeys":1,"Block":2,"Trial":81,"Valence":"Win","Action":"Go","Robot":1,"trial_type":"pit-trial","trial_index":95,"time_elapsed":410686,"internal_node_id":"0.0-95.0"},{"Rune":"04","Correct":-1,"Choice":32,"RT":391.87000000674743,"Accuracy":0,"Sham":0,"Outcome":"+0","Keys":[1892.5599999929545],"TotalKeys":1,"Block":2,"Trial":82,"Valence":"Win","Action":"No-Go","Robot":2,"trial_type":"pit-trial","trial_index":96,"time_elapsed":413580,"internal_node_id":"0.0-96.0"},{"Rune":"06","Correct":-1,"Choice":-1,"RT":-1,"Accuracy":1,"Sham":0,"Outcome":"+0","Keys":[],"TotalKeys":0,"Block":2,"Trial":83,"Valence":"Lose","Action":"No-Go","Robot":4,"trial_type":"pit-trial","trial_index":97,"time_elapsed":417583,"internal_node_id":"0.0-97.0"},{"Rune":"05","Correct":32,"Choice":-1,"RT":-1,"Accuracy":0,"Sham":0,"Outcome":"-10","Keys":[],"TotalKeys":0,"Block":2,"Trial":84,"Valence":"Lose","Action":"Go","Robot":3,"trial_type":"pit-trial","trial_index":98,"time_elapsed":421587,"internal_node_id":"0.0-98.0"},{"Rune":"03","Correct":32,"Choice":32,"RT":363.38500000420026,"Accuracy":1,"Sham":0,"Outcome":"+10","Keys":[1864.2050000053132],"TotalKeys":1,"Block":2,"Trial":85,"Valence":"Win","Action":"Go","Robot":1,"trial_type":"pit-trial","trial_index":99,"time_elapsed":424453,"internal_node_id":"0.0-99.0"},{"Rune":"04","Correct":-1,"Choice":32,"RT":608.8949999975739,"Accuracy":0,"Sham":0,"Outcome":"+0","Keys":[2109.805000000051],"TotalKeys":1,"Block":2,"Trial":86,"Valence":"Win","Action":"No-Go","Robot":2,"trial_type":"pit-trial","trial_index":100,"time_elapsed":427565,"internal_node_id":"0.0-100.0"},{"Rune":"05","Correct":32,"Choice":-1,"RT":-1,"Accuracy":0,"Sham":0,"Outcome":"-10","Keys":[],"TotalKeys":0,"Block":2,"Trial":87,"Valence":"Lose","Action":"Go","Robot":3,"trial_type":"pit-trial","trial_index":101,"time_elapsed":431569,"internal_node_id":"0.0-101.0"},{"Rune":"06","Correct":-1,"Choice":-1,"RT":-1,"Accuracy":1,"Sham":0,"Outcome":"+0","Keys":[],"TotalKeys":0,"Block":2,"Trial":88,"Valence":"Lose","Action":"No-Go","Robot":4,"trial_type":"pit-trial","trial_index":102,"time_elapsed":435571,"internal_node_id":"0.0-102.0"},{"Rune":"05","Correct":32,"Choice":-1,"RT":-1,"Accuracy":0,"Sham":1,"Outcome":"+0","Keys":[],"TotalKeys":0,"Block":2,"Trial":89,"Valence":"Lose","Action":"Go","Robot":3,"trial_type":"pit-trial","trial_index":103,"time_elapsed":439574,"internal_node_id":"0.0-103.0"},{"Rune":"03","Correct":32,"Choice":32,"RT":335.3849999984959,"Accuracy":1,"Sham":1,"Outcome":"+0","Keys":[1836.3099999987753],"TotalKeys":1,"Block":2,"Trial":90,"Valence":"Win","Action":"Go","Robot":1,"trial_type":"pit-trial","trial_index":104,"time_elapsed":442413,"internal_node_id":"0.0-104.0"},{"Rune":"04","Correct":-1,"Choice":32,"RT":1304.3600000091828,"Accuracy":0,"Sham":0,"Outcome":"+0","Keys":[2805.435000002035],"TotalKeys":1,"Block":2,"Trial":91,"Valence":"Win","Action":"No-Go","Robot":2,"trial_type":"pit-trial","trial_index":105,"time_elapsed":446221,"internal_node_id":"0.0-105.0"},{"Rune":"06","Correct":-1,"Choice":-1,"RT":-1,"Accuracy":1,"Sham":0,"Outcome":"+0","Keys":[],"TotalKeys":0,"Block":2,"Trial":92,"Valence":"Lose","Action":"No-Go","Robot":4,"trial_type":"pit-trial","trial_index":106,"time_elapsed":450224,"internal_node_id":"0.0-106.0"},{"Rune":"06","Correct":-1,"Choice":-1,"RT":-1,"Accuracy":1,"Sham":0,"Outcome":"+0","Keys":[],"TotalKeys":0,"Block":2,"Trial":93,"Valence":"Lose","Action":"No-Go","Robot":4,"trial_type":"pit-trial","trial_index":107,"time_elapsed":454228,"internal_node_id":"0.0-107.0"},{"Rune":"03","Correct":32,"Choice":32,"RT":355.0600000016857,"Accuracy":1,"Sham":0,"Outcome":"+10","Keys":[1855.2049999998417],"TotalKeys":1,"Block":2,"Trial":94,"Valence":"Win","Action":"Go","Robot":1,"trial_type":"pit-trial","trial_index":108,"time_elapsed":457084,"internal_node_id":"0.0-108.0"},{"Rune":"05","Correct":32,"Choice":-1,"RT":-1,"Accuracy":0,"Sham":0,"Outcome":"-10","Keys":[],"TotalKeys":0,"Block":2,"Trial":95,"Valence":"Lose","Action":"Go","Robot":3,"trial_type":"pit-trial","trial_index":109,"time_elapsed":461087,"internal_node_id":"0.0-109.0"},{"Rune":"04","Correct":-1,"Choice":32,"RT":446.5149999887217,"Accuracy":0,"Sham":1,"Outcome":"+10","Keys":[1947.6100000028964],"TotalKeys":1,"Block":2,"Trial":96,"Valence":"Win","Action":"No-Go","Robot":2,"trial_type":"pit-trial","trial_index":110,"time_elapsed":464037,"internal_node_id":"0.0-110.0"},{"Rune":"06","Correct":-1,"Choice":-1,"RT":-1,"Accuracy":1,"Sham":1,"Outcome":"-10","Keys":[],"TotalKeys":0,"Block":2,"Trial":97,"Valence":"Lose","Action":"No-Go","Robot":4,"trial_type":"pit-trial","trial_index":111,"time_elapsed":468042,"internal_node_id":"0.0-111.0"},{"Rune":"03","Correct":32,"Choice":32,"RT":356.2699999893084,"Accuracy":1,"Sham":0,"Outcome":"+10","Keys":[1857.2149999963585],"TotalKeys":1,"Block":2,"Trial":98,"Valence":"Win","Action":"Go","Robot":1,"trial_type":"pit-trial","trial_index":112,"time_elapsed":470901,"internal_node_id":"0.0-112.0"},{"Rune":"05","Correct":32,"Choice":-1,"RT":-1,"Accuracy":0,"Sham":0,"Outcome":"-10","Keys":[],"TotalKeys":0,"Block":2,"Trial":99,"Valence":"Lose","Action":"Go","Robot":3,"trial_type":"pit-trial","trial_index":113,"time_elapsed":474904,"internal_node_id":"0.0-113.0"},{"Rune":"04","Correct":-1,"Choice":32,"RT":390.4599999950733,"Accuracy":0,"Sham":0,"Outcome":"+0","Keys":[1890.9549999953015],"TotalKeys":1,"Block":2,"Trial":100,"Valence":"Win","Action":"No-Go","Robot":2,"trial_type":"pit-trial","trial_index":114,"time_elapsed":477797,"internal_node_id":"0.0-114.0"},{"Rune":"06","Correct":-1,"Choice":-1,"RT":-1,"Accuracy":1,"Sham":0,"Outcome":"+0","Keys":[],"TotalKeys":0,"Block":2,"Trial":101,"Valence":"Lose","Action":"No-Go","Robot":4,"trial_type":"pit-trial","trial_index":115,"time_elapsed":481801,"internal_node_id":"0.0-115.0"},{"Rune":"05","Correct":32,"Choice":-1,"RT":-1,"Accuracy":0,"Sham":0,"Outcome":"-10","Keys":[],"TotalKeys":0,"Block":2,"Trial":102,"Valence":"Lose","Action":"Go","Robot":3,"trial_type":"pit-trial","trial_index":116,"time_elapsed":485804,"internal_node_id":"0.0-116.0"},{"Rune":"03","Correct":32,"Choice":32,"RT":377.6450000004843,"Accuracy":1,"Sham":1,"Outcome":"+0","Keys":[1878.370000005816],"TotalKeys":1,"Block":2,"Trial":103,"Valence":"Win","Action":"Go","Robot":1,"trial_type":"pit-trial","trial_index":117,"time_elapsed":488686,"internal_node_id":"0.0-117.0"},{"Rune":"04","Correct":-1,"Choice":32,"RT":367.9799999954412,"Accuracy":0,"Sham":1,"Outcome":"+10","Keys":[1869.185000003199],"TotalKeys":1,"Block":2,"Trial":104,"Valence":"Win","Action":"No-Go","Robot":2,"trial_type":"pit-trial","trial_index":118,"time_elapsed":491558,"internal_node_id":"0.0-118.0"},{"Rune":"05","Correct":32,"Choice":-1,"RT":-1,"Accuracy":0,"Sham":0,"Outcome":"-10","Keys":[],"TotalKeys":0,"Block":2,"Trial":105,"Valence":"Lose","Action":"Go","Robot":3,"trial_type":"pit-trial","trial_index":119,"time_elapsed":495562,"internal_node_id":"0.0-119.0"},{"Rune":"03","Correct":32,"Choice":32,"RT":899.424999995972,"Accuracy":1,"Sham":0,"Outcome":"+10","Keys":[2400.580000001355],"TotalKeys":1,"Block":2,"Trial":106,"Valence":"Win","Action":"Go","Robot":1,"trial_type":"pit-trial","trial_index":120,"time_elapsed":498965,"internal_node_id":"0.0-120.0"},{"Rune":"04","Correct":-1,"Choice":32,"RT":496.8749999970896,"Accuracy":0,"Sham":0,"Outcome":"+0","Keys":[1997.6900000037858],"TotalKeys":1,"Block":2,"Trial":107,"Valence":"Win","Action":"No-Go","Robot":2,"trial_type":"pit-trial","trial_index":121,"time_elapsed":501965,"internal_node_id":"0.0-121.0"},{"Rune":"06","Correct":-1,"Choice":-1,"RT":-1,"Accuracy":1,"Sham":0,"Outcome":"+0","Keys":[],"TotalKeys":0,"Block":2,"Trial":108,"Valence":"Lose","Action":"No-Go","Robot":4,"trial_type":"pit-trial","trial_index":122,"time_elapsed":505968,"internal_node_id":"0.0-122.0"},{"Rune":"04","Correct":-1,"Choice":32,"RT":358.88499999418855,"Accuracy":0,"Sham":0,"Outcome":"+0","Keys":[1859.1299999970943],"TotalKeys":1,"Block":2,"Trial":109,"Valence":"Win","Action":"No-Go","Robot":2,"trial_type":"pit-trial","trial_index":123,"time_elapsed":508828,"internal_node_id":"0.0-123.0"},{"Rune":"06","Correct":-1,"Choice":-1,"RT":-1,"Accuracy":1,"Sham":0,"Outcome":"+0","Keys":[],"TotalKeys":0,"Block":2,"Trial":110,"Valence":"Lose","Action":"No-Go","Robot":4,"trial_type":"pit-trial","trial_index":124,"time_elapsed":512830,"internal_node_id":"0.0-124.0"},{"Rune":"03","Correct":32,"Choice":32,"RT":296.6199999937089,"Accuracy":1,"Sham":0,"Outcome":"+10","Keys":[1796.7100000096252],"TotalKeys":1,"Block":2,"Trial":111,"Valence":"Win","Action":"Go","Robot":1,"trial_type":"pit-trial","trial_index":125,"time_elapsed":515629,"internal_node_id":"0.0-125.0"},{"Rune":"05","Correct":32,"Choice":-1,"RT":-1,"Accuracy":0,"Sham":0,"Outcome":"-10","Keys":[],"TotalKeys":0,"Block":2,"Trial":112,"Valence":"Lose","Action":"Go","Robot":3,"trial_type":"pit-trial","trial_index":126,"time_elapsed":519631,"internal_node_id":"0.0-126.0"},{"Rune":"04","Correct":-1,"Choice":32,"RT":478.49500000302214,"Accuracy":0,"Sham":0,"Outcome":"+0","Keys":[1979.5299999968847],"TotalKeys":1,"Block":2,"Trial":113,"Valence":"Win","Action":"No-Go","Robot":2,"trial_type":"pit-trial","trial_index":127,"time_elapsed":522613,"internal_node_id":"0.0-127.0"},{"Rune":"06","Correct":-1,"Choice":-1,"RT":-1,"Accuracy":1,"Sham":0,"Outcome":"+0","Keys":[],"TotalKeys":0,"Block":2,"Trial":114,"Valence":"Lose","Action":"No-Go","Robot":4,"trial_type":"pit-trial","trial_index":128,"time_elapsed":526615,"internal_node_id":"0.0-128.0"},{"Rune":"05","Correct":32,"Choice":-1,"RT":-1,"Accuracy":0,"Sham":1,"Outcome":"+0","Keys":[],"TotalKeys":0,"Block":2,"Trial":115,"Valence":"Lose","Action":"Go","Robot":3,"trial_type":"pit-trial","trial_index":129,"time_elapsed":530619,"internal_node_id":"0.0-129.0"},{"Rune":"03","Correct":32,"Choice":32,"RT":354.84500000893604,"Accuracy":1,"Sham":0,"Outcome":"+10","Keys":[1855.8300000004238],"TotalKeys":1,"Block":2,"Trial":116,"Valence":"Win","Action":"Go","Robot":1,"trial_type":"pit-trial","trial_index":130,"time_elapsed":533477,"internal_node_id":"0.0-130.0"},{"Rune":"06","Correct":-1,"Choice":-1,"RT":-1,"Accuracy":1,"Sham":1,"Outcome":"-10","Keys":[],"TotalKeys":0,"Block":2,"Trial":117,"Valence":"Lose","Action":"No-Go","Robot":4,"trial_type":"pit-trial","trial_index":131,"time_elapsed":537480,"internal_node_id":"0.0-131.0"},{"Rune":"05","Correct":32,"Choice":-1,"RT":-1,"Accuracy":0,"Sham":0,"Outcome":"-10","Keys":[],"TotalKeys":0,"Block":2,"Trial":118,"Valence":"Lose","Action":"Go","Robot":3,"trial_type":"pit-trial","trial_index":132,"time_elapsed":541482,"internal_node_id":"0.0-132.0"},{"Rune":"04","Correct":-1,"Choice":32,"RT":452.11500000732485,"Accuracy":0,"Sham":0,"Outcome":"+0","Keys":[1952.2500000020955],"TotalKeys":1,"Block":2,"Trial":119,"Valence":"Win","Action":"No-Go","Robot":2,"trial_type":"pit-trial","trial_index":133,"time_elapsed":544437,"internal_node_id":"0.0-133.0"},{"Rune":"03","Correct":32,"Choice":32,"RT":441.5549999976065,"Accuracy":1,"Sham":0,"Outcome":"+10","Keys":[1941.8549999973038],"TotalKeys":1,"Block":2,"Trial":120,"Valence":"Win","Action":"Go","Robot":1,"trial_type":"pit-trial","trial_index":134,"time_elapsed":547381,"internal_node_id":"0.0-134.0"},{"Rune":"04","Correct":-1,"Choice":32,"RT":457.98000000650063,"Accuracy":0,"Sham":0,"Outcome":"+0","Keys":[1958.1550000002608],"TotalKeys":1,"Block":2,"Trial":121,"Valence":"Win","Action":"No-Go","Robot":2,"trial_type":"pit-trial","trial_index":135,"time_elapsed":550341,"internal_node_id":"0.0-135.0"},{"Rune":"06","Correct":-1,"Choice":-1,"RT":-1,"Accuracy":1,"Sham":0,"Outcome":"+0","Keys":[],"TotalKeys":0,"Block":2,"Trial":122,"Valence":"Lose","Action":"No-Go","Robot":4,"trial_type":"pit-trial","trial_index":136,"time_elapsed":554345,"internal_node_id":"0.0-136.0"},{"Rune":"05","Correct":32,"Choice":-1,"RT":-1,"Accuracy":0,"Sham":0,"Outcome":"-10","Keys":[],"TotalKeys":0,"Block":2,"Trial":123,"Valence":"Lose","Action":"Go","Robot":3,"trial_type":"pit-trial","trial_index":137,"time_elapsed":558348,"internal_node_id":"0.0-137.0"},{"Rune":"03","Correct":32,"Choice":32,"RT":434.42000000504777,"Accuracy":1,"Sham":1,"Outcome":"+0","Keys":[1935.0799999956507,2167.0299999968847],"TotalKeys":2,"Block":2,"Trial":124,"Valence":"Win","Action":"Go","Robot":1,"trial_type":"pit-trial","trial_index":138,"time_elapsed":561285,"internal_node_id":"0.0-138.0"},{"Rune":"05","Correct":32,"Choice":-1,"RT":-1,"Accuracy":0,"Sham":1,"Outcome":"+0","Keys":[],"TotalKeys":0,"Block":2,"Trial":125,"Valence":"Lose","Action":"Go","Robot":3,"trial_type":"pit-trial","trial_index":139,"time_elapsed":565289,"internal_node_id":"0.0-139.0"},{"Rune":"06","Correct":-1,"Choice":-1,"RT":-1,"Accuracy":1,"Sham":0,"Outcome":"+0","Keys":[],"TotalKeys":0,"Block":2,"Trial":126,"Valence":"Lose","Action":"No-Go","Robot":4,"trial_type":"pit-trial","trial_index":140,"time_elapsed":569291,"internal_node_id":"0.0-140.0"},{"Rune":"04","Correct":-1,"Choice":32,"RT":339.1750000009779,"Accuracy":0,"Sham":0,"Outcome":"+0","Keys":[1839.5949999976438],"TotalKeys":1,"Block":2,"Trial":127,"Valence":"Win","Action":"No-Go","Robot":2,"trial_type":"pit-trial","trial_index":141,"time_elapsed":572133,"internal_node_id":"0.0-141.0"},{"Rune":"03","Correct":32,"Choice":32,"RT":456.9800000026589,"Accuracy":1,"Sham":0,"Outcome":"+10","Keys":[1957.8099999926053],"TotalKeys":1,"Block":2,"Trial":128,"Valence":"Win","Action":"Go","Robot":1,"trial_type":"pit-trial","trial_index":142,"time_elapsed":575092,"internal_node_id":"0.0-142.0"},{"Rune":"06","Correct":-1,"Choice":-1,"RT":-1,"Accuracy":1,"Sham":0,"Outcome":"+0","Keys":[],"TotalKeys":0,"Block":2,"Trial":129,"Valence":"Lose","Action":"No-Go","Robot":4,"trial_type":"pit-trial","trial_index":143,"time_elapsed":579095,"internal_node_id":"0.0-143.0"},{"Rune":"03","Correct":32,"Choice":32,"RT":351.0600000008708,"Accuracy":1,"Sham":0,"Outcome":"+10","Keys":[1852.2249999950873],"TotalKeys":1,"Block":2,"Trial":130,"Valence":"Win","Action":"Go","Robot":1,"trial_type":"pit-trial","trial_index":144,"time_elapsed":581949,"internal_node_id":"0.0-144.0"},{"Rune":"05","Correct":32,"Choice":-1,"RT":-1,"Accuracy":0,"Sham":0,"Outcome":"-10","Keys":[],"TotalKeys":0,"Block":2,"Trial":131,"Valence":"Lose","Action":"Go","Robot":3,"trial_type":"pit-trial","trial_index":145,"time_elapsed":585952,"internal_node_id":"0.0-145.0"},{"Rune":"04","Correct":-1,"Choice":32,"RT":446.3099999993574,"Accuracy":0,"Sham":0,"Outcome":"+0","Keys":[1946.9450000033248],"TotalKeys":1,"Block":2,"Trial":132,"Valence":"Win","Action":"No-Go","Robot":2,"trial_type":"pit-trial","trial_index":146,"time_elapsed":588901,"internal_node_id":"0.0-146.0"},{"Rune":"06","Correct":-1,"Choice":-1,"RT":-1,"Accuracy":1,"Sham":0,"Outcome":"+0","Keys":[],"TotalKeys":0,"Block":2,"Trial":133,"Valence":"Lose","Action":"No-Go","Robot":4,"trial_type":"pit-trial","trial_index":147,"time_elapsed":592904,"internal_node_id":"0.0-147.0"},{"Rune":"03","Correct":32,"Choice":32,"RT":398.11500000359956,"Accuracy":1,"Sham":0,"Outcome":"+10","Keys":[1899.1299999906914],"TotalKeys":1,"Block":2,"Trial":134,"Valence":"Win","Action":"Go","Robot":1,"trial_type":"pit-trial","trial_index":148,"time_elapsed":595805,"internal_node_id":"0.0-148.0"},{"Rune":"05","Correct":32,"Choice":-1,"RT":-1,"Accuracy":0,"Sham":0,"Outcome":"-10","Keys":[],"TotalKeys":0,"Block":2,"Trial":135,"Valence":"Lose","Action":"Go","Robot":3,"trial_type":"pit-trial","trial_index":149,"time_elapsed":599809,"internal_node_id":"0.0-149.0"},{"Rune":"04","Correct":-1,"Choice":32,"RT":405.22499999497086,"Accuracy":0,"Sham":0,"Outcome":"+0","Keys":[1906.105000001844],"TotalKeys":1,"Block":2,"Trial":136,"Valence":"Win","Action":"No-Go","Robot":2,"trial_type":"pit-trial","trial_index":150,"time_elapsed":602717,"internal_node_id":"0.0-150.0"},{"Rune":"06","Correct":-1,"Choice":-1,"RT":-1,"Accuracy":1,"Sham":1,"Outcome":"-10","Keys":[],"TotalKeys":0,"Block":2,"Trial":137,"Valence":"Lose","Action":"No-Go","Robot":4,"trial_type":"pit-trial","trial_index":151,"time_elapsed":606720,"internal_node_id":"0.0-151.0"},{"Rune":"03","Correct":32,"Choice":32,"RT":310.08000001020264,"Accuracy":1,"Sham":0,"Outcome":"+10","Keys":[1810.5950000026496],"TotalKeys":1,"Block":2,"Trial":138,"Valence":"Win","Action":"Go","Robot":1,"trial_type":"pit-trial","trial_index":152,"time_elapsed":609533,"internal_node_id":"0.0-152.0"},{"Rune":"05","Correct":32,"Choice":-1,"RT":-1,"Accuracy":0,"Sham":0,"Outcome":"-10","Keys":[],"TotalKeys":0,"Block":2,"Trial":139,"Valence":"Lose","Action":"Go","Robot":3,"trial_type":"pit-trial","trial_index":153,"time_elapsed":613537,"internal_node_id":"0.0-153.0"},{"Rune":"04","Correct":-1,"Choice":32,"RT":445.0399999914225,"Accuracy":0,"Sham":1,"Outcome":"+10","Keys":[1946.1150000133784],"TotalKeys":1,"Block":2,"Trial":140,"Valence":"Win","Action":"No-Go","Robot":2,"trial_type":"pit-trial","trial_index":154,"time_elapsed":616485,"internal_node_id":"0.0-154.0"},{"Rune":"04","Correct":-1,"Choice":32,"RT":529.129999995348,"Accuracy":0,"Sham":1,"Outcome":"+10","Keys":[2030.0399999978254],"TotalKeys":1,"Block":2,"Trial":141,"Valence":"Win","Action":"No-Go","Robot":2,"trial_type":"pit-trial","trial_index":155,"time_elapsed":619517,"internal_node_id":"0.0-155.0"},{"Rune":"05","Correct":32,"Choice":-1,"RT":-1,"Accuracy":0,"Sham":0,"Outcome":"-10","Keys":[],"TotalKeys":0,"Block":2,"Trial":142,"Valence":"Lose","Action":"Go","Robot":3,"trial_type":"pit-trial","trial_index":156,"time_elapsed":623519,"internal_node_id":"0.0-156.0"},{"Rune":"03","Correct":32,"Choice":32,"RT":526.4400000014575,"Accuracy":1,"Sham":0,"Outcome":"+10","Keys":[2027.4950000020908],"TotalKeys":1,"Block":2,"Trial":143,"Valence":"Win","Action":"Go","Robot":1,"trial_type":"pit-trial","trial_index":157,"time_elapsed":626549,"internal_node_id":"0.0-157.0"},{"Rune":"06","Correct":-1,"Choice":-1,"RT":-1,"Accuracy":1,"Sham":0,"Outcome":"+0","Keys":[],"TotalKeys":0,"Block":2,"Trial":144,"Valence":"Lose","Action":"No-Go","Robot":4,"trial_type":"pit-trial","trial_index":158,"time_elapsed":630552,"internal_node_id":"0.0-158.0"},{"Rune":"06","Correct":-1,"Choice":-1,"RT":-1,"Accuracy":1,"Sham":0,"Outcome":"+0","Keys":[],"TotalKeys":0,"Block":2,"Trial":145,"Valence":"Lose","Action":"No-Go","Robot":4,"trial_type":"pit-trial","trial_index":159,"time_elapsed":634554,"internal_node_id":"0.0-159.0"},{"Rune":"03","Correct":32,"Choice":32,"RT":292.1749999950407,"Accuracy":1,"Sham":0,"Outcome":"+10","Keys":[1792.4400000047171],"TotalKeys":1,"Block":2,"Trial":146,"Valence":"Win","Action":"Go","Robot":1,"trial_type":"pit-trial","trial_index":160,"time_elapsed":637349,"internal_node_id":"0.0-160.0"},{"Rune":"05","Correct":32,"Choice":-1,"RT":-1,"Accuracy":0,"Sham":0,"Outcome":"-10","Keys":[],"TotalKeys":0,"Block":2,"Trial":147,"Valence":"Lose","Action":"Go","Robot":3,"trial_type":"pit-trial","trial_index":161,"time_elapsed":641352,"internal_node_id":"0.0-161.0"},{"Rune":"04","Correct":-1,"Choice":32,"RT":293.79500000504777,"Accuracy":0,"Sham":0,"Outcome":"+0","Keys":[1795.0399999972433],"TotalKeys":1,"Block":2,"Trial":148,"Valence":"Win","Action":"No-Go","Robot":2,"trial_type":"pit-trial","trial_index":162,"time_elapsed":644149,"internal_node_id":"0.0-162.0"},{"Rune":"04","Correct":-1,"Choice":32,"RT":457.5900000054389,"Accuracy":0,"Sham":0,"Outcome":"+0","Keys":[1957.6349999988452],"TotalKeys":1,"Block":2,"Trial":149,"Valence":"Win","Action":"No-Go","Robot":2,"trial_type":"pit-trial","trial_index":163,"time_elapsed":647110,"internal_node_id":"0.0-163.0"},{"Rune":"06","Correct":-1,"Choice":-1,"RT":-1,"Accuracy":1,"Sham":0,"Outcome":"+0","Keys":[],"TotalKeys":0,"Block":2,"Trial":150,"Valence":"Lose","Action":"No-Go","Robot":4,"trial_type":"pit-trial","trial_index":164,"time_elapsed":651112,"internal_node_id":"0.0-164.0"},{"Rune":"05","Correct":32,"Choice":-1,"RT":-1,"Accuracy":0,"Sham":0,"Outcome":"-10","Keys":[],"TotalKeys":0,"Block":2,"Trial":151,"Valence":"Lose","Action":"Go","Robot":3,"trial_type":"pit-trial","trial_index":165,"time_elapsed":655116,"internal_node_id":"0.0-165.0"},{"Rune":"03","Correct":32,"Choice":32,"RT":626.510000001872,"Accuracy":1,"Sham":0,"Outcome":"+10","Keys":[2127.2549999994226],"TotalKeys":1,"Block":2,"Trial":152,"Valence":"Win","Action":"Go","Robot":1,"trial_type":"pit-trial","trial_index":166,"time_elapsed":658245,"internal_node_id":"0.0-166.0"},{"Rune":"03","Correct":32,"Choice":32,"RT":688.4900000004563,"Accuracy":1,"Sham":0,"Outcome":"+10","Keys":[2190.275000000838],"TotalKeys":1,"Block":2,"Trial":153,"Valence":"Win","Action":"Go","Robot":1,"trial_type":"pit-trial","trial_index":167,"time_elapsed":661437,"internal_node_id":"0.0-167.0"},{"Rune":"06","Correct":-1,"Choice":-1,"RT":-1,"Accuracy":1,"Sham":0,"Outcome":"+0","Keys":[],"TotalKeys":0,"Block":2,"Trial":154,"Valence":"Lose","Action":"No-Go","Robot":4,"trial_type":"pit-trial","trial_index":168,"time_elapsed":665441,"internal_node_id":"0.0-168.0"},{"Rune":"05","Correct":32,"Choice":-1,"RT":-1,"Accuracy":0,"Sham":0,"Outcome":"-10","Keys":[],"TotalKeys":0,"Block":2,"Trial":155,"Valence":"Lose","Action":"Go","Robot":3,"trial_type":"pit-trial","trial_index":169,"time_elapsed":669443,"internal_node_id":"0.0-169.0"},{"Rune":"04","Correct":-1,"Choice":32,"RT":523.4749999945052,"Accuracy":0,"Sham":0,"Outcome":"+0","Keys":[2023.9299999957439],"TotalKeys":1,"Block":2,"Trial":156,"Valence":"Win","Action":"No-Go","Robot":2,"trial_type":"pit-trial","trial_index":170,"time_elapsed":672469,"internal_node_id":"0.0-170.0"},{"Rune":"05","Correct":32,"Choice":-1,"RT":-1,"Accuracy":0,"Sham":1,"Outcome":"+0","Keys":[],"TotalKeys":0,"Block":2,"Trial":157,"Valence":"Lose","Action":"Go","Robot":3,"trial_type":"pit-trial","trial_index":171,"time_elapsed":676471,"internal_node_id":"0.0-171.0"},{"Rune":"06","Correct":-1,"Choice":-1,"RT":-1,"Accuracy":1,"Sham":1,"Outcome":"-10","Keys":[],"TotalKeys":0,"Block":2,"Trial":158,"Valence":"Lose","Action":"No-Go","Robot":4,"trial_type":"pit-trial","trial_index":172,"time_elapsed":680475,"internal_node_id":"0.0-172.0"},{"Rune":"04","Correct":-1,"Choice":32,"RT":499.2750000092201,"Accuracy":0,"Sham":0,"Outcome":"+0","Keys":[2000.175000008312],"TotalKeys":1,"Block":2,"Trial":159,"Valence":"Win","Action":"No-Go","Robot":2,"trial_type":"pit-trial","trial_index":173,"time_elapsed":683477,"internal_node_id":"0.0-173.0"},{"Rune":"03","Correct":32,"Choice":32,"RT":513.2300000113901,"Accuracy":1,"Sham":1,"Outcome":"+0","Keys":[2013.8399999996182],"TotalKeys":1,"Block":2,"Trial":160,"Valence":"Win","Action":"Go","Robot":1,"trial_type":"pit-trial","trial_index":174,"time_elapsed":686493,"internal_node_id":"0.0-174.0"},{"rt":15866.909999997006,"demographics":{"age":"30","gender-categorical":"Male","ethnicity":"Not Hispanic or Latino","race":"White","english":"Yes","fluency":"Very well"},"trial_type":"survey-demo","trial_index":175,"time_elapsed":702362,"internal_node_id":"0.0-175.0"},{"rt":23987.04999999609,"debriefgraphics":{"difficulty":"5","fun":"5","clarity":"5","strategy":"I just chose which ones got me the most points and went from there","feedback":""},"trial_type":"survey-debrief","trial_index":176,"time_elapsed":726351,"internal_node_id":"0.0-176.0","interactions":"[]"}]