[{"view_history":"[{\"page_index\":0,\"viewing_time\":2125.9100000024773},{\"page_index\":1,\"viewing_time\":6275.884999951813},{\"page_index\":2,\"viewing_time\":4641.920000023674},{\"page_index\":3,\"viewing_time\":3631.950000009965},{\"page_index\":4,\"viewing_time\":3900.7049999781884}]","rt":20578.89999996405,"trial_type":"pit-instructions","trial_index":0,"time_elapsed":20582,"internal_node_id":"0.0-0.0"},{"Valence":"Practice","Color":"#fffff080","Rune":"01","Correct":32,"Choice":32,"RT":571.1749999900348,"Accuracy":1,"Sham":0,"Outcome":"+10","Keys":[2073.035000008531],"TotalKeys":1,"trial_type":"pit-trial","trial_index":1,"time_elapsed":23666,"internal_node_id":"0.0-1.0"},{"Valence":"Practice","Color":"#fffff080","Rune":"01","Correct":32,"Choice":32,"RT":195.04000002052635,"Accuracy":1,"Sham":0,"Outcome":"+10","Keys":[1695.6849999842234],"TotalKeys":1,"trial_type":"pit-trial","trial_index":2,"time_elapsed":26375,"internal_node_id":"0.0-2.0"},{"Valence":"Practice","Color":"#fffff080","Rune":"01","Correct":32,"Choice":32,"RT":178.394999995362,"Accuracy":1,"Sham":0,"Outcome":"+10","Keys":[1683.2749999593943],"TotalKeys":1,"trial_type":"pit-trial","trial_index":3,"time_elapsed":29069,"internal_node_id":"0.0-3.0"},{"Valence":"Practice","Color":"#fffff080","Rune":"01","Correct":32,"Choice":32,"RT":126.41000002622604,"Accuracy":1,"Sham":0,"Outcome":"+10","Keys":[1627.0600000279956],"TotalKeys":1,"trial_type":"pit-trial","trial_index":4,"time_elapsed":31702,"internal_node_id":"0.0-4.0"},{"view_history":"[{\"page_index\":0,\"viewing_time\":3760.154999967199}]","rt":3761.1550000146963,"trial_type":"pit-instructions","trial_index":5,"time_elapsed":35464,"internal_node_id":"0.0-5.0"},{"Valence":"Practice","Color":"#fffff080","Rune":"02","Correct":-1,"Choice":-1,"RT":-1,"Accuracy":1,"Sham":0,"Outcome":"+10","Keys":[],"TotalKeys":0,"trial_type":"pit-trial","trial_index":6,"time_elapsed":39474,"internal_node_id":"0.0-6.0"},{"Valence":"Practice","Color":"#fffff080","Rune":"02","Correct":-1,"Choice":-1,"RT":-1,"Accuracy":1,"Sham":0,"Outcome":"+10","Keys":[],"TotalKeys":0,"trial_type":"pit-trial","trial_index":7,"time_elapsed":43485,"internal_node_id":"0.0-7.0"},{"Valence":"Practice","Color":"#fffff080","Rune":"02","Correct":-1,"Choice":-1,"RT":-1,"Accuracy":1,"Sham":0,"Outcome":"+10","Keys":[],"TotalKeys":0,"trial_type":"pit-trial","trial_index":8,"time_elapsed":47493,"internal_node_id":"0.0-8.0"},{"Valence":"Practice","Color":"#fffff080","Rune":"02","Correct":-1,"Choice":-1,"RT":-1,"Accuracy":1,"Sham":0,"Outcome":"+10","Keys":[],"TotalKeys":0,"trial_type":"pit-trial","trial_index":9,"time_elapsed":51505,"internal_node_id":"0.0-9.0"},{"view_history":"[{\"page_index\":0,\"viewing_time\":3092.130000004545},{\"page_index\":1,\"viewing_time\":5344.235000025947},{\"page_index\":2,\"viewing_time\":3534.1299999854527},{\"page_index\":3,\"viewing_time\":3326.1100000236183},{\"page_index\":4,\"viewing_time\":4151.769999996759},{\"page_index\":5,\"viewing_time\":5122.144999972079},{\"page_index\":6,\"viewing_time\":1876.5300000086427},{\"page_index\":7,\"viewing_time\":1193.1949999998324}]","rt":27641.070000012405,"trial_type":"pit-instructions","trial_index":10,"time_elapsed":79148,"internal_node_id":"0.0-10.0"},{"rt":15596.450000011828,"responses":"{\"no-press\":\"Do nothing\",\"context-win\":\"+10\",\"context-lose\":\"-1\",\"feedback\":\"True\"}","errors":1,"trial_type":"pit-comprehension","trial_index":11,"time_elapsed":94755,"internal_node_id":"0.0-11.0"},{"view_history":"[{\"page_index\":0,\"viewing_time\":3048.77499997383}]","rt":3051.069999986794,"trial_type":"pit-instructions","trial_index":12,"time_elapsed":97811,"internal_node_id":"0.0-12.0"},{"Valence":"Win","Color":"#3366ff99","Rune":"06","Correct":-1,"Choice":32,"RT":708.504999987781,"Accuracy":0,"Sham":0,"Outcome":"+1","Keys":[2208.8199999998324],"TotalKeys":1,"Block":1,"Trial":1,"Action":"No-Go","Robot":2,"trial_type":"pit-trial","trial_index":13,"time_elapsed":101026,"internal_node_id":"0.0-13.0"},{"Valence":"Lose","Color":"#ffcc3399","Rune":"05","Correct":32,"Choice":32,"RT":674.0899999858811,"Accuracy":1,"Sham":0,"Outcome":"-1","Keys":[2174.6999999741092],"TotalKeys":1,"Block":1,"Trial":2,"Action":"Go","Robot":3,"trial_type":"pit-trial","trial_index":14,"time_elapsed":104208,"internal_node_id":"0.0-14.0"},{"Valence":"Lose","Color":"#ffcc3399","Rune":"03","Correct":-1,"Choice":32,"RT":568.5499999672174,"Accuracy":0,"Sham":0,"Outcome":"-10","Keys":[2069.6200000238605],"TotalKeys":1,"Block":1,"Trial":3,"Action":"No-Go","Robot":4,"trial_type":"pit-trial","trial_index":15,"time_elapsed":107285,"internal_node_id":"0.0-15.0"},{"Valence":"Win","Color":"#3366ff99","Rune":"04","Correct":32,"Choice":32,"RT":579.3900000280701,"Accuracy":1,"Sham":0,"Outcome":"+10","Keys":[2084.5200000330806],"TotalKeys":1,"Block":1,"Trial":4,"Action":"Go","Robot":1,"trial_type":"pit-trial","trial_index":16,"time_elapsed":110380,"internal_node_id":"0.0-16.0"},{"Valence":"Lose","Color":"#ffcc3399","Rune":"05","Correct":32,"Choice":32,"RT":672.759999986738,"Accuracy":1,"Sham":1,"Outcome":"-10","Keys":[2191.46499998169],"TotalKeys":1,"Block":1,"Trial":5,"Action":"Go","Robot":3,"trial_type":"pit-trial","trial_index":17,"time_elapsed":113577,"internal_node_id":"0.0-17.0"},{"Valence":"Lose","Color":"#ffcc3399","Rune":"03","Correct":-1,"Choice":-1,"RT":-1,"Accuracy":1,"Sham":0,"Outcome":"-1","Keys":[],"TotalKeys":0,"Block":1,"Trial":6,"Action":"No-Go","Robot":4,"trial_type":"pit-trial","trial_index":18,"time_elapsed":117582,"internal_node_id":"0.0-18.0"},{"Valence":"Win","Color":"#3366ff99","Rune":"04","Correct":32,"Choice":32,"RT":557.5650000246242,"Accuracy":1,"Sham":0,"Outcome":"+10","Keys":[2057.7850000117905],"TotalKeys":1,"Block":1,"Trial":7,"Action":"Go","Robot":1,"trial_type":"pit-trial","trial_index":19,"time_elapsed":120646,"internal_node_id":"0.0-19.0"},{"Valence":"Win","Color":"#3366ff99","Rune":"06","Correct":-1,"Choice":32,"RT":801.5550000127405,"Accuracy":0,"Sham":0,"Outcome":"+1","Keys":[2302.0350000006147],"TotalKeys":1,"Block":1,"Trial":8,"Action":"No-Go","Robot":2,"trial_type":"pit-trial","trial_index":20,"time_elapsed":123953,"internal_node_id":"0.0-20.0"},{"Valence":"Win","Color":"#3366ff99","Rune":"04","Correct":32,"Choice":32,"RT":1095.2599999727681,"Accuracy":1,"Sham":0,"Outcome":"+10","Keys":[2596.770000003744],"TotalKeys":1,"Block":1,"Trial":9,"Action":"Go","Robot":1,"trial_type":"pit-trial","trial_index":21,"time_elapsed":127561,"internal_node_id":"0.0-21.0"},{"Valence":"Lose","Color":"#ffcc3399","Rune":"05","Correct":32,"Choice":-1,"RT":-1,"Accuracy":0,"Sham":0,"Outcome":"-10","Keys":[],"TotalKeys":0,"Block":1,"Trial":10,"Action":"Go","Robot":3,"trial_type":"pit-trial","trial_index":22,"time_elapsed":131568,"internal_node_id":"0.0-22.0"},{"Valence":"Win","Color":"#3366ff99","Rune":"06","Correct":-1,"Choice":32,"RT":1039.000000047963,"Accuracy":0,"Sham":0,"Outcome":"+1","Keys":[2539.584999962244],"TotalKeys":1,"Block":1,"Trial":11,"Action":"No-Go","Robot":2,"trial_type":"pit-trial","trial_index":23,"time_elapsed":135113,"internal_node_id":"0.0-23.0"},{"Valence":"Lose","Color":"#ffcc3399","Rune":"03","Correct":-1,"Choice":-1,"RT":-1,"Accuracy":1,"Sham":0,"Outcome":"-1","Keys":[],"TotalKeys":0,"Block":1,"Trial":12,"Action":"No-Go","Robot":4,"trial_type":"pit-trial","trial_index":24,"time_elapsed":139120,"internal_node_id":"0.0-24.0"},{"Valence":"Win","Color":"#3366ff99","Rune":"04","Correct":32,"Choice":32,"RT":738.0950000369921,"Accuracy":1,"Sham":0,"Outcome":"+10","Keys":[2239.0550000127405],"TotalKeys":1,"Block":1,"Trial":13,"Action":"Go","Robot":1,"trial_type":"pit-trial","trial_index":25,"time_elapsed":142367,"internal_node_id":"0.0-25.0"},{"Valence":"Win","Color":"#3366ff99","Rune":"06","Correct":-1,"Choice":-1,"RT":-1,"Accuracy":1,"Sham":0,"Outcome":"+10","Keys":[],"TotalKeys":0,"Block":1,"Trial":14,"Action":"No-Go","Robot":2,"trial_type":"pit-trial","trial_index":26,"time_elapsed":146375,"internal_node_id":"0.0-26.0"},{"Valence":"Lose","Color":"#ffcc3399","Rune":"05","Correct":32,"Choice":-1,"RT":-1,"Accuracy":0,"Sham":0,"Outcome":"-10","Keys":[],"TotalKeys":0,"Block":1,"Trial":15,"Action":"Go","Robot":3,"trial_type":"pit-trial","trial_index":27,"time_elapsed":150382,"internal_node_id":"0.0-27.0"},{"Valence":"Lose","Color":"#ffcc3399","Rune":"03","Correct":-1,"Choice":-1,"RT":-1,"Accuracy":1,"Sham":1,"Outcome":"-10","Keys":[],"TotalKeys":0,"Block":1,"Trial":16,"Action":"No-Go","Robot":4,"trial_type":"pit-trial","trial_index":28,"time_elapsed":154389,"internal_node_id":"0.0-28.0"},{"Valence":"Win","Color":"#3366ff99","Rune":"04","Correct":32,"Choice":32,"RT":221.37499996460974,"Accuracy":1,"Sham":1,"Outcome":"1","Keys":[1724.4150000042282],"TotalKeys":1,"Block":1,"Trial":17,"Action":"Go","Robot":1,"trial_type":"pit-trial","trial_index":29,"time_elapsed":157120,"internal_node_id":"0.0-29.0"},{"Valence":"Lose","Color":"#ffcc3399","Rune":"05","Correct":32,"Choice":32,"RT":1027.425000036601,"Accuracy":1,"Sham":0,"Outcome":"-1","Keys":[2533.0400000093505],"TotalKeys":1,"Block":1,"Trial":18,"Action":"Go","Robot":3,"trial_type":"pit-trial","trial_index":30,"time_elapsed":160660,"internal_node_id":"0.0-30.0"},{"Valence":"Win","Color":"#3366ff99","Rune":"06","Correct":-1,"Choice":32,"RT":693.4100000071339,"Accuracy":0,"Sham":1,"Outcome":"+10","Keys":[2198.2650000136346],"TotalKeys":1,"Block":1,"Trial":19,"Action":"No-Go","Robot":2,"trial_type":"pit-trial","trial_index":31,"time_elapsed":163866,"internal_node_id":"0.0-31.0"},{"Valence":"Lose","Color":"#ffcc3399","Rune":"03","Correct":-1,"Choice":32,"RT":681.3649999676272,"Accuracy":0,"Sham":0,"Outcome":"-10","Keys":[2182.6700000092387],"TotalKeys":1,"Block":1,"Trial":20,"Action":"No-Go","Robot":4,"trial_type":"pit-trial","trial_index":32,"time_elapsed":167053,"internal_node_id":"0.0-32.0"},{"Valence":"Lose","Color":"#ffcc3399","Rune":"03","Correct":-1,"Choice":-1,"RT":-1,"Accuracy":1,"Sham":0,"Outcome":"-1","Keys":[],"TotalKeys":0,"Block":1,"Trial":21,"Action":"No-Go","Robot":4,"trial_type":"pit-trial","trial_index":33,"time_elapsed":171058,"internal_node_id":"0.0-33.0"},{"Valence":"Win","Color":"#3366ff99","Rune":"06","Correct":-1,"Choice":32,"RT":1069.7299999883398,"Accuracy":0,"Sham":0,"Outcome":"+1","Keys":[2570.5500000040047],"TotalKeys":1,"Block":1,"Trial":22,"Action":"No-Go","Robot":2,"trial_type":"pit-trial","trial_index":34,"time_elapsed":174637,"internal_node_id":"0.0-34.0"},{"Valence":"Win","Color":"#3366ff99","Rune":"04","Correct":32,"Choice":32,"RT":641.5200000046752,"Accuracy":1,"Sham":0,"Outcome":"+10","Keys":[2141.684999980498],"TotalKeys":1,"Block":1,"Trial":23,"Action":"Go","Robot":1,"trial_type":"pit-trial","trial_index":35,"time_elapsed":177784,"internal_node_id":"0.0-35.0"},{"Valence":"Lose","Color":"#ffcc3399","Rune":"05","Correct":32,"Choice":32,"RT":933.8299999944866,"Accuracy":1,"Sham":0,"Outcome":"-1","Keys":[2435.155000013765],"TotalKeys":1,"Block":1,"Trial":24,"Action":"Go","Robot":3,"trial_type":"pit-trial","trial_index":36,"time_elapsed":181225,"internal_node_id":"0.0-36.0"},{"Valence":"Lose","Color":"#ffcc3399","Rune":"03","Correct":-1,"Choice":-1,"RT":-1,"Accuracy":1,"Sham":0,"Outcome":"-1","Keys":[],"TotalKeys":0,"Block":1,"Trial":25,"Action":"No-Go","Robot":4,"trial_type":"pit-trial","trial_index":37,"time_elapsed":185236,"internal_node_id":"0.0-37.0"},{"Valence":"Win","Color":"#3366ff99","Rune":"04","Correct":32,"Choice":32,"RT":717.3600000096485,"Accuracy":1,"Sham":0,"Outcome":"+10","Keys":[2218.0350000271574],"TotalKeys":1,"Block":1,"Trial":26,"Action":"Go","Robot":1,"trial_type":"pit-trial","trial_index":38,"time_elapsed":188462,"internal_node_id":"0.0-38.0"},{"Valence":"Lose","Color":"#ffcc3399","Rune":"05","Correct":32,"Choice":-1,"RT":-1,"Accuracy":0,"Sham":0,"Outcome":"-10","Keys":[],"TotalKeys":0,"Block":1,"Trial":27,"Action":"Go","Robot":3,"trial_type":"pit-trial","trial_index":39,"time_elapsed":192469,"internal_node_id":"0.0-39.0"},{"Valence":"Win","Color":"#3366ff99","Rune":"06","Correct":-1,"Choice":-1,"RT":-1,"Accuracy":1,"Sham":0,"Outcome":"+10","Keys":[],"TotalKeys":0,"Block":1,"Trial":28,"Action":"No-Go","Robot":2,"trial_type":"pit-trial","trial_index":40,"time_elapsed":196477,"internal_node_id":"0.0-40.0"},{"Valence":"Lose","Color":"#ffcc3399","Rune":"05","Correct":32,"Choice":-1,"RT":-1,"Accuracy":0,"Sham":0,"Outcome":"-10","Keys":[],"TotalKeys":0,"Block":1,"Trial":29,"Action":"Go","Robot":3,"trial_type":"pit-trial","trial_index":41,"time_elapsed":200489,"internal_node_id":"0.0-41.0"},{"Valence":"Win","Color":"#3366ff99","Rune":"06","Correct":-1,"Choice":-1,"RT":-1,"Accuracy":1,"Sham":1,"Outcome":"1","Keys":[],"TotalKeys":0,"Block":1,"Trial":30,"Action":"No-Go","Robot":2,"trial_type":"pit-trial","trial_index":42,"time_elapsed":204497,"internal_node_id":"0.0-42.0"},{"Valence":"Win","Color":"#3366ff99","Rune":"04","Correct":32,"Choice":32,"RT":316.2199999787845,"Accuracy":1,"Sham":1,"Outcome":"1","Keys":[1816.8399999849498],"TotalKeys":1,"Block":1,"Trial":31,"Action":"Go","Robot":1,"trial_type":"pit-trial","trial_index":43,"time_elapsed":207320,"internal_node_id":"0.0-43.0"},{"Valence":"Lose","Color":"#ffcc3399","Rune":"03","Correct":-1,"Choice":-1,"RT":-1,"Accuracy":1,"Sham":0,"Outcome":"-1","Keys":[],"TotalKeys":0,"Block":1,"Trial":32,"Action":"No-Go","Robot":4,"trial_type":"pit-trial","trial_index":44,"time_elapsed":211326,"internal_node_id":"0.0-44.0"},{"Valence":"Lose","Color":"#ffcc3399","Rune":"03","Correct":-1,"Choice":-1,"RT":-1,"Accuracy":1,"Sham":0,"Outcome":"-1","Keys":[],"TotalKeys":0,"Block":1,"Trial":33,"Action":"No-Go","Robot":4,"trial_type":"pit-trial","trial_index":45,"time_elapsed":215335,"internal_node_id":"0.0-45.0"},{"Valence":"Win","Color":"#3366ff99","Rune":"06","Correct":-1,"Choice":-1,"RT":-1,"Accuracy":1,"Sham":0,"Outcome":"+10","Keys":[],"TotalKeys":0,"Block":1,"Trial":34,"Action":"No-Go","Robot":2,"trial_type":"pit-trial","trial_index":46,"time_elapsed":219340,"internal_node_id":"0.0-46.0"},{"Valence":"Win","Color":"#3366ff99","Rune":"04","Correct":32,"Choice":-1,"RT":-1,"Accuracy":0,"Sham":0,"Outcome":"+1","Keys":[],"TotalKeys":0,"Block":1,"Trial":35,"Action":"Go","Robot":1,"trial_type":"pit-trial","trial_index":47,"time_elapsed":223345,"internal_node_id":"0.0-47.0"},{"Valence":"Lose","Color":"#ffcc3399","Rune":"05","Correct":32,"Choice":-1,"RT":-1,"Accuracy":0,"Sham":1,"Outcome":"-1","Keys":[],"TotalKeys":0,"Block":1,"Trial":36,"Action":"Go","Robot":3,"trial_type":"pit-trial","trial_index":48,"time_elapsed":227355,"internal_node_id":"0.0-48.0"},{"Valence":"Lose","Color":"#ffcc3399","Rune":"03","Correct":-1,"Choice":32,"RT":1075.1499999896623,"Accuracy":0,"Sham":1,"Outcome":"-1","Keys":[2576.1899999924935],"TotalKeys":1,"Block":1,"Trial":37,"Action":"No-Go","Robot":4,"trial_type":"pit-trial","trial_index":49,"time_elapsed":230937,"internal_node_id":"0.0-49.0"},{"Valence":"Lose","Color":"#ffcc3399","Rune":"05","Correct":32,"Choice":32,"RT":981.8650000379421,"Accuracy":1,"Sham":0,"Outcome":"-1","Keys":[2482.959999993909],"TotalKeys":1,"Block":1,"Trial":38,"Action":"Go","Robot":3,"trial_type":"pit-trial","trial_index":50,"time_elapsed":234425,"internal_node_id":"0.0-50.0"},{"Valence":"Win","Color":"#3366ff99","Rune":"04","Correct":32,"Choice":32,"RT":561.1400000052527,"Accuracy":1,"Sham":0,"Outcome":"+10","Keys":[2062.5949999666773],"TotalKeys":1,"Block":1,"Trial":39,"Action":"Go","Robot":1,"trial_type":"pit-trial","trial_index":51,"time_elapsed":237494,"internal_node_id":"0.0-51.0"},{"Valence":"Win","Color":"#3366ff99","Rune":"06","Correct":-1,"Choice":32,"RT":554.8200000193901,"Accuracy":0,"Sham":0,"Outcome":"+1","Keys":[2056.909999984782],"TotalKeys":1,"Block":1,"Trial":40,"Action":"No-Go","Robot":2,"trial_type":"pit-trial","trial_index":52,"time_elapsed":240560,"internal_node_id":"0.0-52.0"},{"Valence":"Lose","Color":"#ffcc3399","Rune":"05","Correct":32,"Choice":32,"RT":728.9299999829382,"Accuracy":1,"Sham":1,"Outcome":"-10","Keys":[2229.845000023488],"TotalKeys":1,"Block":1,"Trial":41,"Action":"Go","Robot":3,"trial_type":"pit-trial","trial_index":53,"time_elapsed":243796,"internal_node_id":"0.0-53.0"},{"Valence":"Win","Color":"#3366ff99","Rune":"06","Correct":-1,"Choice":32,"RT":412.88999997777864,"Accuracy":0,"Sham":0,"Outcome":"+1","Keys":[1914.6600000094622],"TotalKeys":1,"Block":1,"Trial":42,"Action":"No-Go","Robot":2,"trial_type":"pit-trial","trial_index":54,"time_elapsed":246719,"internal_node_id":"0.0-54.0"},{"Valence":"Lose","Color":"#ffcc3399","Rune":"03","Correct":-1,"Choice":-1,"RT":-1,"Accuracy":1,"Sham":0,"Outcome":"-1","Keys":[],"TotalKeys":0,"Block":1,"Trial":43,"Action":"No-Go","Robot":4,"trial_type":"pit-trial","trial_index":55,"time_elapsed":250726,"internal_node_id":"0.0-55.0"},{"Valence":"Win","Color":"#3366ff99","Rune":"04","Correct":32,"Choice":32,"RT":516.780000005383,"Accuracy":1,"Sham":0,"Outcome":"+10","Keys":[2016.944999981206],"TotalKeys":1,"Block":1,"Trial":44,"Action":"Go","Robot":1,"trial_type":"pit-trial","trial_index":56,"time_elapsed":253761,"internal_node_id":"0.0-56.0"},{"Valence":"Lose","Color":"#ffcc3399","Rune":"03","Correct":-1,"Choice":-1,"RT":-1,"Accuracy":1,"Sham":0,"Outcome":"-1","Keys":[],"TotalKeys":0,"Block":1,"Trial":45,"Action":"No-Go","Robot":4,"trial_type":"pit-trial","trial_index":57,"time_elapsed":257769,"internal_node_id":"0.0-57.0"},{"Valence":"Win","Color":"#3366ff99","Rune":"06","Correct":-1,"Choice":32,"RT":941.2249999586493,"Accuracy":0,"Sham":1,"Outcome":"+10","Keys":[2442.8049999987707],"TotalKeys":1,"Block":1,"Trial":46,"Action":"No-Go","Robot":2,"trial_type":"pit-trial","trial_index":58,"time_elapsed":261222,"internal_node_id":"0.0-58.0"},{"Valence":"Lose","Color":"#ffcc3399","Rune":"05","Correct":32,"Choice":-1,"RT":-1,"Accuracy":0,"Sham":0,"Outcome":"-10","Keys":[],"TotalKeys":0,"Block":1,"Trial":47,"Action":"Go","Robot":3,"trial_type":"pit-trial","trial_index":59,"time_elapsed":265230,"internal_node_id":"0.0-59.0"},{"Valence":"Win","Color":"#3366ff99","Rune":"04","Correct":32,"Choice":32,"RT":690.5099999858066,"Accuracy":1,"Sham":0,"Outcome":"+10","Keys":[2190.5700000352226],"TotalKeys":1,"Block":1,"Trial":48,"Action":"Go","Robot":1,"trial_type":"pit-trial","trial_index":60,"time_elapsed":268427,"internal_node_id":"0.0-60.0"},{"Valence":"Lose","Color":"#ffcc3399","Rune":"03","Correct":-1,"Choice":-1,"RT":-1,"Accuracy":1,"Sham":0,"Outcome":"-1","Keys":[],"TotalKeys":0,"Block":1,"Trial":49,"Action":"No-Go","Robot":4,"trial_type":"pit-trial","trial_index":61,"time_elapsed":272435,"internal_node_id":"0.0-61.0"},{"Valence":"Win","Color":"#3366ff99","Rune":"04","Correct":32,"Choice":32,"RT":498.19499999284744,"Accuracy":1,"Sham":0,"Outcome":"+10","Keys":[2000.5349999992177],"TotalKeys":1,"Block":1,"Trial":50,"Action":"Go","Robot":1,"trial_type":"pit-trial","trial_index":62,"time_elapsed":275445,"internal_node_id":"0.0-62.0"},{"Valence":"Win","Color":"#3366ff99","Rune":"06","Correct":-1,"Choice":32,"RT":875.5300000193529,"Accuracy":0,"Sham":0,"Outcome":"+1","Keys":[2376.364999974612],"TotalKeys":1,"Block":1,"Trial":51,"Action":"No-Go","Robot":2,"trial_type":"pit-trial","trial_index":63,"time_elapsed":278842,"internal_node_id":"0.0-63.0"},{"Valence":"Lose","Color":"#ffcc3399","Rune":"05","Correct":32,"Choice":32,"RT":833.3500000298955,"Accuracy":1,"Sham":0,"Outcome":"-1","Keys":[2333.5949999745935],"TotalKeys":1,"Block":1,"Trial":52,"Action":"Go","Robot":3,"trial_type":"pit-trial","trial_index":64,"time_elapsed":282180,"internal_node_id":"0.0-64.0"},{"Valence":"Win","Color":"#3366ff99","Rune":"06","Correct":-1,"Choice":32,"RT":1045.685000019148,"Accuracy":0,"Sham":0,"Outcome":"+1","Keys":[2546.245000034105],"TotalKeys":1,"Block":1,"Trial":53,"Action":"No-Go","Robot":2,"trial_type":"pit-trial","trial_index":65,"time_elapsed":285733,"internal_node_id":"0.0-65.0"},{"Valence":"Lose","Color":"#ffcc3399","Rune":"05","Correct":32,"Choice":-1,"RT":-1,"Accuracy":0,"Sham":0,"Outcome":"-10","Keys":[],"TotalKeys":0,"Block":1,"Trial":54,"Action":"Go","Robot":3,"trial_type":"pit-trial","trial_index":66,"time_elapsed":289766,"internal_node_id":"0.0-66.0"},{"Valence":"Lose","Color":"#ffcc3399","Rune":"03","Correct":-1,"Choice":-1,"RT":-1,"Accuracy":1,"Sham":0,"Outcome":"-1","Keys":[],"TotalKeys":0,"Block":1,"Trial":55,"Action":"No-Go","Robot":4,"trial_type":"pit-trial","trial_index":67,"time_elapsed":293774,"internal_node_id":"0.0-67.0"},{"Valence":"Win","Color":"#3366ff99","Rune":"04","Correct":32,"Choice":32,"RT":666.9049999909475,"Accuracy":1,"Sham":0,"Outcome":"+10","Keys":[2168.130000005476],"TotalKeys":1,"Block":1,"Trial":56,"Action":"Go","Robot":1,"trial_type":"pit-trial","trial_index":68,"time_elapsed":296948,"internal_node_id":"0.0-68.0"},{"Valence":"Win","Color":"#3366ff99","Rune":"04","Correct":32,"Choice":32,"RT":552.8300000005402,"Accuracy":1,"Sham":1,"Outcome":"1","Keys":[2053.4500000067055],"TotalKeys":1,"Block":1,"Trial":57,"Action":"Go","Robot":1,"trial_type":"pit-trial","trial_index":69,"time_elapsed":300010,"internal_node_id":"0.0-69.0"},{"Valence":"Lose","Color":"#ffcc3399","Rune":"05","Correct":32,"Choice":32,"RT":871.9350000028498,"Accuracy":1,"Sham":0,"Outcome":"-1","Keys":[2373.414999980014],"TotalKeys":1,"Block":1,"Trial":58,"Action":"Go","Robot":3,"trial_type":"pit-trial","trial_index":70,"time_elapsed":303391,"internal_node_id":"0.0-70.0"},{"Valence":"Lose","Color":"#ffcc3399","Rune":"03","Correct":-1,"Choice":-1,"RT":-1,"Accuracy":1,"Sham":1,"Outcome":"-10","Keys":[],"TotalKeys":0,"Block":1,"Trial":59,"Action":"No-Go","Robot":4,"trial_type":"pit-trial","trial_index":71,"time_elapsed":307398,"internal_node_id":"0.0-71.0"},{"Valence":"Win","Color":"#3366ff99","Rune":"06","Correct":-1,"Choice":32,"RT":847.2999999648891,"Accuracy":0,"Sham":0,"Outcome":"+1","Keys":[2347.5900000194088],"TotalKeys":1,"Block":1,"Trial":60,"Action":"No-Go","Robot":2,"trial_type":"pit-trial","trial_index":72,"time_elapsed":310752,"internal_node_id":"0.0-72.0"},{"Valence":"Win","Color":"#3366ff99","Rune":"06","Correct":-1,"Choice":32,"RT":994.0899999928661,"Accuracy":0,"Sham":0,"Outcome":"+1","Keys":[2495.175000047311],"TotalKeys":1,"Block":1,"Trial":61,"Action":"No-Go","Robot":2,"trial_type":"pit-trial","trial_index":73,"time_elapsed":314252,"internal_node_id":"0.0-73.0"},{"Valence":"Lose","Color":"#ffcc3399","Rune":"05","Correct":32,"Choice":-1,"RT":-1,"Accuracy":0,"Sham":0,"Outcome":"-10","Keys":[],"TotalKeys":0,"Block":1,"Trial":62,"Action":"Go","Robot":3,"trial_type":"pit-trial","trial_index":74,"time_elapsed":318259,"internal_node_id":"0.0-74.0"},{"Valence":"Lose","Color":"#ffcc3399","Rune":"03","Correct":-1,"Choice":32,"RT":1118.9699999522418,"Accuracy":0,"Sham":0,"Outcome":"-10","Keys":[2620.3399999649264],"TotalKeys":1,"Block":1,"Trial":63,"Action":"No-Go","Robot":4,"trial_type":"pit-trial","trial_index":75,"time_elapsed":322072,"internal_node_id":"0.0-75.0"},{"Valence":"Win","Color":"#3366ff99","Rune":"04","Correct":32,"Choice":32,"RT":640.5850000446662,"Accuracy":1,"Sham":0,"Outcome":"+10","Keys":[2141.445000015665],"TotalKeys":1,"Block":1,"Trial":64,"Action":"Go","Robot":1,"trial_type":"pit-trial","trial_index":76,"time_elapsed":325222,"internal_node_id":"0.0-76.0"},{"Valence":"Win","Color":"#3366ff99","Rune":"06","Correct":-1,"Choice":32,"RT":973.679999995511,"Accuracy":0,"Sham":0,"Outcome":"+1","Keys":[2474.1650000214577],"TotalKeys":1,"Block":1,"Trial":65,"Action":"No-Go","Robot":2,"trial_type":"pit-trial","trial_index":77,"time_elapsed":328704,"internal_node_id":"0.0-77.0"},{"Valence":"Lose","Color":"#ffcc3399","Rune":"03","Correct":-1,"Choice":32,"RT":830.1149999606423,"Accuracy":0,"Sham":0,"Outcome":"-10","Keys":[2333.9300000225194],"TotalKeys":1,"Block":1,"Trial":66,"Action":"No-Go","Robot":4,"trial_type":"pit-trial","trial_index":78,"time_elapsed":332046,"internal_node_id":"0.0-78.0"},{"Valence":"Win","Color":"#3366ff99","Rune":"04","Correct":32,"Choice":32,"RT":508.61499999882653,"Accuracy":1,"Sham":1,"Outcome":"1","Keys":[2009.319999953732],"TotalKeys":1,"Block":1,"Trial":67,"Action":"Go","Robot":1,"trial_type":"pit-trial","trial_index":79,"time_elapsed":335064,"internal_node_id":"0.0-79.0"},{"Valence":"Lose","Color":"#ffcc3399","Rune":"05","Correct":32,"Choice":-1,"RT":-1,"Accuracy":0,"Sham":0,"Outcome":"-10","Keys":[],"TotalKeys":0,"Block":1,"Trial":68,"Action":"Go","Robot":3,"trial_type":"pit-trial","trial_index":80,"time_elapsed":339070,"internal_node_id":"0.0-80.0"},{"Valence":"Lose","Color":"#ffcc3399","Rune":"03","Correct":-1,"Choice":32,"RT":391.07499999227,"Accuracy":0,"Sham":1,"Outcome":"-1","Keys":[1891.7399999918416],"TotalKeys":1,"Block":1,"Trial":69,"Action":"No-Go","Robot":4,"trial_type":"pit-trial","trial_index":81,"time_elapsed":341967,"internal_node_id":"0.0-81.0"},{"Valence":"Lose","Color":"#ffcc3399","Rune":"05","Correct":32,"Choice":32,"RT":16.11999998567626,"Accuracy":1,"Sham":0,"Outcome":"-1","Keys":[1517.7099999855272],"TotalKeys":1,"Block":1,"Trial":70,"Action":"Go","Robot":3,"trial_type":"pit-trial","trial_index":82,"time_elapsed":344490,"internal_node_id":"0.0-82.0"},{"Valence":"Win","Color":"#3366ff99","Rune":"04","Correct":32,"Choice":32,"RT":312.7249999670312,"Accuracy":1,"Sham":0,"Outcome":"+10","Keys":[1814.5149999763817],"TotalKeys":1,"Block":1,"Trial":71,"Action":"Go","Robot":1,"trial_type":"pit-trial","trial_index":83,"time_elapsed":347314,"internal_node_id":"0.0-83.0"},{"Valence":"Win","Color":"#3366ff99","Rune":"06","Correct":-1,"Choice":32,"RT":626.8050000071526,"Accuracy":0,"Sham":0,"Outcome":"+1","Keys":[2130.460000014864],"TotalKeys":1,"Block":1,"Trial":72,"Action":"No-Go","Robot":2,"trial_type":"pit-trial","trial_index":84,"time_elapsed":350451,"internal_node_id":"0.0-84.0"},{"Valence":"Win","Color":"#3366ff99","Rune":"06","Correct":-1,"Choice":-1,"RT":-1,"Accuracy":1,"Sham":0,"Outcome":"+10","Keys":[],"TotalKeys":0,"Block":1,"Trial":73,"Action":"No-Go","Robot":2,"trial_type":"pit-trial","trial_index":85,"time_elapsed":354459,"internal_node_id":"0.0-85.0"},{"Valence":"Lose","Color":"#ffcc3399","Rune":"05","Correct":32,"Choice":32,"RT":667.6349999615923,"Accuracy":1,"Sham":1,"Outcome":"-10","Keys":[2172.1750000142492],"TotalKeys":1,"Block":1,"Trial":74,"Action":"Go","Robot":3,"trial_type":"pit-trial","trial_index":86,"time_elapsed":357639,"internal_node_id":"0.0-86.0"},{"Valence":"Win","Color":"#3366ff99","Rune":"04","Correct":32,"Choice":32,"RT":943.9000000129454,"Accuracy":1,"Sham":0,"Outcome":"+10","Keys":[2444.934999977704],"TotalKeys":1,"Block":1,"Trial":75,"Action":"Go","Robot":1,"trial_type":"pit-trial","trial_index":87,"time_elapsed":361090,"internal_node_id":"0.0-87.0"},{"Valence":"Lose","Color":"#ffcc3399","Rune":"03","Correct":-1,"Choice":32,"RT":823.5500000300817,"Accuracy":0,"Sham":0,"Outcome":"-10","Keys":[2323.7349999835715],"TotalKeys":1,"Block":1,"Trial":76,"Action":"No-Go","Robot":4,"trial_type":"pit-trial","trial_index":88,"time_elapsed":364420,"internal_node_id":"0.0-88.0"},{"Valence":"Win","Color":"#3366ff99","Rune":"06","Correct":-1,"Choice":32,"RT":534.7949999850243,"Accuracy":0,"Sham":1,"Outcome":"+10","Keys":[2035.8300000079907],"TotalKeys":1,"Block":1,"Trial":77,"Action":"No-Go","Robot":2,"trial_type":"pit-trial","trial_index":89,"time_elapsed":367463,"internal_node_id":"0.0-89.0"},{"Valence":"Win","Color":"#3366ff99","Rune":"04","Correct":32,"Choice":32,"RT":592.4850000301376,"Accuracy":1,"Sham":0,"Outcome":"+10","Keys":[2094.8799999896437],"TotalKeys":1,"Block":1,"Trial":78,"Action":"Go","Robot":1,"trial_type":"pit-trial","trial_index":90,"time_elapsed":370567,"internal_node_id":"0.0-90.0"},{"Valence":"Lose","Color":"#ffcc3399","Rune":"03","Correct":-1,"Choice":32,"RT":867.5149999908172,"Accuracy":0,"Sham":0,"Outcome":"-10","Keys":[2368.2350000017323],"TotalKeys":1,"Block":1,"Trial":79,"Action":"No-Go","Robot":4,"trial_type":"pit-trial","trial_index":91,"time_elapsed":373941,"internal_node_id":"0.0-91.0"},{"Valence":"Lose","Color":"#ffcc3399","Rune":"05","Correct":32,"Choice":-1,"RT":-1,"Accuracy":0,"Sham":0,"Outcome":"-10","Keys":[],"TotalKeys":0,"Block":1,"Trial":80,"Action":"Go","Robot":3,"trial_type":"pit-trial","trial_index":92,"time_elapsed":377953,"internal_node_id":"0.0-92.0"},{"value":false,"trial_type":"call-function","trial_index":93,"time_elapsed":377958,"internal_node_id":"0.0-93.0"},{"RT":913.6249999864958,"trial_type":"pit-pause","trial_index":94,"time_elapsed":380153,"internal_node_id":"0.0-94.0"},{"Valence":"Win","Color":"#3366ff99","Rune":"04","Correct":32,"Choice":32,"RT":448.6599999945611,"Accuracy":1,"Sham":0,"Outcome":"+10","Keys":[1950.2149999607354],"TotalKeys":1,"Block":2,"Trial":81,"Action":"Go","Robot":1,"trial_type":"pit-trial","trial_index":95,"time_elapsed":383109,"internal_node_id":"0.0-95.0"},{"Valence":"Win","Color":"#3366ff99","Rune":"06","Correct":-1,"Choice":32,"RT":560.4099999764003,"Accuracy":0,"Sham":0,"Outcome":"+1","Keys":[2065.200000011828],"TotalKeys":1,"Block":2,"Trial":82,"Action":"No-Go","Robot":2,"trial_type":"pit-trial","trial_index":96,"time_elapsed":386182,"internal_node_id":"0.0-96.0"},{"Valence":"Lose","Color":"#ffcc3399","Rune":"03","Correct":-1,"Choice":-1,"RT":-1,"Accuracy":1,"Sham":0,"Outcome":"-1","Keys":[],"TotalKeys":0,"Block":2,"Trial":83,"Action":"No-Go","Robot":4,"trial_type":"pit-trial","trial_index":97,"time_elapsed":390189,"internal_node_id":"0.0-97.0"},{"Valence":"Lose","Color":"#ffcc3399","Rune":"05","Correct":32,"Choice":-1,"RT":-1,"Accuracy":0,"Sham":0,"Outcome":"-10","Keys":[],"TotalKeys":0,"Block":2,"Trial":84,"Action":"Go","Robot":3,"trial_type":"pit-trial","trial_index":98,"time_elapsed":394195,"internal_node_id":"0.0-98.0"},{"Valence":"Win","Color":"#3366ff99","Rune":"04","Correct":32,"Choice":32,"RT":596.4599999715574,"Accuracy":1,"Sham":0,"Outcome":"+10","Keys":[2099.1099999519065],"TotalKeys":1,"Block":2,"Trial":85,"Action":"Go","Robot":1,"trial_type":"pit-trial","trial_index":99,"time_elapsed":397303,"internal_node_id":"0.0-99.0"},{"Valence":"Win","Color":"#3366ff99","Rune":"06","Correct":-1,"Choice":-1,"RT":-1,"Accuracy":1,"Sham":0,"Outcome":"+10","Keys":[],"TotalKeys":0,"Block":2,"Trial":86,"Action":"No-Go","Robot":2,"trial_type":"pit-trial","trial_index":100,"time_elapsed":401309,"internal_node_id":"0.0-100.0"},{"Valence":"Lose","Color":"#ffcc3399","Rune":"05","Correct":32,"Choice":32,"RT":1077.564999985043,"Accuracy":1,"Sham":0,"Outcome":"-1","Keys":[2577.8750000172295],"TotalKeys":1,"Block":2,"Trial":87,"Action":"Go","Robot":3,"trial_type":"pit-trial","trial_index":101,"time_elapsed":404893,"internal_node_id":"0.0-101.0"},{"Valence":"Lose","Color":"#ffcc3399","Rune":"03","Correct":-1,"Choice":-1,"RT":-1,"Accuracy":1,"Sham":0,"Outcome":"-1","Keys":[],"TotalKeys":0,"Block":2,"Trial":88,"Action":"No-Go","Robot":4,"trial_type":"pit-trial","trial_index":102,"time_elapsed":408900,"internal_node_id":"0.0-102.0"},{"Valence":"Lose","Color":"#ffcc3399","Rune":"05","Correct":32,"Choice":32,"RT":917.0549999689683,"Accuracy":1,"Sham":1,"Outcome":"-10","Keys":[2418.1100000278093],"TotalKeys":1,"Block":2,"Trial":89,"Action":"Go","Robot":3,"trial_type":"pit-trial","trial_index":103,"time_elapsed":412325,"internal_node_id":"0.0-103.0"},{"Valence":"Win","Color":"#3366ff99","Rune":"04","Correct":32,"Choice":32,"RT":532.024999964051,"Accuracy":1,"Sham":1,"Outcome":"1","Keys":[2032.1300000068732],"TotalKeys":1,"Block":2,"Trial":90,"Action":"Go","Robot":1,"trial_type":"pit-trial","trial_index":104,"time_elapsed":415364,"internal_node_id":"0.0-104.0"},{"Valence":"Win","Color":"#3366ff99","Rune":"06","Correct":-1,"Choice":32,"RT":892.4300000071526,"Accuracy":0,"Sham":0,"Outcome":"+1","Keys":[2392.5649999873713],"TotalKeys":1,"Block":2,"Trial":91,"Action":"No-Go","Robot":2,"trial_type":"pit-trial","trial_index":105,"time_elapsed":418765,"internal_node_id":"0.0-105.0"},{"Valence":"Lose","Color":"#ffcc3399","Rune":"03","Correct":-1,"Choice":-1,"RT":-1,"Accuracy":1,"Sham":0,"Outcome":"-1","Keys":[],"TotalKeys":0,"Block":2,"Trial":92,"Action":"No-Go","Robot":4,"trial_type":"pit-trial","trial_index":106,"time_elapsed":422779,"internal_node_id":"0.0-106.0"},{"Valence":"Lose","Color":"#ffcc3399","Rune":"03","Correct":-1,"Choice":-1,"RT":-1,"Accuracy":1,"Sham":0,"Outcome":"-1","Keys":[],"TotalKeys":0,"Block":2,"Trial":93,"Action":"No-Go","Robot":4,"trial_type":"pit-trial","trial_index":107,"time_elapsed":426789,"internal_node_id":"0.0-107.0"},{"Valence":"Win","Color":"#3366ff99","Rune":"04","Correct":32,"Choice":32,"RT":576.8800000078045,"Accuracy":1,"Sham":0,"Outcome":"+10","Keys":[2078.944999957457],"TotalKeys":1,"Block":2,"Trial":94,"Action":"Go","Robot":1,"trial_type":"pit-trial","trial_index":108,"time_elapsed":429873,"internal_node_id":"0.0-108.0"},{"Valence":"Lose","Color":"#ffcc3399","Rune":"05","Correct":32,"Choice":-1,"RT":-1,"Accuracy":0,"Sham":0,"Outcome":"-10","Keys":[],"TotalKeys":0,"Block":2,"Trial":95,"Action":"Go","Robot":3,"trial_type":"pit-trial","trial_index":109,"time_elapsed":433878,"internal_node_id":"0.0-109.0"},{"Valence":"Win","Color":"#3366ff99","Rune":"06","Correct":-1,"Choice":32,"RT":1184.4750000163913,"Accuracy":0,"Sham":1,"Outcome":"+10","Keys":[2685.2949999738485],"TotalKeys":1,"Block":2,"Trial":96,"Action":"No-Go","Robot":2,"trial_type":"pit-trial","trial_index":110,"time_elapsed":437570,"internal_node_id":"0.0-110.0"},{"Valence":"Lose","Color":"#ffcc3399","Rune":"03","Correct":-1,"Choice":-1,"RT":-1,"Accuracy":1,"Sham":1,"Outcome":"-10","Keys":[],"TotalKeys":0,"Block":2,"Trial":97,"Action":"No-Go","Robot":4,"trial_type":"pit-trial","trial_index":111,"time_elapsed":441579,"internal_node_id":"0.0-111.0"},{"Valence":"Win","Color":"#3366ff99","Rune":"04","Correct":32,"Choice":32,"RT":489.3900000024587,"Accuracy":1,"Sham":0,"Outcome":"+10","Keys":[1990.1799999643117],"TotalKeys":1,"Block":2,"Trial":98,"Action":"Go","Robot":1,"trial_type":"pit-trial","trial_index":112,"time_elapsed":444577,"internal_node_id":"0.0-112.0"},{"Valence":"Lose","Color":"#ffcc3399","Rune":"05","Correct":32,"Choice":32,"RT":1072.2999999998137,"Accuracy":1,"Sham":0,"Outcome":"-1","Keys":[2573.3199999667704],"TotalKeys":1,"Block":2,"Trial":99,"Action":"Go","Robot":3,"trial_type":"pit-trial","trial_index":113,"time_elapsed":448157,"internal_node_id":"0.0-113.0"},{"Valence":"Win","Color":"#3366ff99","Rune":"06","Correct":-1,"Choice":32,"RT":879.9150000559166,"Accuracy":0,"Sham":0,"Outcome":"+1","Keys":[2381.0750000411645],"TotalKeys":1,"Block":2,"Trial":100,"Action":"No-Go","Robot":2,"trial_type":"pit-trial","trial_index":114,"time_elapsed":451546,"internal_node_id":"0.0-114.0"},{"Valence":"Lose","Color":"#ffcc3399","Rune":"03","Correct":-1,"Choice":-1,"RT":-1,"Accuracy":1,"Sham":0,"Outcome":"-1","Keys":[3223.2700000167824],"TotalKeys":1,"Block":2,"Trial":101,"Action":"No-Go","Robot":4,"trial_type":"pit-trial","trial_index":115,"time_elapsed":455561,"internal_node_id":"0.0-115.0"},{"Valence":"Lose","Color":"#ffcc3399","Rune":"05","Correct":32,"Choice":32,"RT":745.374999998603,"Accuracy":1,"Sham":0,"Outcome":"-1","Keys":[2246.500000008382],"TotalKeys":1,"Block":2,"Trial":102,"Action":"Go","Robot":3,"trial_type":"pit-trial","trial_index":116,"time_elapsed":458813,"internal_node_id":"0.0-116.0"},{"Valence":"Win","Color":"#3366ff99","Rune":"04","Correct":32,"Choice":32,"RT":491.2449999828823,"Accuracy":1,"Sham":1,"Outcome":"1","Keys":[1991.9300000183284],"TotalKeys":1,"Block":2,"Trial":103,"Action":"Go","Robot":1,"trial_type":"pit-trial","trial_index":117,"time_elapsed":461815,"internal_node_id":"0.0-117.0"},{"Valence":"Win","Color":"#3366ff99","Rune":"06","Correct":-1,"Choice":-1,"RT":-1,"Accuracy":1,"Sham":1,"Outcome":"1","Keys":[],"TotalKeys":0,"Block":2,"Trial":104,"Action":"No-Go","Robot":2,"trial_type":"pit-trial","trial_index":118,"time_elapsed":465835,"internal_node_id":"0.0-118.0"},{"Valence":"Lose","Color":"#ffcc3399","Rune":"05","Correct":32,"Choice":-1,"RT":-1,"Accuracy":0,"Sham":0,"Outcome":"-10","Keys":[],"TotalKeys":0,"Block":2,"Trial":105,"Action":"Go","Robot":3,"trial_type":"pit-trial","trial_index":119,"time_elapsed":469844,"internal_node_id":"0.0-119.0"},{"Valence":"Win","Color":"#3366ff99","Rune":"04","Correct":32,"Choice":32,"RT":980.2650000201538,"Accuracy":1,"Sham":0,"Outcome":"+10","Keys":[2482.2999999742024],"TotalKeys":1,"Block":2,"Trial":106,"Action":"Go","Robot":1,"trial_type":"pit-trial","trial_index":120,"time_elapsed":473331,"internal_node_id":"0.0-120.0"},{"Valence":"Win","Color":"#3366ff99","Rune":"06","Correct":-1,"Choice":32,"RT":918.1749999988824,"Accuracy":0,"Sham":0,"Outcome":"+1","Keys":[2419.240000017453],"TotalKeys":1,"Block":2,"Trial":107,"Action":"No-Go","Robot":2,"trial_type":"pit-trial","trial_index":121,"time_elapsed":476759,"internal_node_id":"0.0-121.0"},{"Valence":"Lose","Color":"#ffcc3399","Rune":"03","Correct":-1,"Choice":-1,"RT":-1,"Accuracy":1,"Sham":0,"Outcome":"-1","Keys":[],"TotalKeys":0,"Block":2,"Trial":108,"Action":"No-Go","Robot":4,"trial_type":"pit-trial","trial_index":122,"time_elapsed":480768,"internal_node_id":"0.0-122.0"},{"Valence":"Win","Color":"#3366ff99","Rune":"06","Correct":-1,"Choice":-1,"RT":-1,"Accuracy":1,"Sham":0,"Outcome":"+10","Keys":[],"TotalKeys":0,"Block":2,"Trial":109,"Action":"No-Go","Robot":2,"trial_type":"pit-trial","trial_index":123,"time_elapsed":484778,"internal_node_id":"0.0-123.0"},{"Valence":"Lose","Color":"#ffcc3399","Rune":"03","Correct":-1,"Choice":-1,"RT":-1,"Accuracy":1,"Sham":0,"Outcome":"-1","Keys":[],"TotalKeys":0,"Block":2,"Trial":110,"Action":"No-Go","Robot":4,"trial_type":"pit-trial","trial_index":124,"time_elapsed":488785,"internal_node_id":"0.0-124.0"},{"Valence":"Win","Color":"#3366ff99","Rune":"04","Correct":32,"Choice":32,"RT":638.7049999902956,"Accuracy":1,"Sham":0,"Outcome":"+10","Keys":[2138.944999955129],"TotalKeys":1,"Block":2,"Trial":111,"Action":"Go","Robot":1,"trial_type":"pit-trial","trial_index":125,"time_elapsed":491930,"internal_node_id":"0.0-125.0"},{"Valence":"Lose","Color":"#ffcc3399","Rune":"05","Correct":32,"Choice":32,"RT":811.2199999741279,"Accuracy":1,"Sham":0,"Outcome":"-1","Keys":[2312.2200000216253],"TotalKeys":1,"Block":2,"Trial":112,"Action":"Go","Robot":3,"trial_type":"pit-trial","trial_index":126,"time_elapsed":495247,"internal_node_id":"0.0-126.0"},{"Valence":"Win","Color":"#3366ff99","Rune":"06","Correct":-1,"Choice":-1,"RT":-1,"Accuracy":1,"Sham":0,"Outcome":"+10","Keys":[],"TotalKeys":0,"Block":2,"Trial":113,"Action":"No-Go","Robot":2,"trial_type":"pit-trial","trial_index":127,"time_elapsed":499255,"internal_node_id":"0.0-127.0"},{"Valence":"Lose","Color":"#ffcc3399","Rune":"03","Correct":-1,"Choice":-1,"RT":-1,"Accuracy":1,"Sham":0,"Outcome":"-1","Keys":[],"TotalKeys":0,"Block":2,"Trial":114,"Action":"No-Go","Robot":4,"trial_type":"pit-trial","trial_index":128,"time_elapsed":503265,"internal_node_id":"0.0-128.0"},{"Valence":"Lose","Color":"#ffcc3399","Rune":"05","Correct":32,"Choice":32,"RT":850.5050000385381,"Accuracy":1,"Sham":1,"Outcome":"-10","Keys":[2351.855000015348],"TotalKeys":1,"Block":2,"Trial":115,"Action":"Go","Robot":3,"trial_type":"pit-trial","trial_index":129,"time_elapsed":506623,"internal_node_id":"0.0-129.0"},{"Valence":"Win","Color":"#3366ff99","Rune":"04","Correct":32,"Choice":32,"RT":535.4950000182725,"Accuracy":1,"Sham":0,"Outcome":"+10","Keys":[2036.5549999987707],"TotalKeys":1,"Block":2,"Trial":116,"Action":"Go","Robot":1,"trial_type":"pit-trial","trial_index":130,"time_elapsed":509669,"internal_node_id":"0.0-130.0"},{"Valence":"Lose","Color":"#ffcc3399","Rune":"03","Correct":-1,"Choice":-1,"RT":-1,"Accuracy":1,"Sham":1,"Outcome":"-10","Keys":[],"TotalKeys":0,"Block":2,"Trial":117,"Action":"No-Go","Robot":4,"trial_type":"pit-trial","trial_index":131,"time_elapsed":513675,"internal_node_id":"0.0-131.0"},{"Valence":"Lose","Color":"#ffcc3399","Rune":"05","Correct":32,"Choice":-1,"RT":-1,"Accuracy":0,"Sham":0,"Outcome":"-10","Keys":[],"TotalKeys":0,"Block":2,"Trial":118,"Action":"Go","Robot":3,"trial_type":"pit-trial","trial_index":132,"time_elapsed":517685,"internal_node_id":"0.0-132.0"},{"Valence":"Win","Color":"#3366ff99","Rune":"06","Correct":-1,"Choice":-1,"RT":-1,"Accuracy":1,"Sham":0,"Outcome":"+10","Keys":[],"TotalKeys":0,"Block":2,"Trial":119,"Action":"No-Go","Robot":2,"trial_type":"pit-trial","trial_index":133,"time_elapsed":521692,"internal_node_id":"0.0-133.0"},{"Valence":"Win","Color":"#3366ff99","Rune":"04","Correct":32,"Choice":32,"RT":538.7350000091828,"Accuracy":1,"Sham":0,"Outcome":"+10","Keys":[2038.9699999941513],"TotalKeys":1,"Block":2,"Trial":120,"Action":"Go","Robot":1,"trial_type":"pit-trial","trial_index":134,"time_elapsed":524741,"internal_node_id":"0.0-134.0"},{"Valence":"Win","Color":"#3366ff99","Rune":"06","Correct":-1,"Choice":-1,"RT":-1,"Accuracy":1,"Sham":0,"Outcome":"+10","Keys":[],"TotalKeys":0,"Block":2,"Trial":121,"Action":"No-Go","Robot":2,"trial_type":"pit-trial","trial_index":135,"time_elapsed":528753,"internal_node_id":"0.0-135.0"},{"Valence":"Lose","Color":"#ffcc3399","Rune":"03","Correct":-1,"Choice":-1,"RT":-1,"Accuracy":1,"Sham":0,"Outcome":"-1","Keys":[],"TotalKeys":0,"Block":2,"Trial":122,"Action":"No-Go","Robot":4,"trial_type":"pit-trial","trial_index":136,"time_elapsed":532758,"internal_node_id":"0.0-136.0"},{"Valence":"Lose","Color":"#ffcc3399","Rune":"05","Correct":32,"Choice":-1,"RT":-1,"Accuracy":0,"Sham":0,"Outcome":"-10","Keys":[],"TotalKeys":0,"Block":2,"Trial":123,"Action":"Go","Robot":3,"trial_type":"pit-trial","trial_index":137,"time_elapsed":536774,"internal_node_id":"0.0-137.0"},{"Valence":"Win","Color":"#3366ff99","Rune":"04","Correct":32,"Choice":32,"RT":497.28999997023493,"Accuracy":1,"Sham":1,"Outcome":"1","Keys":[1998.139999981504],"TotalKeys":1,"Block":2,"Trial":124,"Action":"Go","Robot":1,"trial_type":"pit-trial","trial_index":138,"time_elapsed":539787,"internal_node_id":"0.0-138.0"},{"Valence":"Lose","Color":"#ffcc3399","Rune":"05","Correct":32,"Choice":32,"RT":746.2400000076741,"Accuracy":1,"Sham":1,"Outcome":"-10","Keys":[2247.2149999812245],"TotalKeys":1,"Block":2,"Trial":125,"Action":"Go","Robot":3,"trial_type":"pit-trial","trial_index":139,"time_elapsed":543043,"internal_node_id":"0.0-139.0"},{"Valence":"Lose","Color":"#ffcc3399","Rune":"03","Correct":-1,"Choice":-1,"RT":-1,"Accuracy":1,"Sham":0,"Outcome":"-1","Keys":[],"TotalKeys":0,"Block":2,"Trial":126,"Action":"No-Go","Robot":4,"trial_type":"pit-trial","trial_index":140,"time_elapsed":547053,"internal_node_id":"0.0-140.0"},{"Valence":"Win","Color":"#3366ff99","Rune":"06","Correct":-1,"Choice":-1,"RT":-1,"Accuracy":1,"Sham":0,"Outcome":"+10","Keys":[],"TotalKeys":0,"Block":2,"Trial":127,"Action":"No-Go","Robot":2,"trial_type":"pit-trial","trial_index":141,"time_elapsed":551060,"internal_node_id":"0.0-141.0"},{"Valence":"Win","Color":"#3366ff99","Rune":"04","Correct":32,"Choice":32,"RT":894.1350000095554,"Accuracy":1,"Sham":0,"Outcome":"+10","Keys":[2395.1799999922514],"TotalKeys":1,"Block":2,"Trial":128,"Action":"Go","Robot":1,"trial_type":"pit-trial","trial_index":142,"time_elapsed":554465,"internal_node_id":"0.0-142.0"},{"Valence":"Lose","Color":"#ffcc3399","Rune":"03","Correct":-1,"Choice":-1,"RT":-1,"Accuracy":1,"Sham":0,"Outcome":"-1","Keys":[],"TotalKeys":0,"Block":2,"Trial":129,"Action":"No-Go","Robot":4,"trial_type":"pit-trial","trial_index":143,"time_elapsed":558473,"internal_node_id":"0.0-143.0"},{"Valence":"Win","Color":"#3366ff99","Rune":"04","Correct":32,"Choice":32,"RT":614.3950000405312,"Accuracy":1,"Sham":0,"Outcome":"+10","Keys":[2115.555000025779],"TotalKeys":1,"Block":2,"Trial":130,"Action":"Go","Robot":1,"trial_type":"pit-trial","trial_index":144,"time_elapsed":561598,"internal_node_id":"0.0-144.0"},{"Valence":"Lose","Color":"#ffcc3399","Rune":"05","Correct":32,"Choice":-1,"RT":-1,"Accuracy":0,"Sham":0,"Outcome":"-10","Keys":[],"TotalKeys":0,"Block":2,"Trial":131,"Action":"Go","Robot":3,"trial_type":"pit-trial","trial_index":145,"time_elapsed":565606,"internal_node_id":"0.0-145.0"},{"Valence":"Win","Color":"#3366ff99","Rune":"06","Correct":-1,"Choice":-1,"RT":-1,"Accuracy":1,"Sham":0,"Outcome":"+10","Keys":[],"TotalKeys":0,"Block":2,"Trial":132,"Action":"No-Go","Robot":2,"trial_type":"pit-trial","trial_index":146,"time_elapsed":569614,"internal_node_id":"0.0-146.0"},{"Valence":"Lose","Color":"#ffcc3399","Rune":"03","Correct":-1,"Choice":-1,"RT":-1,"Accuracy":1,"Sham":0,"Outcome":"-1","Keys":[],"TotalKeys":0,"Block":2,"Trial":133,"Action":"No-Go","Robot":4,"trial_type":"pit-trial","trial_index":147,"time_elapsed":573624,"internal_node_id":"0.0-147.0"},{"Valence":"Win","Color":"#3366ff99","Rune":"04","Correct":32,"Choice":32,"RT":496.34499999228865,"Accuracy":1,"Sham":0,"Outcome":"+10","Keys":[1998.0150000192225],"TotalKeys":1,"Block":2,"Trial":134,"Action":"Go","Robot":1,"trial_type":"pit-trial","trial_index":148,"time_elapsed":576629,"internal_node_id":"0.0-148.0"},{"Valence":"Lose","Color":"#ffcc3399","Rune":"05","Correct":32,"Choice":-1,"RT":-1,"Accuracy":0,"Sham":0,"Outcome":"-10","Keys":[],"TotalKeys":0,"Block":2,"Trial":135,"Action":"Go","Robot":3,"trial_type":"pit-trial","trial_index":149,"time_elapsed":580639,"internal_node_id":"0.0-149.0"},{"Valence":"Win","Color":"#3366ff99","Rune":"06","Correct":-1,"Choice":-1,"RT":-1,"Accuracy":1,"Sham":0,"Outcome":"+10","Keys":[],"TotalKeys":0,"Block":2,"Trial":136,"Action":"No-Go","Robot":2,"trial_type":"pit-trial","trial_index":150,"time_elapsed":584646,"internal_node_id":"0.0-150.0"},{"Valence":"Lose","Color":"#ffcc3399","Rune":"03","Correct":-1,"Choice":-1,"RT":-1,"Accuracy":1,"Sham":1,"Outcome":"-10","Keys":[],"TotalKeys":0,"Block":2,"Trial":137,"Action":"No-Go","Robot":4,"trial_type":"pit-trial","trial_index":151,"time_elapsed":588655,"internal_node_id":"0.0-151.0"},{"Valence":"Win","Color":"#3366ff99","Rune":"04","Correct":32,"Choice":32,"RT":598.5049999435432,"Accuracy":1,"Sham":0,"Outcome":"+10","Keys":[2099.084999994375],"TotalKeys":1,"Block":2,"Trial":138,"Action":"Go","Robot":1,"trial_type":"pit-trial","trial_index":152,"time_elapsed":591761,"internal_node_id":"0.0-152.0"},{"Valence":"Lose","Color":"#ffcc3399","Rune":"05","Correct":32,"Choice":32,"RT":980.7699999655597,"Accuracy":1,"Sham":0,"Outcome":"-1","Keys":[2481.2999999849126],"TotalKeys":1,"Block":2,"Trial":139,"Action":"Go","Robot":3,"trial_type":"pit-trial","trial_index":153,"time_elapsed":595249,"internal_node_id":"0.0-153.0"},{"Valence":"Win","Color":"#3366ff99","Rune":"06","Correct":-1,"Choice":-1,"RT":-1,"Accuracy":1,"Sham":1,"Outcome":"1","Keys":[],"TotalKeys":0,"Block":2,"Trial":140,"Action":"No-Go","Robot":2,"trial_type":"pit-trial","trial_index":154,"time_elapsed":599258,"internal_node_id":"0.0-154.0"},{"Valence":"Win","Color":"#3366ff99","Rune":"06","Correct":-1,"Choice":-1,"RT":-1,"Accuracy":1,"Sham":1,"Outcome":"1","Keys":[],"TotalKeys":0,"Block":2,"Trial":141,"Action":"No-Go","Robot":2,"trial_type":"pit-trial","trial_index":155,"time_elapsed":603266,"internal_node_id":"0.0-155.0"},{"Valence":"Lose","Color":"#ffcc3399","Rune":"05","Correct":32,"Choice":32,"RT":977.0250000292435,"Accuracy":1,"Sham":0,"Outcome":"-1","Keys":[2478.004999982659],"TotalKeys":1,"Block":2,"Trial":142,"Action":"Go","Robot":3,"trial_type":"pit-trial","trial_index":156,"time_elapsed":606754,"internal_node_id":"0.0-156.0"},{"Valence":"Win","Color":"#3366ff99","Rune":"04","Correct":32,"Choice":32,"RT":448.6299999989569,"Accuracy":1,"Sham":0,"Outcome":"+10","Keys":[1949.7250000131316],"TotalKeys":1,"Block":2,"Trial":143,"Action":"Go","Robot":1,"trial_type":"pit-trial","trial_index":157,"time_elapsed":609712,"internal_node_id":"0.0-157.0"},{"Valence":"Lose","Color":"#ffcc3399","Rune":"03","Correct":-1,"Choice":-1,"RT":-1,"Accuracy":1,"Sham":0,"Outcome":"-1","Keys":[],"TotalKeys":0,"Block":2,"Trial":144,"Action":"No-Go","Robot":4,"trial_type":"pit-trial","trial_index":158,"time_elapsed":613718,"internal_node_id":"0.0-158.0"},{"Valence":"Lose","Color":"#ffcc3399","Rune":"03","Correct":-1,"Choice":-1,"RT":-1,"Accuracy":1,"Sham":0,"Outcome":"-1","Keys":[],"TotalKeys":0,"Block":2,"Trial":145,"Action":"No-Go","Robot":4,"trial_type":"pit-trial","trial_index":159,"time_elapsed":617744,"internal_node_id":"0.0-159.0"},{"Valence":"Win","Color":"#3366ff99","Rune":"04","Correct":32,"Choice":32,"RT":437.86499998532236,"Accuracy":1,"Sham":0,"Outcome":"+10","Keys":[1938.22499999078],"TotalKeys":1,"Block":2,"Trial":146,"Action":"Go","Robot":1,"trial_type":"pit-trial","trial_index":160,"time_elapsed":620692,"internal_node_id":"0.0-160.0"},{"Valence":"Lose","Color":"#ffcc3399","Rune":"05","Correct":32,"Choice":32,"RT":986.5399999544024,"Accuracy":1,"Sham":0,"Outcome":"-1","Keys":[2488.1850000238046],"TotalKeys":1,"Block":2,"Trial":147,"Action":"Go","Robot":3,"trial_type":"pit-trial","trial_index":161,"time_elapsed":624188,"internal_node_id":"0.0-161.0"},{"Valence":"Win","Color":"#3366ff99","Rune":"06","Correct":-1,"Choice":-1,"RT":-1,"Accuracy":1,"Sham":0,"Outcome":"+10","Keys":[],"TotalKeys":0,"Block":2,"Trial":148,"Action":"No-Go","Robot":2,"trial_type":"pit-trial","trial_index":162,"time_elapsed":628196,"internal_node_id":"0.0-162.0"},{"Valence":"Win","Color":"#3366ff99","Rune":"06","Correct":-1,"Choice":-1,"RT":-1,"Accuracy":1,"Sham":0,"Outcome":"+10","Keys":[],"TotalKeys":0,"Block":2,"Trial":149,"Action":"No-Go","Robot":2,"trial_type":"pit-trial","trial_index":163,"time_elapsed":632203,"internal_node_id":"0.0-163.0"},{"Valence":"Lose","Color":"#ffcc3399","Rune":"03","Correct":-1,"Choice":-1,"RT":-1,"Accuracy":1,"Sham":0,"Outcome":"-1","Keys":[],"TotalKeys":0,"Block":2,"Trial":150,"Action":"No-Go","Robot":4,"trial_type":"pit-trial","trial_index":164,"time_elapsed":636213,"internal_node_id":"0.0-164.0"},{"Valence":"Lose","Color":"#ffcc3399","Rune":"05","Correct":32,"Choice":32,"RT":428.0049999943003,"Accuracy":1,"Sham":0,"Outcome":"-1","Keys":[1928.82999998983],"TotalKeys":1,"Block":2,"Trial":151,"Action":"Go","Robot":3,"trial_type":"pit-trial","trial_index":165,"time_elapsed":639149,"internal_node_id":"0.0-165.0"},{"Valence":"Win","Color":"#3366ff99","Rune":"04","Correct":32,"Choice":32,"RT":751.7400000360794,"Accuracy":1,"Sham":0,"Outcome":"+10","Keys":[2252.550000033807],"TotalKeys":1,"Block":2,"Trial":152,"Action":"Go","Robot":1,"trial_type":"pit-trial","trial_index":166,"time_elapsed":642408,"internal_node_id":"0.0-166.0"},{"Valence":"Win","Color":"#3366ff99","Rune":"04","Correct":32,"Choice":32,"RT":533.9850000455044,"Accuracy":1,"Sham":0,"Outcome":"+10","Keys":[2034.1350000235252],"TotalKeys":1,"Block":2,"Trial":153,"Action":"Go","Robot":1,"trial_type":"pit-trial","trial_index":167,"time_elapsed":645450,"internal_node_id":"0.0-167.0"},{"Valence":"Lose","Color":"#ffcc3399","Rune":"03","Correct":-1,"Choice":-1,"RT":-1,"Accuracy":1,"Sham":0,"Outcome":"-1","Keys":[],"TotalKeys":0,"Block":2,"Trial":154,"Action":"No-Go","Robot":4,"trial_type":"pit-trial","trial_index":168,"time_elapsed":649462,"internal_node_id":"0.0-168.0"},{"Valence":"Lose","Color":"#ffcc3399","Rune":"05","Correct":32,"Choice":32,"RT":1000.8550000493415,"Accuracy":1,"Sham":0,"Outcome":"-1","Keys":[2501.5399999683723],"TotalKeys":1,"Block":2,"Trial":155,"Action":"Go","Robot":3,"trial_type":"pit-trial","trial_index":169,"time_elapsed":652969,"internal_node_id":"0.0-169.0"},{"Valence":"Win","Color":"#3366ff99","Rune":"06","Correct":-1,"Choice":-1,"RT":-1,"Accuracy":1,"Sham":0,"Outcome":"+10","Keys":[113.74999996041879],"TotalKeys":1,"Block":2,"Trial":156,"Action":"No-Go","Robot":2,"trial_type":"pit-trial","trial_index":170,"time_elapsed":657002,"internal_node_id":"0.0-170.0"},{"Valence":"Lose","Color":"#ffcc3399","Rune":"05","Correct":32,"Choice":32,"RT":941.5550000267103,"Accuracy":1,"Sham":1,"Outcome":"-10","Keys":[2442.1350000193343],"TotalKeys":1,"Block":2,"Trial":157,"Action":"Go","Robot":3,"trial_type":"pit-trial","trial_index":171,"time_elapsed":660450,"internal_node_id":"0.0-171.0"},{"Valence":"Lose","Color":"#ffcc3399","Rune":"03","Correct":-1,"Choice":-1,"RT":-1,"Accuracy":1,"Sham":1,"Outcome":"-10","Keys":[],"TotalKeys":0,"Block":2,"Trial":158,"Action":"No-Go","Robot":4,"trial_type":"pit-trial","trial_index":172,"time_elapsed":664457,"internal_node_id":"0.0-172.0"},{"Valence":"Win","Color":"#3366ff99","Rune":"06","Correct":-1,"Choice":-1,"RT":-1,"Accuracy":1,"Sham":0,"Outcome":"+10","Keys":[],"TotalKeys":0,"Block":2,"Trial":159,"Action":"No-Go","Robot":2,"trial_type":"pit-trial","trial_index":173,"time_elapsed":668466,"internal_node_id":"0.0-173.0"},{"Valence":"Win","Color":"#3366ff99","Rune":"04","Correct":32,"Choice":32,"RT":466.4449999690987,"Accuracy":1,"Sham":1,"Outcome":"1","Keys":[1966.8349999701604],"TotalKeys":1,"Block":2,"Trial":160,"Action":"Go","Robot":1,"trial_type":"pit-trial","trial_index":174,"time_elapsed":671440,"internal_node_id":"0.0-174.0"},{"rt":11502.97499995213,"demographics":{"age":"26","gender-categorical":"Male","ethnicity":"Not Hispanic or Latino","race":"White","english":"Yes","fluency":"Very well"},"trial_type":"survey-demo","trial_index":175,"time_elapsed":682952,"internal_node_id":"0.0-175.0"},{"rt":8847.509999992326,"debriefgraphics":{"difficulty":"3","fun":"2","clarity":"5","strategy":"","feedback":""},"trial_type":"survey-debrief","trial_index":176,"time_elapsed":691804,"internal_node_id":"0.0-176.0","interactions":"[]"}]