[{"view_history":"[{\"page_index\":0,\"viewing_time\":6116},{\"page_index\":1,\"viewing_time\":5823},{\"page_index\":2,\"viewing_time\":51201},{\"page_index\":3,\"viewing_time\":4392},{\"page_index\":4,\"viewing_time\":6768}]","rt":74300,"trial_type":"pit-instructions","trial_index":0,"time_elapsed":74303,"internal_node_id":"0.0-0.0"},{"Correct":32,"Choice":32,"RT":152,"Accuracy":1,"Sham":0,"Outcome":1,"trial_type":"pit-trial","trial_index":1,"time_elapsed":76978,"internal_node_id":"0.0-1.0"},{"Correct":32,"Choice":32,"RT":319,"Accuracy":1,"Sham":0,"Outcome":1,"trial_type":"pit-trial","trial_index":2,"time_elapsed":79814,"internal_node_id":"0.0-2.0"},{"Correct":32,"Choice":32,"RT":353,"Accuracy":1,"Sham":0,"Outcome":1,"trial_type":"pit-trial","trial_index":3,"time_elapsed":82696,"internal_node_id":"0.0-3.0"},{"Correct":32,"Choice":32,"RT":221,"Accuracy":1,"Sham":0,"Outcome":1,"trial_type":"pit-trial","trial_index":4,"time_elapsed":85454,"internal_node_id":"0.0-4.0"},{"view_history":"[{\"page_index\":0,\"viewing_time\":3893}]","rt":3894,"trial_type":"pit-instructions","trial_index":5,"time_elapsed":89350,"internal_node_id":"0.0-5.0"},{"Correct":-1,"Choice":-1,"RT":-1,"Accuracy":1,"Sham":0,"Outcome":1,"trial_type":"pit-trial","trial_index":6,"time_elapsed":93386,"internal_node_id":"0.0-6.0"},{"Correct":-1,"Choice":-1,"RT":-1,"Accuracy":1,"Sham":0,"Outcome":1,"trial_type":"pit-trial","trial_index":7,"time_elapsed":97409,"internal_node_id":"0.0-7.0"},{"Correct":-1,"Choice":-1,"RT":-1,"Accuracy":1,"Sham":0,"Outcome":1,"trial_type":"pit-trial","trial_index":8,"time_elapsed":101440,"internal_node_id":"0.0-8.0"},{"Correct":-1,"Choice":-1,"RT":-1,"Accuracy":1,"Sham":0,"Outcome":1,"trial_type":"pit-trial","trial_index":9,"time_elapsed":105473,"internal_node_id":"0.0-9.0"},{"view_history":"[{\"page_index\":0,\"viewing_time\":3875},{\"page_index\":1,\"viewing_time\":7703},{\"page_index\":2,\"viewing_time\":3497},{\"page_index\":3,\"viewing_time\":6368},{\"page_index\":4,\"viewing_time\":5224},{\"page_index\":5,\"viewing_time\":6760},{\"page_index\":6,\"viewing_time\":2976},{\"page_index\":7,\"viewing_time\":1856}]","rt":38260,"trial_type":"pit-instructions","trial_index":10,"time_elapsed":143735,"internal_node_id":"0.0-10.0"},{"rt":22605,"responses":"{\"no-press\":\"Do nothing\",\"probability\":\"0\",\"bonus\":\"True\"}","errors":0,"trial_type":"pit-comprehension","trial_index":11,"time_elapsed":166346,"internal_node_id":"0.0-11.0"},{"view_history":"[{\"page_index\":0,\"viewing_time\":2561}]","rt":2561,"trial_type":"pit-instructions","trial_index":12,"time_elapsed":168910,"internal_node_id":"0.0-12.0"},{"Correct":-1,"Choice":32,"RT":1018,"Accuracy":0,"Sham":0,"Outcome":0,"Block":1,"Trial":1,"Valence":"Win","Action":"No-Go","trial_type":"pit-trial","trial_index":13,"time_elapsed":172435,"internal_node_id":"0.0-13.0"},{"Correct":32,"Choice":-1,"RT":-1,"Accuracy":0,"Sham":0,"Outcome":-1,"Block":1,"Trial":2,"Valence":"Lose","Action":"Go","trial_type":"pit-trial","trial_index":14,"time_elapsed":176465,"internal_node_id":"0.0-14.0"},{"Correct":-1,"Choice":32,"RT":988,"Accuracy":0,"Sham":0,"Outcome":-1,"Block":1,"Trial":3,"Valence":"Lose","Action":"No-Go","trial_type":"pit-trial","trial_index":15,"time_elapsed":179985,"internal_node_id":"0.0-15.0"},{"Correct":32,"Choice":32,"RT":977,"Accuracy":1,"Sham":0,"Outcome":1,"Block":1,"Trial":4,"Valence":"Win","Action":"Go","trial_type":"pit-trial","trial_index":16,"time_elapsed":183485,"internal_node_id":"0.0-16.0"},{"Correct":32,"Choice":-1,"RT":-1,"Accuracy":0,"Sham":1,"Outcome":0,"Block":1,"Trial":5,"Valence":"Lose","Action":"Go","trial_type":"pit-trial","trial_index":17,"time_elapsed":187524,"internal_node_id":"0.0-17.0"},{"Correct":-1,"Choice":-1,"RT":-1,"Accuracy":1,"Sham":0,"Outcome":0,"Block":1,"Trial":6,"Valence":"Lose","Action":"No-Go","trial_type":"pit-trial","trial_index":18,"time_elapsed":191554,"internal_node_id":"0.0-18.0"},{"Correct":32,"Choice":32,"RT":838,"Accuracy":1,"Sham":0,"Outcome":1,"Block":1,"Trial":7,"Valence":"Win","Action":"Go","trial_type":"pit-trial","trial_index":19,"time_elapsed":194926,"internal_node_id":"0.0-19.0"},{"Correct":-1,"Choice":32,"RT":521,"Accuracy":0,"Sham":0,"Outcome":0,"Block":1,"Trial":8,"Valence":"Win","Action":"No-Go","trial_type":"pit-trial","trial_index":20,"time_elapsed":197985,"internal_node_id":"0.0-20.0"},{"Correct":32,"Choice":32,"RT":574,"Accuracy":1,"Sham":0,"Outcome":1,"Block":1,"Trial":9,"Valence":"Win","Action":"Go","trial_type":"pit-trial","trial_index":21,"time_elapsed":201085,"internal_node_id":"0.0-21.0"},{"Correct":32,"Choice":-1,"RT":-1,"Accuracy":0,"Sham":0,"Outcome":-1,"Block":1,"Trial":10,"Valence":"Lose","Action":"Go","trial_type":"pit-trial","trial_index":22,"time_elapsed":205095,"internal_node_id":"0.0-22.0"},{"Correct":-1,"Choice":32,"RT":647,"Accuracy":0,"Sham":0,"Outcome":0,"Block":1,"Trial":11,"Valence":"Win","Action":"No-Go","trial_type":"pit-trial","trial_index":23,"time_elapsed":208278,"internal_node_id":"0.0-23.0"},{"Correct":-1,"Choice":-1,"RT":-1,"Accuracy":1,"Sham":0,"Outcome":0,"Block":1,"Trial":12,"Valence":"Lose","Action":"No-Go","trial_type":"pit-trial","trial_index":24,"time_elapsed":212305,"internal_node_id":"0.0-24.0"},{"Correct":32,"Choice":32,"RT":479,"Accuracy":1,"Sham":0,"Outcome":1,"Block":1,"Trial":13,"Valence":"Win","Action":"Go","trial_type":"pit-trial","trial_index":25,"time_elapsed":215304,"internal_node_id":"0.0-25.0"},{"Correct":-1,"Choice":32,"RT":510,"Accuracy":0,"Sham":0,"Outcome":0,"Block":1,"Trial":14,"Valence":"Win","Action":"No-Go","trial_type":"pit-trial","trial_index":26,"time_elapsed":218344,"internal_node_id":"0.0-26.0"},{"Correct":32,"Choice":32,"RT":575,"Accuracy":1,"Sham":0,"Outcome":0,"Block":1,"Trial":15,"Valence":"Lose","Action":"Go","trial_type":"pit-trial","trial_index":27,"time_elapsed":221453,"internal_node_id":"0.0-27.0"},{"Correct":-1,"Choice":-1,"RT":-1,"Accuracy":1,"Sham":1,"Outcome":-1,"Block":1,"Trial":16,"Valence":"Lose","Action":"No-Go","trial_type":"pit-trial","trial_index":28,"time_elapsed":225475,"internal_node_id":"0.0-28.0"},{"Correct":32,"Choice":32,"RT":495,"Accuracy":1,"Sham":1,"Outcome":0,"Block":1,"Trial":17,"Valence":"Win","Action":"Go","trial_type":"pit-trial","trial_index":29,"time_elapsed":228493,"internal_node_id":"0.0-29.0"},{"Correct":32,"Choice":-1,"RT":-1,"Accuracy":0,"Sham":0,"Outcome":-1,"Block":1,"Trial":18,"Valence":"Lose","Action":"Go","trial_type":"pit-trial","trial_index":30,"time_elapsed":232522,"internal_node_id":"0.0-30.0"},{"Correct":-1,"Choice":32,"RT":770,"Accuracy":0,"Sham":1,"Outcome":1,"Block":1,"Trial":19,"Valence":"Win","Action":"No-Go","trial_type":"pit-trial","trial_index":31,"time_elapsed":235804,"internal_node_id":"0.0-31.0"},{"Correct":-1,"Choice":-1,"RT":-1,"Accuracy":1,"Sham":0,"Outcome":0,"Block":1,"Trial":20,"Valence":"Lose","Action":"No-Go","trial_type":"pit-trial","trial_index":32,"time_elapsed":239828,"internal_node_id":"0.0-32.0"},{"Correct":-1,"Choice":32,"RT":670,"Accuracy":0,"Sham":0,"Outcome":-1,"Block":1,"Trial":21,"Valence":"Lose","Action":"No-Go","trial_type":"pit-trial","trial_index":33,"time_elapsed":243020,"internal_node_id":"0.0-33.0"},{"Correct":-1,"Choice":32,"RT":440,"Accuracy":0,"Sham":0,"Outcome":0,"Block":1,"Trial":22,"Valence":"Win","Action":"No-Go","trial_type":"pit-trial","trial_index":34,"time_elapsed":245993,"internal_node_id":"0.0-34.0"},{"Correct":32,"Choice":32,"RT":505,"Accuracy":1,"Sham":0,"Outcome":1,"Block":1,"Trial":23,"Valence":"Win","Action":"Go","trial_type":"pit-trial","trial_index":35,"time_elapsed":249034,"internal_node_id":"0.0-35.0"},{"Correct":32,"Choice":-1,"RT":-1,"Accuracy":0,"Sham":0,"Outcome":-1,"Block":1,"Trial":24,"Valence":"Lose","Action":"Go","trial_type":"pit-trial","trial_index":36,"time_elapsed":253043,"internal_node_id":"0.0-36.0"},{"Correct":-1,"Choice":-1,"RT":-1,"Accuracy":1,"Sham":0,"Outcome":0,"Block":1,"Trial":25,"Valence":"Lose","Action":"No-Go","trial_type":"pit-trial","trial_index":37,"time_elapsed":257054,"internal_node_id":"0.0-37.0"},{"Correct":32,"Choice":32,"RT":627,"Accuracy":1,"Sham":0,"Outcome":1,"Block":1,"Trial":26,"Valence":"Win","Action":"Go","trial_type":"pit-trial","trial_index":38,"time_elapsed":260194,"internal_node_id":"0.0-38.0"},{"Correct":32,"Choice":-1,"RT":-1,"Accuracy":0,"Sham":0,"Outcome":-1,"Block":1,"Trial":27,"Valence":"Lose","Action":"Go","trial_type":"pit-trial","trial_index":39,"time_elapsed":264205,"internal_node_id":"0.0-39.0"},{"Correct":-1,"Choice":32,"RT":981,"Accuracy":0,"Sham":0,"Outcome":0,"Block":1,"Trial":28,"Valence":"Win","Action":"No-Go","trial_type":"pit-trial","trial_index":40,"time_elapsed":267715,"internal_node_id":"0.0-40.0"},{"Correct":32,"Choice":32,"RT":667,"Accuracy":1,"Sham":0,"Outcome":0,"Block":1,"Trial":29,"Valence":"Lose","Action":"Go","trial_type":"pit-trial","trial_index":41,"time_elapsed":270914,"internal_node_id":"0.0-41.0"},{"Correct":-1,"Choice":32,"RT":553,"Accuracy":0,"Sham":1,"Outcome":1,"Block":1,"Trial":30,"Valence":"Win","Action":"No-Go","trial_type":"pit-trial","trial_index":42,"time_elapsed":273983,"internal_node_id":"0.0-42.0"},{"Correct":32,"Choice":32,"RT":684,"Accuracy":1,"Sham":1,"Outcome":0,"Block":1,"Trial":31,"Valence":"Win","Action":"Go","trial_type":"pit-trial","trial_index":43,"time_elapsed":277204,"internal_node_id":"0.0-43.0"},{"Correct":-1,"Choice":32,"RT":691,"Accuracy":0,"Sham":0,"Outcome":-1,"Block":1,"Trial":32,"Valence":"Lose","Action":"No-Go","trial_type":"pit-trial","trial_index":44,"time_elapsed":280425,"internal_node_id":"0.0-44.0"},{"Correct":-1,"Choice":-1,"RT":-1,"Accuracy":1,"Sham":0,"Outcome":0,"Block":1,"Trial":33,"Valence":"Lose","Action":"No-Go","trial_type":"pit-trial","trial_index":45,"time_elapsed":284455,"internal_node_id":"0.0-45.0"},{"Correct":-1,"Choice":32,"RT":587,"Accuracy":0,"Sham":0,"Outcome":0,"Block":1,"Trial":34,"Valence":"Win","Action":"No-Go","trial_type":"pit-trial","trial_index":46,"time_elapsed":287555,"internal_node_id":"0.0-46.0"},{"Correct":32,"Choice":32,"RT":550,"Accuracy":1,"Sham":0,"Outcome":1,"Block":1,"Trial":35,"Valence":"Win","Action":"Go","trial_type":"pit-trial","trial_index":47,"time_elapsed":290634,"internal_node_id":"0.0-47.0"},{"Correct":32,"Choice":-1,"RT":-1,"Accuracy":0,"Sham":1,"Outcome":0,"Block":1,"Trial":36,"Valence":"Lose","Action":"Go","trial_type":"pit-trial","trial_index":48,"time_elapsed":294675,"internal_node_id":"0.0-48.0"},{"Correct":-1,"Choice":-1,"RT":-1,"Accuracy":1,"Sham":1,"Outcome":-1,"Block":1,"Trial":37,"Valence":"Lose","Action":"No-Go","trial_type":"pit-trial","trial_index":49,"time_elapsed":298704,"internal_node_id":"0.0-49.0"},{"Correct":32,"Choice":32,"RT":716,"Accuracy":1,"Sham":0,"Outcome":0,"Block":1,"Trial":38,"Valence":"Lose","Action":"Go","trial_type":"pit-trial","trial_index":50,"time_elapsed":301934,"internal_node_id":"0.0-50.0"},{"Correct":32,"Choice":32,"RT":514,"Accuracy":1,"Sham":0,"Outcome":1,"Block":1,"Trial":39,"Valence":"Win","Action":"Go","trial_type":"pit-trial","trial_index":51,"time_elapsed":304966,"internal_node_id":"0.0-51.0"},{"Correct":-1,"Choice":32,"RT":555,"Accuracy":0,"Sham":0,"Outcome":0,"Block":1,"Trial":40,"Valence":"Win","Action":"No-Go","trial_type":"pit-trial","trial_index":52,"time_elapsed":308044,"internal_node_id":"0.0-52.0"},{"Correct":32,"Choice":-1,"RT":-1,"Accuracy":0,"Sham":1,"Outcome":0,"Block":1,"Trial":41,"Valence":"Lose","Action":"Go","trial_type":"pit-trial","trial_index":53,"time_elapsed":312068,"internal_node_id":"0.0-53.0"},{"Correct":-1,"Choice":32,"RT":482,"Accuracy":0,"Sham":0,"Outcome":0,"Block":1,"Trial":42,"Valence":"Win","Action":"No-Go","trial_type":"pit-trial","trial_index":54,"time_elapsed":315082,"internal_node_id":"0.0-54.0"},{"Correct":-1,"Choice":32,"RT":806,"Accuracy":0,"Sham":0,"Outcome":-1,"Block":1,"Trial":43,"Valence":"Lose","Action":"No-Go","trial_type":"pit-trial","trial_index":55,"time_elapsed":318404,"internal_node_id":"0.0-55.0"},{"Correct":32,"Choice":32,"RT":461,"Accuracy":1,"Sham":0,"Outcome":1,"Block":1,"Trial":44,"Valence":"Win","Action":"Go","trial_type":"pit-trial","trial_index":56,"time_elapsed":321385,"internal_node_id":"0.0-56.0"},{"Correct":-1,"Choice":-1,"RT":-1,"Accuracy":1,"Sham":0,"Outcome":0,"Block":1,"Trial":45,"Valence":"Lose","Action":"No-Go","trial_type":"pit-trial","trial_index":57,"time_elapsed":325405,"internal_node_id":"0.0-57.0"},{"Correct":-1,"Choice":32,"RT":618,"Accuracy":0,"Sham":1,"Outcome":1,"Block":1,"Trial":46,"Valence":"Win","Action":"No-Go","trial_type":"pit-trial","trial_index":58,"time_elapsed":328553,"internal_node_id":"0.0-58.0"},{"Correct":32,"Choice":-1,"RT":-1,"Accuracy":0,"Sham":0,"Outcome":-1,"Block":1,"Trial":47,"Valence":"Lose","Action":"Go","trial_type":"pit-trial","trial_index":59,"time_elapsed":332574,"internal_node_id":"0.0-59.0"},{"Correct":32,"Choice":32,"RT":562,"Accuracy":1,"Sham":0,"Outcome":1,"Block":1,"Trial":48,"Valence":"Win","Action":"Go","trial_type":"pit-trial","trial_index":60,"time_elapsed":335664,"internal_node_id":"0.0-60.0"},{"Correct":-1,"Choice":-1,"RT":-1,"Accuracy":1,"Sham":0,"Outcome":0,"Block":1,"Trial":49,"Valence":"Lose","Action":"No-Go","trial_type":"pit-trial","trial_index":61,"time_elapsed":339680,"internal_node_id":"0.0-61.0"},{"Correct":32,"Choice":32,"RT":589,"Accuracy":1,"Sham":0,"Outcome":1,"Block":1,"Trial":50,"Valence":"Win","Action":"Go","trial_type":"pit-trial","trial_index":62,"time_elapsed":342793,"internal_node_id":"0.0-62.0"},{"Correct":-1,"Choice":32,"RT":510,"Accuracy":0,"Sham":0,"Outcome":0,"Block":1,"Trial":51,"Valence":"Win","Action":"No-Go","trial_type":"pit-trial","trial_index":63,"time_elapsed":345823,"internal_node_id":"0.0-63.0"},{"Correct":32,"Choice":-1,"RT":-1,"Accuracy":0,"Sham":0,"Outcome":-1,"Block":1,"Trial":52,"Valence":"Lose","Action":"Go","trial_type":"pit-trial","trial_index":64,"time_elapsed":349842,"internal_node_id":"0.0-64.0"},{"Correct":-1,"Choice":32,"RT":459,"Accuracy":0,"Sham":0,"Outcome":0,"Block":1,"Trial":53,"Valence":"Win","Action":"No-Go","trial_type":"pit-trial","trial_index":65,"time_elapsed":352815,"internal_node_id":"0.0-65.0"},{"Correct":32,"Choice":32,"RT":640,"Accuracy":1,"Sham":0,"Outcome":0,"Block":1,"Trial":54,"Valence":"Lose","Action":"Go","trial_type":"pit-trial","trial_index":66,"time_elapsed":355979,"internal_node_id":"0.0-66.0"},{"Correct":-1,"Choice":-1,"RT":-1,"Accuracy":1,"Sham":0,"Outcome":0,"Block":1,"Trial":55,"Valence":"Lose","Action":"No-Go","trial_type":"pit-trial","trial_index":67,"time_elapsed":359985,"internal_node_id":"0.0-67.0"},{"Correct":32,"Choice":32,"RT":400,"Accuracy":1,"Sham":0,"Outcome":1,"Block":1,"Trial":56,"Valence":"Win","Action":"Go","trial_type":"pit-trial","trial_index":68,"time_elapsed":362926,"internal_node_id":"0.0-68.0"},{"Correct":32,"Choice":32,"RT":451,"Accuracy":1,"Sham":1,"Outcome":0,"Block":1,"Trial":57,"Valence":"Win","Action":"Go","trial_type":"pit-trial","trial_index":69,"time_elapsed":365903,"internal_node_id":"0.0-69.0"},{"Correct":32,"Choice":32,"RT":796,"Accuracy":1,"Sham":0,"Outcome":0,"Block":1,"Trial":58,"Valence":"Lose","Action":"Go","trial_type":"pit-trial","trial_index":70,"time_elapsed":369213,"internal_node_id":"0.0-70.0"},{"Correct":-1,"Choice":32,"RT":681,"Accuracy":0,"Sham":1,"Outcome":0,"Block":1,"Trial":59,"Valence":"Lose","Action":"No-Go","trial_type":"pit-trial","trial_index":71,"time_elapsed":372413,"internal_node_id":"0.0-71.0"},{"Correct":-1,"Choice":32,"RT":476,"Accuracy":0,"Sham":0,"Outcome":0,"Block":1,"Trial":60,"Valence":"Win","Action":"No-Go","trial_type":"pit-trial","trial_index":72,"time_elapsed":375425,"internal_node_id":"0.0-72.0"},{"Correct":-1,"Choice":32,"RT":456,"Accuracy":0,"Sham":0,"Outcome":0,"Block":1,"Trial":61,"Valence":"Win","Action":"No-Go","trial_type":"pit-trial","trial_index":73,"time_elapsed":378394,"internal_node_id":"0.0-73.0"},{"Correct":32,"Choice":32,"RT":971,"Accuracy":1,"Sham":0,"Outcome":0,"Block":1,"Trial":62,"Valence":"Lose","Action":"Go","trial_type":"pit-trial","trial_index":74,"time_elapsed":381893,"internal_node_id":"0.0-74.0"},{"Correct":-1,"Choice":32,"RT":845,"Accuracy":0,"Sham":0,"Outcome":-1,"Block":1,"Trial":63,"Valence":"Lose","Action":"No-Go","trial_type":"pit-trial","trial_index":75,"time_elapsed":385263,"internal_node_id":"0.0-75.0"},{"Correct":32,"Choice":32,"RT":442,"Accuracy":1,"Sham":0,"Outcome":1,"Block":1,"Trial":64,"Valence":"Win","Action":"Go","trial_type":"pit-trial","trial_index":76,"time_elapsed":388233,"internal_node_id":"0.0-76.0"},{"Correct":-1,"Choice":32,"RT":494,"Accuracy":0,"Sham":0,"Outcome":0,"Block":1,"Trial":65,"Valence":"Win","Action":"No-Go","trial_type":"pit-trial","trial_index":77,"time_elapsed":391243,"internal_node_id":"0.0-77.0"},{"Correct":-1,"Choice":32,"RT":739,"Accuracy":0,"Sham":0,"Outcome":-1,"Block":1,"Trial":66,"Valence":"Lose","Action":"No-Go","trial_type":"pit-trial","trial_index":78,"time_elapsed":394494,"internal_node_id":"0.0-78.0"},{"Correct":32,"Choice":32,"RT":301,"Accuracy":1,"Sham":1,"Outcome":0,"Block":1,"Trial":67,"Valence":"Win","Action":"Go","trial_type":"pit-trial","trial_index":79,"time_elapsed":397324,"internal_node_id":"0.0-79.0"},{"Correct":32,"Choice":-1,"RT":-1,"Accuracy":0,"Sham":0,"Outcome":-1,"Block":1,"Trial":68,"Valence":"Lose","Action":"Go","trial_type":"pit-trial","trial_index":80,"time_elapsed":401343,"internal_node_id":"0.0-80.0"},{"Correct":-1,"Choice":32,"RT":506,"Accuracy":0,"Sham":1,"Outcome":0,"Block":1,"Trial":69,"Valence":"Lose","Action":"No-Go","trial_type":"pit-trial","trial_index":81,"time_elapsed":404373,"internal_node_id":"0.0-81.0"},{"Correct":32,"Choice":32,"RT":541,"Accuracy":1,"Sham":0,"Outcome":0,"Block":1,"Trial":70,"Valence":"Lose","Action":"Go","trial_type":"pit-trial","trial_index":82,"time_elapsed":407425,"internal_node_id":"0.0-82.0"},{"Correct":32,"Choice":32,"RT":539,"Accuracy":1,"Sham":0,"Outcome":1,"Block":1,"Trial":71,"Valence":"Win","Action":"Go","trial_type":"pit-trial","trial_index":83,"time_elapsed":410484,"internal_node_id":"0.0-83.0"},{"Correct":-1,"Choice":32,"RT":465,"Accuracy":0,"Sham":0,"Outcome":0,"Block":1,"Trial":72,"Valence":"Win","Action":"No-Go","trial_type":"pit-trial","trial_index":84,"time_elapsed":413479,"internal_node_id":"0.0-84.0"},{"Correct":-1,"Choice":32,"RT":510,"Accuracy":0,"Sham":0,"Outcome":0,"Block":1,"Trial":73,"Valence":"Win","Action":"No-Go","trial_type":"pit-trial","trial_index":85,"time_elapsed":416512,"internal_node_id":"0.0-85.0"},{"Correct":32,"Choice":32,"RT":750,"Accuracy":1,"Sham":1,"Outcome":-1,"Block":1,"Trial":74,"Valence":"Lose","Action":"Go","trial_type":"pit-trial","trial_index":86,"time_elapsed":419784,"internal_node_id":"0.0-86.0"},{"Correct":32,"Choice":32,"RT":453,"Accuracy":1,"Sham":0,"Outcome":1,"Block":1,"Trial":75,"Valence":"Win","Action":"Go","trial_type":"pit-trial","trial_index":87,"time_elapsed":422783,"internal_node_id":"0.0-87.0"},{"Correct":-1,"Choice":-1,"RT":-1,"Accuracy":1,"Sham":0,"Outcome":0,"Block":1,"Trial":76,"Valence":"Lose","Action":"No-Go","trial_type":"pit-trial","trial_index":88,"time_elapsed":426803,"internal_node_id":"0.0-88.0"},{"Correct":-1,"Choice":32,"RT":427,"Accuracy":0,"Sham":1,"Outcome":1,"Block":1,"Trial":77,"Valence":"Win","Action":"No-Go","trial_type":"pit-trial","trial_index":89,"time_elapsed":429753,"internal_node_id":"0.0-89.0"},{"Correct":32,"Choice":32,"RT":495,"Accuracy":1,"Sham":0,"Outcome":1,"Block":1,"Trial":78,"Valence":"Win","Action":"Go","trial_type":"pit-trial","trial_index":90,"time_elapsed":432764,"internal_node_id":"0.0-90.0"},{"Correct":-1,"Choice":-1,"RT":-1,"Accuracy":1,"Sham":0,"Outcome":0,"Block":1,"Trial":79,"Valence":"Lose","Action":"No-Go","trial_type":"pit-trial","trial_index":91,"time_elapsed":436804,"internal_node_id":"0.0-91.0"},{"Correct":32,"Choice":32,"RT":1043,"Accuracy":1,"Sham":0,"Outcome":0,"Block":1,"Trial":80,"Valence":"Lose","Action":"Go","trial_type":"pit-trial","trial_index":92,"time_elapsed":440384,"internal_node_id":"0.0-92.0"},{"value":false,"trial_type":"call-function","trial_index":93,"time_elapsed":440389,"internal_node_id":"0.0-93.0"},{"RT":4637,"trial_type":"pit-pause","trial_index":94,"time_elapsed":448004,"internal_node_id":"0.0-94.0"},{"Correct":32,"Choice":32,"RT":1118,"Accuracy":1,"Sham":0,"Outcome":1,"Block":2,"Trial":81,"Valence":"Win","Action":"Go","trial_type":"pit-trial","trial_index":95,"time_elapsed":451634,"internal_node_id":"0.0-95.0"},{"Correct":-1,"Choice":32,"RT":517,"Accuracy":0,"Sham":0,"Outcome":0,"Block":2,"Trial":82,"Valence":"Win","Action":"No-Go","trial_type":"pit-trial","trial_index":96,"time_elapsed":454674,"internal_node_id":"0.0-96.0"},{"Correct":-1,"Choice":-1,"RT":-1,"Accuracy":1,"Sham":0,"Outcome":0,"Block":2,"Trial":83,"Valence":"Lose","Action":"No-Go","trial_type":"pit-trial","trial_index":97,"time_elapsed":458683,"internal_node_id":"0.0-97.0"},{"Correct":32,"Choice":-1,"RT":-1,"Accuracy":0,"Sham":0,"Outcome":-1,"Block":2,"Trial":84,"Valence":"Lose","Action":"Go","trial_type":"pit-trial","trial_index":98,"time_elapsed":462725,"internal_node_id":"0.0-98.0"},{"Correct":32,"Choice":32,"RT":478,"Accuracy":1,"Sham":0,"Outcome":1,"Block":2,"Trial":85,"Valence":"Win","Action":"Go","trial_type":"pit-trial","trial_index":99,"time_elapsed":465713,"internal_node_id":"0.0-99.0"},{"Correct":-1,"Choice":32,"RT":556,"Accuracy":0,"Sham":0,"Outcome":0,"Block":2,"Trial":86,"Valence":"Win","Action":"No-Go","trial_type":"pit-trial","trial_index":100,"time_elapsed":468803,"internal_node_id":"0.0-100.0"},{"Correct":32,"Choice":-1,"RT":-1,"Accuracy":0,"Sham":0,"Outcome":-1,"Block":2,"Trial":87,"Valence":"Lose","Action":"Go","trial_type":"pit-trial","trial_index":101,"time_elapsed":472834,"internal_node_id":"0.0-101.0"},{"Correct":-1,"Choice":32,"RT":925,"Accuracy":0,"Sham":0,"Outcome":-1,"Block":2,"Trial":88,"Valence":"Lose","Action":"No-Go","trial_type":"pit-trial","trial_index":102,"time_elapsed":476274,"internal_node_id":"0.0-102.0"},{"Correct":32,"Choice":32,"RT":769,"Accuracy":1,"Sham":1,"Outcome":-1,"Block":2,"Trial":89,"Valence":"Lose","Action":"Go","trial_type":"pit-trial","trial_index":103,"time_elapsed":479573,"internal_node_id":"0.0-103.0"},{"Correct":32,"Choice":32,"RT":368,"Accuracy":1,"Sham":1,"Outcome":0,"Block":2,"Trial":90,"Valence":"Win","Action":"Go","trial_type":"pit-trial","trial_index":104,"time_elapsed":482472,"internal_node_id":"0.0-104.0"},{"Correct":-1,"Choice":32,"RT":494,"Accuracy":0,"Sham":0,"Outcome":0,"Block":2,"Trial":91,"Valence":"Win","Action":"No-Go","trial_type":"pit-trial","trial_index":105,"time_elapsed":485494,"internal_node_id":"0.0-105.0"},{"Correct":-1,"Choice":32,"RT":941,"Accuracy":0,"Sham":0,"Outcome":-1,"Block":2,"Trial":92,"Valence":"Lose","Action":"No-Go","trial_type":"pit-trial","trial_index":106,"time_elapsed":488974,"internal_node_id":"0.0-106.0"},{"Correct":-1,"Choice":-1,"RT":-1,"Accuracy":1,"Sham":0,"Outcome":0,"Block":2,"Trial":93,"Valence":"Lose","Action":"No-Go","trial_type":"pit-trial","trial_index":107,"time_elapsed":492998,"internal_node_id":"0.0-107.0"},{"Correct":32,"Choice":32,"RT":397,"Accuracy":1,"Sham":0,"Outcome":1,"Block":2,"Trial":94,"Valence":"Win","Action":"Go","trial_type":"pit-trial","trial_index":108,"time_elapsed":495924,"internal_node_id":"0.0-108.0"},{"Correct":32,"Choice":-1,"RT":-1,"Accuracy":0,"Sham":0,"Outcome":-1,"Block":2,"Trial":95,"Valence":"Lose","Action":"Go","trial_type":"pit-trial","trial_index":109,"time_elapsed":499948,"internal_node_id":"0.0-109.0"},{"Correct":-1,"Choice":32,"RT":633,"Accuracy":0,"Sham":1,"Outcome":1,"Block":2,"Trial":96,"Valence":"Win","Action":"No-Go","trial_type":"pit-trial","trial_index":110,"time_elapsed":503105,"internal_node_id":"0.0-110.0"},{"Correct":-1,"Choice":-1,"RT":-1,"Accuracy":1,"Sham":1,"Outcome":-1,"Block":2,"Trial":97,"Valence":"Lose","Action":"No-Go","trial_type":"pit-trial","trial_index":111,"time_elapsed":507123,"internal_node_id":"0.0-111.0"},{"Correct":32,"Choice":32,"RT":560,"Accuracy":1,"Sham":0,"Outcome":1,"Block":2,"Trial":98,"Valence":"Win","Action":"Go","trial_type":"pit-trial","trial_index":112,"time_elapsed":510222,"internal_node_id":"0.0-112.0"},{"Correct":32,"Choice":-1,"RT":-1,"Accuracy":0,"Sham":0,"Outcome":-1,"Block":2,"Trial":99,"Valence":"Lose","Action":"Go","trial_type":"pit-trial","trial_index":113,"time_elapsed":514253,"internal_node_id":"0.0-113.0"},{"Correct":-1,"Choice":32,"RT":624,"Accuracy":0,"Sham":0,"Outcome":0,"Block":2,"Trial":100,"Valence":"Win","Action":"No-Go","trial_type":"pit-trial","trial_index":114,"time_elapsed":517383,"internal_node_id":"0.0-114.0"},{"Correct":-1,"Choice":32,"RT":1029,"Accuracy":0,"Sham":0,"Outcome":-1,"Block":2,"Trial":101,"Valence":"Lose","Action":"No-Go","trial_type":"pit-trial","trial_index":115,"time_elapsed":520933,"internal_node_id":"0.0-115.0"},{"Correct":32,"Choice":32,"RT":595,"Accuracy":1,"Sham":0,"Outcome":0,"Block":2,"Trial":102,"Valence":"Lose","Action":"Go","trial_type":"pit-trial","trial_index":116,"time_elapsed":524054,"internal_node_id":"0.0-116.0"},{"Correct":32,"Choice":32,"RT":449,"Accuracy":1,"Sham":1,"Outcome":0,"Block":2,"Trial":103,"Valence":"Win","Action":"Go","trial_type":"pit-trial","trial_index":117,"time_elapsed":527024,"internal_node_id":"0.0-117.0"},{"Correct":-1,"Choice":32,"RT":509,"Accuracy":0,"Sham":1,"Outcome":1,"Block":2,"Trial":104,"Valence":"Win","Action":"No-Go","trial_type":"pit-trial","trial_index":118,"time_elapsed":530064,"internal_node_id":"0.0-118.0"},{"Correct":32,"Choice":32,"RT":559,"Accuracy":1,"Sham":0,"Outcome":0,"Block":2,"Trial":105,"Valence":"Lose","Action":"Go","trial_type":"pit-trial","trial_index":119,"time_elapsed":533144,"internal_node_id":"0.0-119.0"},{"Correct":32,"Choice":32,"RT":507,"Accuracy":1,"Sham":0,"Outcome":1,"Block":2,"Trial":106,"Valence":"Win","Action":"Go","trial_type":"pit-trial","trial_index":120,"time_elapsed":536183,"internal_node_id":"0.0-120.0"},{"Correct":-1,"Choice":32,"RT":550,"Accuracy":0,"Sham":0,"Outcome":0,"Block":2,"Trial":107,"Valence":"Win","Action":"No-Go","trial_type":"pit-trial","trial_index":121,"time_elapsed":539261,"internal_node_id":"0.0-121.0"},{"Correct":-1,"Choice":32,"RT":1057,"Accuracy":0,"Sham":0,"Outcome":-1,"Block":2,"Trial":108,"Valence":"Lose","Action":"No-Go","trial_type":"pit-trial","trial_index":122,"time_elapsed":542823,"internal_node_id":"0.0-122.0"},{"Correct":-1,"Choice":32,"RT":584,"Accuracy":0,"Sham":0,"Outcome":0,"Block":2,"Trial":109,"Valence":"Win","Action":"No-Go","trial_type":"pit-trial","trial_index":123,"time_elapsed":545942,"internal_node_id":"0.0-123.0"},{"Correct":-1,"Choice":-1,"RT":-1,"Accuracy":1,"Sham":0,"Outcome":0,"Block":2,"Trial":110,"Valence":"Lose","Action":"No-Go","trial_type":"pit-trial","trial_index":124,"time_elapsed":549973,"internal_node_id":"0.0-124.0"},{"Correct":32,"Choice":32,"RT":575,"Accuracy":1,"Sham":0,"Outcome":1,"Block":2,"Trial":111,"Valence":"Win","Action":"Go","trial_type":"pit-trial","trial_index":125,"time_elapsed":553074,"internal_node_id":"0.0-125.0"},{"Correct":32,"Choice":32,"RT":516,"Accuracy":1,"Sham":0,"Outcome":0,"Block":2,"Trial":112,"Valence":"Lose","Action":"Go","trial_type":"pit-trial","trial_index":126,"time_elapsed":556112,"internal_node_id":"0.0-126.0"},{"Correct":-1,"Choice":32,"RT":535,"Accuracy":0,"Sham":0,"Outcome":0,"Block":2,"Trial":113,"Valence":"Win","Action":"No-Go","trial_type":"pit-trial","trial_index":127,"time_elapsed":559174,"internal_node_id":"0.0-127.0"},{"Correct":-1,"Choice":-1,"RT":-1,"Accuracy":1,"Sham":0,"Outcome":0,"Block":2,"Trial":114,"Valence":"Lose","Action":"No-Go","trial_type":"pit-trial","trial_index":128,"time_elapsed":563203,"internal_node_id":"0.0-128.0"},{"Correct":32,"Choice":32,"RT":609,"Accuracy":1,"Sham":1,"Outcome":-1,"Block":2,"Trial":115,"Valence":"Lose","Action":"Go","trial_type":"pit-trial","trial_index":129,"time_elapsed":566332,"internal_node_id":"0.0-129.0"},{"Correct":32,"Choice":-1,"RT":-1,"Accuracy":0,"Sham":0,"Outcome":0,"Block":2,"Trial":116,"Valence":"Win","Action":"Go","trial_type":"pit-trial","trial_index":130,"time_elapsed":570364,"internal_node_id":"0.0-130.0"},{"Correct":-1,"Choice":-1,"RT":-1,"Accuracy":1,"Sham":1,"Outcome":-1,"Block":2,"Trial":117,"Valence":"Lose","Action":"No-Go","trial_type":"pit-trial","trial_index":131,"time_elapsed":574393,"internal_node_id":"0.0-131.0"},{"Correct":32,"Choice":-1,"RT":-1,"Accuracy":0,"Sham":0,"Outcome":-1,"Block":2,"Trial":118,"Valence":"Lose","Action":"Go","trial_type":"pit-trial","trial_index":132,"time_elapsed":578432,"internal_node_id":"0.0-132.0"},{"Correct":-1,"Choice":-1,"RT":-1,"Accuracy":1,"Sham":0,"Outcome":1,"Block":2,"Trial":119,"Valence":"Win","Action":"No-Go","trial_type":"pit-trial","trial_index":133,"time_elapsed":582464,"internal_node_id":"0.0-133.0"},{"Correct":32,"Choice":-1,"RT":-1,"Accuracy":0,"Sham":0,"Outcome":0,"Block":2,"Trial":120,"Valence":"Win","Action":"Go","trial_type":"pit-trial","trial_index":134,"time_elapsed":586502,"internal_node_id":"0.0-134.0"},{"Correct":-1,"Choice":32,"RT":370,"Accuracy":0,"Sham":0,"Outcome":0,"Block":2,"Trial":121,"Valence":"Win","Action":"No-Go","trial_type":"pit-trial","trial_index":135,"time_elapsed":589392,"internal_node_id":"0.0-135.0"},{"Correct":-1,"Choice":-1,"RT":-1,"Accuracy":1,"Sham":0,"Outcome":0,"Block":2,"Trial":122,"Valence":"Lose","Action":"No-Go","trial_type":"pit-trial","trial_index":136,"time_elapsed":593422,"internal_node_id":"0.0-136.0"},{"Correct":32,"Choice":32,"RT":680,"Accuracy":1,"Sham":0,"Outcome":0,"Block":2,"Trial":123,"Valence":"Lose","Action":"Go","trial_type":"pit-trial","trial_index":137,"time_elapsed":596642,"internal_node_id":"0.0-137.0"},{"Correct":32,"Choice":32,"RT":515,"Accuracy":1,"Sham":1,"Outcome":0,"Block":2,"Trial":124,"Valence":"Win","Action":"Go","trial_type":"pit-trial","trial_index":138,"time_elapsed":599684,"internal_node_id":"0.0-138.0"},{"Correct":32,"Choice":32,"RT":563,"Accuracy":1,"Sham":1,"Outcome":-1,"Block":2,"Trial":125,"Valence":"Lose","Action":"Go","trial_type":"pit-trial","trial_index":139,"time_elapsed":602784,"internal_node_id":"0.0-139.0"},{"Correct":-1,"Choice":-1,"RT":-1,"Accuracy":1,"Sham":0,"Outcome":0,"Block":2,"Trial":126,"Valence":"Lose","Action":"No-Go","trial_type":"pit-trial","trial_index":140,"time_elapsed":606813,"internal_node_id":"0.0-140.0"},{"Correct":-1,"Choice":32,"RT":582,"Accuracy":0,"Sham":0,"Outcome":0,"Block":2,"Trial":127,"Valence":"Win","Action":"No-Go","trial_type":"pit-trial","trial_index":141,"time_elapsed":609922,"internal_node_id":"0.0-141.0"},{"Correct":32,"Choice":32,"RT":577,"Accuracy":1,"Sham":0,"Outcome":1,"Block":2,"Trial":128,"Valence":"Win","Action":"Go","trial_type":"pit-trial","trial_index":142,"time_elapsed":613032,"internal_node_id":"0.0-142.0"},{"Correct":-1,"Choice":-1,"RT":-1,"Accuracy":1,"Sham":0,"Outcome":0,"Block":2,"Trial":129,"Valence":"Lose","Action":"No-Go","trial_type":"pit-trial","trial_index":143,"time_elapsed":617053,"internal_node_id":"0.0-143.0"},{"Correct":32,"Choice":32,"RT":433,"Accuracy":1,"Sham":0,"Outcome":1,"Block":2,"Trial":130,"Valence":"Win","Action":"Go","trial_type":"pit-trial","trial_index":144,"time_elapsed":620012,"internal_node_id":"0.0-144.0"},{"Correct":32,"Choice":32,"RT":695,"Accuracy":1,"Sham":0,"Outcome":0,"Block":2,"Trial":131,"Valence":"Lose","Action":"Go","trial_type":"pit-trial","trial_index":145,"time_elapsed":623252,"internal_node_id":"0.0-145.0"},{"Correct":-1,"Choice":32,"RT":631,"Accuracy":0,"Sham":0,"Outcome":0,"Block":2,"Trial":132,"Valence":"Win","Action":"No-Go","trial_type":"pit-trial","trial_index":146,"time_elapsed":626399,"internal_node_id":"0.0-146.0"},{"Correct":-1,"Choice":-1,"RT":-1,"Accuracy":1,"Sham":0,"Outcome":0,"Block":2,"Trial":133,"Valence":"Lose","Action":"No-Go","trial_type":"pit-trial","trial_index":147,"time_elapsed":630428,"internal_node_id":"0.0-147.0"},{"Correct":32,"Choice":32,"RT":657,"Accuracy":1,"Sham":0,"Outcome":1,"Block":2,"Trial":134,"Valence":"Win","Action":"Go","trial_type":"pit-trial","trial_index":148,"time_elapsed":633593,"internal_node_id":"0.0-148.0"},{"Correct":32,"Choice":32,"RT":780,"Accuracy":1,"Sham":0,"Outcome":0,"Block":2,"Trial":135,"Valence":"Lose","Action":"Go","trial_type":"pit-trial","trial_index":149,"time_elapsed":636903,"internal_node_id":"0.0-149.0"},{"Correct":-1,"Choice":32,"RT":485,"Accuracy":0,"Sham":0,"Outcome":0,"Block":2,"Trial":136,"Valence":"Win","Action":"No-Go","trial_type":"pit-trial","trial_index":150,"time_elapsed":639924,"internal_node_id":"0.0-150.0"},{"Correct":-1,"Choice":-1,"RT":-1,"Accuracy":1,"Sham":1,"Outcome":-1,"Block":2,"Trial":137,"Valence":"Lose","Action":"No-Go","trial_type":"pit-trial","trial_index":151,"time_elapsed":643934,"internal_node_id":"0.0-151.0"},{"Correct":32,"Choice":32,"RT":537,"Accuracy":1,"Sham":0,"Outcome":1,"Block":2,"Trial":138,"Valence":"Win","Action":"Go","trial_type":"pit-trial","trial_index":152,"time_elapsed":647004,"internal_node_id":"0.0-152.0"},{"Correct":32,"Choice":32,"RT":561,"Accuracy":1,"Sham":0,"Outcome":0,"Block":2,"Trial":139,"Valence":"Lose","Action":"Go","trial_type":"pit-trial","trial_index":153,"time_elapsed":650102,"internal_node_id":"0.0-153.0"},{"Correct":-1,"Choice":32,"RT":349,"Accuracy":0,"Sham":1,"Outcome":1,"Block":2,"Trial":140,"Valence":"Win","Action":"No-Go","trial_type":"pit-trial","trial_index":154,"time_elapsed":652982,"internal_node_id":"0.0-154.0"},{"Correct":-1,"Choice":32,"RT":424,"Accuracy":0,"Sham":1,"Outcome":1,"Block":2,"Trial":141,"Valence":"Win","Action":"No-Go","trial_type":"pit-trial","trial_index":155,"time_elapsed":655933,"internal_node_id":"0.0-155.0"},{"Correct":32,"Choice":32,"RT":601,"Accuracy":1,"Sham":0,"Outcome":0,"Block":2,"Trial":142,"Valence":"Lose","Action":"Go","trial_type":"pit-trial","trial_index":156,"time_elapsed":659062,"internal_node_id":"0.0-156.0"},{"Correct":32,"Choice":32,"RT":471,"Accuracy":1,"Sham":0,"Outcome":1,"Block":2,"Trial":143,"Valence":"Win","Action":"Go","trial_type":"pit-trial","trial_index":157,"time_elapsed":662073,"internal_node_id":"0.0-157.0"},{"Correct":-1,"Choice":-1,"RT":-1,"Accuracy":1,"Sham":0,"Outcome":0,"Block":2,"Trial":144,"Valence":"Lose","Action":"No-Go","trial_type":"pit-trial","trial_index":158,"time_elapsed":666108,"internal_node_id":"0.0-158.0"},{"Correct":-1,"Choice":32,"RT":890,"Accuracy":0,"Sham":0,"Outcome":-1,"Block":2,"Trial":145,"Valence":"Lose","Action":"No-Go","trial_type":"pit-trial","trial_index":159,"time_elapsed":669533,"internal_node_id":"0.0-159.0"},{"Correct":32,"Choice":32,"RT":426,"Accuracy":1,"Sham":0,"Outcome":1,"Block":2,"Trial":146,"Valence":"Win","Action":"Go","trial_type":"pit-trial","trial_index":160,"time_elapsed":672473,"internal_node_id":"0.0-160.0"},{"Correct":32,"Choice":32,"RT":587,"Accuracy":1,"Sham":0,"Outcome":0,"Block":2,"Trial":147,"Valence":"Lose","Action":"Go","trial_type":"pit-trial","trial_index":161,"time_elapsed":675572,"internal_node_id":"0.0-161.0"},{"Correct":-1,"Choice":-1,"RT":-1,"Accuracy":1,"Sham":0,"Outcome":1,"Block":2,"Trial":148,"Valence":"Win","Action":"No-Go","trial_type":"pit-trial","trial_index":162,"time_elapsed":679612,"internal_node_id":"0.0-162.0"},{"Correct":-1,"Choice":32,"RT":649,"Accuracy":0,"Sham":0,"Outcome":0,"Block":2,"Trial":149,"Valence":"Win","Action":"No-Go","trial_type":"pit-trial","trial_index":163,"time_elapsed":682794,"internal_node_id":"0.0-163.0"},{"Correct":-1,"Choice":-1,"RT":-1,"Accuracy":1,"Sham":0,"Outcome":0,"Block":2,"Trial":150,"Valence":"Lose","Action":"No-Go","trial_type":"pit-trial","trial_index":164,"time_elapsed":686824,"internal_node_id":"0.0-164.0"},{"Correct":32,"Choice":32,"RT":544,"Accuracy":1,"Sham":0,"Outcome":0,"Block":2,"Trial":151,"Valence":"Lose","Action":"Go","trial_type":"pit-trial","trial_index":165,"time_elapsed":689903,"internal_node_id":"0.0-165.0"},{"Correct":32,"Choice":32,"RT":356,"Accuracy":1,"Sham":0,"Outcome":1,"Block":2,"Trial":152,"Valence":"Win","Action":"Go","trial_type":"pit-trial","trial_index":166,"time_elapsed":692793,"internal_node_id":"0.0-166.0"},{"Correct":32,"Choice":32,"RT":525,"Accuracy":1,"Sham":0,"Outcome":1,"Block":2,"Trial":153,"Valence":"Win","Action":"Go","trial_type":"pit-trial","trial_index":167,"time_elapsed":695843,"internal_node_id":"0.0-167.0"},{"Correct":-1,"Choice":-1,"RT":-1,"Accuracy":1,"Sham":0,"Outcome":0,"Block":2,"Trial":154,"Valence":"Lose","Action":"No-Go","trial_type":"pit-trial","trial_index":168,"time_elapsed":699874,"internal_node_id":"0.0-168.0"},{"Correct":32,"Choice":32,"RT":855,"Accuracy":1,"Sham":0,"Outcome":0,"Block":2,"Trial":155,"Valence":"Lose","Action":"Go","trial_type":"pit-trial","trial_index":169,"time_elapsed":703252,"internal_node_id":"0.0-169.0"},{"Correct":-1,"Choice":32,"RT":650,"Accuracy":0,"Sham":0,"Outcome":0,"Block":2,"Trial":156,"Valence":"Win","Action":"No-Go","trial_type":"pit-trial","trial_index":170,"time_elapsed":706423,"internal_node_id":"0.0-170.0"},{"Correct":32,"Choice":32,"RT":735,"Accuracy":1,"Sham":1,"Outcome":-1,"Block":2,"Trial":157,"Valence":"Lose","Action":"Go","trial_type":"pit-trial","trial_index":171,"time_elapsed":709682,"internal_node_id":"0.0-171.0"},{"Correct":-1,"Choice":-1,"RT":-1,"Accuracy":1,"Sham":1,"Outcome":-1,"Block":2,"Trial":158,"Valence":"Lose","Action":"No-Go","trial_type":"pit-trial","trial_index":172,"time_elapsed":713712,"internal_node_id":"0.0-172.0"},{"Correct":-1,"Choice":32,"RT":580,"Accuracy":0,"Sham":0,"Outcome":0,"Block":2,"Trial":159,"Valence":"Win","Action":"No-Go","trial_type":"pit-trial","trial_index":173,"time_elapsed":716812,"internal_node_id":"0.0-173.0"},{"Correct":32,"Choice":-1,"RT":-1,"Accuracy":0,"Sham":1,"Outcome":1,"Block":2,"Trial":160,"Valence":"Win","Action":"Go","trial_type":"pit-trial","trial_index":174,"time_elapsed":720822,"internal_node_id":"0.0-174.0"},{"rt":23974,"demographics":{"age":"32","gender-categorical":"Female","ethnicity":"Not Hispanic or Latino","race":"White","english":"Yes","fluency":"Very well"},"trial_type":"survey-demo","trial_index":175,"time_elapsed":744798,"internal_node_id":"0.0-175.0"},{"rt":129804,"debriefgraphics":{"difficulty":"2","fun":"3","clarity":"2","strategy":"I didn't write anything down. This task was actually really confusing to me. As soon as i thought i had figured out which ones passed and that i should hit my space bar then it would seem that i was wrong... Not every time but sometimes. I was trying to use my memory to coplete the task successfully.  ","feedback":"This was very confusing to me. "},"trial_type":"survey-debrief","trial_index":176,"time_elapsed":874609,"internal_node_id":"0.0-176.0","interactions":"[{\"event\":\"focus\",\"trial\":0,\"time\":0},{\"event\":\"blur\",\"trial\":130,\"time\":568704},{\"event\":\"focus\",\"trial\":135,\"time\":587439},{\"event\":\"blur\",\"trial\":162,\"time\":676043},{\"event\":\"focus\",\"trial\":163,\"time\":680945},{\"event\":\"blur\",\"trial\":173,\"time\":716738},{\"event\":\"focus\",\"trial\":174,\"time\":719997}]"}]