[{"view_history":"[{\"page_index\":0,\"viewing_time\":3785.424999994575},{\"page_index\":1,\"viewing_time\":6851.555000001099},{\"page_index\":2,\"viewing_time\":13065.945000009378},{\"page_index\":3,\"viewing_time\":20578.00500000303},{\"page_index\":4,\"viewing_time\":6154.039999993984}]","rt":50435.859999997774,"trial_type":"pit-instructions","trial_index":0,"time_elapsed":50439,"internal_node_id":"0.0-0.0"},{"Valence":"Practice","Color":"#fffff080","Rune":"01","Correct":32,"Choice":32,"RT":1223.6450000054901,"Accuracy":1,"Sham":0,"Outcome":"+10","Keys":[2725.1650000107475],"TotalKeys":1,"trial_type":"pit-trial","trial_index":1,"time_elapsed":54168,"internal_node_id":"0.0-1.0"},{"Valence":"Practice","Color":"#fffff080","Rune":"01","Correct":32,"Choice":32,"RT":575.4600000072969,"Accuracy":1,"Sham":0,"Outcome":"+10","Keys":[2076.7199999972945],"TotalKeys":1,"trial_type":"pit-trial","trial_index":2,"time_elapsed":57248,"internal_node_id":"0.0-2.0"},{"Valence":"Practice","Color":"#fffff080","Rune":"01","Correct":32,"Choice":32,"RT":542.5650000106543,"Accuracy":1,"Sham":0,"Outcome":"+10","Keys":[2043.2750000036322],"TotalKeys":1,"trial_type":"pit-trial","trial_index":3,"time_elapsed":60295,"internal_node_id":"0.0-3.0"},{"Valence":"Practice","Color":"#fffff080","Rune":"01","Correct":32,"Choice":32,"RT":536.565000002156,"Accuracy":1,"Sham":0,"Outcome":"+10","Keys":[2037.1250000025611],"TotalKeys":1,"trial_type":"pit-trial","trial_index":4,"time_elapsed":63335,"internal_node_id":"0.0-4.0"},{"view_history":"[{\"page_index\":0,\"viewing_time\":4061.119999998482}]","rt":4061.5099999995437,"trial_type":"pit-instructions","trial_index":5,"time_elapsed":67398,"internal_node_id":"0.0-5.0"},{"Valence":"Practice","Color":"#fffff080","Rune":"02","Correct":-1,"Choice":-1,"RT":-1,"Accuracy":1,"Sham":0,"Outcome":"+10","Keys":[],"TotalKeys":0,"trial_type":"pit-trial","trial_index":6,"time_elapsed":71402,"internal_node_id":"0.0-6.0"},{"Valence":"Practice","Color":"#fffff080","Rune":"02","Correct":-1,"Choice":-1,"RT":-1,"Accuracy":1,"Sham":0,"Outcome":"+10","Keys":[],"TotalKeys":0,"trial_type":"pit-trial","trial_index":7,"time_elapsed":75405,"internal_node_id":"0.0-7.0"},{"Valence":"Practice","Color":"#fffff080","Rune":"02","Correct":-1,"Choice":-1,"RT":-1,"Accuracy":1,"Sham":0,"Outcome":"+10","Keys":[],"TotalKeys":0,"trial_type":"pit-trial","trial_index":8,"time_elapsed":79410,"internal_node_id":"0.0-8.0"},{"Valence":"Practice","Color":"#fffff080","Rune":"02","Correct":-1,"Choice":-1,"RT":-1,"Accuracy":1,"Sham":0,"Outcome":"+10","Keys":[],"TotalKeys":0,"trial_type":"pit-trial","trial_index":9,"time_elapsed":83414,"internal_node_id":"0.0-9.0"},{"view_history":"[{\"page_index\":0,\"viewing_time\":3652.270000005956},{\"page_index\":1,\"viewing_time\":45670.00999998709},{\"page_index\":2,\"viewing_time\":31073.82500001404},{\"page_index\":3,\"viewing_time\":5276.154999999562},{\"page_index\":4,\"viewing_time\":13946.044999989681},{\"page_index\":5,\"viewing_time\":7335.890000002109},{\"page_index\":6,\"viewing_time\":4534.025000000838},{\"page_index\":7,\"viewing_time\":2507.884999999078}]","rt":113996.70000000333,"trial_type":"pit-instructions","trial_index":10,"time_elapsed":197412,"internal_node_id":"0.0-10.0"},{"rt":25778.03000000131,"responses":"{\"no-press\":\"Do nothing\",\"context-win\":\"+10\",\"context-lose\":\"-1\",\"feedback\":\"True\"}","errors":0,"trial_type":"pit-comprehension","trial_index":11,"time_elapsed":223195,"internal_node_id":"0.0-11.0"},{"view_history":"[{\"page_index\":0,\"viewing_time\":14515.59000000998}]","rt":14516.025000004447,"trial_type":"pit-instructions","trial_index":12,"time_elapsed":237714,"internal_node_id":"0.0-12.0"},{"Valence":"Win","Color":"#ffcc3399","Rune":"03","Correct":-1,"Choice":-1,"RT":-1,"Accuracy":1,"Sham":0,"Outcome":"+10","Keys":[],"TotalKeys":0,"Block":1,"Trial":1,"Action":"No-Go","Robot":2,"trial_type":"pit-trial","trial_index":13,"time_elapsed":241720,"internal_node_id":"0.0-13.0"},{"Valence":"Lose","Color":"#3366ff99","Rune":"06","Correct":32,"Choice":32,"RT":807.2749999992084,"Accuracy":1,"Sham":0,"Outcome":"-1","Keys":[2308.3349999942584],"TotalKeys":1,"Block":1,"Trial":2,"Action":"Go","Robot":3,"trial_type":"pit-trial","trial_index":14,"time_elapsed":245032,"internal_node_id":"0.0-14.0"},{"Valence":"Lose","Color":"#3366ff99","Rune":"05","Correct":-1,"Choice":-1,"RT":-1,"Accuracy":1,"Sham":0,"Outcome":"-1","Keys":[3076.440000004368],"TotalKeys":1,"Block":1,"Trial":3,"Action":"No-Go","Robot":4,"trial_type":"pit-trial","trial_index":15,"time_elapsed":249036,"internal_node_id":"0.0-15.0"},{"Valence":"Win","Color":"#ffcc3399","Rune":"04","Correct":32,"Choice":-1,"RT":-1,"Accuracy":0,"Sham":0,"Outcome":"+1","Keys":[],"TotalKeys":0,"Block":1,"Trial":4,"Action":"Go","Robot":1,"trial_type":"pit-trial","trial_index":16,"time_elapsed":253041,"internal_node_id":"0.0-16.0"},{"Valence":"Lose","Color":"#3366ff99","Rune":"06","Correct":32,"Choice":32,"RT":766.1200000002282,"Accuracy":1,"Sham":1,"Outcome":"-10","Keys":[2267.4299999926006],"TotalKeys":1,"Block":1,"Trial":5,"Action":"Go","Robot":3,"trial_type":"pit-trial","trial_index":17,"time_elapsed":256311,"internal_node_id":"0.0-17.0"},{"Valence":"Lose","Color":"#3366ff99","Rune":"05","Correct":-1,"Choice":32,"RT":1072.3049999942305,"Accuracy":0,"Sham":0,"Outcome":"-10","Keys":[2574.015000005602],"TotalKeys":1,"Block":1,"Trial":6,"Action":"No-Go","Robot":4,"trial_type":"pit-trial","trial_index":18,"time_elapsed":259887,"internal_node_id":"0.0-18.0"},{"Valence":"Win","Color":"#ffcc3399","Rune":"04","Correct":32,"Choice":32,"RT":693.474999992759,"Accuracy":1,"Sham":0,"Outcome":"+10","Keys":[2197.310000003199],"TotalKeys":1,"Block":1,"Trial":7,"Action":"Go","Robot":1,"trial_type":"pit-trial","trial_index":19,"time_elapsed":263088,"internal_node_id":"0.0-19.0"},{"Valence":"Win","Color":"#ffcc3399","Rune":"03","Correct":-1,"Choice":-1,"RT":-1,"Accuracy":1,"Sham":0,"Outcome":"+10","Keys":[],"TotalKeys":0,"Block":1,"Trial":8,"Action":"No-Go","Robot":2,"trial_type":"pit-trial","trial_index":20,"time_elapsed":267091,"internal_node_id":"0.0-20.0"},{"Valence":"Win","Color":"#ffcc3399","Rune":"04","Correct":32,"Choice":32,"RT":707.1699999942211,"Accuracy":1,"Sham":0,"Outcome":"+10","Keys":[2208.9349999878323],"TotalKeys":1,"Block":1,"Trial":9,"Action":"Go","Robot":1,"trial_type":"pit-trial","trial_index":21,"time_elapsed":270303,"internal_node_id":"0.0-21.0"},{"Valence":"Lose","Color":"#3366ff99","Rune":"06","Correct":32,"Choice":-1,"RT":-1,"Accuracy":0,"Sham":0,"Outcome":"-10","Keys":[],"TotalKeys":0,"Block":1,"Trial":10,"Action":"Go","Robot":3,"trial_type":"pit-trial","trial_index":22,"time_elapsed":274307,"internal_node_id":"0.0-22.0"},{"Valence":"Win","Color":"#ffcc3399","Rune":"03","Correct":-1,"Choice":-1,"RT":-1,"Accuracy":1,"Sham":0,"Outcome":"+10","Keys":[],"TotalKeys":0,"Block":1,"Trial":11,"Action":"No-Go","Robot":2,"trial_type":"pit-trial","trial_index":23,"time_elapsed":278310,"internal_node_id":"0.0-23.0"},{"Valence":"Lose","Color":"#3366ff99","Rune":"05","Correct":-1,"Choice":32,"RT":1280.0199999910546,"Accuracy":0,"Sham":0,"Outcome":"-10","Keys":[2781.9199999939883],"TotalKeys":1,"Block":1,"Trial":12,"Action":"No-Go","Robot":4,"trial_type":"pit-trial","trial_index":24,"time_elapsed":282096,"internal_node_id":"0.0-24.0"},{"Valence":"Win","Color":"#ffcc3399","Rune":"04","Correct":32,"Choice":32,"RT":1223.1449999962933,"Accuracy":1,"Sham":0,"Outcome":"+10","Keys":[2724.755000002915],"TotalKeys":1,"Block":1,"Trial":13,"Action":"Go","Robot":1,"trial_type":"pit-trial","trial_index":25,"time_elapsed":285823,"internal_node_id":"0.0-25.0"},{"Valence":"Win","Color":"#ffcc3399","Rune":"03","Correct":-1,"Choice":-1,"RT":-1,"Accuracy":1,"Sham":0,"Outcome":"+10","Keys":[],"TotalKeys":0,"Block":1,"Trial":14,"Action":"No-Go","Robot":2,"trial_type":"pit-trial","trial_index":26,"time_elapsed":289826,"internal_node_id":"0.0-26.0"},{"Valence":"Lose","Color":"#3366ff99","Rune":"06","Correct":32,"Choice":32,"RT":773.9650000003166,"Accuracy":1,"Sham":0,"Outcome":"-1","Keys":[2274.6699999988778],"TotalKeys":1,"Block":1,"Trial":15,"Action":"Go","Robot":3,"trial_type":"pit-trial","trial_index":27,"time_elapsed":293103,"internal_node_id":"0.0-27.0"},{"Valence":"Lose","Color":"#3366ff99","Rune":"05","Correct":-1,"Choice":-1,"RT":-1,"Accuracy":1,"Sham":1,"Outcome":"-10","Keys":[],"TotalKeys":0,"Block":1,"Trial":16,"Action":"No-Go","Robot":4,"trial_type":"pit-trial","trial_index":28,"time_elapsed":297107,"internal_node_id":"0.0-28.0"},{"Valence":"Win","Color":"#ffcc3399","Rune":"04","Correct":32,"Choice":32,"RT":541.3050000061048,"Accuracy":1,"Sham":1,"Outcome":"1","Keys":[2041.8899999931455],"TotalKeys":1,"Block":1,"Trial":17,"Action":"Go","Robot":1,"trial_type":"pit-trial","trial_index":29,"time_elapsed":300152,"internal_node_id":"0.0-29.0"},{"Valence":"Lose","Color":"#3366ff99","Rune":"06","Correct":32,"Choice":32,"RT":1056.5300000016578,"Accuracy":1,"Sham":0,"Outcome":"-1","Keys":[2557.2550000069896],"TotalKeys":1,"Block":1,"Trial":18,"Action":"Go","Robot":3,"trial_type":"pit-trial","trial_index":30,"time_elapsed":303711,"internal_node_id":"0.0-30.0"},{"Valence":"Win","Color":"#ffcc3399","Rune":"03","Correct":-1,"Choice":-1,"RT":-1,"Accuracy":1,"Sham":1,"Outcome":"1","Keys":[],"TotalKeys":0,"Block":1,"Trial":19,"Action":"No-Go","Robot":2,"trial_type":"pit-trial","trial_index":31,"time_elapsed":307714,"internal_node_id":"0.0-31.0"},{"Valence":"Lose","Color":"#3366ff99","Rune":"05","Correct":-1,"Choice":32,"RT":597.5349999935133,"Accuracy":0,"Sham":0,"Outcome":"-10","Keys":[2098.259999998845],"TotalKeys":1,"Block":1,"Trial":20,"Action":"No-Go","Robot":4,"trial_type":"pit-trial","trial_index":32,"time_elapsed":310815,"internal_node_id":"0.0-32.0"},{"Valence":"Lose","Color":"#3366ff99","Rune":"05","Correct":-1,"Choice":32,"RT":544.8499999911292,"Accuracy":0,"Sham":0,"Outcome":"-10","Keys":[2045.4999999928987],"TotalKeys":1,"Block":1,"Trial":21,"Action":"No-Go","Robot":4,"trial_type":"pit-trial","trial_index":33,"time_elapsed":313864,"internal_node_id":"0.0-33.0"},{"Valence":"Win","Color":"#ffcc3399","Rune":"03","Correct":-1,"Choice":-1,"RT":-1,"Accuracy":1,"Sham":0,"Outcome":"+10","Keys":[],"TotalKeys":0,"Block":1,"Trial":22,"Action":"No-Go","Robot":2,"trial_type":"pit-trial","trial_index":34,"time_elapsed":317866,"internal_node_id":"0.0-34.0"},{"Valence":"Win","Color":"#ffcc3399","Rune":"04","Correct":32,"Choice":32,"RT":620.7949999952689,"Accuracy":1,"Sham":0,"Outcome":"+10","Keys":[2122.4199999996927],"TotalKeys":1,"Block":1,"Trial":23,"Action":"Go","Robot":1,"trial_type":"pit-trial","trial_index":35,"time_elapsed":320991,"internal_node_id":"0.0-35.0"},{"Valence":"Lose","Color":"#3366ff99","Rune":"06","Correct":32,"Choice":32,"RT":801.0300000023562,"Accuracy":1,"Sham":0,"Outcome":"-1","Keys":[2301.695000001928],"TotalKeys":1,"Block":1,"Trial":24,"Action":"Go","Robot":3,"trial_type":"pit-trial","trial_index":36,"time_elapsed":324295,"internal_node_id":"0.0-36.0"},{"Valence":"Lose","Color":"#3366ff99","Rune":"05","Correct":-1,"Choice":-1,"RT":-1,"Accuracy":1,"Sham":0,"Outcome":"-1","Keys":[],"TotalKeys":0,"Block":1,"Trial":25,"Action":"No-Go","Robot":4,"trial_type":"pit-trial","trial_index":37,"time_elapsed":328298,"internal_node_id":"0.0-37.0"},{"Valence":"Win","Color":"#ffcc3399","Rune":"04","Correct":32,"Choice":32,"RT":611.624999990454,"Accuracy":1,"Sham":0,"Outcome":"+10","Keys":[2113.32499999844],"TotalKeys":1,"Block":1,"Trial":26,"Action":"Go","Robot":1,"trial_type":"pit-trial","trial_index":38,"time_elapsed":331415,"internal_node_id":"0.0-38.0"},{"Valence":"Lose","Color":"#3366ff99","Rune":"06","Correct":32,"Choice":-1,"RT":-1,"Accuracy":0,"Sham":0,"Outcome":"-10","Keys":[],"TotalKeys":0,"Block":1,"Trial":27,"Action":"Go","Robot":3,"trial_type":"pit-trial","trial_index":39,"time_elapsed":335418,"internal_node_id":"0.0-39.0"},{"Valence":"Win","Color":"#ffcc3399","Rune":"03","Correct":-1,"Choice":-1,"RT":-1,"Accuracy":1,"Sham":0,"Outcome":"+10","Keys":[],"TotalKeys":0,"Block":1,"Trial":28,"Action":"No-Go","Robot":2,"trial_type":"pit-trial","trial_index":40,"time_elapsed":339423,"internal_node_id":"0.0-40.0"},{"Valence":"Lose","Color":"#3366ff99","Rune":"06","Correct":32,"Choice":32,"RT":528.6150000029011,"Accuracy":1,"Sham":0,"Outcome":"-1","Keys":[2029.0050000039628],"TotalKeys":1,"Block":1,"Trial":29,"Action":"Go","Robot":3,"trial_type":"pit-trial","trial_index":41,"time_elapsed":342456,"internal_node_id":"0.0-41.0"},{"Valence":"Win","Color":"#ffcc3399","Rune":"03","Correct":-1,"Choice":-1,"RT":-1,"Accuracy":1,"Sham":1,"Outcome":"1","Keys":[],"TotalKeys":0,"Block":1,"Trial":30,"Action":"No-Go","Robot":2,"trial_type":"pit-trial","trial_index":42,"time_elapsed":346460,"internal_node_id":"0.0-42.0"},{"Valence":"Win","Color":"#ffcc3399","Rune":"04","Correct":32,"Choice":32,"RT":610.1599999965401,"Accuracy":1,"Sham":1,"Outcome":"1","Keys":[2111.9550000003073],"TotalKeys":1,"Block":1,"Trial":31,"Action":"Go","Robot":1,"trial_type":"pit-trial","trial_index":43,"time_elapsed":349575,"internal_node_id":"0.0-43.0"},{"Valence":"Lose","Color":"#3366ff99","Rune":"05","Correct":-1,"Choice":-1,"RT":-1,"Accuracy":1,"Sham":0,"Outcome":"-1","Keys":[],"TotalKeys":0,"Block":1,"Trial":32,"Action":"No-Go","Robot":4,"trial_type":"pit-trial","trial_index":44,"time_elapsed":353579,"internal_node_id":"0.0-44.0"},{"Valence":"Lose","Color":"#3366ff99","Rune":"05","Correct":-1,"Choice":32,"RT":652.4349999963306,"Accuracy":0,"Sham":0,"Outcome":"-10","Keys":[2153.5249999869848],"TotalKeys":1,"Block":1,"Trial":33,"Action":"No-Go","Robot":4,"trial_type":"pit-trial","trial_index":45,"time_elapsed":356735,"internal_node_id":"0.0-45.0"},{"Valence":"Win","Color":"#ffcc3399","Rune":"03","Correct":-1,"Choice":-1,"RT":-1,"Accuracy":1,"Sham":0,"Outcome":"+10","Keys":[],"TotalKeys":0,"Block":1,"Trial":34,"Action":"No-Go","Robot":2,"trial_type":"pit-trial","trial_index":46,"time_elapsed":360739,"internal_node_id":"0.0-46.0"},{"Valence":"Win","Color":"#ffcc3399","Rune":"04","Correct":32,"Choice":32,"RT":492.32499999925494,"Accuracy":1,"Sham":0,"Outcome":"+10","Keys":[1993.0900000035763],"TotalKeys":1,"Block":1,"Trial":35,"Action":"Go","Robot":1,"trial_type":"pit-trial","trial_index":47,"time_elapsed":363735,"internal_node_id":"0.0-47.0"},{"Valence":"Lose","Color":"#3366ff99","Rune":"06","Correct":32,"Choice":-1,"RT":-1,"Accuracy":0,"Sham":1,"Outcome":"-1","Keys":[],"TotalKeys":0,"Block":1,"Trial":36,"Action":"Go","Robot":3,"trial_type":"pit-trial","trial_index":48,"time_elapsed":367739,"internal_node_id":"0.0-48.0"},{"Valence":"Lose","Color":"#3366ff99","Rune":"05","Correct":-1,"Choice":32,"RT":941.0999999963678,"Accuracy":0,"Sham":1,"Outcome":"-1","Keys":[2441.72499999695],"TotalKeys":1,"Block":1,"Trial":37,"Action":"No-Go","Robot":4,"trial_type":"pit-trial","trial_index":49,"time_elapsed":371184,"internal_node_id":"0.0-49.0"},{"Valence":"Lose","Color":"#3366ff99","Rune":"06","Correct":32,"Choice":32,"RT":902.2200000035809,"Accuracy":1,"Sham":0,"Outcome":"-1","Keys":[2404.160000005504],"TotalKeys":1,"Block":1,"Trial":38,"Action":"Go","Robot":3,"trial_type":"pit-trial","trial_index":50,"time_elapsed":374591,"internal_node_id":"0.0-50.0"},{"Valence":"Win","Color":"#ffcc3399","Rune":"04","Correct":32,"Choice":32,"RT":560.395000007702,"Accuracy":1,"Sham":0,"Outcome":"+10","Keys":[2060.975000000326],"TotalKeys":1,"Block":1,"Trial":39,"Action":"Go","Robot":1,"trial_type":"pit-trial","trial_index":51,"time_elapsed":377655,"internal_node_id":"0.0-51.0"},{"Valence":"Win","Color":"#ffcc3399","Rune":"03","Correct":-1,"Choice":-1,"RT":-1,"Accuracy":1,"Sham":0,"Outcome":"+10","Keys":[],"TotalKeys":0,"Block":1,"Trial":40,"Action":"No-Go","Robot":2,"trial_type":"pit-trial","trial_index":52,"time_elapsed":381659,"internal_node_id":"0.0-52.0"},{"Valence":"Lose","Color":"#3366ff99","Rune":"06","Correct":32,"Choice":32,"RT":541.3949999929173,"Accuracy":1,"Sham":1,"Outcome":"-10","Keys":[2042.0549999980722],"TotalKeys":1,"Block":1,"Trial":41,"Action":"Go","Robot":3,"trial_type":"pit-trial","trial_index":53,"time_elapsed":384703,"internal_node_id":"0.0-53.0"},{"Valence":"Win","Color":"#ffcc3399","Rune":"03","Correct":-1,"Choice":-1,"RT":-1,"Accuracy":1,"Sham":0,"Outcome":"+10","Keys":[],"TotalKeys":0,"Block":1,"Trial":42,"Action":"No-Go","Robot":2,"trial_type":"pit-trial","trial_index":54,"time_elapsed":388707,"internal_node_id":"0.0-54.0"},{"Valence":"Lose","Color":"#3366ff99","Rune":"05","Correct":-1,"Choice":-1,"RT":-1,"Accuracy":1,"Sham":0,"Outcome":"-1","Keys":[],"TotalKeys":0,"Block":1,"Trial":43,"Action":"No-Go","Robot":4,"trial_type":"pit-trial","trial_index":55,"time_elapsed":392709,"internal_node_id":"0.0-55.0"},{"Valence":"Win","Color":"#ffcc3399","Rune":"04","Correct":32,"Choice":32,"RT":571.074999999837,"Accuracy":1,"Sham":0,"Outcome":"+10","Keys":[2071.7549999972107],"TotalKeys":1,"Block":1,"Trial":44,"Action":"Go","Robot":1,"trial_type":"pit-trial","trial_index":56,"time_elapsed":395784,"internal_node_id":"0.0-56.0"},{"Valence":"Lose","Color":"#3366ff99","Rune":"05","Correct":-1,"Choice":-1,"RT":-1,"Accuracy":1,"Sham":0,"Outcome":"-1","Keys":[],"TotalKeys":0,"Block":1,"Trial":45,"Action":"No-Go","Robot":4,"trial_type":"pit-trial","trial_index":57,"time_elapsed":399787,"internal_node_id":"0.0-57.0"},{"Valence":"Win","Color":"#ffcc3399","Rune":"03","Correct":-1,"Choice":-1,"RT":-1,"Accuracy":1,"Sham":1,"Outcome":"1","Keys":[],"TotalKeys":0,"Block":1,"Trial":46,"Action":"No-Go","Robot":2,"trial_type":"pit-trial","trial_index":58,"time_elapsed":403790,"internal_node_id":"0.0-58.0"},{"Valence":"Lose","Color":"#3366ff99","Rune":"06","Correct":32,"Choice":32,"RT":635.7649999990826,"Accuracy":1,"Sham":0,"Outcome":"-1","Keys":[2142.405000005965],"TotalKeys":1,"Block":1,"Trial":47,"Action":"Go","Robot":3,"trial_type":"pit-trial","trial_index":59,"time_elapsed":406935,"internal_node_id":"0.0-59.0"},{"Valence":"Win","Color":"#ffcc3399","Rune":"04","Correct":32,"Choice":32,"RT":518.8950000010664,"Accuracy":1,"Sham":0,"Outcome":"+10","Keys":[2020.474999997532],"TotalKeys":1,"Block":1,"Trial":48,"Action":"Go","Robot":1,"trial_type":"pit-trial","trial_index":60,"time_elapsed":409960,"internal_node_id":"0.0-60.0"},{"Valence":"Lose","Color":"#3366ff99","Rune":"05","Correct":-1,"Choice":-1,"RT":-1,"Accuracy":1,"Sham":0,"Outcome":"-1","Keys":[],"TotalKeys":0,"Block":1,"Trial":49,"Action":"No-Go","Robot":4,"trial_type":"pit-trial","trial_index":61,"time_elapsed":413963,"internal_node_id":"0.0-61.0"},{"Valence":"Win","Color":"#ffcc3399","Rune":"04","Correct":32,"Choice":32,"RT":812.7800000074785,"Accuracy":1,"Sham":0,"Outcome":"+10","Keys":[2313.525000005029],"TotalKeys":1,"Block":1,"Trial":50,"Action":"Go","Robot":1,"trial_type":"pit-trial","trial_index":62,"time_elapsed":417278,"internal_node_id":"0.0-62.0"},{"Valence":"Win","Color":"#ffcc3399","Rune":"03","Correct":-1,"Choice":-1,"RT":-1,"Accuracy":1,"Sham":0,"Outcome":"+10","Keys":[],"TotalKeys":0,"Block":1,"Trial":51,"Action":"No-Go","Robot":2,"trial_type":"pit-trial","trial_index":63,"time_elapsed":421282,"internal_node_id":"0.0-63.0"},{"Valence":"Lose","Color":"#3366ff99","Rune":"06","Correct":32,"Choice":-1,"RT":-1,"Accuracy":0,"Sham":0,"Outcome":"-10","Keys":[],"TotalKeys":0,"Block":1,"Trial":52,"Action":"Go","Robot":3,"trial_type":"pit-trial","trial_index":64,"time_elapsed":425285,"internal_node_id":"0.0-64.0"},{"Valence":"Win","Color":"#ffcc3399","Rune":"03","Correct":-1,"Choice":-1,"RT":-1,"Accuracy":1,"Sham":0,"Outcome":"+10","Keys":[],"TotalKeys":0,"Block":1,"Trial":53,"Action":"No-Go","Robot":2,"trial_type":"pit-trial","trial_index":65,"time_elapsed":429289,"internal_node_id":"0.0-65.0"},{"Valence":"Lose","Color":"#3366ff99","Rune":"06","Correct":32,"Choice":32,"RT":501.78999999479856,"Accuracy":1,"Sham":0,"Outcome":"-1","Keys":[2003.389999998035],"TotalKeys":1,"Block":1,"Trial":54,"Action":"Go","Robot":3,"trial_type":"pit-trial","trial_index":66,"time_elapsed":432295,"internal_node_id":"0.0-66.0"},{"Valence":"Lose","Color":"#3366ff99","Rune":"05","Correct":-1,"Choice":-1,"RT":-1,"Accuracy":1,"Sham":0,"Outcome":"-1","Keys":[],"TotalKeys":0,"Block":1,"Trial":55,"Action":"No-Go","Robot":4,"trial_type":"pit-trial","trial_index":67,"time_elapsed":436299,"internal_node_id":"0.0-67.0"},{"Valence":"Win","Color":"#ffcc3399","Rune":"04","Correct":32,"Choice":32,"RT":637.0700000115903,"Accuracy":1,"Sham":0,"Outcome":"+10","Keys":[2138.010000009672],"TotalKeys":1,"Block":1,"Trial":56,"Action":"Go","Robot":1,"trial_type":"pit-trial","trial_index":68,"time_elapsed":439439,"internal_node_id":"0.0-68.0"},{"Valence":"Win","Color":"#ffcc3399","Rune":"04","Correct":32,"Choice":32,"RT":542.9149999981746,"Accuracy":1,"Sham":1,"Outcome":"1","Keys":[2043.8949999952456],"TotalKeys":1,"Block":1,"Trial":57,"Action":"Go","Robot":1,"trial_type":"pit-trial","trial_index":69,"time_elapsed":442488,"internal_node_id":"0.0-69.0"},{"Valence":"Lose","Color":"#3366ff99","Rune":"06","Correct":32,"Choice":32,"RT":424.04500000702683,"Accuracy":1,"Sham":0,"Outcome":"-1","Keys":[1924.7550000000047],"TotalKeys":1,"Block":1,"Trial":58,"Action":"Go","Robot":3,"trial_type":"pit-trial","trial_index":70,"time_elapsed":445415,"internal_node_id":"0.0-70.0"},{"Valence":"Lose","Color":"#3366ff99","Rune":"05","Correct":-1,"Choice":-1,"RT":-1,"Accuracy":1,"Sham":1,"Outcome":"-10","Keys":[],"TotalKeys":0,"Block":1,"Trial":59,"Action":"No-Go","Robot":4,"trial_type":"pit-trial","trial_index":71,"time_elapsed":449419,"internal_node_id":"0.0-71.0"},{"Valence":"Win","Color":"#ffcc3399","Rune":"03","Correct":-1,"Choice":-1,"RT":-1,"Accuracy":1,"Sham":0,"Outcome":"+10","Keys":[],"TotalKeys":0,"Block":1,"Trial":60,"Action":"No-Go","Robot":2,"trial_type":"pit-trial","trial_index":72,"time_elapsed":453423,"internal_node_id":"0.0-72.0"},{"Valence":"Win","Color":"#ffcc3399","Rune":"03","Correct":-1,"Choice":-1,"RT":-1,"Accuracy":1,"Sham":0,"Outcome":"+10","Keys":[],"TotalKeys":0,"Block":1,"Trial":61,"Action":"No-Go","Robot":2,"trial_type":"pit-trial","trial_index":73,"time_elapsed":457426,"internal_node_id":"0.0-73.0"},{"Valence":"Lose","Color":"#3366ff99","Rune":"06","Correct":32,"Choice":-1,"RT":-1,"Accuracy":0,"Sham":0,"Outcome":"-10","Keys":[],"TotalKeys":0,"Block":1,"Trial":62,"Action":"Go","Robot":3,"trial_type":"pit-trial","trial_index":74,"time_elapsed":461428,"internal_node_id":"0.0-74.0"},{"Valence":"Lose","Color":"#3366ff99","Rune":"05","Correct":-1,"Choice":-1,"RT":-1,"Accuracy":1,"Sham":0,"Outcome":"-1","Keys":[],"TotalKeys":0,"Block":1,"Trial":63,"Action":"No-Go","Robot":4,"trial_type":"pit-trial","trial_index":75,"time_elapsed":465433,"internal_node_id":"0.0-75.0"},{"Valence":"Win","Color":"#ffcc3399","Rune":"04","Correct":32,"Choice":32,"RT":527.0350000064354,"Accuracy":1,"Sham":0,"Outcome":"+10","Keys":[2027.3599999927683],"TotalKeys":1,"Block":1,"Trial":64,"Action":"Go","Robot":1,"trial_type":"pit-trial","trial_index":76,"time_elapsed":468463,"internal_node_id":"0.0-76.0"},{"Valence":"Win","Color":"#ffcc3399","Rune":"03","Correct":-1,"Choice":-1,"RT":-1,"Accuracy":1,"Sham":0,"Outcome":"+10","Keys":[],"TotalKeys":0,"Block":1,"Trial":65,"Action":"No-Go","Robot":2,"trial_type":"pit-trial","trial_index":77,"time_elapsed":472467,"internal_node_id":"0.0-77.0"},{"Valence":"Lose","Color":"#3366ff99","Rune":"05","Correct":-1,"Choice":-1,"RT":-1,"Accuracy":1,"Sham":0,"Outcome":"-1","Keys":[],"TotalKeys":0,"Block":1,"Trial":66,"Action":"No-Go","Robot":4,"trial_type":"pit-trial","trial_index":78,"time_elapsed":476470,"internal_node_id":"0.0-78.0"},{"Valence":"Win","Color":"#ffcc3399","Rune":"04","Correct":32,"Choice":32,"RT":608.9150000043446,"Accuracy":1,"Sham":1,"Outcome":"1","Keys":[2110.6650000001537],"TotalKeys":1,"Block":1,"Trial":67,"Action":"Go","Robot":1,"trial_type":"pit-trial","trial_index":79,"time_elapsed":479584,"internal_node_id":"0.0-79.0"},{"Valence":"Lose","Color":"#3366ff99","Rune":"06","Correct":32,"Choice":32,"RT":528.2750000042142,"Accuracy":1,"Sham":0,"Outcome":"-1","Keys":[2028.489999996964],"TotalKeys":1,"Block":1,"Trial":68,"Action":"Go","Robot":3,"trial_type":"pit-trial","trial_index":80,"time_elapsed":482616,"internal_node_id":"0.0-80.0"},{"Valence":"Lose","Color":"#3366ff99","Rune":"05","Correct":-1,"Choice":-1,"RT":-1,"Accuracy":1,"Sham":1,"Outcome":"-10","Keys":[],"TotalKeys":0,"Block":1,"Trial":69,"Action":"No-Go","Robot":4,"trial_type":"pit-trial","trial_index":81,"time_elapsed":486619,"internal_node_id":"0.0-81.0"},{"Valence":"Lose","Color":"#3366ff99","Rune":"06","Correct":32,"Choice":32,"RT":597.105000008014,"Accuracy":1,"Sham":0,"Outcome":"-1","Keys":[2097.9649999935646],"TotalKeys":1,"Block":1,"Trial":70,"Action":"Go","Robot":3,"trial_type":"pit-trial","trial_index":82,"time_elapsed":489720,"internal_node_id":"0.0-82.0"},{"Valence":"Win","Color":"#ffcc3399","Rune":"04","Correct":32,"Choice":32,"RT":376.1449999874458,"Accuracy":1,"Sham":0,"Outcome":"+10","Keys":[1876.5600000042468],"TotalKeys":1,"Block":1,"Trial":71,"Action":"Go","Robot":1,"trial_type":"pit-trial","trial_index":83,"time_elapsed":492599,"internal_node_id":"0.0-83.0"},{"Valence":"Win","Color":"#ffcc3399","Rune":"03","Correct":-1,"Choice":-1,"RT":-1,"Accuracy":1,"Sham":0,"Outcome":"+10","Keys":[],"TotalKeys":0,"Block":1,"Trial":72,"Action":"No-Go","Robot":2,"trial_type":"pit-trial","trial_index":84,"time_elapsed":496602,"internal_node_id":"0.0-84.0"},{"Valence":"Win","Color":"#ffcc3399","Rune":"03","Correct":-1,"Choice":-1,"RT":-1,"Accuracy":1,"Sham":0,"Outcome":"+10","Keys":[],"TotalKeys":0,"Block":1,"Trial":73,"Action":"No-Go","Robot":2,"trial_type":"pit-trial","trial_index":85,"time_elapsed":500606,"internal_node_id":"0.0-85.0"},{"Valence":"Lose","Color":"#3366ff99","Rune":"06","Correct":32,"Choice":32,"RT":370.5200000113109,"Accuracy":1,"Sham":1,"Outcome":"-10","Keys":[1871.3149999966845],"TotalKeys":1,"Block":1,"Trial":74,"Action":"Go","Robot":3,"trial_type":"pit-trial","trial_index":86,"time_elapsed":503480,"internal_node_id":"0.0-86.0"},{"Valence":"Win","Color":"#ffcc3399","Rune":"04","Correct":32,"Choice":32,"RT":598.9799999952083,"Accuracy":1,"Sham":0,"Outcome":"+10","Keys":[2099.800000010873],"TotalKeys":1,"Block":1,"Trial":75,"Action":"Go","Robot":1,"trial_type":"pit-trial","trial_index":87,"time_elapsed":506583,"internal_node_id":"0.0-87.0"},{"Valence":"Lose","Color":"#3366ff99","Rune":"05","Correct":-1,"Choice":32,"RT":392.1600000030594,"Accuracy":0,"Sham":0,"Outcome":"-10","Keys":[1892.8849999938393],"TotalKeys":1,"Block":1,"Trial":76,"Action":"No-Go","Robot":4,"trial_type":"pit-trial","trial_index":88,"time_elapsed":509479,"internal_node_id":"0.0-88.0"},{"Valence":"Win","Color":"#ffcc3399","Rune":"03","Correct":-1,"Choice":-1,"RT":-1,"Accuracy":1,"Sham":1,"Outcome":"1","Keys":[],"TotalKeys":0,"Block":1,"Trial":77,"Action":"No-Go","Robot":2,"trial_type":"pit-trial","trial_index":89,"time_elapsed":513483,"internal_node_id":"0.0-89.0"},{"Valence":"Win","Color":"#ffcc3399","Rune":"04","Correct":32,"Choice":32,"RT":508.9099999895552,"Accuracy":1,"Sham":0,"Outcome":"+10","Keys":[2009.634999994887],"TotalKeys":1,"Block":1,"Trial":78,"Action":"Go","Robot":1,"trial_type":"pit-trial","trial_index":90,"time_elapsed":516496,"internal_node_id":"0.0-90.0"},{"Valence":"Lose","Color":"#3366ff99","Rune":"05","Correct":-1,"Choice":-1,"RT":-1,"Accuracy":1,"Sham":0,"Outcome":"-1","Keys":[],"TotalKeys":0,"Block":1,"Trial":79,"Action":"No-Go","Robot":4,"trial_type":"pit-trial","trial_index":91,"time_elapsed":520499,"internal_node_id":"0.0-91.0"},{"Valence":"Lose","Color":"#3366ff99","Rune":"06","Correct":32,"Choice":32,"RT":802.4699999950826,"Accuracy":1,"Sham":0,"Outcome":"-1","Keys":[2304.3699999980163],"TotalKeys":1,"Block":1,"Trial":80,"Action":"Go","Robot":3,"trial_type":"pit-trial","trial_index":92,"time_elapsed":523807,"internal_node_id":"0.0-92.0"},{"value":false,"trial_type":"call-function","trial_index":93,"time_elapsed":523809,"internal_node_id":"0.0-93.0"},{"RT":6926.7649999965215,"trial_type":"pit-pause","trial_index":94,"time_elapsed":536158,"internal_node_id":"0.0-94.0"},{"Valence":"Win","Color":"#ffcc3399","Rune":"04","Correct":32,"Choice":32,"RT":873.3349999965867,"Accuracy":1,"Sham":0,"Outcome":"+10","Keys":[2373.684999998659],"TotalKeys":1,"Block":2,"Trial":81,"Action":"Go","Robot":1,"trial_type":"pit-trial","trial_index":95,"time_elapsed":539534,"internal_node_id":"0.0-95.0"},{"Valence":"Win","Color":"#ffcc3399","Rune":"03","Correct":-1,"Choice":-1,"RT":-1,"Accuracy":1,"Sham":0,"Outcome":"+10","Keys":[],"TotalKeys":0,"Block":2,"Trial":82,"Action":"No-Go","Robot":2,"trial_type":"pit-trial","trial_index":96,"time_elapsed":543538,"internal_node_id":"0.0-96.0"},{"Valence":"Lose","Color":"#3366ff99","Rune":"05","Correct":-1,"Choice":-1,"RT":-1,"Accuracy":1,"Sham":0,"Outcome":"-1","Keys":[],"TotalKeys":0,"Block":2,"Trial":83,"Action":"No-Go","Robot":4,"trial_type":"pit-trial","trial_index":97,"time_elapsed":547542,"internal_node_id":"0.0-97.0"},{"Valence":"Lose","Color":"#3366ff99","Rune":"06","Correct":32,"Choice":32,"RT":569.9299999978393,"Accuracy":1,"Sham":0,"Outcome":"-1","Keys":[2070.6849999987753],"TotalKeys":1,"Block":2,"Trial":84,"Action":"Go","Robot":3,"trial_type":"pit-trial","trial_index":98,"time_elapsed":550616,"internal_node_id":"0.0-98.0"},{"Valence":"Win","Color":"#ffcc3399","Rune":"04","Correct":32,"Choice":32,"RT":527.894999991986,"Accuracy":1,"Sham":0,"Outcome":"+10","Keys":[2028.6300000007031],"TotalKeys":1,"Block":2,"Trial":85,"Action":"Go","Robot":1,"trial_type":"pit-trial","trial_index":99,"time_elapsed":553648,"internal_node_id":"0.0-99.0"},{"Valence":"Win","Color":"#ffcc3399","Rune":"03","Correct":-1,"Choice":-1,"RT":-1,"Accuracy":1,"Sham":0,"Outcome":"+10","Keys":[],"TotalKeys":0,"Block":2,"Trial":86,"Action":"No-Go","Robot":2,"trial_type":"pit-trial","trial_index":100,"time_elapsed":557651,"internal_node_id":"0.0-100.0"},{"Valence":"Lose","Color":"#3366ff99","Rune":"06","Correct":32,"Choice":32,"RT":788.845000002766,"Accuracy":1,"Sham":0,"Outcome":"-1","Keys":[2289.4950000045355],"TotalKeys":1,"Block":2,"Trial":87,"Action":"Go","Robot":3,"trial_type":"pit-trial","trial_index":101,"time_elapsed":560943,"internal_node_id":"0.0-101.0"},{"Valence":"Lose","Color":"#3366ff99","Rune":"05","Correct":-1,"Choice":-1,"RT":-1,"Accuracy":1,"Sham":0,"Outcome":"-1","Keys":[],"TotalKeys":0,"Block":2,"Trial":88,"Action":"No-Go","Robot":4,"trial_type":"pit-trial","trial_index":102,"time_elapsed":564948,"internal_node_id":"0.0-102.0"},{"Valence":"Lose","Color":"#3366ff99","Rune":"06","Correct":32,"Choice":32,"RT":924.1850000107661,"Accuracy":1,"Sham":1,"Outcome":"-10","Keys":[2424.8350000125356],"TotalKeys":1,"Block":2,"Trial":89,"Action":"Go","Robot":3,"trial_type":"pit-trial","trial_index":103,"time_elapsed":568375,"internal_node_id":"0.0-103.0"},{"Valence":"Win","Color":"#ffcc3399","Rune":"04","Correct":32,"Choice":32,"RT":736.3899999909336,"Accuracy":1,"Sham":1,"Outcome":"1","Keys":[2237.170000007609],"TotalKeys":1,"Block":2,"Trial":90,"Action":"Go","Robot":1,"trial_type":"pit-trial","trial_index":104,"time_elapsed":571615,"internal_node_id":"0.0-104.0"},{"Valence":"Win","Color":"#ffcc3399","Rune":"03","Correct":-1,"Choice":-1,"RT":-1,"Accuracy":1,"Sham":0,"Outcome":"+10","Keys":[],"TotalKeys":0,"Block":2,"Trial":91,"Action":"No-Go","Robot":2,"trial_type":"pit-trial","trial_index":105,"time_elapsed":575618,"internal_node_id":"0.0-105.0"},{"Valence":"Lose","Color":"#3366ff99","Rune":"05","Correct":-1,"Choice":-1,"RT":-1,"Accuracy":1,"Sham":0,"Outcome":"-1","Keys":[],"TotalKeys":0,"Block":2,"Trial":92,"Action":"No-Go","Robot":4,"trial_type":"pit-trial","trial_index":106,"time_elapsed":579621,"internal_node_id":"0.0-106.0"},{"Valence":"Lose","Color":"#3366ff99","Rune":"05","Correct":-1,"Choice":-1,"RT":-1,"Accuracy":1,"Sham":0,"Outcome":"-1","Keys":[],"TotalKeys":0,"Block":2,"Trial":93,"Action":"No-Go","Robot":4,"trial_type":"pit-trial","trial_index":107,"time_elapsed":583625,"internal_node_id":"0.0-107.0"},{"Valence":"Win","Color":"#ffcc3399","Rune":"04","Correct":32,"Choice":32,"RT":647.3199999891222,"Accuracy":1,"Sham":0,"Outcome":"+10","Keys":[2148.1999999959953],"TotalKeys":1,"Block":2,"Trial":94,"Action":"Go","Robot":1,"trial_type":"pit-trial","trial_index":108,"time_elapsed":586775,"internal_node_id":"0.0-108.0"},{"Valence":"Lose","Color":"#3366ff99","Rune":"06","Correct":32,"Choice":32,"RT":367.6899999991292,"Accuracy":1,"Sham":0,"Outcome":"-1","Keys":[1869.3500000081258],"TotalKeys":1,"Block":2,"Trial":95,"Action":"Go","Robot":3,"trial_type":"pit-trial","trial_index":109,"time_elapsed":589648,"internal_node_id":"0.0-109.0"},{"Valence":"Win","Color":"#ffcc3399","Rune":"03","Correct":-1,"Choice":-1,"RT":-1,"Accuracy":1,"Sham":1,"Outcome":"1","Keys":[],"TotalKeys":0,"Block":2,"Trial":96,"Action":"No-Go","Robot":2,"trial_type":"pit-trial","trial_index":110,"time_elapsed":593650,"internal_node_id":"0.0-110.0"},{"Valence":"Lose","Color":"#3366ff99","Rune":"05","Correct":-1,"Choice":-1,"RT":-1,"Accuracy":1,"Sham":1,"Outcome":"-10","Keys":[],"TotalKeys":0,"Block":2,"Trial":97,"Action":"No-Go","Robot":4,"trial_type":"pit-trial","trial_index":111,"time_elapsed":597652,"internal_node_id":"0.0-111.0"},{"Valence":"Win","Color":"#ffcc3399","Rune":"04","Correct":32,"Choice":32,"RT":547.9850000119768,"Accuracy":1,"Sham":0,"Outcome":"+10","Keys":[2048.654999991413],"TotalKeys":1,"Block":2,"Trial":98,"Action":"Go","Robot":1,"trial_type":"pit-trial","trial_index":112,"time_elapsed":600704,"internal_node_id":"0.0-112.0"},{"Valence":"Lose","Color":"#3366ff99","Rune":"06","Correct":32,"Choice":32,"RT":607.7299999888055,"Accuracy":1,"Sham":0,"Outcome":"-1","Keys":[2108.3900000085123],"TotalKeys":1,"Block":2,"Trial":99,"Action":"Go","Robot":3,"trial_type":"pit-trial","trial_index":113,"time_elapsed":603815,"internal_node_id":"0.0-113.0"},{"Valence":"Win","Color":"#ffcc3399","Rune":"03","Correct":-1,"Choice":-1,"RT":-1,"Accuracy":1,"Sham":0,"Outcome":"+10","Keys":[],"TotalKeys":0,"Block":2,"Trial":100,"Action":"No-Go","Robot":2,"trial_type":"pit-trial","trial_index":114,"time_elapsed":607819,"internal_node_id":"0.0-114.0"},{"Valence":"Lose","Color":"#3366ff99","Rune":"05","Correct":-1,"Choice":-1,"RT":-1,"Accuracy":1,"Sham":0,"Outcome":"-1","Keys":[],"TotalKeys":0,"Block":2,"Trial":101,"Action":"No-Go","Robot":4,"trial_type":"pit-trial","trial_index":115,"time_elapsed":611824,"internal_node_id":"0.0-115.0"},{"Valence":"Lose","Color":"#3366ff99","Rune":"06","Correct":32,"Choice":32,"RT":583.569999987958,"Accuracy":1,"Sham":0,"Outcome":"-1","Keys":[2084.415000019362],"TotalKeys":1,"Block":2,"Trial":102,"Action":"Go","Robot":3,"trial_type":"pit-trial","trial_index":116,"time_elapsed":614912,"internal_node_id":"0.0-116.0"},{"Valence":"Win","Color":"#ffcc3399","Rune":"04","Correct":32,"Choice":32,"RT":463.85000000009313,"Accuracy":1,"Sham":1,"Outcome":"1","Keys":[1964.6450000000186],"TotalKeys":1,"Block":2,"Trial":103,"Action":"Go","Robot":1,"trial_type":"pit-trial","trial_index":117,"time_elapsed":617879,"internal_node_id":"0.0-117.0"},{"Valence":"Win","Color":"#ffcc3399","Rune":"03","Correct":-1,"Choice":-1,"RT":-1,"Accuracy":1,"Sham":1,"Outcome":"1","Keys":[],"TotalKeys":0,"Block":2,"Trial":104,"Action":"No-Go","Robot":2,"trial_type":"pit-trial","trial_index":118,"time_elapsed":621882,"internal_node_id":"0.0-118.0"},{"Valence":"Lose","Color":"#3366ff99","Rune":"06","Correct":32,"Choice":32,"RT":573.6749999923632,"Accuracy":1,"Sham":0,"Outcome":"-1","Keys":[2074.3599999987055],"TotalKeys":1,"Block":2,"Trial":105,"Action":"Go","Robot":3,"trial_type":"pit-trial","trial_index":119,"time_elapsed":624959,"internal_node_id":"0.0-119.0"},{"Valence":"Win","Color":"#ffcc3399","Rune":"04","Correct":32,"Choice":32,"RT":512.5149999803398,"Accuracy":1,"Sham":0,"Outcome":"+10","Keys":[2013.3099999802653],"TotalKeys":1,"Block":2,"Trial":106,"Action":"Go","Robot":1,"trial_type":"pit-trial","trial_index":120,"time_elapsed":627975,"internal_node_id":"0.0-120.0"},{"Valence":"Win","Color":"#ffcc3399","Rune":"03","Correct":-1,"Choice":-1,"RT":-1,"Accuracy":1,"Sham":0,"Outcome":"+10","Keys":[],"TotalKeys":0,"Block":2,"Trial":107,"Action":"No-Go","Robot":2,"trial_type":"pit-trial","trial_index":121,"time_elapsed":631980,"internal_node_id":"0.0-121.0"},{"Valence":"Lose","Color":"#3366ff99","Rune":"05","Correct":-1,"Choice":-1,"RT":-1,"Accuracy":1,"Sham":0,"Outcome":"-1","Keys":[],"TotalKeys":0,"Block":2,"Trial":108,"Action":"No-Go","Robot":4,"trial_type":"pit-trial","trial_index":122,"time_elapsed":635984,"internal_node_id":"0.0-122.0"},{"Valence":"Win","Color":"#ffcc3399","Rune":"03","Correct":-1,"Choice":-1,"RT":-1,"Accuracy":1,"Sham":0,"Outcome":"+10","Keys":[],"TotalKeys":0,"Block":2,"Trial":109,"Action":"No-Go","Robot":2,"trial_type":"pit-trial","trial_index":123,"time_elapsed":639987,"internal_node_id":"0.0-123.0"},{"Valence":"Lose","Color":"#3366ff99","Rune":"05","Correct":-1,"Choice":-1,"RT":-1,"Accuracy":1,"Sham":0,"Outcome":"-1","Keys":[],"TotalKeys":0,"Block":2,"Trial":110,"Action":"No-Go","Robot":4,"trial_type":"pit-trial","trial_index":124,"time_elapsed":643990,"internal_node_id":"0.0-124.0"},{"Valence":"Win","Color":"#ffcc3399","Rune":"04","Correct":32,"Choice":32,"RT":625.850000011269,"Accuracy":1,"Sham":0,"Outcome":"+10","Keys":[2126.505000022007],"TotalKeys":1,"Block":2,"Trial":111,"Action":"Go","Robot":1,"trial_type":"pit-trial","trial_index":125,"time_elapsed":647120,"internal_node_id":"0.0-125.0"},{"Valence":"Lose","Color":"#3366ff99","Rune":"06","Correct":32,"Choice":32,"RT":670.9550000086892,"Accuracy":1,"Sham":0,"Outcome":"-1","Keys":[2172.6550000021234],"TotalKeys":1,"Block":2,"Trial":112,"Action":"Go","Robot":3,"trial_type":"pit-trial","trial_index":126,"time_elapsed":650295,"internal_node_id":"0.0-126.0"},{"Valence":"Win","Color":"#ffcc3399","Rune":"03","Correct":-1,"Choice":-1,"RT":-1,"Accuracy":1,"Sham":0,"Outcome":"+10","Keys":[],"TotalKeys":0,"Block":2,"Trial":113,"Action":"No-Go","Robot":2,"trial_type":"pit-trial","trial_index":127,"time_elapsed":654299,"internal_node_id":"0.0-127.0"},{"Valence":"Lose","Color":"#3366ff99","Rune":"05","Correct":-1,"Choice":-1,"RT":-1,"Accuracy":1,"Sham":0,"Outcome":"-1","Keys":[],"TotalKeys":0,"Block":2,"Trial":114,"Action":"No-Go","Robot":4,"trial_type":"pit-trial","trial_index":128,"time_elapsed":658303,"internal_node_id":"0.0-128.0"},{"Valence":"Lose","Color":"#3366ff99","Rune":"06","Correct":32,"Choice":32,"RT":592.8450000064913,"Accuracy":1,"Sham":1,"Outcome":"-10","Keys":[2093.5049999970943],"TotalKeys":1,"Block":2,"Trial":115,"Action":"Go","Robot":3,"trial_type":"pit-trial","trial_index":129,"time_elapsed":661400,"internal_node_id":"0.0-129.0"},{"Valence":"Win","Color":"#ffcc3399","Rune":"04","Correct":32,"Choice":32,"RT":456.160000001546,"Accuracy":1,"Sham":0,"Outcome":"+10","Keys":[1956.994999985909],"TotalKeys":1,"Block":2,"Trial":116,"Action":"Go","Robot":1,"trial_type":"pit-trial","trial_index":130,"time_elapsed":664360,"internal_node_id":"0.0-130.0"},{"Valence":"Lose","Color":"#3366ff99","Rune":"05","Correct":-1,"Choice":-1,"RT":-1,"Accuracy":1,"Sham":1,"Outcome":"-10","Keys":[],"TotalKeys":0,"Block":2,"Trial":117,"Action":"No-Go","Robot":4,"trial_type":"pit-trial","trial_index":131,"time_elapsed":668363,"internal_node_id":"0.0-131.0"},{"Valence":"Lose","Color":"#3366ff99","Rune":"06","Correct":32,"Choice":32,"RT":588.6400000017602,"Accuracy":1,"Sham":0,"Outcome":"-1","Keys":[2089.529999997467],"TotalKeys":1,"Block":2,"Trial":118,"Action":"Go","Robot":3,"trial_type":"pit-trial","trial_index":132,"time_elapsed":671455,"internal_node_id":"0.0-132.0"},{"Valence":"Win","Color":"#ffcc3399","Rune":"03","Correct":-1,"Choice":-1,"RT":-1,"Accuracy":1,"Sham":0,"Outcome":"+10","Keys":[],"TotalKeys":0,"Block":2,"Trial":119,"Action":"No-Go","Robot":2,"trial_type":"pit-trial","trial_index":133,"time_elapsed":675458,"internal_node_id":"0.0-133.0"},{"Valence":"Win","Color":"#ffcc3399","Rune":"04","Correct":32,"Choice":32,"RT":533.7549999821931,"Accuracy":1,"Sham":0,"Outcome":"+10","Keys":[2034.3850000062957],"TotalKeys":1,"Block":2,"Trial":120,"Action":"Go","Robot":1,"trial_type":"pit-trial","trial_index":134,"time_elapsed":678495,"internal_node_id":"0.0-134.0"},{"Valence":"Win","Color":"#ffcc3399","Rune":"03","Correct":-1,"Choice":-1,"RT":-1,"Accuracy":1,"Sham":0,"Outcome":"+10","Keys":[],"TotalKeys":0,"Block":2,"Trial":121,"Action":"No-Go","Robot":2,"trial_type":"pit-trial","trial_index":135,"time_elapsed":682500,"internal_node_id":"0.0-135.0"},{"Valence":"Lose","Color":"#3366ff99","Rune":"05","Correct":-1,"Choice":-1,"RT":-1,"Accuracy":1,"Sham":0,"Outcome":"-1","Keys":[],"TotalKeys":0,"Block":2,"Trial":122,"Action":"No-Go","Robot":4,"trial_type":"pit-trial","trial_index":136,"time_elapsed":686504,"internal_node_id":"0.0-136.0"},{"Valence":"Lose","Color":"#3366ff99","Rune":"06","Correct":32,"Choice":32,"RT":751.5399999974761,"Accuracy":1,"Sham":0,"Outcome":"-1","Keys":[2253.179999999702],"TotalKeys":1,"Block":2,"Trial":123,"Action":"Go","Robot":3,"trial_type":"pit-trial","trial_index":137,"time_elapsed":689759,"internal_node_id":"0.0-137.0"},{"Valence":"Win","Color":"#ffcc3399","Rune":"04","Correct":32,"Choice":32,"RT":528.9750000229105,"Accuracy":1,"Sham":1,"Outcome":"1","Keys":[2029.6999999845866],"TotalKeys":1,"Block":2,"Trial":124,"Action":"Go","Robot":1,"trial_type":"pit-trial","trial_index":138,"time_elapsed":692792,"internal_node_id":"0.0-138.0"},{"Valence":"Lose","Color":"#3366ff99","Rune":"06","Correct":32,"Choice":-1,"RT":-1,"Accuracy":0,"Sham":1,"Outcome":"-1","Keys":[],"TotalKeys":0,"Block":2,"Trial":125,"Action":"Go","Robot":3,"trial_type":"pit-trial","trial_index":139,"time_elapsed":696795,"internal_node_id":"0.0-139.0"},{"Valence":"Lose","Color":"#3366ff99","Rune":"05","Correct":-1,"Choice":-1,"RT":-1,"Accuracy":1,"Sham":0,"Outcome":"-1","Keys":[],"TotalKeys":0,"Block":2,"Trial":126,"Action":"No-Go","Robot":4,"trial_type":"pit-trial","trial_index":140,"time_elapsed":700799,"internal_node_id":"0.0-140.0"},{"Valence":"Win","Color":"#ffcc3399","Rune":"03","Correct":-1,"Choice":-1,"RT":-1,"Accuracy":1,"Sham":0,"Outcome":"+10","Keys":[],"TotalKeys":0,"Block":2,"Trial":127,"Action":"No-Go","Robot":2,"trial_type":"pit-trial","trial_index":141,"time_elapsed":704803,"internal_node_id":"0.0-141.0"},{"Valence":"Win","Color":"#ffcc3399","Rune":"04","Correct":32,"Choice":32,"RT":604.2899999883957,"Accuracy":1,"Sham":0,"Outcome":"+10","Keys":[2105.955000006361],"TotalKeys":1,"Block":2,"Trial":128,"Action":"Go","Robot":1,"trial_type":"pit-trial","trial_index":142,"time_elapsed":707911,"internal_node_id":"0.0-142.0"},{"Valence":"Lose","Color":"#3366ff99","Rune":"05","Correct":-1,"Choice":-1,"RT":-1,"Accuracy":1,"Sham":0,"Outcome":"-1","Keys":[],"TotalKeys":0,"Block":2,"Trial":129,"Action":"No-Go","Robot":4,"trial_type":"pit-trial","trial_index":143,"time_elapsed":711915,"internal_node_id":"0.0-143.0"},{"Valence":"Win","Color":"#ffcc3399","Rune":"04","Correct":32,"Choice":32,"RT":533.3500000124332,"Accuracy":1,"Sham":0,"Outcome":"+10","Keys":[2034.0049999940675],"TotalKeys":1,"Block":2,"Trial":130,"Action":"Go","Robot":1,"trial_type":"pit-trial","trial_index":144,"time_elapsed":714952,"internal_node_id":"0.0-144.0"},{"Valence":"Lose","Color":"#3366ff99","Rune":"06","Correct":32,"Choice":32,"RT":600.2799999841955,"Accuracy":1,"Sham":0,"Outcome":"-1","Keys":[2100.9800000174437],"TotalKeys":1,"Block":2,"Trial":131,"Action":"Go","Robot":3,"trial_type":"pit-trial","trial_index":145,"time_elapsed":718055,"internal_node_id":"0.0-145.0"},{"Valence":"Win","Color":"#ffcc3399","Rune":"03","Correct":-1,"Choice":-1,"RT":-1,"Accuracy":1,"Sham":0,"Outcome":"+10","Keys":[],"TotalKeys":0,"Block":2,"Trial":132,"Action":"No-Go","Robot":2,"trial_type":"pit-trial","trial_index":146,"time_elapsed":722059,"internal_node_id":"0.0-146.0"},{"Valence":"Lose","Color":"#3366ff99","Rune":"05","Correct":-1,"Choice":-1,"RT":-1,"Accuracy":1,"Sham":0,"Outcome":"-1","Keys":[],"TotalKeys":0,"Block":2,"Trial":133,"Action":"No-Go","Robot":4,"trial_type":"pit-trial","trial_index":147,"time_elapsed":726062,"internal_node_id":"0.0-147.0"},{"Valence":"Win","Color":"#ffcc3399","Rune":"04","Correct":32,"Choice":32,"RT":546.0549999843352,"Accuracy":1,"Sham":0,"Outcome":"+10","Keys":[2046.6799999994691],"TotalKeys":1,"Block":2,"Trial":134,"Action":"Go","Robot":1,"trial_type":"pit-trial","trial_index":148,"time_elapsed":729112,"internal_node_id":"0.0-148.0"},{"Valence":"Lose","Color":"#3366ff99","Rune":"06","Correct":32,"Choice":32,"RT":824.0349999978207,"Accuracy":1,"Sham":0,"Outcome":"-1","Keys":[2324.7799999953713],"TotalKeys":1,"Block":2,"Trial":135,"Action":"Go","Robot":3,"trial_type":"pit-trial","trial_index":149,"time_elapsed":732439,"internal_node_id":"0.0-149.0"},{"Valence":"Win","Color":"#ffcc3399","Rune":"03","Correct":-1,"Choice":-1,"RT":-1,"Accuracy":1,"Sham":0,"Outcome":"+10","Keys":[],"TotalKeys":0,"Block":2,"Trial":136,"Action":"No-Go","Robot":2,"trial_type":"pit-trial","trial_index":150,"time_elapsed":736442,"internal_node_id":"0.0-150.0"},{"Valence":"Lose","Color":"#3366ff99","Rune":"05","Correct":-1,"Choice":-1,"RT":-1,"Accuracy":1,"Sham":1,"Outcome":"-10","Keys":[],"TotalKeys":0,"Block":2,"Trial":137,"Action":"No-Go","Robot":4,"trial_type":"pit-trial","trial_index":151,"time_elapsed":740445,"internal_node_id":"0.0-151.0"},{"Valence":"Win","Color":"#ffcc3399","Rune":"04","Correct":32,"Choice":32,"RT":530.7449999963865,"Accuracy":1,"Sham":0,"Outcome":"+10","Keys":[2031.3700000115205],"TotalKeys":1,"Block":2,"Trial":138,"Action":"Go","Robot":1,"trial_type":"pit-trial","trial_index":152,"time_elapsed":743479,"internal_node_id":"0.0-152.0"},{"Valence":"Lose","Color":"#3366ff99","Rune":"06","Correct":32,"Choice":32,"RT":632.4550000135787,"Accuracy":1,"Sham":0,"Outcome":"-1","Keys":[2133.1649999774527],"TotalKeys":1,"Block":2,"Trial":139,"Action":"Go","Robot":3,"trial_type":"pit-trial","trial_index":153,"time_elapsed":746615,"internal_node_id":"0.0-153.0"},{"Valence":"Win","Color":"#ffcc3399","Rune":"03","Correct":-1,"Choice":-1,"RT":-1,"Accuracy":1,"Sham":1,"Outcome":"1","Keys":[],"TotalKeys":0,"Block":2,"Trial":140,"Action":"No-Go","Robot":2,"trial_type":"pit-trial","trial_index":154,"time_elapsed":750619,"internal_node_id":"0.0-154.0"},{"Valence":"Win","Color":"#ffcc3399","Rune":"03","Correct":-1,"Choice":-1,"RT":-1,"Accuracy":1,"Sham":1,"Outcome":"1","Keys":[],"TotalKeys":0,"Block":2,"Trial":141,"Action":"No-Go","Robot":2,"trial_type":"pit-trial","trial_index":155,"time_elapsed":754623,"internal_node_id":"0.0-155.0"},{"Valence":"Lose","Color":"#3366ff99","Rune":"06","Correct":32,"Choice":32,"RT":505.4250000102911,"Accuracy":1,"Sham":0,"Outcome":"-1","Keys":[2006.0649999941234],"TotalKeys":1,"Block":2,"Trial":142,"Action":"Go","Robot":3,"trial_type":"pit-trial","trial_index":156,"time_elapsed":757632,"internal_node_id":"0.0-156.0"},{"Valence":"Win","Color":"#ffcc3399","Rune":"04","Correct":32,"Choice":32,"RT":512.3800000001211,"Accuracy":1,"Sham":0,"Outcome":"+10","Keys":[2013.0150000040885],"TotalKeys":1,"Block":2,"Trial":143,"Action":"Go","Robot":1,"trial_type":"pit-trial","trial_index":157,"time_elapsed":760647,"internal_node_id":"0.0-157.0"},{"Valence":"Lose","Color":"#3366ff99","Rune":"05","Correct":-1,"Choice":-1,"RT":-1,"Accuracy":1,"Sham":0,"Outcome":"-1","Keys":[],"TotalKeys":0,"Block":2,"Trial":144,"Action":"No-Go","Robot":4,"trial_type":"pit-trial","trial_index":158,"time_elapsed":764651,"internal_node_id":"0.0-158.0"},{"Valence":"Lose","Color":"#3366ff99","Rune":"05","Correct":-1,"Choice":-1,"RT":-1,"Accuracy":1,"Sham":0,"Outcome":"-1","Keys":[],"TotalKeys":0,"Block":2,"Trial":145,"Action":"No-Go","Robot":4,"trial_type":"pit-trial","trial_index":159,"time_elapsed":768655,"internal_node_id":"0.0-159.0"},{"Valence":"Win","Color":"#ffcc3399","Rune":"04","Correct":32,"Choice":32,"RT":463.94000001600944,"Accuracy":1,"Sham":0,"Outcome":"+10","Keys":[1964.6499999798834],"TotalKeys":1,"Block":2,"Trial":146,"Action":"Go","Robot":1,"trial_type":"pit-trial","trial_index":160,"time_elapsed":771623,"internal_node_id":"0.0-160.0"},{"Valence":"Lose","Color":"#3366ff99","Rune":"06","Correct":32,"Choice":32,"RT":566.835000005085,"Accuracy":1,"Sham":0,"Outcome":"-1","Keys":[2068.645000021206],"TotalKeys":1,"Block":2,"Trial":147,"Action":"Go","Robot":3,"trial_type":"pit-trial","trial_index":161,"time_elapsed":774696,"internal_node_id":"0.0-161.0"},{"Valence":"Win","Color":"#ffcc3399","Rune":"03","Correct":-1,"Choice":-1,"RT":-1,"Accuracy":1,"Sham":0,"Outcome":"+10","Keys":[],"TotalKeys":0,"Block":2,"Trial":148,"Action":"No-Go","Robot":2,"trial_type":"pit-trial","trial_index":162,"time_elapsed":778700,"internal_node_id":"0.0-162.0"},{"Valence":"Win","Color":"#ffcc3399","Rune":"03","Correct":-1,"Choice":-1,"RT":-1,"Accuracy":1,"Sham":0,"Outcome":"+10","Keys":[],"TotalKeys":0,"Block":2,"Trial":149,"Action":"No-Go","Robot":2,"trial_type":"pit-trial","trial_index":163,"time_elapsed":782703,"internal_node_id":"0.0-163.0"},{"Valence":"Lose","Color":"#3366ff99","Rune":"05","Correct":-1,"Choice":-1,"RT":-1,"Accuracy":1,"Sham":0,"Outcome":"-1","Keys":[],"TotalKeys":0,"Block":2,"Trial":150,"Action":"No-Go","Robot":4,"trial_type":"pit-trial","trial_index":164,"time_elapsed":786705,"internal_node_id":"0.0-164.0"},{"Valence":"Lose","Color":"#3366ff99","Rune":"06","Correct":32,"Choice":32,"RT":598.4300000127405,"Accuracy":1,"Sham":0,"Outcome":"-1","Keys":[2100.0850000127684],"TotalKeys":1,"Block":2,"Trial":151,"Action":"Go","Robot":3,"trial_type":"pit-trial","trial_index":165,"time_elapsed":789808,"internal_node_id":"0.0-165.0"},{"Valence":"Win","Color":"#ffcc3399","Rune":"04","Correct":32,"Choice":32,"RT":463.3400000166148,"Accuracy":1,"Sham":0,"Outcome":"+10","Keys":[1964.815000013914],"TotalKeys":1,"Block":2,"Trial":152,"Action":"Go","Robot":1,"trial_type":"pit-trial","trial_index":166,"time_elapsed":792776,"internal_node_id":"0.0-166.0"},{"Valence":"Win","Color":"#ffcc3399","Rune":"04","Correct":32,"Choice":32,"RT":511.3800000108313,"Accuracy":1,"Sham":0,"Outcome":"+10","Keys":[2013.089999993099],"TotalKeys":1,"Block":2,"Trial":153,"Action":"Go","Robot":1,"trial_type":"pit-trial","trial_index":167,"time_elapsed":795792,"internal_node_id":"0.0-167.0"},{"Valence":"Lose","Color":"#3366ff99","Rune":"05","Correct":-1,"Choice":-1,"RT":-1,"Accuracy":1,"Sham":0,"Outcome":"-1","Keys":[],"TotalKeys":0,"Block":2,"Trial":154,"Action":"No-Go","Robot":4,"trial_type":"pit-trial","trial_index":168,"time_elapsed":799796,"internal_node_id":"0.0-168.0"},{"Valence":"Lose","Color":"#3366ff99","Rune":"06","Correct":32,"Choice":32,"RT":540.2200000244193,"Accuracy":1,"Sham":0,"Outcome":"-1","Keys":[2040.8250000036787],"TotalKeys":1,"Block":2,"Trial":155,"Action":"Go","Robot":3,"trial_type":"pit-trial","trial_index":169,"time_elapsed":802840,"internal_node_id":"0.0-169.0"},{"Valence":"Win","Color":"#ffcc3399","Rune":"03","Correct":-1,"Choice":-1,"RT":-1,"Accuracy":1,"Sham":0,"Outcome":"+10","Keys":[],"TotalKeys":0,"Block":2,"Trial":156,"Action":"No-Go","Robot":2,"trial_type":"pit-trial","trial_index":170,"time_elapsed":806843,"internal_node_id":"0.0-170.0"},{"Valence":"Lose","Color":"#3366ff99","Rune":"06","Correct":32,"Choice":32,"RT":677.094999991823,"Accuracy":1,"Sham":1,"Outcome":"-10","Keys":[2177.6950000203215],"TotalKeys":1,"Block":2,"Trial":157,"Action":"Go","Robot":3,"trial_type":"pit-trial","trial_index":171,"time_elapsed":810024,"internal_node_id":"0.0-171.0"},{"Valence":"Lose","Color":"#3366ff99","Rune":"05","Correct":-1,"Choice":-1,"RT":-1,"Accuracy":1,"Sham":1,"Outcome":"-10","Keys":[],"TotalKeys":0,"Block":2,"Trial":158,"Action":"No-Go","Robot":4,"trial_type":"pit-trial","trial_index":172,"time_elapsed":814027,"internal_node_id":"0.0-172.0"},{"Valence":"Win","Color":"#ffcc3399","Rune":"03","Correct":-1,"Choice":-1,"RT":-1,"Accuracy":1,"Sham":0,"Outcome":"+10","Keys":[],"TotalKeys":0,"Block":2,"Trial":159,"Action":"No-Go","Robot":2,"trial_type":"pit-trial","trial_index":173,"time_elapsed":818032,"internal_node_id":"0.0-173.0"},{"Valence":"Win","Color":"#ffcc3399","Rune":"04","Correct":32,"Choice":32,"RT":400.0149999919813,"Accuracy":1,"Sham":1,"Outcome":"1","Keys":[1900.6200000003446],"TotalKeys":1,"Block":2,"Trial":160,"Action":"Go","Robot":1,"trial_type":"pit-trial","trial_index":174,"time_elapsed":820935,"internal_node_id":"0.0-174.0"},{"rt":21986.12499999581,"demographics":{"age":"56","gender-categorical":"Female","ethnicity":"Not Hispanic or Latino","race":"White","english":"Yes","fluency":"Very well"},"trial_type":"survey-demo","trial_index":175,"time_elapsed":842924,"internal_node_id":"0.0-175.0"},{"rt":78135.96499999403,"debriefgraphics":{"difficulty":"4","fun":"5","clarity":"5","strategy":"I thought I could just pay attention to how often a symbol came up, but then had to factor in that the symbol was not always correct. (-:","feedback":""},"trial_type":"survey-debrief","trial_index":176,"time_elapsed":921063,"internal_node_id":"0.0-176.0","interactions":"[]"}]