[{"view_history":"[{\"page_index\":0,\"viewing_time\":3608.4699999773875},{\"page_index\":1,\"viewing_time\":2463.61000003526},{\"page_index\":2,\"viewing_time\":4216.075000003912},{\"page_index\":3,\"viewing_time\":3959.8999999579974},{\"page_index\":4,\"viewing_time\":3528.020000027027}]","rt":17776.97000000626,"trial_type":"pit-instructions","trial_index":0,"time_elapsed":17779,"internal_node_id":"0.0-0.0"},{"Rune":"01","Correct":32,"Choice":32,"RT":1188.8400000170805,"Accuracy":1,"Sham":0,"Outcome":"+10","Keys":[2689.814999990631],"TotalKeys":1,"trial_type":"pit-trial","trial_index":1,"time_elapsed":21474,"internal_node_id":"0.0-1.0"},{"Rune":"01","Correct":32,"Choice":32,"RT":421.2299999780953,"Accuracy":1,"Sham":0,"Outcome":"+10","Keys":[1921.6100000194274],"TotalKeys":1,"trial_type":"pit-trial","trial_index":2,"time_elapsed":24400,"internal_node_id":"0.0-2.0"},{"Rune":"01","Correct":32,"Choice":32,"RT":382.48999998904765,"Accuracy":1,"Sham":0,"Outcome":"+10","Keys":[1883.4999999962747],"TotalKeys":1,"trial_type":"pit-trial","trial_index":3,"time_elapsed":27287,"internal_node_id":"0.0-3.0"},{"Rune":"01","Correct":32,"Choice":32,"RT":414.59499998018146,"Accuracy":1,"Sham":0,"Outcome":"+10","Keys":[1916.640000010375],"TotalKeys":1,"trial_type":"pit-trial","trial_index":4,"time_elapsed":30207,"internal_node_id":"0.0-4.0"},{"view_history":"[{\"page_index\":0,\"viewing_time\":6377.389999979641}]","rt":6377.709999971557,"trial_type":"pit-instructions","trial_index":5,"time_elapsed":36586,"internal_node_id":"0.0-5.0"},{"Rune":"02","Correct":-1,"Choice":-1,"RT":-1,"Accuracy":1,"Sham":0,"Outcome":"+10","Keys":[],"TotalKeys":0,"trial_type":"pit-trial","trial_index":6,"time_elapsed":40589,"internal_node_id":"0.0-6.0"},{"Rune":"02","Correct":-1,"Choice":-1,"RT":-1,"Accuracy":1,"Sham":0,"Outcome":"+10","Keys":[],"TotalKeys":0,"trial_type":"pit-trial","trial_index":7,"time_elapsed":44592,"internal_node_id":"0.0-7.0"},{"Rune":"02","Correct":-1,"Choice":-1,"RT":-1,"Accuracy":1,"Sham":0,"Outcome":"+10","Keys":[],"TotalKeys":0,"trial_type":"pit-trial","trial_index":8,"time_elapsed":48596,"internal_node_id":"0.0-8.0"},{"Rune":"02","Correct":-1,"Choice":-1,"RT":-1,"Accuracy":1,"Sham":0,"Outcome":"+10","Keys":[],"TotalKeys":0,"trial_type":"pit-trial","trial_index":9,"time_elapsed":52602,"internal_node_id":"0.0-9.0"},{"view_history":"[{\"page_index\":0,\"viewing_time\":4374.379999993835},{\"page_index\":1,\"viewing_time\":6160.11499997694},{\"page_index\":2,\"viewing_time\":2831.7300000344403},{\"page_index\":3,\"viewing_time\":6352.104999998119},{\"page_index\":4,\"viewing_time\":3512.0199999655597},{\"page_index\":5,\"viewing_time\":4575.855000002775},{\"page_index\":6,\"viewing_time\":2551.949999993667},{\"page_index\":7,\"viewing_time\":1423.9500000257976}]","rt":31782.429999962915,"trial_type":"pit-instructions","trial_index":10,"time_elapsed":84385,"internal_node_id":"0.0-10.0"},{"rt":14261.624999984633,"responses":"{\"no-press\":\"Do nothing\",\"context-win\":\"+10\",\"context-lose\":\"+0\",\"feedback\":\"True\"}","errors":0,"trial_type":"pit-comprehension","trial_index":11,"time_elapsed":98650,"internal_node_id":"0.0-11.0"},{"view_history":"[{\"page_index\":0,\"viewing_time\":2547.0949999871664}]","rt":2547.4149999790825,"trial_type":"pit-instructions","trial_index":12,"time_elapsed":101201,"internal_node_id":"0.0-12.0"},{"Rune":"04","Correct":-1,"Choice":32,"RT":365.58000004151836,"Accuracy":0,"Sham":0,"Outcome":"+0","Keys":[1866.9649999937974],"TotalKeys":1,"Block":1,"Trial":1,"Valence":"Win","Action":"No-Go","Robot":2,"trial_type":"pit-trial","trial_index":13,"time_elapsed":104071,"internal_node_id":"0.0-13.0"},{"Rune":"05","Correct":32,"Choice":32,"RT":495.40000001434237,"Accuracy":1,"Sham":0,"Outcome":"+0","Keys":[1996.0050000227056],"TotalKeys":1,"Block":1,"Trial":2,"Valence":"Lose","Action":"Go","Robot":3,"trial_type":"pit-trial","trial_index":14,"time_elapsed":107070,"internal_node_id":"0.0-14.0"},{"Rune":"06","Correct":-1,"Choice":32,"RT":432.06500000087544,"Accuracy":0,"Sham":0,"Outcome":"-10","Keys":[1932.4600000400096],"TotalKeys":1,"Block":1,"Trial":3,"Valence":"Lose","Action":"No-Go","Robot":4,"trial_type":"pit-trial","trial_index":15,"time_elapsed":110007,"internal_node_id":"0.0-15.0"},{"Rune":"03","Correct":32,"Choice":32,"RT":502.15000001480803,"Accuracy":1,"Sham":0,"Outcome":"+10","Keys":[2003.8349999813363],"TotalKeys":1,"Block":1,"Trial":4,"Valence":"Win","Action":"Go","Robot":1,"trial_type":"pit-trial","trial_index":16,"time_elapsed":113017,"internal_node_id":"0.0-16.0"},{"Rune":"05","Correct":32,"Choice":32,"RT":588.8099999865517,"Accuracy":1,"Sham":1,"Outcome":"-10","Keys":[2089.579999970738],"TotalKeys":1,"Block":1,"Trial":5,"Valence":"Lose","Action":"Go","Robot":3,"trial_type":"pit-trial","trial_index":17,"time_elapsed":116111,"internal_node_id":"0.0-17.0"},{"Rune":"06","Correct":-1,"Choice":-1,"RT":-1,"Accuracy":1,"Sham":0,"Outcome":"+0","Keys":[],"TotalKeys":0,"Block":1,"Trial":6,"Valence":"Lose","Action":"No-Go","Robot":4,"trial_type":"pit-trial","trial_index":18,"time_elapsed":120116,"internal_node_id":"0.0-18.0"},{"Rune":"03","Correct":32,"Choice":32,"RT":352.75499999988824,"Accuracy":1,"Sham":0,"Outcome":"+10","Keys":[1853.7650000071153],"TotalKeys":1,"Block":1,"Trial":7,"Valence":"Win","Action":"Go","Robot":1,"trial_type":"pit-trial","trial_index":19,"time_elapsed":122974,"internal_node_id":"0.0-19.0"},{"Rune":"04","Correct":-1,"Choice":32,"RT":902.3450000095181,"Accuracy":0,"Sham":0,"Outcome":"+0","Keys":[2404.3449999880977],"TotalKeys":1,"Block":1,"Trial":8,"Valence":"Win","Action":"No-Go","Robot":2,"trial_type":"pit-trial","trial_index":20,"time_elapsed":126382,"internal_node_id":"0.0-20.0"},{"Rune":"03","Correct":32,"Choice":32,"RT":798.5500000067987,"Accuracy":1,"Sham":0,"Outcome":"+10","Keys":[2299.3049999931827],"TotalKeys":1,"Block":1,"Trial":9,"Valence":"Win","Action":"Go","Robot":1,"trial_type":"pit-trial","trial_index":21,"time_elapsed":129687,"internal_node_id":"0.0-21.0"},{"Rune":"05","Correct":32,"Choice":-1,"RT":-1,"Accuracy":0,"Sham":0,"Outcome":"-10","Keys":[],"TotalKeys":0,"Block":1,"Trial":10,"Valence":"Lose","Action":"Go","Robot":3,"trial_type":"pit-trial","trial_index":22,"time_elapsed":133691,"internal_node_id":"0.0-22.0"},{"Rune":"04","Correct":-1,"Choice":32,"RT":812.2999999905005,"Accuracy":0,"Sham":0,"Outcome":"+0","Keys":[2312.5700000091456],"TotalKeys":1,"Block":1,"Trial":11,"Valence":"Win","Action":"No-Go","Robot":2,"trial_type":"pit-trial","trial_index":23,"time_elapsed":137007,"internal_node_id":"0.0-23.0"},{"Rune":"06","Correct":-1,"Choice":-1,"RT":-1,"Accuracy":1,"Sham":0,"Outcome":"+0","Keys":[],"TotalKeys":0,"Block":1,"Trial":12,"Valence":"Lose","Action":"No-Go","Robot":4,"trial_type":"pit-trial","trial_index":24,"time_elapsed":141012,"internal_node_id":"0.0-24.0"},{"Rune":"03","Correct":32,"Choice":32,"RT":506.03499996941537,"Accuracy":1,"Sham":0,"Outcome":"+10","Keys":[2006.0999999986961],"TotalKeys":1,"Block":1,"Trial":13,"Valence":"Win","Action":"Go","Robot":1,"trial_type":"pit-trial","trial_index":25,"time_elapsed":144022,"internal_node_id":"0.0-25.0"},{"Rune":"04","Correct":-1,"Choice":32,"RT":607.6100000063889,"Accuracy":0,"Sham":0,"Outcome":"+0","Keys":[2108.02500002319],"TotalKeys":1,"Block":1,"Trial":14,"Valence":"Win","Action":"No-Go","Robot":2,"trial_type":"pit-trial","trial_index":26,"time_elapsed":147134,"internal_node_id":"0.0-26.0"},{"Rune":"05","Correct":32,"Choice":-1,"RT":-1,"Accuracy":0,"Sham":0,"Outcome":"-10","Keys":[],"TotalKeys":0,"Block":1,"Trial":15,"Valence":"Lose","Action":"Go","Robot":3,"trial_type":"pit-trial","trial_index":27,"time_elapsed":151139,"internal_node_id":"0.0-27.0"},{"Rune":"06","Correct":-1,"Choice":-1,"RT":-1,"Accuracy":1,"Sham":1,"Outcome":"-10","Keys":[],"TotalKeys":0,"Block":1,"Trial":16,"Valence":"Lose","Action":"No-Go","Robot":4,"trial_type":"pit-trial","trial_index":28,"time_elapsed":155144,"internal_node_id":"0.0-28.0"},{"Rune":"03","Correct":32,"Choice":32,"RT":516.7749999673106,"Accuracy":1,"Sham":1,"Outcome":"+0","Keys":[2017.3200000426732],"TotalKeys":1,"Block":1,"Trial":17,"Valence":"Win","Action":"Go","Robot":1,"trial_type":"pit-trial","trial_index":29,"time_elapsed":158166,"internal_node_id":"0.0-29.0"},{"Rune":"05","Correct":32,"Choice":32,"RT":527.2949999780394,"Accuracy":1,"Sham":0,"Outcome":"+0","Keys":[2027.9650000156835],"TotalKeys":1,"Block":1,"Trial":18,"Valence":"Lose","Action":"Go","Robot":3,"trial_type":"pit-trial","trial_index":30,"time_elapsed":161198,"internal_node_id":"0.0-30.0"},{"Rune":"04","Correct":-1,"Choice":32,"RT":550.9450000245124,"Accuracy":0,"Sham":1,"Outcome":"+10","Keys":[2052.4549999972805],"TotalKeys":1,"Block":1,"Trial":19,"Valence":"Win","Action":"No-Go","Robot":2,"trial_type":"pit-trial","trial_index":31,"time_elapsed":164254,"internal_node_id":"0.0-31.0"},{"Rune":"06","Correct":-1,"Choice":32,"RT":1030.785000009928,"Accuracy":0,"Sham":0,"Outcome":"-10","Keys":[2531.6499999607913],"TotalKeys":1,"Block":1,"Trial":20,"Valence":"Lose","Action":"No-Go","Robot":4,"trial_type":"pit-trial","trial_index":32,"time_elapsed":167790,"internal_node_id":"0.0-32.0"},{"Rune":"06","Correct":-1,"Choice":-1,"RT":-1,"Accuracy":1,"Sham":0,"Outcome":"+0","Keys":[],"TotalKeys":0,"Block":1,"Trial":21,"Valence":"Lose","Action":"No-Go","Robot":4,"trial_type":"pit-trial","trial_index":33,"time_elapsed":171794,"internal_node_id":"0.0-33.0"},{"Rune":"04","Correct":-1,"Choice":32,"RT":411.4199999603443,"Accuracy":0,"Sham":0,"Outcome":"+0","Keys":[1912.9350000293925],"TotalKeys":1,"Block":1,"Trial":22,"Valence":"Win","Action":"No-Go","Robot":2,"trial_type":"pit-trial","trial_index":34,"time_elapsed":174709,"internal_node_id":"0.0-34.0"},{"Rune":"03","Correct":32,"Choice":32,"RT":448.81499995244667,"Accuracy":1,"Sham":0,"Outcome":"+10","Keys":[1949.6650000219233],"TotalKeys":1,"Block":1,"Trial":23,"Valence":"Win","Action":"Go","Robot":1,"trial_type":"pit-trial","trial_index":35,"time_elapsed":177662,"internal_node_id":"0.0-35.0"},{"Rune":"05","Correct":32,"Choice":32,"RT":1200.089999998454,"Accuracy":1,"Sham":0,"Outcome":"+0","Keys":[2701.3249999727122,2916.975000000093],"TotalKeys":2,"Block":1,"Trial":24,"Valence":"Lose","Action":"Go","Robot":3,"trial_type":"pit-trial","trial_index":36,"time_elapsed":181366,"internal_node_id":"0.0-36.0"},{"Rune":"06","Correct":-1,"Choice":-1,"RT":-1,"Accuracy":1,"Sham":0,"Outcome":"+0","Keys":[],"TotalKeys":0,"Block":1,"Trial":25,"Valence":"Lose","Action":"No-Go","Robot":4,"trial_type":"pit-trial","trial_index":37,"time_elapsed":185370,"internal_node_id":"0.0-37.0"},{"Rune":"03","Correct":32,"Choice":32,"RT":442.88499996764585,"Accuracy":1,"Sham":0,"Outcome":"+10","Keys":[1943.7850000103936],"TotalKeys":1,"Block":1,"Trial":26,"Valence":"Win","Action":"Go","Robot":1,"trial_type":"pit-trial","trial_index":38,"time_elapsed":188318,"internal_node_id":"0.0-38.0"},{"Rune":"05","Correct":32,"Choice":32,"RT":1054.935000021942,"Accuracy":1,"Sham":0,"Outcome":"+0","Keys":[2555.579999985639],"TotalKeys":1,"Block":1,"Trial":27,"Valence":"Lose","Action":"Go","Robot":3,"trial_type":"pit-trial","trial_index":39,"time_elapsed":191877,"internal_node_id":"0.0-39.0"},{"Rune":"04","Correct":-1,"Choice":32,"RT":504.6299999812618,"Accuracy":0,"Sham":0,"Outcome":"+0","Keys":[2005.0099999643862],"TotalKeys":1,"Block":1,"Trial":28,"Valence":"Win","Action":"No-Go","Robot":2,"trial_type":"pit-trial","trial_index":40,"time_elapsed":194886,"internal_node_id":"0.0-40.0"},{"Rune":"05","Correct":32,"Choice":-1,"RT":-1,"Accuracy":0,"Sham":0,"Outcome":"-10","Keys":[],"TotalKeys":0,"Block":1,"Trial":29,"Valence":"Lose","Action":"Go","Robot":3,"trial_type":"pit-trial","trial_index":41,"time_elapsed":198891,"internal_node_id":"0.0-41.0"},{"Rune":"04","Correct":-1,"Choice":32,"RT":473.38999999919906,"Accuracy":0,"Sham":1,"Outcome":"+10","Keys":[1974.660000007134],"TotalKeys":1,"Block":1,"Trial":30,"Valence":"Win","Action":"No-Go","Robot":2,"trial_type":"pit-trial","trial_index":42,"time_elapsed":201870,"internal_node_id":"0.0-42.0"},{"Rune":"03","Correct":32,"Choice":32,"RT":535.1099999970756,"Accuracy":1,"Sham":1,"Outcome":"+0","Keys":[2036.6749999811873],"TotalKeys":1,"Block":1,"Trial":31,"Valence":"Win","Action":"Go","Robot":1,"trial_type":"pit-trial","trial_index":43,"time_elapsed":204909,"internal_node_id":"0.0-43.0"},{"Rune":"06","Correct":-1,"Choice":32,"RT":632.6700000208803,"Accuracy":0,"Sham":0,"Outcome":"-10","Keys":[2133.109999995213],"TotalKeys":1,"Block":1,"Trial":32,"Valence":"Lose","Action":"No-Go","Robot":4,"trial_type":"pit-trial","trial_index":44,"time_elapsed":208046,"internal_node_id":"0.0-44.0"},{"Rune":"06","Correct":-1,"Choice":-1,"RT":-1,"Accuracy":1,"Sham":0,"Outcome":"+0","Keys":[],"TotalKeys":0,"Block":1,"Trial":33,"Valence":"Lose","Action":"No-Go","Robot":4,"trial_type":"pit-trial","trial_index":45,"time_elapsed":212053,"internal_node_id":"0.0-45.0"},{"Rune":"04","Correct":-1,"Choice":32,"RT":503.17000003997236,"Accuracy":0,"Sham":0,"Outcome":"+0","Keys":[2004.465000005439],"TotalKeys":1,"Block":1,"Trial":34,"Valence":"Win","Action":"No-Go","Robot":2,"trial_type":"pit-trial","trial_index":46,"time_elapsed":215061,"internal_node_id":"0.0-46.0"},{"Rune":"03","Correct":32,"Choice":32,"RT":519.5550000062212,"Accuracy":1,"Sham":0,"Outcome":"+10","Keys":[2020.5599999753758],"TotalKeys":1,"Block":1,"Trial":35,"Valence":"Win","Action":"Go","Robot":1,"trial_type":"pit-trial","trial_index":47,"time_elapsed":218085,"internal_node_id":"0.0-47.0"},{"Rune":"05","Correct":32,"Choice":32,"RT":1079.604999977164,"Accuracy":1,"Sham":1,"Outcome":"-10","Keys":[2580.9900000458583],"TotalKeys":1,"Block":1,"Trial":36,"Valence":"Lose","Action":"Go","Robot":3,"trial_type":"pit-trial","trial_index":48,"time_elapsed":221669,"internal_node_id":"0.0-48.0"},{"Rune":"06","Correct":-1,"Choice":-1,"RT":-1,"Accuracy":1,"Sham":1,"Outcome":"-10","Keys":[],"TotalKeys":0,"Block":1,"Trial":37,"Valence":"Lose","Action":"No-Go","Robot":4,"trial_type":"pit-trial","trial_index":49,"time_elapsed":225673,"internal_node_id":"0.0-49.0"},{"Rune":"05","Correct":32,"Choice":-1,"RT":-1,"Accuracy":0,"Sham":0,"Outcome":"-10","Keys":[],"TotalKeys":0,"Block":1,"Trial":38,"Valence":"Lose","Action":"Go","Robot":3,"trial_type":"pit-trial","trial_index":50,"time_elapsed":229676,"internal_node_id":"0.0-50.0"},{"Rune":"03","Correct":32,"Choice":32,"RT":392.7950000506826,"Accuracy":1,"Sham":0,"Outcome":"+10","Keys":[1894.41499998793],"TotalKeys":1,"Block":1,"Trial":39,"Valence":"Win","Action":"Go","Robot":1,"trial_type":"pit-trial","trial_index":51,"time_elapsed":232575,"internal_node_id":"0.0-51.0"},{"Rune":"04","Correct":-1,"Choice":32,"RT":461.8800000171177,"Accuracy":0,"Sham":0,"Outcome":"+0","Keys":[1962.0100000174716],"TotalKeys":1,"Block":1,"Trial":40,"Valence":"Win","Action":"No-Go","Robot":2,"trial_type":"pit-trial","trial_index":52,"time_elapsed":235542,"internal_node_id":"0.0-52.0"},{"Rune":"05","Correct":32,"Choice":32,"RT":374.95500000659376,"Accuracy":1,"Sham":1,"Outcome":"-10","Keys":[1875.5649999948218],"TotalKeys":1,"Block":1,"Trial":41,"Valence":"Lose","Action":"Go","Robot":3,"trial_type":"pit-trial","trial_index":53,"time_elapsed":238421,"internal_node_id":"0.0-53.0"},{"Rune":"04","Correct":-1,"Choice":32,"RT":431.73999997088686,"Accuracy":0,"Sham":0,"Outcome":"+0","Keys":[1933.4900000249036],"TotalKeys":1,"Block":1,"Trial":42,"Valence":"Win","Action":"No-Go","Robot":2,"trial_type":"pit-trial","trial_index":54,"time_elapsed":241358,"internal_node_id":"0.0-54.0"},{"Rune":"06","Correct":-1,"Choice":-1,"RT":-1,"Accuracy":1,"Sham":0,"Outcome":"+0","Keys":[],"TotalKeys":0,"Block":1,"Trial":43,"Valence":"Lose","Action":"No-Go","Robot":4,"trial_type":"pit-trial","trial_index":55,"time_elapsed":245363,"internal_node_id":"0.0-55.0"},{"Rune":"03","Correct":32,"Choice":32,"RT":537.8600000403821,"Accuracy":1,"Sham":0,"Outcome":"+10","Keys":[2039.1699999454431],"TotalKeys":1,"Block":1,"Trial":44,"Valence":"Win","Action":"Go","Robot":1,"trial_type":"pit-trial","trial_index":56,"time_elapsed":248405,"internal_node_id":"0.0-56.0"},{"Rune":"06","Correct":-1,"Choice":-1,"RT":-1,"Accuracy":1,"Sham":0,"Outcome":"+0","Keys":[],"TotalKeys":0,"Block":1,"Trial":45,"Valence":"Lose","Action":"No-Go","Robot":4,"trial_type":"pit-trial","trial_index":57,"time_elapsed":252409,"internal_node_id":"0.0-57.0"},{"Rune":"04","Correct":-1,"Choice":32,"RT":491.8300000135787,"Accuracy":0,"Sham":1,"Outcome":"+10","Keys":[1992.415000044275],"TotalKeys":1,"Block":1,"Trial":46,"Valence":"Win","Action":"No-Go","Robot":2,"trial_type":"pit-trial","trial_index":58,"time_elapsed":255405,"internal_node_id":"0.0-58.0"},{"Rune":"05","Correct":32,"Choice":-1,"RT":-1,"Accuracy":0,"Sham":0,"Outcome":"-10","Keys":[],"TotalKeys":0,"Block":1,"Trial":47,"Valence":"Lose","Action":"Go","Robot":3,"trial_type":"pit-trial","trial_index":59,"time_elapsed":259411,"internal_node_id":"0.0-59.0"},{"Rune":"03","Correct":32,"Choice":32,"RT":451.1499999789521,"Accuracy":1,"Sham":0,"Outcome":"+10","Keys":[1951.7500000074506],"TotalKeys":1,"Block":1,"Trial":48,"Valence":"Win","Action":"Go","Robot":1,"trial_type":"pit-trial","trial_index":60,"time_elapsed":262366,"internal_node_id":"0.0-60.0"},{"Rune":"06","Correct":-1,"Choice":-1,"RT":-1,"Accuracy":1,"Sham":0,"Outcome":"+0","Keys":[],"TotalKeys":0,"Block":1,"Trial":49,"Valence":"Lose","Action":"No-Go","Robot":4,"trial_type":"pit-trial","trial_index":61,"time_elapsed":266370,"internal_node_id":"0.0-61.0"},{"Rune":"03","Correct":32,"Choice":32,"RT":569.4399999920279,"Accuracy":1,"Sham":0,"Outcome":"+10","Keys":[2070.2600000076927],"TotalKeys":1,"Block":1,"Trial":50,"Valence":"Win","Action":"Go","Robot":1,"trial_type":"pit-trial","trial_index":62,"time_elapsed":269444,"internal_node_id":"0.0-62.0"},{"Rune":"04","Correct":-1,"Choice":32,"RT":552.0799999940209,"Accuracy":0,"Sham":0,"Outcome":"+0","Keys":[2053.109999978915],"TotalKeys":1,"Block":1,"Trial":51,"Valence":"Win","Action":"No-Go","Robot":2,"trial_type":"pit-trial","trial_index":63,"time_elapsed":272502,"internal_node_id":"0.0-63.0"},{"Rune":"05","Correct":32,"Choice":32,"RT":1206.7750000278465,"Accuracy":1,"Sham":0,"Outcome":"+0","Keys":[2707.8700000420213],"TotalKeys":1,"Block":1,"Trial":52,"Valence":"Lose","Action":"Go","Robot":3,"trial_type":"pit-trial","trial_index":64,"time_elapsed":276213,"internal_node_id":"0.0-64.0"},{"Rune":"04","Correct":-1,"Choice":32,"RT":527.2850000183098,"Accuracy":0,"Sham":0,"Outcome":"+0","Keys":[2028.4650000394322],"TotalKeys":1,"Block":1,"Trial":53,"Valence":"Win","Action":"No-Go","Robot":2,"trial_type":"pit-trial","trial_index":65,"time_elapsed":279245,"internal_node_id":"0.0-65.0"},{"Rune":"05","Correct":32,"Choice":-1,"RT":-1,"Accuracy":0,"Sham":0,"Outcome":"-10","Keys":[],"TotalKeys":0,"Block":1,"Trial":54,"Valence":"Lose","Action":"Go","Robot":3,"trial_type":"pit-trial","trial_index":66,"time_elapsed":283250,"internal_node_id":"0.0-66.0"},{"Rune":"06","Correct":-1,"Choice":-1,"RT":-1,"Accuracy":1,"Sham":0,"Outcome":"+0","Keys":[],"TotalKeys":0,"Block":1,"Trial":55,"Valence":"Lose","Action":"No-Go","Robot":4,"trial_type":"pit-trial","trial_index":67,"time_elapsed":287254,"internal_node_id":"0.0-67.0"},{"Rune":"03","Correct":32,"Choice":32,"RT":455.3299999679439,"Accuracy":1,"Sham":0,"Outcome":"+10","Keys":[1955.580000008922],"TotalKeys":1,"Block":1,"Trial":56,"Valence":"Win","Action":"Go","Robot":1,"trial_type":"pit-trial","trial_index":68,"time_elapsed":290213,"internal_node_id":"0.0-68.0"},{"Rune":"03","Correct":32,"Choice":32,"RT":415.4850000049919,"Accuracy":1,"Sham":1,"Outcome":"+0","Keys":[1916.1949999979697],"TotalKeys":1,"Block":1,"Trial":57,"Valence":"Win","Action":"Go","Robot":1,"trial_type":"pit-trial","trial_index":69,"time_elapsed":293133,"internal_node_id":"0.0-69.0"},{"Rune":"05","Correct":32,"Choice":-1,"RT":-1,"Accuracy":0,"Sham":0,"Outcome":"-10","Keys":[],"TotalKeys":0,"Block":1,"Trial":58,"Valence":"Lose","Action":"Go","Robot":3,"trial_type":"pit-trial","trial_index":70,"time_elapsed":297137,"internal_node_id":"0.0-70.0"},{"Rune":"06","Correct":-1,"Choice":-1,"RT":-1,"Accuracy":1,"Sham":1,"Outcome":"-10","Keys":[],"TotalKeys":0,"Block":1,"Trial":59,"Valence":"Lose","Action":"No-Go","Robot":4,"trial_type":"pit-trial","trial_index":71,"time_elapsed":301142,"internal_node_id":"0.0-71.0"},{"Rune":"04","Correct":-1,"Choice":32,"RT":645.6350000225939,"Accuracy":0,"Sham":0,"Outcome":"+0","Keys":[2146.980000019539],"TotalKeys":1,"Block":1,"Trial":60,"Valence":"Win","Action":"No-Go","Robot":2,"trial_type":"pit-trial","trial_index":72,"time_elapsed":304293,"internal_node_id":"0.0-72.0"},{"Rune":"04","Correct":-1,"Choice":32,"RT":543.5149999684654,"Accuracy":0,"Sham":0,"Outcome":"+0","Keys":[2044.5750000071712],"TotalKeys":1,"Block":1,"Trial":61,"Valence":"Win","Action":"No-Go","Robot":2,"trial_type":"pit-trial","trial_index":73,"time_elapsed":307342,"internal_node_id":"0.0-73.0"},{"Rune":"05","Correct":32,"Choice":-1,"RT":-1,"Accuracy":0,"Sham":0,"Outcome":"-10","Keys":[],"TotalKeys":0,"Block":1,"Trial":62,"Valence":"Lose","Action":"Go","Robot":3,"trial_type":"pit-trial","trial_index":74,"time_elapsed":311346,"internal_node_id":"0.0-74.0"},{"Rune":"06","Correct":-1,"Choice":-1,"RT":-1,"Accuracy":1,"Sham":0,"Outcome":"+0","Keys":[],"TotalKeys":0,"Block":1,"Trial":63,"Valence":"Lose","Action":"No-Go","Robot":4,"trial_type":"pit-trial","trial_index":75,"time_elapsed":315351,"internal_node_id":"0.0-75.0"},{"Rune":"03","Correct":32,"Choice":32,"RT":549.6150000253692,"Accuracy":1,"Sham":0,"Outcome":"+10","Keys":[2050.890000013169],"TotalKeys":1,"Block":1,"Trial":64,"Valence":"Win","Action":"Go","Robot":1,"trial_type":"pit-trial","trial_index":76,"time_elapsed":318406,"internal_node_id":"0.0-76.0"},{"Rune":"04","Correct":-1,"Choice":32,"RT":478.3750000060536,"Accuracy":0,"Sham":0,"Outcome":"+0","Keys":[1979.0950000169687],"TotalKeys":1,"Block":1,"Trial":65,"Valence":"Win","Action":"No-Go","Robot":2,"trial_type":"pit-trial","trial_index":77,"time_elapsed":321389,"internal_node_id":"0.0-77.0"},{"Rune":"06","Correct":-1,"Choice":-1,"RT":-1,"Accuracy":1,"Sham":0,"Outcome":"+0","Keys":[],"TotalKeys":0,"Block":1,"Trial":66,"Valence":"Lose","Action":"No-Go","Robot":4,"trial_type":"pit-trial","trial_index":78,"time_elapsed":325393,"internal_node_id":"0.0-78.0"},{"Rune":"03","Correct":32,"Choice":32,"RT":631.7549999803305,"Accuracy":1,"Sham":1,"Outcome":"+0","Keys":[2133.0200000084005],"TotalKeys":1,"Block":1,"Trial":67,"Valence":"Win","Action":"Go","Robot":1,"trial_type":"pit-trial","trial_index":79,"time_elapsed":328534,"internal_node_id":"0.0-79.0"},{"Rune":"05","Correct":32,"Choice":-1,"RT":-1,"Accuracy":0,"Sham":0,"Outcome":"-10","Keys":[],"TotalKeys":0,"Block":1,"Trial":68,"Valence":"Lose","Action":"Go","Robot":3,"trial_type":"pit-trial","trial_index":80,"time_elapsed":332538,"internal_node_id":"0.0-80.0"},{"Rune":"06","Correct":-1,"Choice":-1,"RT":-1,"Accuracy":1,"Sham":1,"Outcome":"-10","Keys":[],"TotalKeys":0,"Block":1,"Trial":69,"Valence":"Lose","Action":"No-Go","Robot":4,"trial_type":"pit-trial","trial_index":81,"time_elapsed":336543,"internal_node_id":"0.0-81.0"},{"Rune":"05","Correct":32,"Choice":-1,"RT":-1,"Accuracy":0,"Sham":0,"Outcome":"-10","Keys":[],"TotalKeys":0,"Block":1,"Trial":70,"Valence":"Lose","Action":"Go","Robot":3,"trial_type":"pit-trial","trial_index":82,"time_elapsed":340549,"internal_node_id":"0.0-82.0"},{"Rune":"03","Correct":32,"Choice":32,"RT":607.7550000045449,"Accuracy":1,"Sham":0,"Outcome":"+10","Keys":[2108.394999988377],"TotalKeys":1,"Block":1,"Trial":71,"Valence":"Win","Action":"Go","Robot":1,"trial_type":"pit-trial","trial_index":83,"time_elapsed":343661,"internal_node_id":"0.0-83.0"},{"Rune":"04","Correct":-1,"Choice":32,"RT":638.7649999815039,"Accuracy":0,"Sham":0,"Outcome":"+0","Keys":[2140.190000005532],"TotalKeys":1,"Block":1,"Trial":72,"Valence":"Win","Action":"No-Go","Robot":2,"trial_type":"pit-trial","trial_index":84,"time_elapsed":346805,"internal_node_id":"0.0-84.0"},{"Rune":"04","Correct":-1,"Choice":32,"RT":496.32999999448657,"Accuracy":0,"Sham":0,"Outcome":"+0","Keys":[1996.6299999505281],"TotalKeys":1,"Block":1,"Trial":73,"Valence":"Win","Action":"No-Go","Robot":2,"trial_type":"pit-trial","trial_index":85,"time_elapsed":349805,"internal_node_id":"0.0-85.0"},{"Rune":"05","Correct":32,"Choice":-1,"RT":-1,"Accuracy":0,"Sham":1,"Outcome":"+0","Keys":[],"TotalKeys":0,"Block":1,"Trial":74,"Valence":"Lose","Action":"Go","Robot":3,"trial_type":"pit-trial","trial_index":86,"time_elapsed":353809,"internal_node_id":"0.0-86.0"},{"Rune":"03","Correct":32,"Choice":32,"RT":1036.3300000317395,"Accuracy":1,"Sham":0,"Outcome":"+10","Keys":[2537.3900000122376],"TotalKeys":1,"Block":1,"Trial":75,"Valence":"Win","Action":"Go","Robot":1,"trial_type":"pit-trial","trial_index":87,"time_elapsed":357349,"internal_node_id":"0.0-87.0"},{"Rune":"06","Correct":-1,"Choice":-1,"RT":-1,"Accuracy":1,"Sham":0,"Outcome":"+0","Keys":[],"TotalKeys":0,"Block":1,"Trial":76,"Valence":"Lose","Action":"No-Go","Robot":4,"trial_type":"pit-trial","trial_index":88,"time_elapsed":361354,"internal_node_id":"0.0-88.0"},{"Rune":"04","Correct":-1,"Choice":32,"RT":633.9750000042841,"Accuracy":0,"Sham":1,"Outcome":"+10","Keys":[2135.245000012219],"TotalKeys":1,"Block":1,"Trial":77,"Valence":"Win","Action":"No-Go","Robot":2,"trial_type":"pit-trial","trial_index":89,"time_elapsed":364493,"internal_node_id":"0.0-89.0"},{"Rune":"03","Correct":32,"Choice":32,"RT":600.0099999946542,"Accuracy":1,"Sham":0,"Outcome":"+10","Keys":[2100.4550000070594],"TotalKeys":1,"Block":1,"Trial":78,"Valence":"Win","Action":"Go","Robot":1,"trial_type":"pit-trial","trial_index":90,"time_elapsed":367598,"internal_node_id":"0.0-90.0"},{"Rune":"06","Correct":-1,"Choice":-1,"RT":-1,"Accuracy":1,"Sham":0,"Outcome":"+0","Keys":[],"TotalKeys":0,"Block":1,"Trial":79,"Valence":"Lose","Action":"No-Go","Robot":4,"trial_type":"pit-trial","trial_index":91,"time_elapsed":371602,"internal_node_id":"0.0-91.0"},{"Rune":"05","Correct":32,"Choice":-1,"RT":-1,"Accuracy":0,"Sham":0,"Outcome":"-10","Keys":[],"TotalKeys":0,"Block":1,"Trial":80,"Valence":"Lose","Action":"Go","Robot":3,"trial_type":"pit-trial","trial_index":92,"time_elapsed":375606,"internal_node_id":"0.0-92.0"},{"value":false,"trial_type":"call-function","trial_index":93,"time_elapsed":375609,"internal_node_id":"0.0-93.0"},{"RT":75429.28000004031,"trial_type":"pit-pause","trial_index":94,"time_elapsed":453723,"internal_node_id":"0.0-94.0"},{"Rune":"03","Correct":32,"Choice":32,"RT":353.9650000166148,"Accuracy":1,"Sham":0,"Outcome":"+10","Keys":[1854.300000006333],"TotalKeys":1,"Block":2,"Trial":81,"Valence":"Win","Action":"Go","Robot":1,"trial_type":"pit-trial","trial_index":95,"time_elapsed":456580,"internal_node_id":"0.0-95.0"},{"Rune":"04","Correct":-1,"Choice":32,"RT":375.42500003473833,"Accuracy":0,"Sham":0,"Outcome":"+0","Keys":[1876.204999978654],"TotalKeys":1,"Block":2,"Trial":82,"Valence":"Win","Action":"No-Go","Robot":2,"trial_type":"pit-trial","trial_index":96,"time_elapsed":459461,"internal_node_id":"0.0-96.0"},{"Rune":"06","Correct":-1,"Choice":-1,"RT":-1,"Accuracy":1,"Sham":0,"Outcome":"+0","Keys":[],"TotalKeys":0,"Block":2,"Trial":83,"Valence":"Lose","Action":"No-Go","Robot":4,"trial_type":"pit-trial","trial_index":97,"time_elapsed":463467,"internal_node_id":"0.0-97.0"},{"Rune":"05","Correct":32,"Choice":-1,"RT":-1,"Accuracy":0,"Sham":0,"Outcome":"-10","Keys":[],"TotalKeys":0,"Block":2,"Trial":84,"Valence":"Lose","Action":"Go","Robot":3,"trial_type":"pit-trial","trial_index":98,"time_elapsed":467471,"internal_node_id":"0.0-98.0"},{"Rune":"03","Correct":32,"Choice":32,"RT":483.4499999997206,"Accuracy":1,"Sham":0,"Outcome":"+10","Keys":[1984.9900000263005],"TotalKeys":1,"Block":2,"Trial":85,"Valence":"Win","Action":"Go","Robot":1,"trial_type":"pit-trial","trial_index":99,"time_elapsed":470460,"internal_node_id":"0.0-99.0"},{"Rune":"04","Correct":-1,"Choice":32,"RT":638.024999992922,"Accuracy":0,"Sham":0,"Outcome":"+0","Keys":[2139.439999999013],"TotalKeys":1,"Block":2,"Trial":86,"Valence":"Win","Action":"No-Go","Robot":2,"trial_type":"pit-trial","trial_index":100,"time_elapsed":473604,"internal_node_id":"0.0-100.0"},{"Rune":"05","Correct":32,"Choice":-1,"RT":-1,"Accuracy":0,"Sham":0,"Outcome":"-10","Keys":[],"TotalKeys":0,"Block":2,"Trial":87,"Valence":"Lose","Action":"Go","Robot":3,"trial_type":"pit-trial","trial_index":101,"time_elapsed":477608,"internal_node_id":"0.0-101.0"},{"Rune":"06","Correct":-1,"Choice":-1,"RT":-1,"Accuracy":1,"Sham":0,"Outcome":"+0","Keys":[],"TotalKeys":0,"Block":2,"Trial":88,"Valence":"Lose","Action":"No-Go","Robot":4,"trial_type":"pit-trial","trial_index":102,"time_elapsed":481614,"internal_node_id":"0.0-102.0"},{"Rune":"05","Correct":32,"Choice":-1,"RT":-1,"Accuracy":0,"Sham":1,"Outcome":"+0","Keys":[],"TotalKeys":0,"Block":2,"Trial":89,"Valence":"Lose","Action":"Go","Robot":3,"trial_type":"pit-trial","trial_index":103,"time_elapsed":485620,"internal_node_id":"0.0-103.0"},{"Rune":"03","Correct":32,"Choice":32,"RT":495.2550000161864,"Accuracy":1,"Sham":1,"Outcome":"+0","Keys":[1995.4499999876134],"TotalKeys":1,"Block":2,"Trial":90,"Valence":"Win","Action":"Go","Robot":1,"trial_type":"pit-trial","trial_index":104,"time_elapsed":488620,"internal_node_id":"0.0-104.0"},{"Rune":"04","Correct":-1,"Choice":32,"RT":384.51500004157424,"Accuracy":0,"Sham":0,"Outcome":"+0","Keys":[1885.2200000546873],"TotalKeys":1,"Block":2,"Trial":91,"Valence":"Win","Action":"No-Go","Robot":2,"trial_type":"pit-trial","trial_index":105,"time_elapsed":491508,"internal_node_id":"0.0-105.0"},{"Rune":"06","Correct":-1,"Choice":-1,"RT":-1,"Accuracy":1,"Sham":0,"Outcome":"+0","Keys":[],"TotalKeys":0,"Block":2,"Trial":92,"Valence":"Lose","Action":"No-Go","Robot":4,"trial_type":"pit-trial","trial_index":106,"time_elapsed":495513,"internal_node_id":"0.0-106.0"},{"Rune":"06","Correct":-1,"Choice":-1,"RT":-1,"Accuracy":1,"Sham":0,"Outcome":"+0","Keys":[],"TotalKeys":0,"Block":2,"Trial":93,"Valence":"Lose","Action":"No-Go","Robot":4,"trial_type":"pit-trial","trial_index":107,"time_elapsed":499518,"internal_node_id":"0.0-107.0"},{"Rune":"03","Correct":32,"Choice":32,"RT":428.2200000016019,"Accuracy":1,"Sham":0,"Outcome":"+10","Keys":[1929.390000004787],"TotalKeys":1,"Block":2,"Trial":94,"Valence":"Win","Action":"Go","Robot":1,"trial_type":"pit-trial","trial_index":108,"time_elapsed":502451,"internal_node_id":"0.0-108.0"},{"Rune":"05","Correct":32,"Choice":-1,"RT":-1,"Accuracy":0,"Sham":0,"Outcome":"-10","Keys":[],"TotalKeys":0,"Block":2,"Trial":95,"Valence":"Lose","Action":"Go","Robot":3,"trial_type":"pit-trial","trial_index":109,"time_elapsed":506456,"internal_node_id":"0.0-109.0"},{"Rune":"04","Correct":-1,"Choice":32,"RT":554.0649999747984,"Accuracy":0,"Sham":1,"Outcome":"+10","Keys":[2055.564999987837],"TotalKeys":1,"Block":2,"Trial":96,"Valence":"Win","Action":"No-Go","Robot":2,"trial_type":"pit-trial","trial_index":110,"time_elapsed":509515,"internal_node_id":"0.0-110.0"},{"Rune":"06","Correct":-1,"Choice":-1,"RT":-1,"Accuracy":1,"Sham":1,"Outcome":"-10","Keys":[],"TotalKeys":0,"Block":2,"Trial":97,"Valence":"Lose","Action":"No-Go","Robot":4,"trial_type":"pit-trial","trial_index":111,"time_elapsed":513520,"internal_node_id":"0.0-111.0"},{"Rune":"03","Correct":32,"Choice":32,"RT":634.8500000312924,"Accuracy":1,"Sham":0,"Outcome":"+10","Keys":[2135.3300000191666],"TotalKeys":1,"Block":2,"Trial":98,"Valence":"Win","Action":"Go","Robot":1,"trial_type":"pit-trial","trial_index":112,"time_elapsed":516659,"internal_node_id":"0.0-112.0"},{"Rune":"05","Correct":32,"Choice":-1,"RT":-1,"Accuracy":0,"Sham":0,"Outcome":"-10","Keys":[],"TotalKeys":0,"Block":2,"Trial":99,"Valence":"Lose","Action":"Go","Robot":3,"trial_type":"pit-trial","trial_index":113,"time_elapsed":520664,"internal_node_id":"0.0-113.0"},{"Rune":"04","Correct":-1,"Choice":32,"RT":507.02000001911074,"Accuracy":0,"Sham":0,"Outcome":"+0","Keys":[2007.2649999638088],"TotalKeys":1,"Block":2,"Trial":100,"Valence":"Win","Action":"No-Go","Robot":2,"trial_type":"pit-trial","trial_index":114,"time_elapsed":523675,"internal_node_id":"0.0-114.0"},{"Rune":"06","Correct":-1,"Choice":-1,"RT":-1,"Accuracy":1,"Sham":0,"Outcome":"+0","Keys":[],"TotalKeys":0,"Block":2,"Trial":101,"Valence":"Lose","Action":"No-Go","Robot":4,"trial_type":"pit-trial","trial_index":115,"time_elapsed":527682,"internal_node_id":"0.0-115.0"},{"Rune":"05","Correct":32,"Choice":-1,"RT":-1,"Accuracy":0,"Sham":0,"Outcome":"-10","Keys":[],"TotalKeys":0,"Block":2,"Trial":102,"Valence":"Lose","Action":"Go","Robot":3,"trial_type":"pit-trial","trial_index":116,"time_elapsed":531687,"internal_node_id":"0.0-116.0"},{"Rune":"03","Correct":32,"Choice":32,"RT":435.5199999990873,"Accuracy":1,"Sham":1,"Outcome":"+0","Keys":[1936.3049999810755],"TotalKeys":1,"Block":2,"Trial":103,"Valence":"Win","Action":"Go","Robot":1,"trial_type":"pit-trial","trial_index":117,"time_elapsed":534627,"internal_node_id":"0.0-117.0"},{"Rune":"04","Correct":-1,"Choice":32,"RT":511.5150000201538,"Accuracy":0,"Sham":1,"Outcome":"+10","Keys":[2012.7149999607354],"TotalKeys":1,"Block":2,"Trial":104,"Valence":"Win","Action":"No-Go","Robot":2,"trial_type":"pit-trial","trial_index":118,"time_elapsed":537643,"internal_node_id":"0.0-118.0"},{"Rune":"05","Correct":32,"Choice":-1,"RT":-1,"Accuracy":0,"Sham":0,"Outcome":"-10","Keys":[],"TotalKeys":0,"Block":2,"Trial":105,"Valence":"Lose","Action":"Go","Robot":3,"trial_type":"pit-trial","trial_index":119,"time_elapsed":541647,"internal_node_id":"0.0-119.0"},{"Rune":"03","Correct":32,"Choice":32,"RT":554.950000019744,"Accuracy":1,"Sham":0,"Outcome":"+10","Keys":[2055.850000004284],"TotalKeys":1,"Block":2,"Trial":106,"Valence":"Win","Action":"Go","Robot":1,"trial_type":"pit-trial","trial_index":120,"time_elapsed":544706,"internal_node_id":"0.0-120.0"},{"Rune":"04","Correct":-1,"Choice":32,"RT":512.3649999732152,"Accuracy":0,"Sham":0,"Outcome":"+0","Keys":[2012.6200000522658],"TotalKeys":1,"Block":2,"Trial":107,"Valence":"Win","Action":"No-Go","Robot":2,"trial_type":"pit-trial","trial_index":121,"time_elapsed":547723,"internal_node_id":"0.0-121.0"},{"Rune":"06","Correct":-1,"Choice":-1,"RT":-1,"Accuracy":1,"Sham":0,"Outcome":"+0","Keys":[],"TotalKeys":0,"Block":2,"Trial":108,"Valence":"Lose","Action":"No-Go","Robot":4,"trial_type":"pit-trial","trial_index":122,"time_elapsed":551728,"internal_node_id":"0.0-122.0"},{"Rune":"04","Correct":-1,"Choice":32,"RT":386.0299999942072,"Accuracy":0,"Sham":0,"Outcome":"+0","Keys":[1887.250000028871],"TotalKeys":1,"Block":2,"Trial":109,"Valence":"Win","Action":"No-Go","Robot":2,"trial_type":"pit-trial","trial_index":123,"time_elapsed":554618,"internal_node_id":"0.0-123.0"},{"Rune":"06","Correct":-1,"Choice":-1,"RT":-1,"Accuracy":1,"Sham":0,"Outcome":"+0","Keys":[],"TotalKeys":0,"Block":2,"Trial":110,"Valence":"Lose","Action":"No-Go","Robot":4,"trial_type":"pit-trial","trial_index":124,"time_elapsed":558622,"internal_node_id":"0.0-124.0"},{"Rune":"03","Correct":32,"Choice":32,"RT":531.7999999970198,"Accuracy":1,"Sham":0,"Outcome":"+10","Keys":[2032.584999979008],"TotalKeys":1,"Block":2,"Trial":111,"Valence":"Win","Action":"Go","Robot":1,"trial_type":"pit-trial","trial_index":125,"time_elapsed":561658,"internal_node_id":"0.0-125.0"},{"Rune":"05","Correct":32,"Choice":-1,"RT":-1,"Accuracy":0,"Sham":0,"Outcome":"-10","Keys":[],"TotalKeys":0,"Block":2,"Trial":112,"Valence":"Lose","Action":"Go","Robot":3,"trial_type":"pit-trial","trial_index":126,"time_elapsed":565663,"internal_node_id":"0.0-126.0"},{"Rune":"04","Correct":-1,"Choice":32,"RT":522.1299999975599,"Accuracy":0,"Sham":0,"Outcome":"+0","Keys":[2024.0600000252016],"TotalKeys":1,"Block":2,"Trial":113,"Valence":"Win","Action":"No-Go","Robot":2,"trial_type":"pit-trial","trial_index":127,"time_elapsed":568690,"internal_node_id":"0.0-127.0"},{"Rune":"06","Correct":-1,"Choice":-1,"RT":-1,"Accuracy":1,"Sham":0,"Outcome":"+0","Keys":[],"TotalKeys":0,"Block":2,"Trial":114,"Valence":"Lose","Action":"No-Go","Robot":4,"trial_type":"pit-trial","trial_index":128,"time_elapsed":572695,"internal_node_id":"0.0-128.0"},{"Rune":"05","Correct":32,"Choice":-1,"RT":-1,"Accuracy":0,"Sham":1,"Outcome":"+0","Keys":[],"TotalKeys":0,"Block":2,"Trial":115,"Valence":"Lose","Action":"Go","Robot":3,"trial_type":"pit-trial","trial_index":129,"time_elapsed":576701,"internal_node_id":"0.0-129.0"},{"Rune":"03","Correct":32,"Choice":32,"RT":541.2850000429899,"Accuracy":1,"Sham":0,"Outcome":"+10","Keys":[2042.6100000040606],"TotalKeys":1,"Block":2,"Trial":116,"Valence":"Win","Action":"Go","Robot":1,"trial_type":"pit-trial","trial_index":130,"time_elapsed":579747,"internal_node_id":"0.0-130.0"},{"Rune":"06","Correct":-1,"Choice":-1,"RT":-1,"Accuracy":1,"Sham":1,"Outcome":"-10","Keys":[],"TotalKeys":0,"Block":2,"Trial":117,"Valence":"Lose","Action":"No-Go","Robot":4,"trial_type":"pit-trial","trial_index":131,"time_elapsed":583752,"internal_node_id":"0.0-131.0"},{"Rune":"05","Correct":32,"Choice":-1,"RT":-1,"Accuracy":0,"Sham":0,"Outcome":"-10","Keys":[],"TotalKeys":0,"Block":2,"Trial":118,"Valence":"Lose","Action":"Go","Robot":3,"trial_type":"pit-trial","trial_index":132,"time_elapsed":587757,"internal_node_id":"0.0-132.0"},{"Rune":"04","Correct":-1,"Choice":32,"RT":614.4349999958649,"Accuracy":0,"Sham":0,"Outcome":"+0","Keys":[2115.2749999891967],"TotalKeys":1,"Block":2,"Trial":119,"Valence":"Win","Action":"No-Go","Robot":2,"trial_type":"pit-trial","trial_index":133,"time_elapsed":590875,"internal_node_id":"0.0-133.0"},{"Rune":"03","Correct":32,"Choice":32,"RT":535.364999959711,"Accuracy":1,"Sham":0,"Outcome":"+10","Keys":[2036.3050000160001],"TotalKeys":1,"Block":2,"Trial":120,"Valence":"Win","Action":"Go","Robot":1,"trial_type":"pit-trial","trial_index":134,"time_elapsed":593914,"internal_node_id":"0.0-134.0"},{"Rune":"04","Correct":-1,"Choice":32,"RT":527.799999981653,"Accuracy":0,"Sham":0,"Outcome":"+0","Keys":[2028.829999966547],"TotalKeys":1,"Block":2,"Trial":121,"Valence":"Win","Action":"No-Go","Robot":2,"trial_type":"pit-trial","trial_index":135,"time_elapsed":596947,"internal_node_id":"0.0-135.0"},{"Rune":"06","Correct":-1,"Choice":-1,"RT":-1,"Accuracy":1,"Sham":0,"Outcome":"+0","Keys":[],"TotalKeys":0,"Block":2,"Trial":122,"Valence":"Lose","Action":"No-Go","Robot":4,"trial_type":"pit-trial","trial_index":136,"time_elapsed":600951,"internal_node_id":"0.0-136.0"},{"Rune":"05","Correct":32,"Choice":-1,"RT":-1,"Accuracy":0,"Sham":0,"Outcome":"-10","Keys":[],"TotalKeys":0,"Block":2,"Trial":123,"Valence":"Lose","Action":"Go","Robot":3,"trial_type":"pit-trial","trial_index":137,"time_elapsed":604955,"internal_node_id":"0.0-137.0"},{"Rune":"03","Correct":32,"Choice":32,"RT":487.7599999890663,"Accuracy":1,"Sham":1,"Outcome":"+0","Keys":[1987.909999967087],"TotalKeys":1,"Block":2,"Trial":124,"Valence":"Win","Action":"Go","Robot":1,"trial_type":"pit-trial","trial_index":138,"time_elapsed":607946,"internal_node_id":"0.0-138.0"},{"Rune":"05","Correct":32,"Choice":-1,"RT":-1,"Accuracy":0,"Sham":1,"Outcome":"+0","Keys":[],"TotalKeys":0,"Block":2,"Trial":125,"Valence":"Lose","Action":"Go","Robot":3,"trial_type":"pit-trial","trial_index":139,"time_elapsed":611951,"internal_node_id":"0.0-139.0"},{"Rune":"06","Correct":-1,"Choice":-1,"RT":-1,"Accuracy":1,"Sham":0,"Outcome":"+0","Keys":[],"TotalKeys":0,"Block":2,"Trial":126,"Valence":"Lose","Action":"No-Go","Robot":4,"trial_type":"pit-trial","trial_index":140,"time_elapsed":615956,"internal_node_id":"0.0-140.0"},{"Rune":"04","Correct":-1,"Choice":32,"RT":414.249999972526,"Accuracy":0,"Sham":0,"Outcome":"+0","Keys":[1915.6300000031479],"TotalKeys":1,"Block":2,"Trial":127,"Valence":"Win","Action":"No-Go","Robot":2,"trial_type":"pit-trial","trial_index":141,"time_elapsed":618874,"internal_node_id":"0.0-141.0"},{"Rune":"03","Correct":32,"Choice":32,"RT":502.1249999990687,"Accuracy":1,"Sham":0,"Outcome":"+10","Keys":[2003.9800000377],"TotalKeys":1,"Block":2,"Trial":128,"Valence":"Win","Action":"Go","Robot":1,"trial_type":"pit-trial","trial_index":142,"time_elapsed":621882,"internal_node_id":"0.0-142.0"},{"Rune":"06","Correct":-1,"Choice":-1,"RT":-1,"Accuracy":1,"Sham":0,"Outcome":"+0","Keys":[],"TotalKeys":0,"Block":2,"Trial":129,"Valence":"Lose","Action":"No-Go","Robot":4,"trial_type":"pit-trial","trial_index":143,"time_elapsed":625886,"internal_node_id":"0.0-143.0"},{"Rune":"03","Correct":32,"Choice":32,"RT":812.900000018999,"Accuracy":1,"Sham":0,"Outcome":"+10","Keys":[2313.5950000141747],"TotalKeys":1,"Block":2,"Trial":130,"Valence":"Win","Action":"Go","Robot":1,"trial_type":"pit-trial","trial_index":144,"time_elapsed":629203,"internal_node_id":"0.0-144.0"},{"Rune":"05","Correct":32,"Choice":-1,"RT":-1,"Accuracy":0,"Sham":0,"Outcome":"-10","Keys":[],"TotalKeys":0,"Block":2,"Trial":131,"Valence":"Lose","Action":"Go","Robot":3,"trial_type":"pit-trial","trial_index":145,"time_elapsed":633209,"internal_node_id":"0.0-145.0"},{"Rune":"04","Correct":-1,"Choice":32,"RT":457.42500002961606,"Accuracy":0,"Sham":0,"Outcome":"+0","Keys":[1958.2850000006147],"TotalKeys":1,"Block":2,"Trial":132,"Valence":"Win","Action":"No-Go","Robot":2,"trial_type":"pit-trial","trial_index":146,"time_elapsed":636170,"internal_node_id":"0.0-146.0"},{"Rune":"06","Correct":-1,"Choice":-1,"RT":-1,"Accuracy":1,"Sham":0,"Outcome":"+0","Keys":[],"TotalKeys":0,"Block":2,"Trial":133,"Valence":"Lose","Action":"No-Go","Robot":4,"trial_type":"pit-trial","trial_index":147,"time_elapsed":640173,"internal_node_id":"0.0-147.0"},{"Rune":"03","Correct":32,"Choice":32,"RT":483.9800000190735,"Accuracy":1,"Sham":0,"Outcome":"+10","Keys":[1985.4700000141747],"TotalKeys":1,"Block":2,"Trial":134,"Valence":"Win","Action":"Go","Robot":1,"trial_type":"pit-trial","trial_index":148,"time_elapsed":643161,"internal_node_id":"0.0-148.0"},{"Rune":"05","Correct":32,"Choice":-1,"RT":-1,"Accuracy":0,"Sham":0,"Outcome":"-10","Keys":[],"TotalKeys":0,"Block":2,"Trial":135,"Valence":"Lose","Action":"Go","Robot":3,"trial_type":"pit-trial","trial_index":149,"time_elapsed":647166,"internal_node_id":"0.0-149.0"},{"Rune":"04","Correct":-1,"Choice":32,"RT":617.9150000098161,"Accuracy":0,"Sham":0,"Outcome":"+0","Keys":[2119.360000011511],"TotalKeys":1,"Block":2,"Trial":136,"Valence":"Win","Action":"No-Go","Robot":2,"trial_type":"pit-trial","trial_index":150,"time_elapsed":650289,"internal_node_id":"0.0-150.0"},{"Rune":"06","Correct":-1,"Choice":-1,"RT":-1,"Accuracy":1,"Sham":1,"Outcome":"-10","Keys":[],"TotalKeys":0,"Block":2,"Trial":137,"Valence":"Lose","Action":"No-Go","Robot":4,"trial_type":"pit-trial","trial_index":151,"time_elapsed":654292,"internal_node_id":"0.0-151.0"},{"Rune":"03","Correct":32,"Choice":32,"RT":484.67500001424924,"Accuracy":1,"Sham":0,"Outcome":"+10","Keys":[1985.294999962207],"TotalKeys":1,"Block":2,"Trial":138,"Valence":"Win","Action":"Go","Robot":1,"trial_type":"pit-trial","trial_index":152,"time_elapsed":657281,"internal_node_id":"0.0-152.0"},{"Rune":"05","Correct":32,"Choice":-1,"RT":-1,"Accuracy":0,"Sham":0,"Outcome":"-10","Keys":[],"TotalKeys":0,"Block":2,"Trial":139,"Valence":"Lose","Action":"Go","Robot":3,"trial_type":"pit-trial","trial_index":153,"time_elapsed":661285,"internal_node_id":"0.0-153.0"},{"Rune":"04","Correct":-1,"Choice":32,"RT":1059.3300000182353,"Accuracy":0,"Sham":1,"Outcome":"+10","Keys":[2560.1849999511614],"TotalKeys":1,"Block":2,"Trial":140,"Valence":"Win","Action":"No-Go","Robot":2,"trial_type":"pit-trial","trial_index":154,"time_elapsed":664849,"internal_node_id":"0.0-154.0"},{"Rune":"04","Correct":-1,"Choice":32,"RT":424.8500000103377,"Accuracy":0,"Sham":1,"Outcome":"+10","Keys":[1925.4699999582954],"TotalKeys":1,"Block":2,"Trial":141,"Valence":"Win","Action":"No-Go","Robot":2,"trial_type":"pit-trial","trial_index":155,"time_elapsed":667778,"internal_node_id":"0.0-155.0"},{"Rune":"05","Correct":32,"Choice":-1,"RT":-1,"Accuracy":0,"Sham":0,"Outcome":"-10","Keys":[],"TotalKeys":0,"Block":2,"Trial":142,"Valence":"Lose","Action":"Go","Robot":3,"trial_type":"pit-trial","trial_index":156,"time_elapsed":671783,"internal_node_id":"0.0-156.0"},{"Rune":"03","Correct":32,"Choice":32,"RT":410.8450000057928,"Accuracy":1,"Sham":0,"Outcome":"+10","Keys":[1911.8749999906868],"TotalKeys":1,"Block":2,"Trial":143,"Valence":"Win","Action":"Go","Robot":1,"trial_type":"pit-trial","trial_index":157,"time_elapsed":674698,"internal_node_id":"0.0-157.0"},{"Rune":"06","Correct":-1,"Choice":-1,"RT":-1,"Accuracy":1,"Sham":0,"Outcome":"+0","Keys":[],"TotalKeys":0,"Block":2,"Trial":144,"Valence":"Lose","Action":"No-Go","Robot":4,"trial_type":"pit-trial","trial_index":158,"time_elapsed":678702,"internal_node_id":"0.0-158.0"},{"Rune":"06","Correct":-1,"Choice":-1,"RT":-1,"Accuracy":1,"Sham":0,"Outcome":"+0","Keys":[],"TotalKeys":0,"Block":2,"Trial":145,"Valence":"Lose","Action":"No-Go","Robot":4,"trial_type":"pit-trial","trial_index":159,"time_elapsed":682706,"internal_node_id":"0.0-159.0"},{"Rune":"03","Correct":32,"Choice":32,"RT":486.9200000539422,"Accuracy":1,"Sham":0,"Outcome":"+10","Keys":[1988.1200000527315],"TotalKeys":1,"Block":2,"Trial":146,"Valence":"Win","Action":"Go","Robot":1,"trial_type":"pit-trial","trial_index":160,"time_elapsed":685697,"internal_node_id":"0.0-160.0"},{"Rune":"05","Correct":32,"Choice":-1,"RT":-1,"Accuracy":0,"Sham":0,"Outcome":"-10","Keys":[],"TotalKeys":0,"Block":2,"Trial":147,"Valence":"Lose","Action":"Go","Robot":3,"trial_type":"pit-trial","trial_index":161,"time_elapsed":689701,"internal_node_id":"0.0-161.0"},{"Rune":"04","Correct":-1,"Choice":32,"RT":437.08000000333413,"Accuracy":0,"Sham":0,"Outcome":"+0","Keys":[1937.114999978803],"TotalKeys":1,"Block":2,"Trial":148,"Valence":"Win","Action":"No-Go","Robot":2,"trial_type":"pit-trial","trial_index":162,"time_elapsed":692641,"internal_node_id":"0.0-162.0"},{"Rune":"04","Correct":-1,"Choice":32,"RT":487.8650000318885,"Accuracy":0,"Sham":0,"Outcome":"+0","Keys":[1988.6449999758042],"TotalKeys":1,"Block":2,"Trial":149,"Valence":"Win","Action":"No-Go","Robot":2,"trial_type":"pit-trial","trial_index":163,"time_elapsed":695633,"internal_node_id":"0.0-163.0"},{"Rune":"06","Correct":-1,"Choice":-1,"RT":-1,"Accuracy":1,"Sham":0,"Outcome":"+0","Keys":[],"TotalKeys":0,"Block":2,"Trial":150,"Valence":"Lose","Action":"No-Go","Robot":4,"trial_type":"pit-trial","trial_index":164,"time_elapsed":699639,"internal_node_id":"0.0-164.0"},{"Rune":"05","Correct":32,"Choice":-1,"RT":-1,"Accuracy":0,"Sham":0,"Outcome":"-10","Keys":[],"TotalKeys":0,"Block":2,"Trial":151,"Valence":"Lose","Action":"Go","Robot":3,"trial_type":"pit-trial","trial_index":165,"time_elapsed":703644,"internal_node_id":"0.0-165.0"},{"Rune":"03","Correct":32,"Choice":32,"RT":573.0450000264682,"Accuracy":1,"Sham":0,"Outcome":"+10","Keys":[2073.3600000385195],"TotalKeys":1,"Block":2,"Trial":152,"Valence":"Win","Action":"Go","Robot":1,"trial_type":"pit-trial","trial_index":166,"time_elapsed":706721,"internal_node_id":"0.0-166.0"},{"Rune":"03","Correct":32,"Choice":32,"RT":527.9999999911524,"Accuracy":1,"Sham":0,"Outcome":"+10","Keys":[2029.294999956619],"TotalKeys":1,"Block":2,"Trial":153,"Valence":"Win","Action":"Go","Robot":1,"trial_type":"pit-trial","trial_index":167,"time_elapsed":709754,"internal_node_id":"0.0-167.0"},{"Rune":"06","Correct":-1,"Choice":-1,"RT":-1,"Accuracy":1,"Sham":0,"Outcome":"+0","Keys":[],"TotalKeys":0,"Block":2,"Trial":154,"Valence":"Lose","Action":"No-Go","Robot":4,"trial_type":"pit-trial","trial_index":168,"time_elapsed":713761,"internal_node_id":"0.0-168.0"},{"Rune":"05","Correct":32,"Choice":-1,"RT":-1,"Accuracy":0,"Sham":0,"Outcome":"-10","Keys":[],"TotalKeys":0,"Block":2,"Trial":155,"Valence":"Lose","Action":"Go","Robot":3,"trial_type":"pit-trial","trial_index":169,"time_elapsed":717765,"internal_node_id":"0.0-169.0"},{"Rune":"04","Correct":-1,"Choice":32,"RT":666.8949999730103,"Accuracy":0,"Sham":0,"Outcome":"+0","Keys":[2168.0649999761954],"TotalKeys":1,"Block":2,"Trial":156,"Valence":"Win","Action":"No-Go","Robot":2,"trial_type":"pit-trial","trial_index":170,"time_elapsed":720937,"internal_node_id":"0.0-170.0"},{"Rune":"05","Correct":32,"Choice":-1,"RT":-1,"Accuracy":0,"Sham":1,"Outcome":"+0","Keys":[],"TotalKeys":0,"Block":2,"Trial":157,"Valence":"Lose","Action":"Go","Robot":3,"trial_type":"pit-trial","trial_index":171,"time_elapsed":724941,"internal_node_id":"0.0-171.0"},{"Rune":"06","Correct":-1,"Choice":-1,"RT":-1,"Accuracy":1,"Sham":1,"Outcome":"-10","Keys":[],"TotalKeys":0,"Block":2,"Trial":158,"Valence":"Lose","Action":"No-Go","Robot":4,"trial_type":"pit-trial","trial_index":172,"time_elapsed":728947,"internal_node_id":"0.0-172.0"},{"Rune":"04","Correct":-1,"Choice":32,"RT":446.3300000061281,"Accuracy":0,"Sham":0,"Outcome":"+0","Keys":[1947.6900000008754],"TotalKeys":1,"Block":2,"Trial":159,"Valence":"Win","Action":"No-Go","Robot":2,"trial_type":"pit-trial","trial_index":173,"time_elapsed":731898,"internal_node_id":"0.0-173.0"},{"Rune":"03","Correct":32,"Choice":32,"RT":518.7049999949522,"Accuracy":1,"Sham":1,"Outcome":"+0","Keys":[2020.0750000076368],"TotalKeys":1,"Block":2,"Trial":160,"Valence":"Win","Action":"Go","Robot":1,"trial_type":"pit-trial","trial_index":174,"time_elapsed":734921,"internal_node_id":"0.0-174.0"},{"rt":14072.41999998223,"demographics":{"age":"56","gender-categorical":"Male","ethnicity":"Not Hispanic or Latino","race":"White","english":"Yes","fluency":"Very well"},"trial_type":"survey-demo","trial_index":175,"time_elapsed":748997,"internal_node_id":"0.0-175.0"},{"rt":10653.095000016037,"debriefgraphics":{"difficulty":"5","fun":"4","clarity":"5","strategy":"","feedback":""},"trial_type":"survey-debrief","trial_index":176,"time_elapsed":759653,"internal_node_id":"0.0-176.0","interactions":"[]"}]