[{"view_history":"[{\"page_index\":0,\"viewing_time\":2596.6600000392646},{\"page_index\":1,\"viewing_time\":3359.679999994114},{\"page_index\":2,\"viewing_time\":6735.920000006445},{\"page_index\":3,\"viewing_time\":5904.095000005327},{\"page_index\":4,\"viewing_time\":5311.965000000782}]","rt":23909.594999975525,"trial_type":"pit-instructions","trial_index":0,"time_elapsed":23912,"internal_node_id":"0.0-0.0"},{"Rune":"01","Correct":32,"Choice":-1,"RT":-1,"Accuracy":0,"Sham":0,"Outcome":"+0","Keys":[1384.1749998973683,3666.664999909699],"TotalKeys":2,"trial_type":"pit-trial","trial_index":1,"time_elapsed":27919,"internal_node_id":"0.0-1.0"},{"Rune":"01","Correct":32,"Choice":-1,"RT":-1,"Accuracy":0,"Sham":0,"Outcome":"+0","Keys":[3239.810000057332],"TotalKeys":1,"trial_type":"pit-trial","trial_index":2,"time_elapsed":31928,"internal_node_id":"0.0-2.0"},{"Rune":"01","Correct":32,"Choice":32,"RT":945.4100000439212,"Accuracy":1,"Sham":0,"Outcome":"+10","Keys":[2446.25499995891],"TotalKeys":1,"trial_type":"pit-trial","trial_index":3,"time_elapsed":35381,"internal_node_id":"0.0-3.0"},{"Rune":"01","Correct":32,"Choice":32,"RT":762.0899999747053,"Accuracy":1,"Sham":0,"Outcome":"+10","Keys":[2262.4950000317767],"TotalKeys":1,"trial_type":"pit-trial","trial_index":4,"time_elapsed":38648,"internal_node_id":"0.0-4.0"},{"view_history":"[{\"page_index\":0,\"viewing_time\":3962.4750000657514}]","rt":3962.8100000554696,"trial_type":"pit-instructions","trial_index":5,"time_elapsed":42612,"internal_node_id":"0.0-5.0"},{"Rune":"02","Correct":-1,"Choice":32,"RT":697.5450000027195,"Accuracy":0,"Sham":0,"Outcome":"+0","Keys":[2197.7500000502914],"TotalKeys":1,"trial_type":"pit-trial","trial_index":6,"time_elapsed":45815,"internal_node_id":"0.0-6.0"},{"Rune":"02","Correct":-1,"Choice":-1,"RT":-1,"Accuracy":1,"Sham":0,"Outcome":"+10","Keys":[],"TotalKeys":0,"trial_type":"pit-trial","trial_index":7,"time_elapsed":49825,"internal_node_id":"0.0-7.0"},{"Rune":"02","Correct":-1,"Choice":-1,"RT":-1,"Accuracy":1,"Sham":0,"Outcome":"+10","Keys":[],"TotalKeys":0,"trial_type":"pit-trial","trial_index":8,"time_elapsed":53837,"internal_node_id":"0.0-8.0"},{"Rune":"02","Correct":-1,"Choice":-1,"RT":-1,"Accuracy":1,"Sham":0,"Outcome":"+10","Keys":[],"TotalKeys":0,"trial_type":"pit-trial","trial_index":9,"time_elapsed":57846,"internal_node_id":"0.0-9.0"},{"view_history":"[{\"page_index\":0,\"viewing_time\":3735.964999999851},{\"page_index\":1,\"viewing_time\":7719.965000054799},{\"page_index\":2,\"viewing_time\":12143.924999982119},{\"page_index\":3,\"viewing_time\":6288.210000027902},{\"page_index\":4,\"viewing_time\":8000.00999995973},{\"page_index\":5,\"viewing_time\":7207.865000003949},{\"page_index\":6,\"viewing_time\":3231.9249999709427},{\"page_index\":7,\"viewing_time\":1848.3850000193343}]","rt":50176.8850000808,"trial_type":"pit-instructions","trial_index":10,"time_elapsed":108026,"internal_node_id":"0.0-10.0"},{"rt":16923.870000056922,"responses":"{\"no-press\":\"Do nothing\",\"context-win\":\"+10\",\"context-lose\":\"+0\",\"feedback\":\"True\"}","errors":0,"trial_type":"pit-comprehension","trial_index":11,"time_elapsed":124957,"internal_node_id":"0.0-11.0"},{"view_history":"[{\"page_index\":0,\"viewing_time\":3848.490000003949}]","rt":3848.9149999804795,"trial_type":"pit-instructions","trial_index":12,"time_elapsed":128810,"internal_node_id":"0.0-12.0"},{"Rune":"06","Correct":-1,"Choice":32,"RT":151.85000002384186,"Accuracy":0,"Sham":0,"Outcome":"+0","Keys":[1652.2999999579042],"TotalKeys":1,"Block":1,"Trial":1,"Valence":"Win","Action":"No-Go","Robot":2,"trial_type":"pit-trial","trial_index":13,"time_elapsed":131469,"internal_node_id":"0.0-13.0"},{"Rune":"05","Correct":32,"Choice":32,"RT":846.9899999909103,"Accuracy":1,"Sham":0,"Outcome":"+0","Keys":[2347.239999915473],"TotalKeys":1,"Block":1,"Trial":2,"Valence":"Lose","Action":"Go","Robot":3,"trial_type":"pit-trial","trial_index":14,"time_elapsed":134824,"internal_node_id":"0.0-14.0"},{"Rune":"04","Correct":-1,"Choice":-1,"RT":-1,"Accuracy":1,"Sham":0,"Outcome":"+0","Keys":[],"TotalKeys":0,"Block":1,"Trial":3,"Valence":"Lose","Action":"No-Go","Robot":4,"trial_type":"pit-trial","trial_index":15,"time_elapsed":138834,"internal_node_id":"0.0-15.0"},{"Rune":"03","Correct":32,"Choice":32,"RT":1075.6300000939518,"Accuracy":1,"Sham":0,"Outcome":"+10","Keys":[2577.1350000286475],"TotalKeys":1,"Block":1,"Trial":4,"Valence":"Win","Action":"Go","Robot":1,"trial_type":"pit-trial","trial_index":16,"time_elapsed":142420,"internal_node_id":"0.0-16.0"},{"Rune":"05","Correct":32,"Choice":-1,"RT":-1,"Accuracy":0,"Sham":1,"Outcome":"+0","Keys":[],"TotalKeys":0,"Block":1,"Trial":5,"Valence":"Lose","Action":"Go","Robot":3,"trial_type":"pit-trial","trial_index":17,"time_elapsed":146427,"internal_node_id":"0.0-17.0"},{"Rune":"04","Correct":-1,"Choice":32,"RT":1420.574999996461,"Accuracy":0,"Sham":0,"Outcome":"-10","Keys":[2922.634999966249],"TotalKeys":1,"Block":1,"Trial":6,"Valence":"Lose","Action":"No-Go","Robot":4,"trial_type":"pit-trial","trial_index":18,"time_elapsed":150353,"internal_node_id":"0.0-18.0"},{"Rune":"03","Correct":32,"Choice":-1,"RT":-1,"Accuracy":0,"Sham":0,"Outcome":"+0","Keys":[],"TotalKeys":0,"Block":1,"Trial":7,"Valence":"Win","Action":"Go","Robot":1,"trial_type":"pit-trial","trial_index":19,"time_elapsed":154364,"internal_node_id":"0.0-19.0"},{"Rune":"06","Correct":-1,"Choice":32,"RT":1012.1500000823289,"Accuracy":0,"Sham":0,"Outcome":"+0","Keys":[2513.7549999635667],"TotalKeys":1,"Block":1,"Trial":8,"Valence":"Win","Action":"No-Go","Robot":2,"trial_type":"pit-trial","trial_index":20,"time_elapsed":157885,"internal_node_id":"0.0-20.0"},{"Rune":"03","Correct":32,"Choice":32,"RT":929.0650000330061,"Accuracy":1,"Sham":0,"Outcome":"+10","Keys":[2429.615000030026],"TotalKeys":1,"Block":1,"Trial":9,"Valence":"Win","Action":"Go","Robot":1,"trial_type":"pit-trial","trial_index":21,"time_elapsed":161319,"internal_node_id":"0.0-21.0"},{"Rune":"05","Correct":32,"Choice":-1,"RT":-1,"Accuracy":0,"Sham":0,"Outcome":"-10","Keys":[],"TotalKeys":0,"Block":1,"Trial":10,"Valence":"Lose","Action":"Go","Robot":3,"trial_type":"pit-trial","trial_index":22,"time_elapsed":165330,"internal_node_id":"0.0-22.0"},{"Rune":"06","Correct":-1,"Choice":-1,"RT":-1,"Accuracy":1,"Sham":0,"Outcome":"+10","Keys":[3089.360000099987],"TotalKeys":1,"Block":1,"Trial":11,"Valence":"Win","Action":"No-Go","Robot":2,"trial_type":"pit-trial","trial_index":23,"time_elapsed":169337,"internal_node_id":"0.0-23.0"},{"Rune":"04","Correct":-1,"Choice":-1,"RT":-1,"Accuracy":1,"Sham":0,"Outcome":"+0","Keys":[],"TotalKeys":0,"Block":1,"Trial":12,"Valence":"Lose","Action":"No-Go","Robot":4,"trial_type":"pit-trial","trial_index":24,"time_elapsed":173345,"internal_node_id":"0.0-24.0"},{"Rune":"03","Correct":32,"Choice":-1,"RT":-1,"Accuracy":0,"Sham":0,"Outcome":"+0","Keys":[],"TotalKeys":0,"Block":1,"Trial":13,"Valence":"Win","Action":"Go","Robot":1,"trial_type":"pit-trial","trial_index":25,"time_elapsed":177354,"internal_node_id":"0.0-25.0"},{"Rune":"06","Correct":-1,"Choice":32,"RT":819.4300000322983,"Accuracy":0,"Sham":0,"Outcome":"+0","Keys":[2319.6149999275804],"TotalKeys":1,"Block":1,"Trial":14,"Valence":"Win","Action":"No-Go","Robot":2,"trial_type":"pit-trial","trial_index":26,"time_elapsed":180678,"internal_node_id":"0.0-26.0"},{"Rune":"05","Correct":32,"Choice":-1,"RT":-1,"Accuracy":0,"Sham":0,"Outcome":"-10","Keys":[],"TotalKeys":0,"Block":1,"Trial":15,"Valence":"Lose","Action":"Go","Robot":3,"trial_type":"pit-trial","trial_index":27,"time_elapsed":184688,"internal_node_id":"0.0-27.0"},{"Rune":"04","Correct":-1,"Choice":32,"RT":838.7649999931455,"Accuracy":0,"Sham":1,"Outcome":"+0","Keys":[2339.839999913238],"TotalKeys":1,"Block":1,"Trial":16,"Valence":"Lose","Action":"No-Go","Robot":4,"trial_type":"pit-trial","trial_index":28,"time_elapsed":188034,"internal_node_id":"0.0-28.0"},{"Rune":"03","Correct":32,"Choice":32,"RT":957.1299999952316,"Accuracy":1,"Sham":1,"Outcome":"+0","Keys":[2460.865000030026],"TotalKeys":1,"Block":1,"Trial":17,"Valence":"Win","Action":"Go","Robot":1,"trial_type":"pit-trial","trial_index":29,"time_elapsed":191500,"internal_node_id":"0.0-29.0"},{"Rune":"05","Correct":32,"Choice":-1,"RT":-1,"Accuracy":0,"Sham":0,"Outcome":"-10","Keys":[],"TotalKeys":0,"Block":1,"Trial":18,"Valence":"Lose","Action":"Go","Robot":3,"trial_type":"pit-trial","trial_index":30,"time_elapsed":195510,"internal_node_id":"0.0-30.0"},{"Rune":"06","Correct":-1,"Choice":32,"RT":1045.6600000616163,"Accuracy":0,"Sham":1,"Outcome":"+10","Keys":[2545.759999891743],"TotalKeys":1,"Block":1,"Trial":19,"Valence":"Win","Action":"No-Go","Robot":2,"trial_type":"pit-trial","trial_index":31,"time_elapsed":199064,"internal_node_id":"0.0-31.0"},{"Rune":"04","Correct":-1,"Choice":32,"RT":635.3200000012293,"Accuracy":0,"Sham":0,"Outcome":"-10","Keys":[2136.354999965988],"TotalKeys":1,"Block":1,"Trial":20,"Valence":"Lose","Action":"No-Go","Robot":4,"trial_type":"pit-trial","trial_index":32,"time_elapsed":202207,"internal_node_id":"0.0-32.0"},{"Rune":"04","Correct":-1,"Choice":32,"RT":728.6999999778345,"Accuracy":0,"Sham":0,"Outcome":"-10","Keys":[2229.079999960959],"TotalKeys":1,"Block":1,"Trial":21,"Valence":"Lose","Action":"No-Go","Robot":4,"trial_type":"pit-trial","trial_index":33,"time_elapsed":205440,"internal_node_id":"0.0-33.0"},{"Rune":"06","Correct":-1,"Choice":32,"RT":763.1200000178069,"Accuracy":0,"Sham":0,"Outcome":"+0","Keys":[2264.064999995753],"TotalKeys":1,"Block":1,"Trial":22,"Valence":"Win","Action":"No-Go","Robot":2,"trial_type":"pit-trial","trial_index":34,"time_elapsed":208711,"internal_node_id":"0.0-34.0"},{"Rune":"03","Correct":32,"Choice":-1,"RT":-1,"Accuracy":0,"Sham":0,"Outcome":"+0","Keys":[],"TotalKeys":0,"Block":1,"Trial":23,"Valence":"Win","Action":"Go","Robot":1,"trial_type":"pit-trial","trial_index":35,"time_elapsed":212719,"internal_node_id":"0.0-35.0"},{"Rune":"05","Correct":32,"Choice":32,"RT":737.5949999550357,"Accuracy":1,"Sham":0,"Outcome":"+0","Keys":[2240.2849999489263],"TotalKeys":1,"Block":1,"Trial":24,"Valence":"Lose","Action":"Go","Robot":3,"trial_type":"pit-trial","trial_index":36,"time_elapsed":215966,"internal_node_id":"0.0-36.0"},{"Rune":"04","Correct":-1,"Choice":-1,"RT":-1,"Accuracy":1,"Sham":0,"Outcome":"+0","Keys":[],"TotalKeys":0,"Block":1,"Trial":25,"Valence":"Lose","Action":"No-Go","Robot":4,"trial_type":"pit-trial","trial_index":37,"time_elapsed":219975,"internal_node_id":"0.0-37.0"},{"Rune":"03","Correct":32,"Choice":32,"RT":671.100000035949,"Accuracy":1,"Sham":0,"Outcome":"+10","Keys":[2171.60000000149],"TotalKeys":1,"Block":1,"Trial":26,"Valence":"Win","Action":"Go","Robot":1,"trial_type":"pit-trial","trial_index":38,"time_elapsed":223154,"internal_node_id":"0.0-38.0"},{"Rune":"05","Correct":32,"Choice":-1,"RT":-1,"Accuracy":0,"Sham":0,"Outcome":"-10","Keys":[3040.9099999815226],"TotalKeys":1,"Block":1,"Trial":27,"Valence":"Lose","Action":"Go","Robot":3,"trial_type":"pit-trial","trial_index":39,"time_elapsed":227162,"internal_node_id":"0.0-39.0"},{"Rune":"06","Correct":-1,"Choice":-1,"RT":-1,"Accuracy":1,"Sham":0,"Outcome":"+10","Keys":[3032.6099999947473],"TotalKeys":1,"Block":1,"Trial":28,"Valence":"Win","Action":"No-Go","Robot":2,"trial_type":"pit-trial","trial_index":40,"time_elapsed":231168,"internal_node_id":"0.0-40.0"},{"Rune":"05","Correct":32,"Choice":-1,"RT":-1,"Accuracy":0,"Sham":0,"Outcome":"-10","Keys":[],"TotalKeys":0,"Block":1,"Trial":29,"Valence":"Lose","Action":"Go","Robot":3,"trial_type":"pit-trial","trial_index":41,"time_elapsed":235177,"internal_node_id":"0.0-41.0"},{"Rune":"06","Correct":-1,"Choice":32,"RT":752.3400000063702,"Accuracy":0,"Sham":1,"Outcome":"+10","Keys":[2252.870000083931],"TotalKeys":1,"Block":1,"Trial":30,"Valence":"Win","Action":"No-Go","Robot":2,"trial_type":"pit-trial","trial_index":42,"time_elapsed":238434,"internal_node_id":"0.0-42.0"},{"Rune":"03","Correct":32,"Choice":32,"RT":811.020000022836,"Accuracy":1,"Sham":1,"Outcome":"+0","Keys":[2312.4900000402704],"TotalKeys":1,"Block":1,"Trial":31,"Valence":"Win","Action":"Go","Robot":1,"trial_type":"pit-trial","trial_index":43,"time_elapsed":241751,"internal_node_id":"0.0-43.0"},{"Rune":"04","Correct":-1,"Choice":-1,"RT":-1,"Accuracy":1,"Sham":0,"Outcome":"+0","Keys":[],"TotalKeys":0,"Block":1,"Trial":32,"Valence":"Lose","Action":"No-Go","Robot":4,"trial_type":"pit-trial","trial_index":44,"time_elapsed":245759,"internal_node_id":"0.0-44.0"},{"Rune":"04","Correct":-1,"Choice":-1,"RT":-1,"Accuracy":1,"Sham":0,"Outcome":"+0","Keys":[],"TotalKeys":0,"Block":1,"Trial":33,"Valence":"Lose","Action":"No-Go","Robot":4,"trial_type":"pit-trial","trial_index":45,"time_elapsed":249769,"internal_node_id":"0.0-45.0"},{"Rune":"06","Correct":-1,"Choice":32,"RT":568.1499999482185,"Accuracy":0,"Sham":0,"Outcome":"+0","Keys":[2068.570000003092],"TotalKeys":1,"Block":1,"Trial":34,"Valence":"Win","Action":"No-Go","Robot":2,"trial_type":"pit-trial","trial_index":46,"time_elapsed":252845,"internal_node_id":"0.0-46.0"},{"Rune":"03","Correct":32,"Choice":32,"RT":776.2299999594688,"Accuracy":1,"Sham":0,"Outcome":"+10","Keys":[2276.659999974072],"TotalKeys":1,"Block":1,"Trial":35,"Valence":"Win","Action":"Go","Robot":1,"trial_type":"pit-trial","trial_index":47,"time_elapsed":256128,"internal_node_id":"0.0-47.0"},{"Rune":"05","Correct":32,"Choice":-1,"RT":-1,"Accuracy":0,"Sham":1,"Outcome":"+0","Keys":[],"TotalKeys":0,"Block":1,"Trial":36,"Valence":"Lose","Action":"Go","Robot":3,"trial_type":"pit-trial","trial_index":48,"time_elapsed":260137,"internal_node_id":"0.0-48.0"},{"Rune":"04","Correct":-1,"Choice":-1,"RT":-1,"Accuracy":1,"Sham":1,"Outcome":"-10","Keys":[],"TotalKeys":0,"Block":1,"Trial":37,"Valence":"Lose","Action":"No-Go","Robot":4,"trial_type":"pit-trial","trial_index":49,"time_elapsed":264146,"internal_node_id":"0.0-49.0"},{"Rune":"05","Correct":32,"Choice":-1,"RT":-1,"Accuracy":0,"Sham":0,"Outcome":"-10","Keys":[],"TotalKeys":0,"Block":1,"Trial":38,"Valence":"Lose","Action":"Go","Robot":3,"trial_type":"pit-trial","trial_index":50,"time_elapsed":268154,"internal_node_id":"0.0-50.0"},{"Rune":"03","Correct":32,"Choice":32,"RT":894.2049999022856,"Accuracy":1,"Sham":0,"Outcome":"+10","Keys":[2394.939999911003],"TotalKeys":1,"Block":1,"Trial":39,"Valence":"Win","Action":"Go","Robot":1,"trial_type":"pit-trial","trial_index":51,"time_elapsed":271554,"internal_node_id":"0.0-51.0"},{"Rune":"06","Correct":-1,"Choice":32,"RT":771.2150000734255,"Accuracy":0,"Sham":0,"Outcome":"+0","Keys":[2271.9649999635294],"TotalKeys":1,"Block":1,"Trial":40,"Valence":"Win","Action":"No-Go","Robot":2,"trial_type":"pit-trial","trial_index":52,"time_elapsed":274830,"internal_node_id":"0.0-52.0"},{"Rune":"05","Correct":32,"Choice":-1,"RT":-1,"Accuracy":0,"Sham":1,"Outcome":"+0","Keys":[],"TotalKeys":0,"Block":1,"Trial":41,"Valence":"Lose","Action":"Go","Robot":3,"trial_type":"pit-trial","trial_index":53,"time_elapsed":278838,"internal_node_id":"0.0-53.0"},{"Rune":"06","Correct":-1,"Choice":32,"RT":621.0749999154359,"Accuracy":0,"Sham":0,"Outcome":"+0","Keys":[2121.419999981299],"TotalKeys":1,"Block":1,"Trial":42,"Valence":"Win","Action":"No-Go","Robot":2,"trial_type":"pit-trial","trial_index":54,"time_elapsed":281964,"internal_node_id":"0.0-54.0"},{"Rune":"04","Correct":-1,"Choice":-1,"RT":-1,"Accuracy":1,"Sham":0,"Outcome":"+0","Keys":[],"TotalKeys":0,"Block":1,"Trial":43,"Valence":"Lose","Action":"No-Go","Robot":4,"trial_type":"pit-trial","trial_index":55,"time_elapsed":285975,"internal_node_id":"0.0-55.0"},{"Rune":"03","Correct":32,"Choice":32,"RT":456.05000003706664,"Accuracy":1,"Sham":0,"Outcome":"+10","Keys":[1957.7500000596046],"TotalKeys":1,"Block":1,"Trial":44,"Valence":"Win","Action":"Go","Robot":1,"trial_type":"pit-trial","trial_index":56,"time_elapsed":288940,"internal_node_id":"0.0-56.0"},{"Rune":"04","Correct":-1,"Choice":-1,"RT":-1,"Accuracy":1,"Sham":0,"Outcome":"+0","Keys":[],"TotalKeys":0,"Block":1,"Trial":45,"Valence":"Lose","Action":"No-Go","Robot":4,"trial_type":"pit-trial","trial_index":57,"time_elapsed":292949,"internal_node_id":"0.0-57.0"},{"Rune":"06","Correct":-1,"Choice":32,"RT":716.6450000368059,"Accuracy":0,"Sham":1,"Outcome":"+10","Keys":[2216.935000033118],"TotalKeys":1,"Block":1,"Trial":46,"Valence":"Win","Action":"No-Go","Robot":2,"trial_type":"pit-trial","trial_index":58,"time_elapsed":296173,"internal_node_id":"0.0-58.0"},{"Rune":"05","Correct":32,"Choice":-1,"RT":-1,"Accuracy":0,"Sham":0,"Outcome":"-10","Keys":[],"TotalKeys":0,"Block":1,"Trial":47,"Valence":"Lose","Action":"Go","Robot":3,"trial_type":"pit-trial","trial_index":59,"time_elapsed":300183,"internal_node_id":"0.0-59.0"},{"Rune":"03","Correct":32,"Choice":32,"RT":1167.0400000875816,"Accuracy":1,"Sham":0,"Outcome":"+10","Keys":[2667.394999996759],"TotalKeys":1,"Block":1,"Trial":48,"Valence":"Win","Action":"Go","Robot":1,"trial_type":"pit-trial","trial_index":60,"time_elapsed":303858,"internal_node_id":"0.0-60.0"},{"Rune":"04","Correct":-1,"Choice":32,"RT":976.0800000512972,"Accuracy":0,"Sham":0,"Outcome":"-10","Keys":[2476.395000005141],"TotalKeys":1,"Block":1,"Trial":49,"Valence":"Lose","Action":"No-Go","Robot":4,"trial_type":"pit-trial","trial_index":61,"time_elapsed":307341,"internal_node_id":"0.0-61.0"},{"Rune":"03","Correct":32,"Choice":32,"RT":664.5150000695139,"Accuracy":1,"Sham":0,"Outcome":"+10","Keys":[2164.935000007972],"TotalKeys":1,"Block":1,"Trial":50,"Valence":"Win","Action":"Go","Robot":1,"trial_type":"pit-trial","trial_index":62,"time_elapsed":310512,"internal_node_id":"0.0-62.0"},{"Rune":"06","Correct":-1,"Choice":32,"RT":869.925000006333,"Accuracy":0,"Sham":0,"Outcome":"+0","Keys":[2372.3350000800565],"TotalKeys":1,"Block":1,"Trial":51,"Valence":"Win","Action":"No-Go","Robot":2,"trial_type":"pit-trial","trial_index":63,"time_elapsed":313892,"internal_node_id":"0.0-63.0"},{"Rune":"05","Correct":32,"Choice":-1,"RT":-1,"Accuracy":0,"Sham":0,"Outcome":"-10","Keys":[],"TotalKeys":0,"Block":1,"Trial":52,"Valence":"Lose","Action":"Go","Robot":3,"trial_type":"pit-trial","trial_index":64,"time_elapsed":317901,"internal_node_id":"0.0-64.0"},{"Rune":"06","Correct":-1,"Choice":32,"RT":583.8699999731034,"Accuracy":0,"Sham":0,"Outcome":"+0","Keys":[2085.1450000191107],"TotalKeys":1,"Block":1,"Trial":53,"Valence":"Win","Action":"No-Go","Robot":2,"trial_type":"pit-trial","trial_index":65,"time_elapsed":320993,"internal_node_id":"0.0-65.0"},{"Rune":"05","Correct":32,"Choice":-1,"RT":-1,"Accuracy":0,"Sham":0,"Outcome":"-10","Keys":[],"TotalKeys":0,"Block":1,"Trial":54,"Valence":"Lose","Action":"Go","Robot":3,"trial_type":"pit-trial","trial_index":66,"time_elapsed":325002,"internal_node_id":"0.0-66.0"},{"Rune":"04","Correct":-1,"Choice":-1,"RT":-1,"Accuracy":1,"Sham":0,"Outcome":"+0","Keys":[],"TotalKeys":0,"Block":1,"Trial":55,"Valence":"Lose","Action":"No-Go","Robot":4,"trial_type":"pit-trial","trial_index":67,"time_elapsed":329010,"internal_node_id":"0.0-67.0"},{"Rune":"03","Correct":32,"Choice":32,"RT":726.3249999377877,"Accuracy":1,"Sham":0,"Outcome":"+10","Keys":[2227.2200000006706],"TotalKeys":1,"Block":1,"Trial":56,"Valence":"Win","Action":"Go","Robot":1,"trial_type":"pit-trial","trial_index":68,"time_elapsed":332244,"internal_node_id":"0.0-68.0"},{"Rune":"03","Correct":32,"Choice":32,"RT":868.5899999691173,"Accuracy":1,"Sham":1,"Outcome":"+0","Keys":[2369.635000010021],"TotalKeys":1,"Block":1,"Trial":57,"Valence":"Win","Action":"Go","Robot":1,"trial_type":"pit-trial","trial_index":69,"time_elapsed":335619,"internal_node_id":"0.0-69.0"},{"Rune":"05","Correct":32,"Choice":32,"RT":1368.1649999925867,"Accuracy":1,"Sham":0,"Outcome":"+0","Keys":[2870.6900000106543],"TotalKeys":1,"Block":1,"Trial":58,"Valence":"Lose","Action":"Go","Robot":3,"trial_type":"pit-trial","trial_index":70,"time_elapsed":339494,"internal_node_id":"0.0-70.0"},{"Rune":"04","Correct":-1,"Choice":32,"RT":798.3199999434873,"Accuracy":0,"Sham":1,"Outcome":"+0","Keys":[2299.3299999507144],"TotalKeys":1,"Block":1,"Trial":59,"Valence":"Lose","Action":"No-Go","Robot":4,"trial_type":"pit-trial","trial_index":71,"time_elapsed":342801,"internal_node_id":"0.0-71.0"},{"Rune":"06","Correct":-1,"Choice":32,"RT":828.7600000621751,"Accuracy":0,"Sham":0,"Outcome":"+0","Keys":[2329.4750000350177],"TotalKeys":1,"Block":1,"Trial":60,"Valence":"Win","Action":"No-Go","Robot":2,"trial_type":"pit-trial","trial_index":72,"time_elapsed":346137,"internal_node_id":"0.0-72.0"},{"Rune":"06","Correct":-1,"Choice":32,"RT":783.7849999777973,"Accuracy":0,"Sham":0,"Outcome":"+0","Keys":[2284.279999905266],"TotalKeys":1,"Block":1,"Trial":61,"Valence":"Win","Action":"No-Go","Robot":2,"trial_type":"pit-trial","trial_index":73,"time_elapsed":349429,"internal_node_id":"0.0-73.0"},{"Rune":"05","Correct":32,"Choice":32,"RT":841.3650000002235,"Accuracy":1,"Sham":0,"Outcome":"+0","Keys":[2343.12500001397],"TotalKeys":1,"Block":1,"Trial":62,"Valence":"Lose","Action":"Go","Robot":3,"trial_type":"pit-trial","trial_index":74,"time_elapsed":352779,"internal_node_id":"0.0-74.0"},{"Rune":"04","Correct":-1,"Choice":32,"RT":741.1950000096112,"Accuracy":0,"Sham":0,"Outcome":"-10","Keys":[2241.7799999238923],"TotalKeys":1,"Block":1,"Trial":63,"Valence":"Lose","Action":"No-Go","Robot":4,"trial_type":"pit-trial","trial_index":75,"time_elapsed":356025,"internal_node_id":"0.0-75.0"},{"Rune":"03","Correct":32,"Choice":32,"RT":668.0400000186637,"Accuracy":1,"Sham":0,"Outcome":"+10","Keys":[2168.5600000200793],"TotalKeys":1,"Block":1,"Trial":64,"Valence":"Win","Action":"Go","Robot":1,"trial_type":"pit-trial","trial_index":76,"time_elapsed":359199,"internal_node_id":"0.0-76.0"},{"Rune":"06","Correct":-1,"Choice":32,"RT":716.8200000887737,"Accuracy":0,"Sham":0,"Outcome":"+0","Keys":[2219.1250000614673],"TotalKeys":1,"Block":1,"Trial":65,"Valence":"Win","Action":"No-Go","Robot":2,"trial_type":"pit-trial","trial_index":77,"time_elapsed":362443,"internal_node_id":"0.0-77.0"},{"Rune":"04","Correct":-1,"Choice":-1,"RT":-1,"Accuracy":1,"Sham":0,"Outcome":"+0","Keys":[],"TotalKeys":0,"Block":1,"Trial":66,"Valence":"Lose","Action":"No-Go","Robot":4,"trial_type":"pit-trial","trial_index":78,"time_elapsed":366451,"internal_node_id":"0.0-78.0"},{"Rune":"03","Correct":32,"Choice":32,"RT":530.1099999342114,"Accuracy":1,"Sham":1,"Outcome":"+0","Keys":[2032.9349999083206],"TotalKeys":1,"Block":1,"Trial":67,"Valence":"Win","Action":"Go","Robot":1,"trial_type":"pit-trial","trial_index":79,"time_elapsed":369490,"internal_node_id":"0.0-79.0"},{"Rune":"05","Correct":32,"Choice":32,"RT":953.9899999508634,"Accuracy":1,"Sham":0,"Outcome":"+0","Keys":[2454.615000053309],"TotalKeys":1,"Block":1,"Trial":68,"Valence":"Lose","Action":"Go","Robot":3,"trial_type":"pit-trial","trial_index":80,"time_elapsed":372948,"internal_node_id":"0.0-80.0"},{"Rune":"04","Correct":-1,"Choice":-1,"RT":-1,"Accuracy":1,"Sham":1,"Outcome":"-10","Keys":[],"TotalKeys":0,"Block":1,"Trial":69,"Valence":"Lose","Action":"No-Go","Robot":4,"trial_type":"pit-trial","trial_index":81,"time_elapsed":376957,"internal_node_id":"0.0-81.0"},{"Rune":"05","Correct":32,"Choice":32,"RT":1095.7749999361113,"Accuracy":1,"Sham":0,"Outcome":"+0","Keys":[2596.5800000121817],"TotalKeys":1,"Block":1,"Trial":70,"Valence":"Lose","Action":"Go","Robot":3,"trial_type":"pit-trial","trial_index":82,"time_elapsed":380558,"internal_node_id":"0.0-82.0"},{"Rune":"03","Correct":32,"Choice":32,"RT":719.0600000321865,"Accuracy":1,"Sham":0,"Outcome":"+10","Keys":[2219.249999965541],"TotalKeys":1,"Block":1,"Trial":71,"Valence":"Win","Action":"Go","Robot":1,"trial_type":"pit-trial","trial_index":83,"time_elapsed":383782,"internal_node_id":"0.0-83.0"},{"Rune":"06","Correct":-1,"Choice":32,"RT":528.8050000090152,"Accuracy":0,"Sham":0,"Outcome":"+0","Keys":[2029.4999999459833],"TotalKeys":1,"Block":1,"Trial":72,"Valence":"Win","Action":"No-Go","Robot":2,"trial_type":"pit-trial","trial_index":84,"time_elapsed":386816,"internal_node_id":"0.0-84.0"},{"Rune":"06","Correct":-1,"Choice":32,"RT":623.3650000067428,"Accuracy":0,"Sham":0,"Outcome":"+0","Keys":[2123.974999994971],"TotalKeys":1,"Block":1,"Trial":73,"Valence":"Win","Action":"No-Go","Robot":2,"trial_type":"pit-trial","trial_index":85,"time_elapsed":389947,"internal_node_id":"0.0-85.0"},{"Rune":"05","Correct":32,"Choice":32,"RT":1145.3099999343976,"Accuracy":1,"Sham":1,"Outcome":"-10","Keys":[2645.7500000251457],"TotalKeys":1,"Block":1,"Trial":74,"Valence":"Lose","Action":"Go","Robot":3,"trial_type":"pit-trial","trial_index":86,"time_elapsed":393599,"internal_node_id":"0.0-86.0"},{"Rune":"03","Correct":32,"Choice":32,"RT":682.9849999630824,"Accuracy":1,"Sham":0,"Outcome":"+10","Keys":[2183.155000093393],"TotalKeys":1,"Block":1,"Trial":75,"Valence":"Win","Action":"Go","Robot":1,"trial_type":"pit-trial","trial_index":87,"time_elapsed":396788,"internal_node_id":"0.0-87.0"},{"Rune":"04","Correct":-1,"Choice":32,"RT":703.7649999838322,"Accuracy":0,"Sham":0,"Outcome":"-10","Keys":[2205.4700000444427],"TotalKeys":1,"Block":1,"Trial":76,"Valence":"Lose","Action":"No-Go","Robot":4,"trial_type":"pit-trial","trial_index":88,"time_elapsed":400000,"internal_node_id":"0.0-88.0"},{"Rune":"06","Correct":-1,"Choice":32,"RT":404.42000003531575,"Accuracy":0,"Sham":1,"Outcome":"+10","Keys":[1904.9100000411272],"TotalKeys":1,"Block":1,"Trial":77,"Valence":"Win","Action":"No-Go","Robot":2,"trial_type":"pit-trial","trial_index":89,"time_elapsed":402909,"internal_node_id":"0.0-89.0"},{"Rune":"03","Correct":32,"Choice":32,"RT":477.49499999918044,"Accuracy":1,"Sham":0,"Outcome":"+10","Keys":[1978.5599999595433],"TotalKeys":1,"Block":1,"Trial":78,"Valence":"Win","Action":"Go","Robot":1,"trial_type":"pit-trial","trial_index":90,"time_elapsed":405893,"internal_node_id":"0.0-90.0"},{"Rune":"04","Correct":-1,"Choice":-1,"RT":-1,"Accuracy":1,"Sham":0,"Outcome":"+0","Keys":[],"TotalKeys":0,"Block":1,"Trial":79,"Valence":"Lose","Action":"No-Go","Robot":4,"trial_type":"pit-trial","trial_index":91,"time_elapsed":409901,"internal_node_id":"0.0-91.0"},{"Rune":"05","Correct":32,"Choice":-1,"RT":-1,"Accuracy":0,"Sham":0,"Outcome":"-10","Keys":[],"TotalKeys":0,"Block":1,"Trial":80,"Valence":"Lose","Action":"Go","Robot":3,"trial_type":"pit-trial","trial_index":92,"time_elapsed":413911,"internal_node_id":"0.0-92.0"},{"value":false,"trial_type":"call-function","trial_index":93,"time_elapsed":413914,"internal_node_id":"0.0-93.0"},{"RT":2193.5349999694154,"trial_type":"pit-pause","trial_index":94,"time_elapsed":418705,"internal_node_id":"0.0-94.0"},{"Rune":"03","Correct":32,"Choice":32,"RT":1054.7749999677762,"Accuracy":1,"Sham":0,"Outcome":"+10","Keys":[2556.400000001304],"TotalKeys":1,"Block":2,"Trial":81,"Valence":"Win","Action":"Go","Robot":1,"trial_type":"pit-trial","trial_index":95,"time_elapsed":422269,"internal_node_id":"0.0-95.0"},{"Rune":"06","Correct":-1,"Choice":32,"RT":441.80000002961606,"Accuracy":0,"Sham":0,"Outcome":"+0","Keys":[1942.3299999907613],"TotalKeys":1,"Block":2,"Trial":82,"Valence":"Win","Action":"No-Go","Robot":2,"trial_type":"pit-trial","trial_index":96,"time_elapsed":425220,"internal_node_id":"0.0-96.0"},{"Rune":"04","Correct":-1,"Choice":32,"RT":778.4400000236928,"Accuracy":0,"Sham":0,"Outcome":"-10","Keys":[2278.6299999570474],"TotalKeys":1,"Block":2,"Trial":83,"Valence":"Lose","Action":"No-Go","Robot":4,"trial_type":"pit-trial","trial_index":97,"time_elapsed":428503,"internal_node_id":"0.0-97.0"},{"Rune":"05","Correct":32,"Choice":32,"RT":828.9599999552593,"Accuracy":1,"Sham":0,"Outcome":"+0","Keys":[2329.200000036508],"TotalKeys":1,"Block":2,"Trial":84,"Valence":"Lose","Action":"Go","Robot":3,"trial_type":"pit-trial","trial_index":98,"time_elapsed":431837,"internal_node_id":"0.0-98.0"},{"Rune":"03","Correct":32,"Choice":32,"RT":544.8800000594929,"Accuracy":1,"Sham":0,"Outcome":"+10","Keys":[2045.7450000103563],"TotalKeys":1,"Block":2,"Trial":85,"Valence":"Win","Action":"Go","Robot":1,"trial_type":"pit-trial","trial_index":99,"time_elapsed":434887,"internal_node_id":"0.0-99.0"},{"Rune":"06","Correct":-1,"Choice":32,"RT":586.2750000087544,"Accuracy":0,"Sham":0,"Outcome":"+0","Keys":[2086.974999983795],"TotalKeys":1,"Block":2,"Trial":86,"Valence":"Win","Action":"No-Go","Robot":2,"trial_type":"pit-trial","trial_index":100,"time_elapsed":437980,"internal_node_id":"0.0-100.0"},{"Rune":"05","Correct":32,"Choice":-1,"RT":-1,"Accuracy":0,"Sham":0,"Outcome":"-10","Keys":[],"TotalKeys":0,"Block":2,"Trial":87,"Valence":"Lose","Action":"Go","Robot":3,"trial_type":"pit-trial","trial_index":101,"time_elapsed":441990,"internal_node_id":"0.0-101.0"},{"Rune":"04","Correct":-1,"Choice":-1,"RT":-1,"Accuracy":1,"Sham":0,"Outcome":"+0","Keys":[],"TotalKeys":0,"Block":2,"Trial":88,"Valence":"Lose","Action":"No-Go","Robot":4,"trial_type":"pit-trial","trial_index":102,"time_elapsed":446001,"internal_node_id":"0.0-102.0"},{"Rune":"05","Correct":32,"Choice":-1,"RT":-1,"Accuracy":0,"Sham":1,"Outcome":"+0","Keys":[],"TotalKeys":0,"Block":2,"Trial":89,"Valence":"Lose","Action":"Go","Robot":3,"trial_type":"pit-trial","trial_index":103,"time_elapsed":450010,"internal_node_id":"0.0-103.0"},{"Rune":"03","Correct":32,"Choice":32,"RT":484.15499995462596,"Accuracy":1,"Sham":1,"Outcome":"+0","Keys":[1986.1399999354035],"TotalKeys":1,"Block":2,"Trial":90,"Valence":"Win","Action":"Go","Robot":1,"trial_type":"pit-trial","trial_index":104,"time_elapsed":453003,"internal_node_id":"0.0-104.0"},{"Rune":"06","Correct":-1,"Choice":32,"RT":482.1249999804422,"Accuracy":0,"Sham":0,"Outcome":"+0","Keys":[1982.410000055097],"TotalKeys":1,"Block":2,"Trial":91,"Valence":"Win","Action":"No-Go","Robot":2,"trial_type":"pit-trial","trial_index":105,"time_elapsed":455989,"internal_node_id":"0.0-105.0"},{"Rune":"04","Correct":-1,"Choice":-1,"RT":-1,"Accuracy":1,"Sham":0,"Outcome":"+0","Keys":[],"TotalKeys":0,"Block":2,"Trial":92,"Valence":"Lose","Action":"No-Go","Robot":4,"trial_type":"pit-trial","trial_index":106,"time_elapsed":459999,"internal_node_id":"0.0-106.0"},{"Rune":"04","Correct":-1,"Choice":-1,"RT":-1,"Accuracy":1,"Sham":0,"Outcome":"+0","Keys":[],"TotalKeys":0,"Block":2,"Trial":93,"Valence":"Lose","Action":"No-Go","Robot":4,"trial_type":"pit-trial","trial_index":107,"time_elapsed":464007,"internal_node_id":"0.0-107.0"},{"Rune":"03","Correct":32,"Choice":32,"RT":720.1299999142066,"Accuracy":1,"Sham":0,"Outcome":"+10","Keys":[2220.494999899529],"TotalKeys":1,"Block":2,"Trial":94,"Valence":"Win","Action":"Go","Robot":1,"trial_type":"pit-trial","trial_index":108,"time_elapsed":467233,"internal_node_id":"0.0-108.0"},{"Rune":"05","Correct":32,"Choice":-1,"RT":-1,"Accuracy":0,"Sham":0,"Outcome":"-10","Keys":[],"TotalKeys":0,"Block":2,"Trial":95,"Valence":"Lose","Action":"Go","Robot":3,"trial_type":"pit-trial","trial_index":109,"time_elapsed":471244,"internal_node_id":"0.0-109.0"},{"Rune":"06","Correct":-1,"Choice":32,"RT":677.3100000573322,"Accuracy":0,"Sham":1,"Outcome":"+10","Keys":[2179.409999982454],"TotalKeys":1,"Block":2,"Trial":96,"Valence":"Win","Action":"No-Go","Robot":2,"trial_type":"pit-trial","trial_index":110,"time_elapsed":474432,"internal_node_id":"0.0-110.0"},{"Rune":"04","Correct":-1,"Choice":-1,"RT":-1,"Accuracy":1,"Sham":1,"Outcome":"-10","Keys":[],"TotalKeys":0,"Block":2,"Trial":97,"Valence":"Lose","Action":"No-Go","Robot":4,"trial_type":"pit-trial","trial_index":111,"time_elapsed":478443,"internal_node_id":"0.0-111.0"},{"Rune":"03","Correct":32,"Choice":32,"RT":685.0300000514835,"Accuracy":1,"Sham":0,"Outcome":"+10","Keys":[2186.450000037439],"TotalKeys":1,"Block":2,"Trial":98,"Valence":"Win","Action":"Go","Robot":1,"trial_type":"pit-trial","trial_index":112,"time_elapsed":481634,"internal_node_id":"0.0-112.0"},{"Rune":"05","Correct":32,"Choice":-1,"RT":-1,"Accuracy":0,"Sham":0,"Outcome":"-10","Keys":[],"TotalKeys":0,"Block":2,"Trial":99,"Valence":"Lose","Action":"Go","Robot":3,"trial_type":"pit-trial","trial_index":113,"time_elapsed":485642,"internal_node_id":"0.0-113.0"},{"Rune":"06","Correct":-1,"Choice":32,"RT":691.1150000523776,"Accuracy":0,"Sham":0,"Outcome":"+0","Keys":[2191.7900000698864],"TotalKeys":1,"Block":2,"Trial":100,"Valence":"Win","Action":"No-Go","Robot":2,"trial_type":"pit-trial","trial_index":114,"time_elapsed":488837,"internal_node_id":"0.0-114.0"},{"Rune":"04","Correct":-1,"Choice":-1,"RT":-1,"Accuracy":1,"Sham":0,"Outcome":"+0","Keys":[],"TotalKeys":0,"Block":2,"Trial":101,"Valence":"Lose","Action":"No-Go","Robot":4,"trial_type":"pit-trial","trial_index":115,"time_elapsed":492847,"internal_node_id":"0.0-115.0"},{"Rune":"05","Correct":32,"Choice":-1,"RT":-1,"Accuracy":0,"Sham":0,"Outcome":"-10","Keys":[],"TotalKeys":0,"Block":2,"Trial":102,"Valence":"Lose","Action":"Go","Robot":3,"trial_type":"pit-trial","trial_index":116,"time_elapsed":496875,"internal_node_id":"0.0-116.0"},{"Rune":"03","Correct":32,"Choice":32,"RT":559.2900000046939,"Accuracy":1,"Sham":1,"Outcome":"+0","Keys":[2059.720000019297],"TotalKeys":1,"Block":2,"Trial":103,"Valence":"Win","Action":"Go","Robot":1,"trial_type":"pit-trial","trial_index":117,"time_elapsed":499938,"internal_node_id":"0.0-117.0"},{"Rune":"06","Correct":-1,"Choice":32,"RT":447.9099999880418,"Accuracy":0,"Sham":1,"Outcome":"+10","Keys":[1948.4700000612065],"TotalKeys":1,"Block":2,"Trial":104,"Valence":"Win","Action":"No-Go","Robot":2,"trial_type":"pit-trial","trial_index":118,"time_elapsed":502891,"internal_node_id":"0.0-118.0"},{"Rune":"05","Correct":32,"Choice":32,"RT":1084.0249999891967,"Accuracy":1,"Sham":0,"Outcome":"+0","Keys":[2585.1150000235066],"TotalKeys":1,"Block":2,"Trial":105,"Valence":"Lose","Action":"Go","Robot":3,"trial_type":"pit-trial","trial_index":119,"time_elapsed":506483,"internal_node_id":"0.0-119.0"},{"Rune":"03","Correct":32,"Choice":32,"RT":746.4900000486523,"Accuracy":1,"Sham":0,"Outcome":"+10","Keys":[2247.3949999548495],"TotalKeys":1,"Block":2,"Trial":106,"Valence":"Win","Action":"Go","Robot":1,"trial_type":"pit-trial","trial_index":120,"time_elapsed":509737,"internal_node_id":"0.0-120.0"},{"Rune":"06","Correct":-1,"Choice":32,"RT":507.37999996636063,"Accuracy":0,"Sham":0,"Outcome":"+0","Keys":[2007.7949999831617],"TotalKeys":1,"Block":2,"Trial":107,"Valence":"Win","Action":"No-Go","Robot":2,"trial_type":"pit-trial","trial_index":121,"time_elapsed":512748,"internal_node_id":"0.0-121.0"},{"Rune":"04","Correct":-1,"Choice":32,"RT":1054.0950000286102,"Accuracy":0,"Sham":0,"Outcome":"-10","Keys":[2555.7199999457225],"TotalKeys":1,"Block":2,"Trial":108,"Valence":"Lose","Action":"No-Go","Robot":4,"trial_type":"pit-trial","trial_index":122,"time_elapsed":516312,"internal_node_id":"0.0-122.0"},{"Rune":"06","Correct":-1,"Choice":32,"RT":568.169999984093,"Accuracy":0,"Sham":0,"Outcome":"+0","Keys":[2068.6449999921024],"TotalKeys":1,"Block":2,"Trial":109,"Valence":"Win","Action":"No-Go","Robot":2,"trial_type":"pit-trial","trial_index":123,"time_elapsed":519395,"internal_node_id":"0.0-123.0"},{"Rune":"04","Correct":-1,"Choice":-1,"RT":-1,"Accuracy":1,"Sham":0,"Outcome":"+0","Keys":[],"TotalKeys":0,"Block":2,"Trial":110,"Valence":"Lose","Action":"No-Go","Robot":4,"trial_type":"pit-trial","trial_index":124,"time_elapsed":523405,"internal_node_id":"0.0-124.0"},{"Rune":"03","Correct":32,"Choice":32,"RT":1155.4650000762194,"Accuracy":1,"Sham":0,"Outcome":"+10","Keys":[2657.4349999427795],"TotalKeys":1,"Block":2,"Trial":111,"Valence":"Win","Action":"Go","Robot":1,"trial_type":"pit-trial","trial_index":125,"time_elapsed":527069,"internal_node_id":"0.0-125.0"},{"Rune":"05","Correct":32,"Choice":32,"RT":892.9149999748915,"Accuracy":1,"Sham":0,"Outcome":"+0","Keys":[2393.2450000429526],"TotalKeys":1,"Block":2,"Trial":112,"Valence":"Lose","Action":"Go","Robot":3,"trial_type":"pit-trial","trial_index":126,"time_elapsed":530468,"internal_node_id":"0.0-126.0"},{"Rune":"06","Correct":-1,"Choice":32,"RT":692.975000012666,"Accuracy":0,"Sham":0,"Outcome":"+0","Keys":[2195.5150000285357],"TotalKeys":1,"Block":2,"Trial":113,"Valence":"Win","Action":"No-Go","Robot":2,"trial_type":"pit-trial","trial_index":127,"time_elapsed":533671,"internal_node_id":"0.0-127.0"},{"Rune":"04","Correct":-1,"Choice":-1,"RT":-1,"Accuracy":1,"Sham":0,"Outcome":"+0","Keys":[],"TotalKeys":0,"Block":2,"Trial":114,"Valence":"Lose","Action":"No-Go","Robot":4,"trial_type":"pit-trial","trial_index":128,"time_elapsed":537683,"internal_node_id":"0.0-128.0"},{"Rune":"05","Correct":32,"Choice":32,"RT":532.2399999713525,"Accuracy":1,"Sham":1,"Outcome":"-10","Keys":[2032.3850000277162],"TotalKeys":1,"Block":2,"Trial":115,"Valence":"Lose","Action":"Go","Robot":3,"trial_type":"pit-trial","trial_index":129,"time_elapsed":540720,"internal_node_id":"0.0-129.0"},{"Rune":"03","Correct":32,"Choice":32,"RT":562.7950000343844,"Accuracy":1,"Sham":0,"Outcome":"+10","Keys":[2063.0749999545515],"TotalKeys":1,"Block":2,"Trial":116,"Valence":"Win","Action":"Go","Robot":1,"trial_type":"pit-trial","trial_index":130,"time_elapsed":543788,"internal_node_id":"0.0-130.0"},{"Rune":"04","Correct":-1,"Choice":-1,"RT":-1,"Accuracy":1,"Sham":1,"Outcome":"-10","Keys":[],"TotalKeys":0,"Block":2,"Trial":117,"Valence":"Lose","Action":"No-Go","Robot":4,"trial_type":"pit-trial","trial_index":131,"time_elapsed":547799,"internal_node_id":"0.0-131.0"},{"Rune":"05","Correct":32,"Choice":32,"RT":898.3750001061708,"Accuracy":1,"Sham":0,"Outcome":"+0","Keys":[2398.8449999596924],"TotalKeys":1,"Block":2,"Trial":118,"Valence":"Lose","Action":"Go","Robot":3,"trial_type":"pit-trial","trial_index":132,"time_elapsed":551202,"internal_node_id":"0.0-132.0"},{"Rune":"06","Correct":-1,"Choice":32,"RT":528.6699999123812,"Accuracy":0,"Sham":0,"Outcome":"+0","Keys":[2029.2500000214204],"TotalKeys":1,"Block":2,"Trial":119,"Valence":"Win","Action":"No-Go","Robot":2,"trial_type":"pit-trial","trial_index":133,"time_elapsed":554239,"internal_node_id":"0.0-133.0"},{"Rune":"03","Correct":32,"Choice":32,"RT":440.39000000339,"Accuracy":1,"Sham":0,"Outcome":"+10","Keys":[1940.705000073649],"TotalKeys":1,"Block":2,"Trial":120,"Valence":"Win","Action":"Go","Robot":1,"trial_type":"pit-trial","trial_index":134,"time_elapsed":557184,"internal_node_id":"0.0-134.0"},{"Rune":"06","Correct":-1,"Choice":32,"RT":474.75000005215406,"Accuracy":0,"Sham":0,"Outcome":"+0","Keys":[1975.4199999151751],"TotalKeys":1,"Block":2,"Trial":121,"Valence":"Win","Action":"No-Go","Robot":2,"trial_type":"pit-trial","trial_index":135,"time_elapsed":560168,"internal_node_id":"0.0-135.0"},{"Rune":"04","Correct":-1,"Choice":-1,"RT":-1,"Accuracy":1,"Sham":0,"Outcome":"+0","Keys":[],"TotalKeys":0,"Block":2,"Trial":122,"Valence":"Lose","Action":"No-Go","Robot":4,"trial_type":"pit-trial","trial_index":136,"time_elapsed":564176,"internal_node_id":"0.0-136.0"},{"Rune":"05","Correct":32,"Choice":-1,"RT":-1,"Accuracy":0,"Sham":0,"Outcome":"-10","Keys":[],"TotalKeys":0,"Block":2,"Trial":123,"Valence":"Lose","Action":"Go","Robot":3,"trial_type":"pit-trial","trial_index":137,"time_elapsed":568186,"internal_node_id":"0.0-137.0"},{"Rune":"03","Correct":32,"Choice":32,"RT":525.2749999053776,"Accuracy":1,"Sham":1,"Outcome":"+0","Keys":[2025.5299999844283],"TotalKeys":1,"Block":2,"Trial":124,"Valence":"Win","Action":"Go","Robot":1,"trial_type":"pit-trial","trial_index":138,"time_elapsed":571218,"internal_node_id":"0.0-138.0"},{"Rune":"05","Correct":32,"Choice":32,"RT":807.6400000136346,"Accuracy":1,"Sham":1,"Outcome":"-10","Keys":[2310.0449999328703],"TotalKeys":1,"Block":2,"Trial":125,"Valence":"Lose","Action":"Go","Robot":3,"trial_type":"pit-trial","trial_index":139,"time_elapsed":574535,"internal_node_id":"0.0-139.0"},{"Rune":"04","Correct":-1,"Choice":-1,"RT":-1,"Accuracy":1,"Sham":0,"Outcome":"+0","Keys":[],"TotalKeys":0,"Block":2,"Trial":126,"Valence":"Lose","Action":"No-Go","Robot":4,"trial_type":"pit-trial","trial_index":140,"time_elapsed":578545,"internal_node_id":"0.0-140.0"},{"Rune":"06","Correct":-1,"Choice":32,"RT":504.40999993588775,"Accuracy":0,"Sham":0,"Outcome":"+0","Keys":[2005.0200000405312],"TotalKeys":1,"Block":2,"Trial":127,"Valence":"Win","Action":"No-Go","Robot":2,"trial_type":"pit-trial","trial_index":141,"time_elapsed":581554,"internal_node_id":"0.0-141.0"},{"Rune":"03","Correct":32,"Choice":32,"RT":649.9400000320747,"Accuracy":1,"Sham":0,"Outcome":"+10","Keys":[2150.080000050366],"TotalKeys":1,"Block":2,"Trial":128,"Valence":"Win","Action":"Go","Robot":1,"trial_type":"pit-trial","trial_index":142,"time_elapsed":584711,"internal_node_id":"0.0-142.0"},{"Rune":"04","Correct":-1,"Choice":-1,"RT":-1,"Accuracy":1,"Sham":0,"Outcome":"+0","Keys":[],"TotalKeys":0,"Block":2,"Trial":129,"Valence":"Lose","Action":"No-Go","Robot":4,"trial_type":"pit-trial","trial_index":143,"time_elapsed":588722,"internal_node_id":"0.0-143.0"},{"Rune":"03","Correct":32,"Choice":32,"RT":552.834999980405,"Accuracy":1,"Sham":0,"Outcome":"+10","Keys":[2053.1550000887364],"TotalKeys":1,"Block":2,"Trial":130,"Valence":"Win","Action":"Go","Robot":1,"trial_type":"pit-trial","trial_index":144,"time_elapsed":591780,"internal_node_id":"0.0-144.0"},{"Rune":"05","Correct":32,"Choice":-1,"RT":-1,"Accuracy":0,"Sham":0,"Outcome":"-10","Keys":[],"TotalKeys":0,"Block":2,"Trial":131,"Valence":"Lose","Action":"Go","Robot":3,"trial_type":"pit-trial","trial_index":145,"time_elapsed":595788,"internal_node_id":"0.0-145.0"},{"Rune":"06","Correct":-1,"Choice":32,"RT":570.5900000175461,"Accuracy":0,"Sham":0,"Outcome":"+0","Keys":[2072.689999942668],"TotalKeys":1,"Block":2,"Trial":132,"Valence":"Win","Action":"No-Go","Robot":2,"trial_type":"pit-trial","trial_index":146,"time_elapsed":598864,"internal_node_id":"0.0-146.0"},{"Rune":"04","Correct":-1,"Choice":-1,"RT":-1,"Accuracy":1,"Sham":0,"Outcome":"+0","Keys":[],"TotalKeys":0,"Block":2,"Trial":133,"Valence":"Lose","Action":"No-Go","Robot":4,"trial_type":"pit-trial","trial_index":147,"time_elapsed":602873,"internal_node_id":"0.0-147.0"},{"Rune":"03","Correct":32,"Choice":32,"RT":482.75500000454485,"Accuracy":1,"Sham":0,"Outcome":"+10","Keys":[1983.3750000689179],"TotalKeys":1,"Block":2,"Trial":134,"Valence":"Win","Action":"Go","Robot":1,"trial_type":"pit-trial","trial_index":148,"time_elapsed":605864,"internal_node_id":"0.0-148.0"},{"Rune":"05","Correct":32,"Choice":-1,"RT":-1,"Accuracy":0,"Sham":0,"Outcome":"-10","Keys":[],"TotalKeys":0,"Block":2,"Trial":135,"Valence":"Lose","Action":"Go","Robot":3,"trial_type":"pit-trial","trial_index":149,"time_elapsed":609874,"internal_node_id":"0.0-149.0"},{"Rune":"06","Correct":-1,"Choice":32,"RT":477.9949999647215,"Accuracy":0,"Sham":0,"Outcome":"+0","Keys":[1978.2650000415742],"TotalKeys":1,"Block":2,"Trial":136,"Valence":"Win","Action":"No-Go","Robot":2,"trial_type":"pit-trial","trial_index":150,"time_elapsed":612858,"internal_node_id":"0.0-150.0"},{"Rune":"04","Correct":-1,"Choice":-1,"RT":-1,"Accuracy":1,"Sham":1,"Outcome":"-10","Keys":[],"TotalKeys":0,"Block":2,"Trial":137,"Valence":"Lose","Action":"No-Go","Robot":4,"trial_type":"pit-trial","trial_index":151,"time_elapsed":616867,"internal_node_id":"0.0-151.0"},{"Rune":"03","Correct":32,"Choice":32,"RT":453.7500001024455,"Accuracy":1,"Sham":0,"Outcome":"+10","Keys":[1954.0700000943616],"TotalKeys":1,"Block":2,"Trial":138,"Valence":"Win","Action":"Go","Robot":1,"trial_type":"pit-trial","trial_index":152,"time_elapsed":619829,"internal_node_id":"0.0-152.0"},{"Rune":"05","Correct":32,"Choice":-1,"RT":-1,"Accuracy":0,"Sham":0,"Outcome":"-10","Keys":[],"TotalKeys":0,"Block":2,"Trial":139,"Valence":"Lose","Action":"Go","Robot":3,"trial_type":"pit-trial","trial_index":153,"time_elapsed":623836,"internal_node_id":"0.0-153.0"},{"Rune":"06","Correct":-1,"Choice":32,"RT":445.17500000074506,"Accuracy":0,"Sham":1,"Outcome":"+10","Keys":[1945.9849999984726],"TotalKeys":1,"Block":2,"Trial":140,"Valence":"Win","Action":"No-Go","Robot":2,"trial_type":"pit-trial","trial_index":154,"time_elapsed":626787,"internal_node_id":"0.0-154.0"},{"Rune":"06","Correct":-1,"Choice":32,"RT":715.764999971725,"Accuracy":0,"Sham":1,"Outcome":"+10","Keys":[2217.2900000587106],"TotalKeys":1,"Block":2,"Trial":141,"Valence":"Win","Action":"No-Go","Robot":2,"trial_type":"pit-trial","trial_index":155,"time_elapsed":630008,"internal_node_id":"0.0-155.0"},{"Rune":"05","Correct":32,"Choice":32,"RT":803.7250000052154,"Accuracy":1,"Sham":0,"Outcome":"+0","Keys":[2304.385000024922],"TotalKeys":1,"Block":2,"Trial":142,"Valence":"Lose","Action":"Go","Robot":3,"trial_type":"pit-trial","trial_index":156,"time_elapsed":633318,"internal_node_id":"0.0-156.0"},{"Rune":"03","Correct":32,"Choice":32,"RT":759.4899999676272,"Accuracy":1,"Sham":0,"Outcome":"+10","Keys":[2259.779999963939],"TotalKeys":1,"Block":2,"Trial":143,"Valence":"Win","Action":"Go","Robot":1,"trial_type":"pit-trial","trial_index":157,"time_elapsed":636585,"internal_node_id":"0.0-157.0"},{"Rune":"04","Correct":-1,"Choice":-1,"RT":-1,"Accuracy":1,"Sham":0,"Outcome":"+0","Keys":[],"TotalKeys":0,"Block":2,"Trial":144,"Valence":"Lose","Action":"No-Go","Robot":4,"trial_type":"pit-trial","trial_index":158,"time_elapsed":640594,"internal_node_id":"0.0-158.0"},{"Rune":"04","Correct":-1,"Choice":-1,"RT":-1,"Accuracy":1,"Sham":0,"Outcome":"+0","Keys":[],"TotalKeys":0,"Block":2,"Trial":145,"Valence":"Lose","Action":"No-Go","Robot":4,"trial_type":"pit-trial","trial_index":159,"time_elapsed":644604,"internal_node_id":"0.0-159.0"},{"Rune":"03","Correct":32,"Choice":32,"RT":543.6799998860806,"Accuracy":1,"Sham":0,"Outcome":"+10","Keys":[2045.6550000235438],"TotalKeys":1,"Block":2,"Trial":146,"Valence":"Win","Action":"Go","Robot":1,"trial_type":"pit-trial","trial_index":160,"time_elapsed":647659,"internal_node_id":"0.0-160.0"},{"Rune":"05","Correct":32,"Choice":32,"RT":1058.1800000509247,"Accuracy":1,"Sham":0,"Outcome":"+0","Keys":[2560.5999999679625],"TotalKeys":1,"Block":2,"Trial":147,"Valence":"Lose","Action":"Go","Robot":3,"trial_type":"pit-trial","trial_index":161,"time_elapsed":651226,"internal_node_id":"0.0-161.0"},{"Rune":"06","Correct":-1,"Choice":32,"RT":733.5400000447407,"Accuracy":0,"Sham":0,"Outcome":"+0","Keys":[2234.984999988228],"TotalKeys":1,"Block":2,"Trial":148,"Valence":"Win","Action":"No-Go","Robot":2,"trial_type":"pit-trial","trial_index":162,"time_elapsed":654470,"internal_node_id":"0.0-162.0"},{"Rune":"06","Correct":-1,"Choice":32,"RT":574.5050000259653,"Accuracy":0,"Sham":0,"Outcome":"+0","Keys":[2076.1949999723583],"TotalKeys":1,"Block":2,"Trial":149,"Valence":"Win","Action":"No-Go","Robot":2,"trial_type":"pit-trial","trial_index":163,"time_elapsed":657553,"internal_node_id":"0.0-163.0"},{"Rune":"04","Correct":-1,"Choice":-1,"RT":-1,"Accuracy":1,"Sham":0,"Outcome":"+0","Keys":[],"TotalKeys":0,"Block":2,"Trial":150,"Valence":"Lose","Action":"No-Go","Robot":4,"trial_type":"pit-trial","trial_index":164,"time_elapsed":661563,"internal_node_id":"0.0-164.0"},{"Rune":"05","Correct":32,"Choice":32,"RT":599.5399999665096,"Accuracy":1,"Sham":0,"Outcome":"+0","Keys":[2100.190000026487],"TotalKeys":1,"Block":2,"Trial":151,"Valence":"Lose","Action":"Go","Robot":3,"trial_type":"pit-trial","trial_index":165,"time_elapsed":664670,"internal_node_id":"0.0-165.0"},{"Rune":"03","Correct":32,"Choice":32,"RT":652.074999990873,"Accuracy":1,"Sham":0,"Outcome":"+10","Keys":[2153.7549999775365],"TotalKeys":1,"Block":2,"Trial":152,"Valence":"Win","Action":"Go","Robot":1,"trial_type":"pit-trial","trial_index":166,"time_elapsed":667830,"internal_node_id":"0.0-166.0"},{"Rune":"03","Correct":32,"Choice":32,"RT":709.2049999628216,"Accuracy":1,"Sham":0,"Outcome":"+10","Keys":[2209.3100000638515],"TotalKeys":1,"Block":2,"Trial":153,"Valence":"Win","Action":"Go","Robot":1,"trial_type":"pit-trial","trial_index":167,"time_elapsed":671047,"internal_node_id":"0.0-167.0"},{"Rune":"04","Correct":-1,"Choice":-1,"RT":-1,"Accuracy":1,"Sham":0,"Outcome":"+0","Keys":[],"TotalKeys":0,"Block":2,"Trial":154,"Valence":"Lose","Action":"No-Go","Robot":4,"trial_type":"pit-trial","trial_index":168,"time_elapsed":675058,"internal_node_id":"0.0-168.0"},{"Rune":"05","Correct":32,"Choice":32,"RT":467.49999991152436,"Accuracy":1,"Sham":0,"Outcome":"+0","Keys":[1968.849999946542],"TotalKeys":1,"Block":2,"Trial":155,"Valence":"Lose","Action":"Go","Robot":3,"trial_type":"pit-trial","trial_index":169,"time_elapsed":678031,"internal_node_id":"0.0-169.0"},{"Rune":"06","Correct":-1,"Choice":32,"RT":746.4499999769032,"Accuracy":0,"Sham":0,"Outcome":"+0","Keys":[2246.820000000298],"TotalKeys":1,"Block":2,"Trial":156,"Valence":"Win","Action":"No-Go","Robot":2,"trial_type":"pit-trial","trial_index":170,"time_elapsed":681286,"internal_node_id":"0.0-170.0"},{"Rune":"05","Correct":32,"Choice":32,"RT":685.6600000755861,"Accuracy":1,"Sham":1,"Outcome":"-10","Keys":[2185.7500000623986],"TotalKeys":1,"Block":2,"Trial":157,"Valence":"Lose","Action":"Go","Robot":3,"trial_type":"pit-trial","trial_index":171,"time_elapsed":684479,"internal_node_id":"0.0-171.0"},{"Rune":"04","Correct":-1,"Choice":-1,"RT":-1,"Accuracy":1,"Sham":1,"Outcome":"-10","Keys":[],"TotalKeys":0,"Block":2,"Trial":158,"Valence":"Lose","Action":"No-Go","Robot":4,"trial_type":"pit-trial","trial_index":172,"time_elapsed":688490,"internal_node_id":"0.0-172.0"},{"Rune":"06","Correct":-1,"Choice":32,"RT":488.11499995645136,"Accuracy":0,"Sham":0,"Outcome":"+0","Keys":[1988.7549999402836],"TotalKeys":1,"Block":2,"Trial":159,"Valence":"Win","Action":"No-Go","Robot":2,"trial_type":"pit-trial","trial_index":173,"time_elapsed":691482,"internal_node_id":"0.0-173.0"},{"Rune":"03","Correct":32,"Choice":32,"RT":633.67000001017,"Accuracy":1,"Sham":1,"Outcome":"+0","Keys":[2134.044999955222],"TotalKeys":1,"Block":2,"Trial":160,"Valence":"Win","Action":"Go","Robot":1,"trial_type":"pit-trial","trial_index":174,"time_elapsed":694623,"internal_node_id":"0.0-174.0"},{"rt":13326.3900000602,"demographics":{"age":"62","gender-categorical":"Female","ethnicity":"Not Hispanic or Latino","race":"White","english":"Yes","fluency":"Very well"},"trial_type":"survey-demo","trial_index":175,"time_elapsed":707955,"internal_node_id":"0.0-175.0"},{"rt":25697.61999999173,"debriefgraphics":{"difficulty":"2","fun":"5","clarity":"4","strategy":"None","feedback":"Thanks"},"trial_type":"survey-debrief","trial_index":176,"time_elapsed":733657,"internal_node_id":"0.0-176.0","interactions":"[]"}]