[{"view_history":"[{\"page_index\":0,\"viewing_time\":2150.2550000004703},{\"page_index\":1,\"viewing_time\":2649.4449999991048},{\"page_index\":2,\"viewing_time\":3671.920000000682},{\"page_index\":3,\"viewing_time\":4220.389999998588},{\"page_index\":4,\"viewing_time\":3013.9450000024226}]","rt":15707.285000000411,"trial_type":"pit-instructions","trial_index":0,"time_elapsed":15709,"internal_node_id":"0.0-0.0"},{"Correct":32,"Choice":-1,"RT":-1,"Accuracy":0,"Sham":0,"Outcome":0,"trial_type":"pit-trial","trial_index":1,"time_elapsed":19715,"internal_node_id":"0.0-1.0"},{"Correct":32,"Choice":32,"RT":731.8300000006275,"Accuracy":1,"Sham":0,"Outcome":1,"trial_type":"pit-trial","trial_index":2,"time_elapsed":22950,"internal_node_id":"0.0-2.0"},{"Correct":32,"Choice":32,"RT":522.7249999988999,"Accuracy":1,"Sham":0,"Outcome":1,"trial_type":"pit-trial","trial_index":3,"time_elapsed":25977,"internal_node_id":"0.0-3.0"},{"Correct":32,"Choice":32,"RT":722.314999999071,"Accuracy":1,"Sham":0,"Outcome":1,"trial_type":"pit-trial","trial_index":4,"time_elapsed":29203,"internal_node_id":"0.0-4.0"},{"view_history":"[{\"page_index\":0,\"viewing_time\":3998.6300000018673}]","rt":3998.9350000032573,"trial_type":"pit-instructions","trial_index":5,"time_elapsed":33203,"internal_node_id":"0.0-5.0"},{"Correct":-1,"Choice":-1,"RT":-1,"Accuracy":1,"Sham":0,"Outcome":1,"trial_type":"pit-trial","trial_index":6,"time_elapsed":37207,"internal_node_id":"0.0-6.0"},{"Correct":-1,"Choice":-1,"RT":-1,"Accuracy":1,"Sham":0,"Outcome":1,"trial_type":"pit-trial","trial_index":7,"time_elapsed":41210,"internal_node_id":"0.0-7.0"},{"Correct":-1,"Choice":-1,"RT":-1,"Accuracy":1,"Sham":0,"Outcome":1,"trial_type":"pit-trial","trial_index":8,"time_elapsed":45214,"internal_node_id":"0.0-8.0"},{"Correct":-1,"Choice":-1,"RT":-1,"Accuracy":1,"Sham":0,"Outcome":1,"trial_type":"pit-trial","trial_index":9,"time_elapsed":49220,"internal_node_id":"0.0-9.0"},{"view_history":"[{\"page_index\":0,\"viewing_time\":4136.754999999539},{\"page_index\":1,\"viewing_time\":8213.349999998172},{\"page_index\":2,\"viewing_time\":4834.480000001349},{\"page_index\":3,\"viewing_time\":5297.774999999092},{\"page_index\":4,\"viewing_time\":3796.024999999645},{\"page_index\":5,\"viewing_time\":4626.309999999648},{\"page_index\":6,\"viewing_time\":2633.675000000949},{\"page_index\":7,\"viewing_time\":2191.9699999998556}]","rt":35730.67000000083,"trial_type":"pit-instructions","trial_index":10,"time_elapsed":84951,"internal_node_id":"0.0-10.0"},{"rt":19793.989999998303,"responses":"{\"no-press\":\"Do nothing\",\"probability\":\"0\",\"bonus\":\"True\"}","errors":1,"trial_type":"pit-comprehension","trial_index":11,"time_elapsed":104749,"internal_node_id":"0.0-11.0"},{"view_history":"[{\"page_index\":0,\"viewing_time\":2050.5149999989953}]","rt":2050.8499999996275,"trial_type":"pit-instructions","trial_index":12,"time_elapsed":106805,"internal_node_id":"0.0-12.0"},{"Correct":-1,"Choice":-1,"RT":-1,"Accuracy":1,"Sham":0,"Outcome":1,"Block":1,"Trial":1,"Valence":"Win","Action":"No-Go","trial_type":"pit-trial","trial_index":13,"time_elapsed":110809,"internal_node_id":"0.0-13.0"},{"Correct":32,"Choice":-1,"RT":-1,"Accuracy":0,"Sham":0,"Outcome":-1,"Block":1,"Trial":2,"Valence":"Lose","Action":"Go","trial_type":"pit-trial","trial_index":14,"time_elapsed":114814,"internal_node_id":"0.0-14.0"},{"Correct":-1,"Choice":-1,"RT":-1,"Accuracy":1,"Sham":0,"Outcome":0,"Block":1,"Trial":3,"Valence":"Lose","Action":"No-Go","trial_type":"pit-trial","trial_index":15,"time_elapsed":118819,"internal_node_id":"0.0-15.0"},{"Correct":32,"Choice":32,"RT":991.8050000014773,"Accuracy":1,"Sham":0,"Outcome":1,"Block":1,"Trial":4,"Valence":"Win","Action":"Go","trial_type":"pit-trial","trial_index":16,"time_elapsed":122316,"internal_node_id":"0.0-16.0"},{"Correct":32,"Choice":-1,"RT":-1,"Accuracy":0,"Sham":1,"Outcome":0,"Block":1,"Trial":5,"Valence":"Lose","Action":"Go","trial_type":"pit-trial","trial_index":17,"time_elapsed":126319,"internal_node_id":"0.0-17.0"},{"Correct":-1,"Choice":-1,"RT":-1,"Accuracy":1,"Sham":0,"Outcome":0,"Block":1,"Trial":6,"Valence":"Lose","Action":"No-Go","trial_type":"pit-trial","trial_index":18,"time_elapsed":130322,"internal_node_id":"0.0-18.0"},{"Correct":32,"Choice":32,"RT":531.9100000015169,"Accuracy":1,"Sham":0,"Outcome":1,"Block":1,"Trial":7,"Valence":"Win","Action":"Go","trial_type":"pit-trial","trial_index":19,"time_elapsed":133358,"internal_node_id":"0.0-19.0"},{"Correct":-1,"Choice":32,"RT":304.2249999998603,"Accuracy":0,"Sham":0,"Outcome":0,"Block":1,"Trial":8,"Valence":"Win","Action":"No-Go","trial_type":"pit-trial","trial_index":20,"time_elapsed":136166,"internal_node_id":"0.0-20.0"},{"Correct":32,"Choice":32,"RT":557.5199999984761,"Accuracy":1,"Sham":0,"Outcome":1,"Block":1,"Trial":9,"Valence":"Win","Action":"Go","trial_type":"pit-trial","trial_index":21,"time_elapsed":139228,"internal_node_id":"0.0-21.0"},{"Correct":32,"Choice":-1,"RT":-1,"Accuracy":0,"Sham":0,"Outcome":-1,"Block":1,"Trial":10,"Valence":"Lose","Action":"Go","trial_type":"pit-trial","trial_index":22,"time_elapsed":143231,"internal_node_id":"0.0-22.0"},{"Correct":-1,"Choice":32,"RT":483.1000000012864,"Accuracy":0,"Sham":0,"Outcome":0,"Block":1,"Trial":11,"Valence":"Win","Action":"No-Go","trial_type":"pit-trial","trial_index":23,"time_elapsed":146218,"internal_node_id":"0.0-23.0"},{"Correct":-1,"Choice":32,"RT":284.57999999955064,"Accuracy":0,"Sham":0,"Outcome":-1,"Block":1,"Trial":12,"Valence":"Lose","Action":"No-Go","trial_type":"pit-trial","trial_index":24,"time_elapsed":149005,"internal_node_id":"0.0-24.0"},{"Correct":32,"Choice":32,"RT":417.58000000118045,"Accuracy":1,"Sham":0,"Outcome":1,"Block":1,"Trial":13,"Valence":"Win","Action":"Go","trial_type":"pit-trial","trial_index":25,"time_elapsed":151926,"internal_node_id":"0.0-25.0"},{"Correct":-1,"Choice":32,"RT":449.27000000097905,"Accuracy":0,"Sham":0,"Outcome":0,"Block":1,"Trial":14,"Valence":"Win","Action":"No-Go","trial_type":"pit-trial","trial_index":26,"time_elapsed":154879,"internal_node_id":"0.0-26.0"},{"Correct":32,"Choice":32,"RT":486.6099999999278,"Accuracy":1,"Sham":0,"Outcome":0,"Block":1,"Trial":15,"Valence":"Lose","Action":"Go","trial_type":"pit-trial","trial_index":27,"time_elapsed":157870,"internal_node_id":"0.0-27.0"},{"Correct":-1,"Choice":32,"RT":525.5699999979697,"Accuracy":0,"Sham":1,"Outcome":0,"Block":1,"Trial":16,"Valence":"Lose","Action":"No-Go","trial_type":"pit-trial","trial_index":28,"time_elapsed":160899,"internal_node_id":"0.0-28.0"},{"Correct":32,"Choice":32,"RT":438.48499999876367,"Accuracy":1,"Sham":1,"Outcome":0,"Block":1,"Trial":17,"Valence":"Win","Action":"Go","trial_type":"pit-trial","trial_index":29,"time_elapsed":163840,"internal_node_id":"0.0-29.0"},{"Correct":32,"Choice":32,"RT":397.60500000193133,"Accuracy":1,"Sham":0,"Outcome":0,"Block":1,"Trial":18,"Valence":"Lose","Action":"Go","trial_type":"pit-trial","trial_index":30,"time_elapsed":166740,"internal_node_id":"0.0-30.0"},{"Correct":-1,"Choice":32,"RT":257.1749999988242,"Accuracy":0,"Sham":1,"Outcome":1,"Block":1,"Trial":19,"Valence":"Win","Action":"No-Go","trial_type":"pit-trial","trial_index":31,"time_elapsed":169501,"internal_node_id":"0.0-31.0"},{"Correct":-1,"Choice":-1,"RT":-1,"Accuracy":1,"Sham":0,"Outcome":0,"Block":1,"Trial":20,"Valence":"Lose","Action":"No-Go","trial_type":"pit-trial","trial_index":32,"time_elapsed":173504,"internal_node_id":"0.0-32.0"},{"Correct":-1,"Choice":-1,"RT":-1,"Accuracy":1,"Sham":0,"Outcome":0,"Block":1,"Trial":21,"Valence":"Lose","Action":"No-Go","trial_type":"pit-trial","trial_index":33,"time_elapsed":177508,"internal_node_id":"0.0-33.0"},{"Correct":-1,"Choice":32,"RT":335.44500000061817,"Accuracy":0,"Sham":0,"Outcome":0,"Block":1,"Trial":22,"Valence":"Win","Action":"No-Go","trial_type":"pit-trial","trial_index":34,"time_elapsed":180347,"internal_node_id":"0.0-34.0"},{"Correct":32,"Choice":32,"RT":848.4500000013213,"Accuracy":1,"Sham":0,"Outcome":1,"Block":1,"Trial":23,"Valence":"Win","Action":"Go","trial_type":"pit-trial","trial_index":35,"time_elapsed":183700,"internal_node_id":"0.0-35.0"},{"Correct":32,"Choice":32,"RT":557.5649999991583,"Accuracy":1,"Sham":0,"Outcome":0,"Block":1,"Trial":24,"Valence":"Lose","Action":"Go","trial_type":"pit-trial","trial_index":36,"time_elapsed":186761,"internal_node_id":"0.0-36.0"},{"Correct":-1,"Choice":-1,"RT":-1,"Accuracy":1,"Sham":0,"Outcome":0,"Block":1,"Trial":25,"Valence":"Lose","Action":"No-Go","trial_type":"pit-trial","trial_index":37,"time_elapsed":190765,"internal_node_id":"0.0-37.0"},{"Correct":32,"Choice":32,"RT":285.4850000003353,"Accuracy":1,"Sham":0,"Outcome":1,"Block":1,"Trial":26,"Valence":"Win","Action":"Go","trial_type":"pit-trial","trial_index":38,"time_elapsed":193554,"internal_node_id":"0.0-38.0"},{"Correct":32,"Choice":-1,"RT":-1,"Accuracy":0,"Sham":0,"Outcome":-1,"Block":1,"Trial":27,"Valence":"Lose","Action":"Go","trial_type":"pit-trial","trial_index":39,"time_elapsed":197558,"internal_node_id":"0.0-39.0"},{"Correct":-1,"Choice":32,"RT":546.8550000005052,"Accuracy":0,"Sham":0,"Outcome":0,"Block":1,"Trial":28,"Valence":"Win","Action":"No-Go","trial_type":"pit-trial","trial_index":40,"time_elapsed":200608,"internal_node_id":"0.0-40.0"},{"Correct":32,"Choice":32,"RT":358.0000000001746,"Accuracy":1,"Sham":0,"Outcome":0,"Block":1,"Trial":29,"Valence":"Lose","Action":"Go","trial_type":"pit-trial","trial_index":41,"time_elapsed":203472,"internal_node_id":"0.0-41.0"},{"Correct":-1,"Choice":32,"RT":182.7899999989313,"Accuracy":0,"Sham":1,"Outcome":1,"Block":1,"Trial":30,"Valence":"Win","Action":"No-Go","trial_type":"pit-trial","trial_index":42,"time_elapsed":206158,"internal_node_id":"0.0-42.0"},{"Correct":32,"Choice":32,"RT":280.3149999999732,"Accuracy":1,"Sham":1,"Outcome":0,"Block":1,"Trial":31,"Valence":"Win","Action":"Go","trial_type":"pit-trial","trial_index":43,"time_elapsed":208941,"internal_node_id":"0.0-43.0"},{"Correct":-1,"Choice":32,"RT":483.2649999989371,"Accuracy":0,"Sham":0,"Outcome":-1,"Block":1,"Trial":32,"Valence":"Lose","Action":"No-Go","trial_type":"pit-trial","trial_index":44,"time_elapsed":211928,"internal_node_id":"0.0-44.0"},{"Correct":-1,"Choice":32,"RT":33.779999997932464,"Accuracy":0,"Sham":0,"Outcome":-1,"Block":1,"Trial":33,"Valence":"Lose","Action":"No-Go","trial_type":"pit-trial","trial_index":45,"time_elapsed":214465,"internal_node_id":"0.0-45.0"},{"Correct":-1,"Choice":32,"RT":172.02000000179396,"Accuracy":0,"Sham":0,"Outcome":0,"Block":1,"Trial":34,"Valence":"Win","Action":"No-Go","trial_type":"pit-trial","trial_index":46,"time_elapsed":217141,"internal_node_id":"0.0-46.0"},{"Correct":32,"Choice":32,"RT":450.16000000032363,"Accuracy":1,"Sham":0,"Outcome":1,"Block":1,"Trial":35,"Valence":"Win","Action":"Go","trial_type":"pit-trial","trial_index":47,"time_elapsed":220096,"internal_node_id":"0.0-47.0"},{"Correct":32,"Choice":-1,"RT":-1,"Accuracy":0,"Sham":1,"Outcome":0,"Block":1,"Trial":36,"Valence":"Lose","Action":"Go","trial_type":"pit-trial","trial_index":48,"time_elapsed":224099,"internal_node_id":"0.0-48.0"},{"Correct":-1,"Choice":-1,"RT":-1,"Accuracy":1,"Sham":1,"Outcome":-1,"Block":1,"Trial":37,"Valence":"Lose","Action":"No-Go","trial_type":"pit-trial","trial_index":49,"time_elapsed":228103,"internal_node_id":"0.0-49.0"},{"Correct":32,"Choice":32,"RT":659.4000000004598,"Accuracy":1,"Sham":0,"Outcome":0,"Block":1,"Trial":38,"Valence":"Lose","Action":"Go","trial_type":"pit-trial","trial_index":50,"time_elapsed":231267,"internal_node_id":"0.0-50.0"},{"Correct":32,"Choice":32,"RT":471.50500000134343,"Accuracy":1,"Sham":0,"Outcome":1,"Block":1,"Trial":39,"Valence":"Win","Action":"Go","trial_type":"pit-trial","trial_index":51,"time_elapsed":234242,"internal_node_id":"0.0-51.0"},{"Correct":-1,"Choice":32,"RT":454.7899999997753,"Accuracy":0,"Sham":0,"Outcome":0,"Block":1,"Trial":40,"Valence":"Win","Action":"No-Go","trial_type":"pit-trial","trial_index":52,"time_elapsed":237201,"internal_node_id":"0.0-52.0"},{"Correct":32,"Choice":32,"RT":763.9250000029278,"Accuracy":1,"Sham":1,"Outcome":-1,"Block":1,"Trial":41,"Valence":"Lose","Action":"Go","trial_type":"pit-trial","trial_index":53,"time_elapsed":240469,"internal_node_id":"0.0-53.0"},{"Correct":-1,"Choice":32,"RT":320.97000000067055,"Accuracy":0,"Sham":0,"Outcome":0,"Block":1,"Trial":42,"Valence":"Win","Action":"No-Go","trial_type":"pit-trial","trial_index":54,"time_elapsed":243293,"internal_node_id":"0.0-54.0"},{"Correct":-1,"Choice":32,"RT":161.82499999922584,"Accuracy":0,"Sham":0,"Outcome":-1,"Block":1,"Trial":43,"Valence":"Lose","Action":"No-Go","trial_type":"pit-trial","trial_index":55,"time_elapsed":245959,"internal_node_id":"0.0-55.0"},{"Correct":32,"Choice":32,"RT":82.54000000306405,"Accuracy":1,"Sham":0,"Outcome":1,"Block":1,"Trial":44,"Valence":"Win","Action":"Go","trial_type":"pit-trial","trial_index":56,"time_elapsed":248545,"internal_node_id":"0.0-56.0"},{"Correct":-1,"Choice":-1,"RT":-1,"Accuracy":1,"Sham":0,"Outcome":0,"Block":1,"Trial":45,"Valence":"Lose","Action":"No-Go","trial_type":"pit-trial","trial_index":57,"time_elapsed":252548,"internal_node_id":"0.0-57.0"},{"Correct":-1,"Choice":32,"RT":80.31499999924563,"Accuracy":0,"Sham":1,"Outcome":1,"Block":1,"Trial":46,"Valence":"Win","Action":"No-Go","trial_type":"pit-trial","trial_index":58,"time_elapsed":255132,"internal_node_id":"0.0-58.0"},{"Correct":32,"Choice":-1,"RT":-1,"Accuracy":0,"Sham":0,"Outcome":-1,"Block":1,"Trial":47,"Valence":"Lose","Action":"Go","trial_type":"pit-trial","trial_index":59,"time_elapsed":259135,"internal_node_id":"0.0-59.0"},{"Correct":32,"Choice":32,"RT":674.6700000003912,"Accuracy":1,"Sham":0,"Outcome":1,"Block":1,"Trial":48,"Valence":"Win","Action":"Go","trial_type":"pit-trial","trial_index":60,"time_elapsed":262313,"internal_node_id":"0.0-60.0"},{"Correct":-1,"Choice":32,"RT":775.6499999995576,"Accuracy":0,"Sham":0,"Outcome":-1,"Block":1,"Trial":49,"Valence":"Lose","Action":"No-Go","trial_type":"pit-trial","trial_index":61,"time_elapsed":265592,"internal_node_id":"0.0-61.0"},{"Correct":32,"Choice":32,"RT":301.805000002787,"Accuracy":1,"Sham":0,"Outcome":1,"Block":1,"Trial":50,"Valence":"Win","Action":"Go","trial_type":"pit-trial","trial_index":62,"time_elapsed":268398,"internal_node_id":"0.0-62.0"},{"Correct":-1,"Choice":32,"RT":535.5999999992782,"Accuracy":0,"Sham":0,"Outcome":0,"Block":1,"Trial":51,"Valence":"Win","Action":"No-Go","trial_type":"pit-trial","trial_index":63,"time_elapsed":271438,"internal_node_id":"0.0-63.0"},{"Correct":32,"Choice":32,"RT":603.2999999988242,"Accuracy":1,"Sham":0,"Outcome":0,"Block":1,"Trial":52,"Valence":"Lose","Action":"Go","trial_type":"pit-trial","trial_index":64,"time_elapsed":274545,"internal_node_id":"0.0-64.0"},{"Correct":-1,"Choice":32,"RT":599.339999997057,"Accuracy":0,"Sham":0,"Outcome":0,"Block":1,"Trial":53,"Valence":"Win","Action":"No-Go","trial_type":"pit-trial","trial_index":65,"time_elapsed":277647,"internal_node_id":"0.0-65.0"},{"Correct":32,"Choice":32,"RT":739.5749999996042,"Accuracy":1,"Sham":0,"Outcome":0,"Block":1,"Trial":54,"Valence":"Lose","Action":"Go","trial_type":"pit-trial","trial_index":66,"time_elapsed":280890,"internal_node_id":"0.0-66.0"},{"Correct":-1,"Choice":-1,"RT":-1,"Accuracy":1,"Sham":0,"Outcome":0,"Block":1,"Trial":55,"Valence":"Lose","Action":"No-Go","trial_type":"pit-trial","trial_index":67,"time_elapsed":284893,"internal_node_id":"0.0-67.0"},{"Correct":32,"Choice":32,"RT":285.3000000031898,"Accuracy":1,"Sham":0,"Outcome":1,"Block":1,"Trial":56,"Valence":"Win","Action":"Go","trial_type":"pit-trial","trial_index":68,"time_elapsed":287684,"internal_node_id":"0.0-68.0"},{"Correct":32,"Choice":32,"RT":537.094999999681,"Accuracy":1,"Sham":1,"Outcome":0,"Block":1,"Trial":57,"Valence":"Win","Action":"Go","trial_type":"pit-trial","trial_index":69,"time_elapsed":290724,"internal_node_id":"0.0-69.0"},{"Correct":32,"Choice":-1,"RT":-1,"Accuracy":0,"Sham":0,"Outcome":-1,"Block":1,"Trial":58,"Valence":"Lose","Action":"Go","trial_type":"pit-trial","trial_index":70,"time_elapsed":294729,"internal_node_id":"0.0-70.0"},{"Correct":-1,"Choice":-1,"RT":-1,"Accuracy":1,"Sham":1,"Outcome":-1,"Block":1,"Trial":59,"Valence":"Lose","Action":"No-Go","trial_type":"pit-trial","trial_index":71,"time_elapsed":298732,"internal_node_id":"0.0-71.0"},{"Correct":-1,"Choice":32,"RT":278.88000000163447,"Accuracy":0,"Sham":0,"Outcome":0,"Block":1,"Trial":60,"Valence":"Win","Action":"No-Go","trial_type":"pit-trial","trial_index":72,"time_elapsed":301514,"internal_node_id":"0.0-72.0"},{"Correct":-1,"Choice":32,"RT":405.6299999974435,"Accuracy":0,"Sham":0,"Outcome":0,"Block":1,"Trial":61,"Valence":"Win","Action":"No-Go","trial_type":"pit-trial","trial_index":73,"time_elapsed":304423,"internal_node_id":"0.0-73.0"},{"Correct":32,"Choice":32,"RT":406.5599999994738,"Accuracy":1,"Sham":0,"Outcome":0,"Block":1,"Trial":62,"Valence":"Lose","Action":"Go","trial_type":"pit-trial","trial_index":74,"time_elapsed":307334,"internal_node_id":"0.0-74.0"},{"Correct":-1,"Choice":32,"RT":229.21000000135973,"Accuracy":0,"Sham":0,"Outcome":-1,"Block":1,"Trial":63,"Valence":"Lose","Action":"No-Go","trial_type":"pit-trial","trial_index":75,"time_elapsed":310066,"internal_node_id":"0.0-75.0"},{"Correct":32,"Choice":32,"RT":269.47000000294065,"Accuracy":1,"Sham":0,"Outcome":1,"Block":1,"Trial":64,"Valence":"Win","Action":"Go","trial_type":"pit-trial","trial_index":76,"time_elapsed":312839,"internal_node_id":"0.0-76.0"},{"Correct":-1,"Choice":32,"RT":264.85499999759486,"Accuracy":0,"Sham":0,"Outcome":0,"Block":1,"Trial":65,"Valence":"Win","Action":"No-Go","trial_type":"pit-trial","trial_index":77,"time_elapsed":315607,"internal_node_id":"0.0-77.0"},{"Correct":-1,"Choice":-1,"RT":-1,"Accuracy":1,"Sham":0,"Outcome":0,"Block":1,"Trial":66,"Valence":"Lose","Action":"No-Go","trial_type":"pit-trial","trial_index":78,"time_elapsed":319611,"internal_node_id":"0.0-78.0"},{"Correct":32,"Choice":32,"RT":286.82999999728054,"Accuracy":1,"Sham":1,"Outcome":0,"Block":1,"Trial":67,"Valence":"Win","Action":"Go","trial_type":"pit-trial","trial_index":79,"time_elapsed":322402,"internal_node_id":"0.0-79.0"},{"Correct":32,"Choice":-1,"RT":-1,"Accuracy":0,"Sham":0,"Outcome":-1,"Block":1,"Trial":68,"Valence":"Lose","Action":"Go","trial_type":"pit-trial","trial_index":80,"time_elapsed":326406,"internal_node_id":"0.0-80.0"},{"Correct":-1,"Choice":-1,"RT":-1,"Accuracy":1,"Sham":1,"Outcome":-1,"Block":1,"Trial":69,"Valence":"Lose","Action":"No-Go","trial_type":"pit-trial","trial_index":81,"time_elapsed":330409,"internal_node_id":"0.0-81.0"},{"Correct":32,"Choice":-1,"RT":-1,"Accuracy":0,"Sham":0,"Outcome":-1,"Block":1,"Trial":70,"Valence":"Lose","Action":"Go","trial_type":"pit-trial","trial_index":82,"time_elapsed":334414,"internal_node_id":"0.0-82.0"},{"Correct":32,"Choice":32,"RT":259.04500000248663,"Accuracy":1,"Sham":0,"Outcome":1,"Block":1,"Trial":71,"Valence":"Win","Action":"Go","trial_type":"pit-trial","trial_index":83,"time_elapsed":337176,"internal_node_id":"0.0-83.0"},{"Correct":-1,"Choice":32,"RT":368.4450000000652,"Accuracy":0,"Sham":0,"Outcome":0,"Block":1,"Trial":72,"Valence":"Win","Action":"No-Go","trial_type":"pit-trial","trial_index":84,"time_elapsed":340049,"internal_node_id":"0.0-84.0"},{"Correct":-1,"Choice":32,"RT":357.36000000179047,"Accuracy":0,"Sham":0,"Outcome":0,"Block":1,"Trial":73,"Valence":"Win","Action":"No-Go","trial_type":"pit-trial","trial_index":85,"time_elapsed":342910,"internal_node_id":"0.0-85.0"},{"Correct":32,"Choice":-1,"RT":-1,"Accuracy":0,"Sham":1,"Outcome":0,"Block":1,"Trial":74,"Valence":"Lose","Action":"Go","trial_type":"pit-trial","trial_index":86,"time_elapsed":346913,"internal_node_id":"0.0-86.0"},{"Correct":32,"Choice":32,"RT":263.3400000013644,"Accuracy":1,"Sham":0,"Outcome":1,"Block":1,"Trial":75,"Valence":"Win","Action":"Go","trial_type":"pit-trial","trial_index":87,"time_elapsed":349681,"internal_node_id":"0.0-87.0"},{"Correct":-1,"Choice":-1,"RT":-1,"Accuracy":1,"Sham":0,"Outcome":0,"Block":1,"Trial":76,"Valence":"Lose","Action":"No-Go","trial_type":"pit-trial","trial_index":88,"time_elapsed":353684,"internal_node_id":"0.0-88.0"},{"Correct":-1,"Choice":32,"RT":313.31999999750406,"Accuracy":0,"Sham":1,"Outcome":1,"Block":1,"Trial":77,"Valence":"Win","Action":"No-Go","trial_type":"pit-trial","trial_index":89,"time_elapsed":356500,"internal_node_id":"0.0-89.0"},{"Correct":32,"Choice":32,"RT":293.19000000029337,"Accuracy":1,"Sham":0,"Outcome":1,"Block":1,"Trial":78,"Valence":"Win","Action":"Go","trial_type":"pit-trial","trial_index":90,"time_elapsed":359298,"internal_node_id":"0.0-90.0"},{"Correct":-1,"Choice":-1,"RT":-1,"Accuracy":1,"Sham":0,"Outcome":0,"Block":1,"Trial":79,"Valence":"Lose","Action":"No-Go","trial_type":"pit-trial","trial_index":91,"time_elapsed":363301,"internal_node_id":"0.0-91.0"},{"Correct":32,"Choice":32,"RT":373.429999999702,"Accuracy":1,"Sham":0,"Outcome":0,"Block":1,"Trial":80,"Valence":"Lose","Action":"Go","trial_type":"pit-trial","trial_index":92,"time_elapsed":366178,"internal_node_id":"0.0-92.0"},{"value":false,"trial_type":"call-function","trial_index":93,"time_elapsed":366180,"internal_node_id":"0.0-93.0"},{"RT":4402.119999998831,"trial_type":"pit-pause","trial_index":94,"time_elapsed":372907,"internal_node_id":"0.0-94.0"},{"Correct":32,"Choice":32,"RT":417.5349999968312,"Accuracy":1,"Sham":0,"Outcome":1,"Block":2,"Trial":81,"Valence":"Win","Action":"Go","trial_type":"pit-trial","trial_index":95,"time_elapsed":375828,"internal_node_id":"0.0-95.0"},{"Correct":-1,"Choice":32,"RT":406.14999999885913,"Accuracy":0,"Sham":0,"Outcome":0,"Block":2,"Trial":82,"Valence":"Win","Action":"No-Go","trial_type":"pit-trial","trial_index":96,"time_elapsed":378738,"internal_node_id":"0.0-96.0"},{"Correct":-1,"Choice":32,"RT":547.1550000002608,"Accuracy":0,"Sham":0,"Outcome":-1,"Block":2,"Trial":83,"Valence":"Lose","Action":"No-Go","trial_type":"pit-trial","trial_index":97,"time_elapsed":381789,"internal_node_id":"0.0-97.0"},{"Correct":32,"Choice":-1,"RT":-1,"Accuracy":0,"Sham":0,"Outcome":-1,"Block":2,"Trial":84,"Valence":"Lose","Action":"Go","trial_type":"pit-trial","trial_index":98,"time_elapsed":385793,"internal_node_id":"0.0-98.0"},{"Correct":32,"Choice":32,"RT":318.745000000461,"Accuracy":1,"Sham":0,"Outcome":1,"Block":2,"Trial":85,"Valence":"Win","Action":"Go","trial_type":"pit-trial","trial_index":99,"time_elapsed":388616,"internal_node_id":"0.0-99.0"},{"Correct":-1,"Choice":32,"RT":286.8000000016764,"Accuracy":0,"Sham":0,"Outcome":0,"Block":2,"Trial":86,"Valence":"Win","Action":"No-Go","trial_type":"pit-trial","trial_index":100,"time_elapsed":391407,"internal_node_id":"0.0-100.0"},{"Correct":32,"Choice":32,"RT":933.6849999999395,"Accuracy":1,"Sham":0,"Outcome":0,"Block":2,"Trial":87,"Valence":"Lose","Action":"Go","trial_type":"pit-trial","trial_index":101,"time_elapsed":394844,"internal_node_id":"0.0-101.0"},{"Correct":-1,"Choice":32,"RT":106.46500000078231,"Accuracy":0,"Sham":0,"Outcome":-1,"Block":2,"Trial":88,"Valence":"Lose","Action":"No-Go","trial_type":"pit-trial","trial_index":102,"time_elapsed":397454,"internal_node_id":"0.0-102.0"},{"Correct":32,"Choice":32,"RT":518.8750000016298,"Accuracy":1,"Sham":1,"Outcome":-1,"Block":2,"Trial":89,"Valence":"Lose","Action":"Go","trial_type":"pit-trial","trial_index":103,"time_elapsed":400478,"internal_node_id":"0.0-103.0"},{"Correct":32,"Choice":32,"RT":256.35000000329455,"Accuracy":1,"Sham":1,"Outcome":0,"Block":2,"Trial":90,"Valence":"Win","Action":"Go","trial_type":"pit-trial","trial_index":104,"time_elapsed":403239,"internal_node_id":"0.0-104.0"},{"Correct":-1,"Choice":32,"RT":277.39999999909196,"Accuracy":0,"Sham":0,"Outcome":0,"Block":2,"Trial":91,"Valence":"Win","Action":"No-Go","trial_type":"pit-trial","trial_index":105,"time_elapsed":406021,"internal_node_id":"0.0-105.0"},{"Correct":-1,"Choice":-1,"RT":-1,"Accuracy":1,"Sham":0,"Outcome":0,"Block":2,"Trial":92,"Valence":"Lose","Action":"No-Go","trial_type":"pit-trial","trial_index":106,"time_elapsed":410024,"internal_node_id":"0.0-106.0"},{"Correct":-1,"Choice":-1,"RT":-1,"Accuracy":1,"Sham":0,"Outcome":0,"Block":2,"Trial":93,"Valence":"Lose","Action":"No-Go","trial_type":"pit-trial","trial_index":107,"time_elapsed":414028,"internal_node_id":"0.0-107.0"},{"Correct":32,"Choice":32,"RT":205.3300000007148,"Accuracy":1,"Sham":0,"Outcome":1,"Block":2,"Trial":94,"Valence":"Win","Action":"Go","trial_type":"pit-trial","trial_index":108,"time_elapsed":416738,"internal_node_id":"0.0-108.0"},{"Correct":32,"Choice":-1,"RT":-1,"Accuracy":0,"Sham":0,"Outcome":-1,"Block":2,"Trial":95,"Valence":"Lose","Action":"Go","trial_type":"pit-trial","trial_index":109,"time_elapsed":420741,"internal_node_id":"0.0-109.0"},{"Correct":-1,"Choice":32,"RT":276.7149999999674,"Accuracy":0,"Sham":1,"Outcome":1,"Block":2,"Trial":96,"Valence":"Win","Action":"No-Go","trial_type":"pit-trial","trial_index":110,"time_elapsed":423520,"internal_node_id":"0.0-110.0"},{"Correct":-1,"Choice":-1,"RT":-1,"Accuracy":1,"Sham":1,"Outcome":-1,"Block":2,"Trial":97,"Valence":"Lose","Action":"No-Go","trial_type":"pit-trial","trial_index":111,"time_elapsed":427525,"internal_node_id":"0.0-111.0"},{"Correct":32,"Choice":32,"RT":221.42499999975553,"Accuracy":1,"Sham":0,"Outcome":1,"Block":2,"Trial":98,"Valence":"Win","Action":"Go","trial_type":"pit-trial","trial_index":112,"time_elapsed":430249,"internal_node_id":"0.0-112.0"},{"Correct":32,"Choice":-1,"RT":-1,"Accuracy":0,"Sham":0,"Outcome":-1,"Block":2,"Trial":99,"Valence":"Lose","Action":"Go","trial_type":"pit-trial","trial_index":113,"time_elapsed":434253,"internal_node_id":"0.0-113.0"},{"Correct":-1,"Choice":32,"RT":529.419999998936,"Accuracy":0,"Sham":0,"Outcome":0,"Block":2,"Trial":100,"Valence":"Win","Action":"No-Go","trial_type":"pit-trial","trial_index":114,"time_elapsed":437287,"internal_node_id":"0.0-114.0"},{"Correct":-1,"Choice":-1,"RT":-1,"Accuracy":1,"Sham":0,"Outcome":0,"Block":2,"Trial":101,"Valence":"Lose","Action":"No-Go","trial_type":"pit-trial","trial_index":115,"time_elapsed":441292,"internal_node_id":"0.0-115.0"},{"Correct":32,"Choice":-1,"RT":-1,"Accuracy":0,"Sham":0,"Outcome":-1,"Block":2,"Trial":102,"Valence":"Lose","Action":"Go","trial_type":"pit-trial","trial_index":116,"time_elapsed":445296,"internal_node_id":"0.0-116.0"},{"Correct":32,"Choice":32,"RT":719.1099999981816,"Accuracy":1,"Sham":1,"Outcome":0,"Block":2,"Trial":103,"Valence":"Win","Action":"Go","trial_type":"pit-trial","trial_index":117,"time_elapsed":448519,"internal_node_id":"0.0-117.0"},{"Correct":-1,"Choice":32,"RT":498.4549999971641,"Accuracy":0,"Sham":1,"Outcome":1,"Block":2,"Trial":104,"Valence":"Win","Action":"No-Go","trial_type":"pit-trial","trial_index":118,"time_elapsed":451522,"internal_node_id":"0.0-118.0"},{"Correct":32,"Choice":-1,"RT":-1,"Accuracy":0,"Sham":0,"Outcome":-1,"Block":2,"Trial":105,"Valence":"Lose","Action":"Go","trial_type":"pit-trial","trial_index":119,"time_elapsed":455525,"internal_node_id":"0.0-119.0"},{"Correct":32,"Choice":32,"RT":493.3899999996647,"Accuracy":1,"Sham":0,"Outcome":1,"Block":2,"Trial":106,"Valence":"Win","Action":"Go","trial_type":"pit-trial","trial_index":120,"time_elapsed":458522,"internal_node_id":"0.0-120.0"},{"Correct":-1,"Choice":32,"RT":422.27500000078,"Accuracy":0,"Sham":0,"Outcome":0,"Block":2,"Trial":107,"Valence":"Win","Action":"No-Go","trial_type":"pit-trial","trial_index":121,"time_elapsed":461449,"internal_node_id":"0.0-121.0"},{"Correct":-1,"Choice":32,"RT":127.48500000091735,"Accuracy":0,"Sham":0,"Outcome":-1,"Block":2,"Trial":108,"Valence":"Lose","Action":"No-Go","trial_type":"pit-trial","trial_index":122,"time_elapsed":464081,"internal_node_id":"0.0-122.0"},{"Correct":-1,"Choice":32,"RT":460.5149999988498,"Accuracy":0,"Sham":0,"Outcome":0,"Block":2,"Trial":109,"Valence":"Win","Action":"No-Go","trial_type":"pit-trial","trial_index":123,"time_elapsed":467044,"internal_node_id":"0.0-123.0"},{"Correct":-1,"Choice":32,"RT":246.73499999695923,"Accuracy":0,"Sham":0,"Outcome":-1,"Block":2,"Trial":110,"Valence":"Lose","Action":"No-Go","trial_type":"pit-trial","trial_index":124,"time_elapsed":469794,"internal_node_id":"0.0-124.0"},{"Correct":32,"Choice":32,"RT":286.37499999965075,"Accuracy":1,"Sham":0,"Outcome":1,"Block":2,"Trial":111,"Valence":"Win","Action":"Go","trial_type":"pit-trial","trial_index":125,"time_elapsed":472583,"internal_node_id":"0.0-125.0"},{"Correct":32,"Choice":-1,"RT":-1,"Accuracy":0,"Sham":0,"Outcome":-1,"Block":2,"Trial":112,"Valence":"Lose","Action":"Go","trial_type":"pit-trial","trial_index":126,"time_elapsed":476587,"internal_node_id":"0.0-126.0"},{"Correct":-1,"Choice":32,"RT":436.38000000285683,"Accuracy":0,"Sham":0,"Outcome":0,"Block":2,"Trial":113,"Valence":"Win","Action":"No-Go","trial_type":"pit-trial","trial_index":127,"time_elapsed":479527,"internal_node_id":"0.0-127.0"},{"Correct":-1,"Choice":-1,"RT":-1,"Accuracy":1,"Sham":0,"Outcome":0,"Block":2,"Trial":114,"Valence":"Lose","Action":"No-Go","trial_type":"pit-trial","trial_index":128,"time_elapsed":483530,"internal_node_id":"0.0-128.0"},{"Correct":32,"Choice":-1,"RT":-1,"Accuracy":0,"Sham":1,"Outcome":0,"Block":2,"Trial":115,"Valence":"Lose","Action":"Go","trial_type":"pit-trial","trial_index":129,"time_elapsed":487533,"internal_node_id":"0.0-129.0"},{"Correct":32,"Choice":32,"RT":681.9850000028964,"Accuracy":1,"Sham":0,"Outcome":1,"Block":2,"Trial":116,"Valence":"Win","Action":"Go","trial_type":"pit-trial","trial_index":130,"time_elapsed":490718,"internal_node_id":"0.0-130.0"},{"Correct":-1,"Choice":-1,"RT":-1,"Accuracy":1,"Sham":1,"Outcome":-1,"Block":2,"Trial":117,"Valence":"Lose","Action":"No-Go","trial_type":"pit-trial","trial_index":131,"time_elapsed":494722,"internal_node_id":"0.0-131.0"},{"Correct":32,"Choice":-1,"RT":-1,"Accuracy":0,"Sham":0,"Outcome":-1,"Block":2,"Trial":118,"Valence":"Lose","Action":"Go","trial_type":"pit-trial","trial_index":132,"time_elapsed":498726,"internal_node_id":"0.0-132.0"},{"Correct":-1,"Choice":32,"RT":340.91999999870313,"Accuracy":0,"Sham":0,"Outcome":0,"Block":2,"Trial":119,"Valence":"Win","Action":"No-Go","trial_type":"pit-trial","trial_index":133,"time_elapsed":501570,"internal_node_id":"0.0-133.0"},{"Correct":32,"Choice":32,"RT":279.9649999978719,"Accuracy":1,"Sham":0,"Outcome":1,"Block":2,"Trial":120,"Valence":"Win","Action":"Go","trial_type":"pit-trial","trial_index":134,"time_elapsed":504354,"internal_node_id":"0.0-134.0"},{"Correct":-1,"Choice":32,"RT":427.13999999978114,"Accuracy":0,"Sham":0,"Outcome":0,"Block":2,"Trial":121,"Valence":"Win","Action":"No-Go","trial_type":"pit-trial","trial_index":135,"time_elapsed":507285,"internal_node_id":"0.0-135.0"},{"Correct":-1,"Choice":-1,"RT":-1,"Accuracy":1,"Sham":0,"Outcome":0,"Block":2,"Trial":122,"Valence":"Lose","Action":"No-Go","trial_type":"pit-trial","trial_index":136,"time_elapsed":511290,"internal_node_id":"0.0-136.0"},{"Correct":32,"Choice":32,"RT":1033.9700000004377,"Accuracy":1,"Sham":0,"Outcome":0,"Block":2,"Trial":123,"Valence":"Lose","Action":"Go","trial_type":"pit-trial","trial_index":137,"time_elapsed":514828,"internal_node_id":"0.0-137.0"},{"Correct":32,"Choice":32,"RT":373.66000000113854,"Accuracy":1,"Sham":1,"Outcome":0,"Block":2,"Trial":124,"Valence":"Win","Action":"Go","trial_type":"pit-trial","trial_index":138,"time_elapsed":517704,"internal_node_id":"0.0-138.0"},{"Correct":32,"Choice":-1,"RT":-1,"Accuracy":0,"Sham":1,"Outcome":0,"Block":2,"Trial":125,"Valence":"Lose","Action":"Go","trial_type":"pit-trial","trial_index":139,"time_elapsed":521709,"internal_node_id":"0.0-139.0"},{"Correct":-1,"Choice":-1,"RT":-1,"Accuracy":1,"Sham":0,"Outcome":0,"Block":2,"Trial":126,"Valence":"Lose","Action":"No-Go","trial_type":"pit-trial","trial_index":140,"time_elapsed":525713,"internal_node_id":"0.0-140.0"},{"Correct":-1,"Choice":32,"RT":228.1150000016205,"Accuracy":0,"Sham":0,"Outcome":0,"Block":2,"Trial":127,"Valence":"Win","Action":"No-Go","trial_type":"pit-trial","trial_index":141,"time_elapsed":528444,"internal_node_id":"0.0-141.0"},{"Correct":32,"Choice":32,"RT":281.7350000004517,"Accuracy":1,"Sham":0,"Outcome":1,"Block":2,"Trial":128,"Valence":"Win","Action":"Go","trial_type":"pit-trial","trial_index":142,"time_elapsed":531230,"internal_node_id":"0.0-142.0"},{"Correct":-1,"Choice":-1,"RT":-1,"Accuracy":1,"Sham":0,"Outcome":0,"Block":2,"Trial":129,"Valence":"Lose","Action":"No-Go","trial_type":"pit-trial","trial_index":143,"time_elapsed":535234,"internal_node_id":"0.0-143.0"},{"Correct":32,"Choice":32,"RT":326.07000000274274,"Accuracy":1,"Sham":0,"Outcome":1,"Block":2,"Trial":130,"Valence":"Win","Action":"Go","trial_type":"pit-trial","trial_index":144,"time_elapsed":538063,"internal_node_id":"0.0-144.0"},{"Correct":32,"Choice":-1,"RT":-1,"Accuracy":0,"Sham":0,"Outcome":-1,"Block":2,"Trial":131,"Valence":"Lose","Action":"Go","trial_type":"pit-trial","trial_index":145,"time_elapsed":542067,"internal_node_id":"0.0-145.0"},{"Correct":-1,"Choice":32,"RT":315.8000000003958,"Accuracy":0,"Sham":0,"Outcome":0,"Block":2,"Trial":132,"Valence":"Win","Action":"No-Go","trial_type":"pit-trial","trial_index":146,"time_elapsed":544886,"internal_node_id":"0.0-146.0"},{"Correct":-1,"Choice":-1,"RT":-1,"Accuracy":1,"Sham":0,"Outcome":0,"Block":2,"Trial":133,"Valence":"Lose","Action":"No-Go","trial_type":"pit-trial","trial_index":147,"time_elapsed":548889,"internal_node_id":"0.0-147.0"},{"Correct":32,"Choice":32,"RT":555.4899999988265,"Accuracy":1,"Sham":0,"Outcome":1,"Block":2,"Trial":134,"Valence":"Win","Action":"Go","trial_type":"pit-trial","trial_index":148,"time_elapsed":551948,"internal_node_id":"0.0-148.0"},{"Correct":32,"Choice":-1,"RT":-1,"Accuracy":0,"Sham":0,"Outcome":-1,"Block":2,"Trial":135,"Valence":"Lose","Action":"Go","trial_type":"pit-trial","trial_index":149,"time_elapsed":555952,"internal_node_id":"0.0-149.0"},{"Correct":-1,"Choice":32,"RT":561.4249999999302,"Accuracy":0,"Sham":0,"Outcome":0,"Block":2,"Trial":136,"Valence":"Win","Action":"No-Go","trial_type":"pit-trial","trial_index":150,"time_elapsed":559017,"internal_node_id":"0.0-150.0"},{"Correct":-1,"Choice":-1,"RT":-1,"Accuracy":1,"Sham":1,"Outcome":-1,"Block":2,"Trial":137,"Valence":"Lose","Action":"No-Go","trial_type":"pit-trial","trial_index":151,"time_elapsed":563021,"internal_node_id":"0.0-151.0"},{"Correct":32,"Choice":32,"RT":208.90999999747146,"Accuracy":1,"Sham":0,"Outcome":1,"Block":2,"Trial":138,"Valence":"Win","Action":"Go","trial_type":"pit-trial","trial_index":152,"time_elapsed":565733,"internal_node_id":"0.0-152.0"},{"Correct":32,"Choice":32,"RT":941.6349999991944,"Accuracy":1,"Sham":0,"Outcome":0,"Block":2,"Trial":139,"Valence":"Lose","Action":"Go","trial_type":"pit-trial","trial_index":153,"time_elapsed":569179,"internal_node_id":"0.0-153.0"},{"Correct":-1,"Choice":32,"RT":268.02500000118744,"Accuracy":0,"Sham":1,"Outcome":1,"Block":2,"Trial":140,"Valence":"Win","Action":"No-Go","trial_type":"pit-trial","trial_index":154,"time_elapsed":571952,"internal_node_id":"0.0-154.0"},{"Correct":-1,"Choice":32,"RT":335.58999999868684,"Accuracy":0,"Sham":1,"Outcome":1,"Block":2,"Trial":141,"Valence":"Win","Action":"No-Go","trial_type":"pit-trial","trial_index":155,"time_elapsed":574791,"internal_node_id":"0.0-155.0"},{"Correct":32,"Choice":-1,"RT":-1,"Accuracy":0,"Sham":0,"Outcome":-1,"Block":2,"Trial":142,"Valence":"Lose","Action":"Go","trial_type":"pit-trial","trial_index":156,"time_elapsed":578795,"internal_node_id":"0.0-156.0"},{"Correct":32,"Choice":32,"RT":298.52000000025146,"Accuracy":1,"Sham":0,"Outcome":1,"Block":2,"Trial":143,"Valence":"Win","Action":"Go","trial_type":"pit-trial","trial_index":157,"time_elapsed":581598,"internal_node_id":"0.0-157.0"},{"Correct":-1,"Choice":-1,"RT":-1,"Accuracy":1,"Sham":0,"Outcome":0,"Block":2,"Trial":144,"Valence":"Lose","Action":"No-Go","trial_type":"pit-trial","trial_index":158,"time_elapsed":585602,"internal_node_id":"0.0-158.0"},{"Correct":-1,"Choice":32,"RT":222.42499999993015,"Accuracy":0,"Sham":0,"Outcome":-1,"Block":2,"Trial":145,"Valence":"Lose","Action":"No-Go","trial_type":"pit-trial","trial_index":159,"time_elapsed":588329,"internal_node_id":"0.0-159.0"},{"Correct":32,"Choice":32,"RT":175.26999999966938,"Accuracy":1,"Sham":0,"Outcome":1,"Block":2,"Trial":146,"Valence":"Win","Action":"Go","trial_type":"pit-trial","trial_index":160,"time_elapsed":591009,"internal_node_id":"0.0-160.0"},{"Correct":32,"Choice":-1,"RT":-1,"Accuracy":0,"Sham":0,"Outcome":-1,"Block":2,"Trial":147,"Valence":"Lose","Action":"Go","trial_type":"pit-trial","trial_index":161,"time_elapsed":595012,"internal_node_id":"0.0-161.0"},{"Correct":-1,"Choice":32,"RT":885.5550000007497,"Accuracy":0,"Sham":0,"Outcome":0,"Block":2,"Trial":148,"Valence":"Win","Action":"No-Go","trial_type":"pit-trial","trial_index":162,"time_elapsed":598401,"internal_node_id":"0.0-162.0"},{"Correct":-1,"Choice":32,"RT":279.9349999986589,"Accuracy":0,"Sham":0,"Outcome":0,"Block":2,"Trial":149,"Valence":"Win","Action":"No-Go","trial_type":"pit-trial","trial_index":163,"time_elapsed":601185,"internal_node_id":"0.0-163.0"},{"Correct":-1,"Choice":-1,"RT":-1,"Accuracy":1,"Sham":0,"Outcome":0,"Block":2,"Trial":150,"Valence":"Lose","Action":"No-Go","trial_type":"pit-trial","trial_index":164,"time_elapsed":605189,"internal_node_id":"0.0-164.0"},{"Correct":32,"Choice":-1,"RT":-1,"Accuracy":0,"Sham":0,"Outcome":-1,"Block":2,"Trial":151,"Valence":"Lose","Action":"Go","trial_type":"pit-trial","trial_index":165,"time_elapsed":609193,"internal_node_id":"0.0-165.0"},{"Correct":32,"Choice":32,"RT":196.10499999916647,"Accuracy":1,"Sham":0,"Outcome":1,"Block":2,"Trial":152,"Valence":"Win","Action":"Go","trial_type":"pit-trial","trial_index":166,"time_elapsed":611893,"internal_node_id":"0.0-166.0"},{"Correct":32,"Choice":32,"RT":278.54500000097323,"Accuracy":1,"Sham":0,"Outcome":1,"Block":2,"Trial":153,"Valence":"Win","Action":"Go","trial_type":"pit-trial","trial_index":167,"time_elapsed":614674,"internal_node_id":"0.0-167.0"},{"Correct":-1,"Choice":-1,"RT":-1,"Accuracy":1,"Sham":0,"Outcome":0,"Block":2,"Trial":154,"Valence":"Lose","Action":"No-Go","trial_type":"pit-trial","trial_index":168,"time_elapsed":618678,"internal_node_id":"0.0-168.0"},{"Correct":32,"Choice":-1,"RT":-1,"Accuracy":0,"Sham":0,"Outcome":-1,"Block":2,"Trial":155,"Valence":"Lose","Action":"Go","trial_type":"pit-trial","trial_index":169,"time_elapsed":622681,"internal_node_id":"0.0-169.0"},{"Correct":-1,"Choice":32,"RT":625.7949999999255,"Accuracy":0,"Sham":0,"Outcome":0,"Block":2,"Trial":156,"Valence":"Win","Action":"No-Go","trial_type":"pit-trial","trial_index":170,"time_elapsed":625811,"internal_node_id":"0.0-170.0"},{"Correct":32,"Choice":-1,"RT":-1,"Accuracy":0,"Sham":1,"Outcome":0,"Block":2,"Trial":157,"Valence":"Lose","Action":"Go","trial_type":"pit-trial","trial_index":171,"time_elapsed":629814,"internal_node_id":"0.0-171.0"},{"Correct":-1,"Choice":-1,"RT":-1,"Accuracy":1,"Sham":1,"Outcome":-1,"Block":2,"Trial":158,"Valence":"Lose","Action":"No-Go","trial_type":"pit-trial","trial_index":172,"time_elapsed":633820,"internal_node_id":"0.0-172.0"},{"Correct":-1,"Choice":32,"RT":301.31499999703374,"Accuracy":0,"Sham":0,"Outcome":0,"Block":2,"Trial":159,"Valence":"Win","Action":"No-Go","trial_type":"pit-trial","trial_index":173,"time_elapsed":636625,"internal_node_id":"0.0-173.0"},{"Correct":32,"Choice":32,"RT":901.5350000008475,"Accuracy":1,"Sham":1,"Outcome":0,"Block":2,"Trial":160,"Valence":"Win","Action":"Go","trial_type":"pit-trial","trial_index":174,"time_elapsed":640030,"internal_node_id":"0.0-174.0"},{"rt":19219.629999999655,"demographics":{"age":"45","gender-categorical":"Female","ethnicity":"Not Hispanic or Latino","race":"White","english":"Yes","fluency":"Very well"},"trial_type":"survey-demo","trial_index":175,"time_elapsed":659253,"internal_node_id":"0.0-175.0"},{"rt":19111.775000001187,"debriefgraphics":{"difficulty":"4","fun":"4","clarity":"5","strategy":"not really","feedback":"no thank you"},"trial_type":"survey-debrief","trial_index":176,"time_elapsed":678367,"internal_node_id":"0.0-176.0","interactions":"[]"}]