[{"view_history":"[{\"page_index\":0,\"viewing_time\":3521.584999980405},{\"page_index\":1,\"viewing_time\":5153.615000017453},{\"page_index\":2,\"viewing_time\":7982.259999960661},{\"page_index\":3,\"viewing_time\":6433.640000002924},{\"page_index\":4,\"viewing_time\":6751.625000033528}]","rt":29845.39999999106,"trial_type":"pit-instructions","trial_index":0,"time_elapsed":29848,"internal_node_id":"0.0-0.0"},{"Valence":"Practice","Color":"#fffff080","Rune":"01","Correct":32,"Choice":-1,"RT":-1,"Accuracy":0,"Sham":0,"Outcome":"+0","Keys":[],"TotalKeys":0,"trial_type":"pit-trial","trial_index":1,"time_elapsed":33861,"internal_node_id":"0.0-1.0"},{"Valence":"Practice","Color":"#fffff080","Rune":"01","Correct":32,"Choice":-1,"RT":-1,"Accuracy":0,"Sham":0,"Outcome":"+0","Keys":[],"TotalKeys":0,"trial_type":"pit-trial","trial_index":2,"time_elapsed":37871,"internal_node_id":"0.0-2.0"},{"Valence":"Practice","Color":"#fffff080","Rune":"01","Correct":32,"Choice":-1,"RT":-1,"Accuracy":0,"Sham":0,"Outcome":"+0","Keys":[],"TotalKeys":0,"trial_type":"pit-trial","trial_index":3,"time_elapsed":41884,"internal_node_id":"0.0-3.0"},{"Valence":"Practice","Color":"#fffff080","Rune":"01","Correct":32,"Choice":-1,"RT":-1,"Accuracy":0,"Sham":0,"Outcome":"+0","Keys":[],"TotalKeys":0,"trial_type":"pit-trial","trial_index":4,"time_elapsed":45901,"internal_node_id":"0.0-4.0"},{"view_history":"[{\"page_index\":0,\"viewing_time\":7480.29499995755}]","rt":7483.63499995321,"trial_type":"pit-instructions","trial_index":5,"time_elapsed":53391,"internal_node_id":"0.0-5.0"},{"Valence":"Practice","Color":"#fffff080","Rune":"02","Correct":-1,"Choice":-1,"RT":-1,"Accuracy":1,"Sham":0,"Outcome":"+10","Keys":[],"TotalKeys":0,"trial_type":"pit-trial","trial_index":6,"time_elapsed":57405,"internal_node_id":"0.0-6.0"},{"Valence":"Practice","Color":"#fffff080","Rune":"02","Correct":-1,"Choice":-1,"RT":-1,"Accuracy":1,"Sham":0,"Outcome":"+10","Keys":[],"TotalKeys":0,"trial_type":"pit-trial","trial_index":7,"time_elapsed":61414,"internal_node_id":"0.0-7.0"},{"Valence":"Practice","Color":"#fffff080","Rune":"02","Correct":-1,"Choice":-1,"RT":-1,"Accuracy":1,"Sham":0,"Outcome":"+10","Keys":[],"TotalKeys":0,"trial_type":"pit-trial","trial_index":8,"time_elapsed":65425,"internal_node_id":"0.0-8.0"},{"Valence":"Practice","Color":"#fffff080","Rune":"02","Correct":-1,"Choice":-1,"RT":-1,"Accuracy":1,"Sham":0,"Outcome":"+10","Keys":[],"TotalKeys":0,"trial_type":"pit-trial","trial_index":9,"time_elapsed":69436,"internal_node_id":"0.0-9.0"},{"view_history":"[{\"page_index\":0,\"viewing_time\":5550.249999971129},{\"page_index\":1,\"viewing_time\":6115.800000028685},{\"page_index\":2,\"viewing_time\":12962.089999986347},{\"page_index\":3,\"viewing_time\":12821.739999984857},{\"page_index\":4,\"viewing_time\":6017.749999999069},{\"page_index\":5,\"viewing_time\":6473.055000009481},{\"page_index\":6,\"viewing_time\":3607.4249999946915},{\"page_index\":7,\"viewing_time\":2087.8300000331365}]","rt":55640.09000000078,"trial_type":"pit-instructions","trial_index":10,"time_elapsed":125082,"internal_node_id":"0.0-10.0"},{"rt":24532.245000009425,"responses":"{\"no-press\":\"Do nothing\",\"context-win\":\"+10\",\"context-lose\":\"-1\",\"feedback\":\"True\"}","errors":0,"trial_type":"pit-comprehension","trial_index":11,"time_elapsed":149630,"internal_node_id":"0.0-11.0"},{"view_history":"[{\"page_index\":0,\"viewing_time\":4289.82999996515}]","rt":4293.26999996556,"trial_type":"pit-instructions","trial_index":12,"time_elapsed":153935,"internal_node_id":"0.0-12.0"},{"Valence":"Win","Color":"#ffcc3399","Rune":"05","Correct":-1,"Choice":-1,"RT":-1,"Accuracy":1,"Sham":0,"Outcome":"+10","Keys":[],"TotalKeys":0,"Block":1,"Trial":1,"Action":"No-Go","Robot":2,"trial_type":"pit-trial","trial_index":13,"time_elapsed":157948,"internal_node_id":"0.0-13.0"},{"Valence":"Lose","Color":"#3366ff99","Rune":"03","Correct":32,"Choice":-1,"RT":-1,"Accuracy":0,"Sham":0,"Outcome":"-10","Keys":[],"TotalKeys":0,"Block":1,"Trial":2,"Action":"Go","Robot":3,"trial_type":"pit-trial","trial_index":14,"time_elapsed":161957,"internal_node_id":"0.0-14.0"},{"Valence":"Lose","Color":"#3366ff99","Rune":"04","Correct":-1,"Choice":-1,"RT":-1,"Accuracy":1,"Sham":0,"Outcome":"-1","Keys":[],"TotalKeys":0,"Block":1,"Trial":3,"Action":"No-Go","Robot":4,"trial_type":"pit-trial","trial_index":15,"time_elapsed":165966,"internal_node_id":"0.0-15.0"},{"Valence":"Win","Color":"#ffcc3399","Rune":"06","Correct":32,"Choice":-1,"RT":-1,"Accuracy":0,"Sham":0,"Outcome":"+1","Keys":[],"TotalKeys":0,"Block":1,"Trial":4,"Action":"Go","Robot":1,"trial_type":"pit-trial","trial_index":16,"time_elapsed":169975,"internal_node_id":"0.0-16.0"},{"Valence":"Lose","Color":"#3366ff99","Rune":"03","Correct":32,"Choice":-1,"RT":-1,"Accuracy":0,"Sham":1,"Outcome":"-1","Keys":[3875.479999987874],"TotalKeys":1,"Block":1,"Trial":5,"Action":"Go","Robot":3,"trial_type":"pit-trial","trial_index":17,"time_elapsed":173985,"internal_node_id":"0.0-17.0"},{"Valence":"Lose","Color":"#3366ff99","Rune":"04","Correct":-1,"Choice":32,"RT":554.9400000018068,"Accuracy":0,"Sham":0,"Outcome":"-10","Keys":[2055.065000022296],"TotalKeys":1,"Block":1,"Trial":6,"Action":"No-Go","Robot":4,"trial_type":"pit-trial","trial_index":18,"time_elapsed":177048,"internal_node_id":"0.0-18.0"},{"Valence":"Win","Color":"#ffcc3399","Rune":"06","Correct":32,"Choice":-1,"RT":-1,"Accuracy":0,"Sham":0,"Outcome":"+1","Keys":[1437.8699999651872],"TotalKeys":1,"Block":1,"Trial":7,"Action":"Go","Robot":1,"trial_type":"pit-trial","trial_index":19,"time_elapsed":181057,"internal_node_id":"0.0-19.0"},{"Valence":"Win","Color":"#ffcc3399","Rune":"05","Correct":-1,"Choice":32,"RT":488.82999998750165,"Accuracy":0,"Sham":0,"Outcome":"+1","Keys":[1141.34999999078,1989.354999968782],"TotalKeys":2,"Block":1,"Trial":8,"Action":"No-Go","Robot":2,"trial_type":"pit-trial","trial_index":20,"time_elapsed":184054,"internal_node_id":"0.0-20.0"},{"Valence":"Win","Color":"#ffcc3399","Rune":"06","Correct":32,"Choice":-1,"RT":-1,"Accuracy":0,"Sham":0,"Outcome":"+1","Keys":[1264.4250000012107],"TotalKeys":1,"Block":1,"Trial":9,"Action":"Go","Robot":1,"trial_type":"pit-trial","trial_index":21,"time_elapsed":188063,"internal_node_id":"0.0-21.0"},{"Valence":"Lose","Color":"#3366ff99","Rune":"03","Correct":32,"Choice":32,"RT":89.16500001214445,"Accuracy":1,"Sham":0,"Outcome":"-1","Keys":[1591.1450000130571],"TotalKeys":1,"Block":1,"Trial":10,"Action":"Go","Robot":3,"trial_type":"pit-trial","trial_index":22,"time_elapsed":190662,"internal_node_id":"0.0-22.0"},{"Valence":"Win","Color":"#ffcc3399","Rune":"05","Correct":-1,"Choice":32,"RT":291.7850000085309,"Accuracy":0,"Sham":0,"Outcome":"+1","Keys":[1792.0349999913014],"TotalKeys":1,"Block":1,"Trial":11,"Action":"No-Go","Robot":2,"trial_type":"pit-trial","trial_index":23,"time_elapsed":193462,"internal_node_id":"0.0-23.0"},{"Valence":"Lose","Color":"#3366ff99","Rune":"04","Correct":-1,"Choice":32,"RT":419.14000001270324,"Accuracy":0,"Sham":0,"Outcome":"-10","Keys":[1919.8399999877438],"TotalKeys":1,"Block":1,"Trial":12,"Action":"No-Go","Robot":4,"trial_type":"pit-trial","trial_index":24,"time_elapsed":196390,"internal_node_id":"0.0-24.0"},{"Valence":"Win","Color":"#ffcc3399","Rune":"06","Correct":32,"Choice":32,"RT":531.894999963697,"Accuracy":1,"Sham":0,"Outcome":"+10","Keys":[2033.1549999536946],"TotalKeys":1,"Block":1,"Trial":13,"Action":"Go","Robot":1,"trial_type":"pit-trial","trial_index":25,"time_elapsed":199431,"internal_node_id":"0.0-25.0"},{"Valence":"Win","Color":"#ffcc3399","Rune":"05","Correct":-1,"Choice":32,"RT":465.7600000500679,"Accuracy":0,"Sham":0,"Outcome":"+1","Keys":[1966.725000005681],"TotalKeys":1,"Block":1,"Trial":14,"Action":"No-Go","Robot":2,"trial_type":"pit-trial","trial_index":26,"time_elapsed":202407,"internal_node_id":"0.0-26.0"},{"Valence":"Lose","Color":"#3366ff99","Rune":"03","Correct":32,"Choice":32,"RT":130.18999999621883,"Accuracy":1,"Sham":0,"Outcome":"-1","Keys":[1630.8949999511242],"TotalKeys":1,"Block":1,"Trial":15,"Action":"Go","Robot":3,"trial_type":"pit-trial","trial_index":27,"time_elapsed":205046,"internal_node_id":"0.0-27.0"},{"Valence":"Lose","Color":"#3366ff99","Rune":"04","Correct":-1,"Choice":32,"RT":116.21000000741333,"Accuracy":0,"Sham":1,"Outcome":"-1","Keys":[1616.9649999937974],"TotalKeys":1,"Block":1,"Trial":16,"Action":"No-Go","Robot":4,"trial_type":"pit-trial","trial_index":28,"time_elapsed":207670,"internal_node_id":"0.0-28.0"},{"Valence":"Win","Color":"#ffcc3399","Rune":"06","Correct":32,"Choice":-1,"RT":-1,"Accuracy":0,"Sham":1,"Outcome":"+10","Keys":[],"TotalKeys":0,"Block":1,"Trial":17,"Action":"Go","Robot":1,"trial_type":"pit-trial","trial_index":29,"time_elapsed":211681,"internal_node_id":"0.0-29.0"},{"Valence":"Lose","Color":"#3366ff99","Rune":"03","Correct":32,"Choice":-1,"RT":-1,"Accuracy":0,"Sham":0,"Outcome":"-10","Keys":[],"TotalKeys":0,"Block":1,"Trial":18,"Action":"Go","Robot":3,"trial_type":"pit-trial","trial_index":30,"time_elapsed":215691,"internal_node_id":"0.0-30.0"},{"Valence":"Win","Color":"#ffcc3399","Rune":"05","Correct":-1,"Choice":-1,"RT":-1,"Accuracy":1,"Sham":1,"Outcome":"1","Keys":[],"TotalKeys":0,"Block":1,"Trial":19,"Action":"No-Go","Robot":2,"trial_type":"pit-trial","trial_index":31,"time_elapsed":219700,"internal_node_id":"0.0-31.0"},{"Valence":"Lose","Color":"#3366ff99","Rune":"04","Correct":-1,"Choice":32,"RT":1221.320000011474,"Accuracy":0,"Sham":0,"Outcome":"-10","Keys":[2722.8200000245124],"TotalKeys":1,"Block":1,"Trial":20,"Action":"No-Go","Robot":4,"trial_type":"pit-trial","trial_index":32,"time_elapsed":223431,"internal_node_id":"0.0-32.0"},{"Valence":"Lose","Color":"#3366ff99","Rune":"04","Correct":-1,"Choice":-1,"RT":-1,"Accuracy":1,"Sham":0,"Outcome":"-1","Keys":[],"TotalKeys":0,"Block":1,"Trial":21,"Action":"No-Go","Robot":4,"trial_type":"pit-trial","trial_index":33,"time_elapsed":227441,"internal_node_id":"0.0-33.0"},{"Valence":"Win","Color":"#ffcc3399","Rune":"05","Correct":-1,"Choice":-1,"RT":-1,"Accuracy":1,"Sham":0,"Outcome":"+10","Keys":[],"TotalKeys":0,"Block":1,"Trial":22,"Action":"No-Go","Robot":2,"trial_type":"pit-trial","trial_index":34,"time_elapsed":231452,"internal_node_id":"0.0-34.0"},{"Valence":"Win","Color":"#ffcc3399","Rune":"06","Correct":32,"Choice":-1,"RT":-1,"Accuracy":0,"Sham":0,"Outcome":"+1","Keys":[],"TotalKeys":0,"Block":1,"Trial":23,"Action":"Go","Robot":1,"trial_type":"pit-trial","trial_index":35,"time_elapsed":235463,"internal_node_id":"0.0-35.0"},{"Valence":"Lose","Color":"#3366ff99","Rune":"03","Correct":32,"Choice":-1,"RT":-1,"Accuracy":0,"Sham":0,"Outcome":"-10","Keys":[1328.589999990072],"TotalKeys":1,"Block":1,"Trial":24,"Action":"Go","Robot":3,"trial_type":"pit-trial","trial_index":36,"time_elapsed":239472,"internal_node_id":"0.0-36.0"},{"Valence":"Lose","Color":"#3366ff99","Rune":"04","Correct":-1,"Choice":32,"RT":618.9399999566376,"Accuracy":0,"Sham":0,"Outcome":"-10","Keys":[2119.3900000071153],"TotalKeys":1,"Block":1,"Trial":25,"Action":"No-Go","Robot":4,"trial_type":"pit-trial","trial_index":37,"time_elapsed":242600,"internal_node_id":"0.0-37.0"},{"Valence":"Win","Color":"#ffcc3399","Rune":"06","Correct":32,"Choice":32,"RT":114.88000000827014,"Accuracy":1,"Sham":0,"Outcome":"+10","Keys":[1615.4249999672174],"TotalKeys":1,"Block":1,"Trial":26,"Action":"Go","Robot":1,"trial_type":"pit-trial","trial_index":38,"time_elapsed":245223,"internal_node_id":"0.0-38.0"},{"Valence":"Lose","Color":"#3366ff99","Rune":"03","Correct":32,"Choice":-1,"RT":-1,"Accuracy":0,"Sham":0,"Outcome":"-10","Keys":[],"TotalKeys":0,"Block":1,"Trial":27,"Action":"Go","Robot":3,"trial_type":"pit-trial","trial_index":39,"time_elapsed":249235,"internal_node_id":"0.0-39.0"},{"Valence":"Win","Color":"#ffcc3399","Rune":"05","Correct":-1,"Choice":32,"RT":386.2850000150502,"Accuracy":0,"Sham":0,"Outcome":"+1","Keys":[1887.0050000259653],"TotalKeys":1,"Block":1,"Trial":28,"Action":"No-Go","Robot":2,"trial_type":"pit-trial","trial_index":40,"time_elapsed":252135,"internal_node_id":"0.0-40.0"},{"Valence":"Lose","Color":"#3366ff99","Rune":"03","Correct":32,"Choice":-1,"RT":-1,"Accuracy":0,"Sham":0,"Outcome":"-10","Keys":[],"TotalKeys":0,"Block":1,"Trial":29,"Action":"Go","Robot":3,"trial_type":"pit-trial","trial_index":41,"time_elapsed":256145,"internal_node_id":"0.0-41.0"},{"Valence":"Win","Color":"#ffcc3399","Rune":"05","Correct":-1,"Choice":-1,"RT":-1,"Accuracy":1,"Sham":1,"Outcome":"1","Keys":[],"TotalKeys":0,"Block":1,"Trial":30,"Action":"No-Go","Robot":2,"trial_type":"pit-trial","trial_index":42,"time_elapsed":260156,"internal_node_id":"0.0-42.0"},{"Valence":"Win","Color":"#ffcc3399","Rune":"06","Correct":32,"Choice":-1,"RT":-1,"Accuracy":0,"Sham":1,"Outcome":"+10","Keys":[],"TotalKeys":0,"Block":1,"Trial":31,"Action":"Go","Robot":1,"trial_type":"pit-trial","trial_index":43,"time_elapsed":264165,"internal_node_id":"0.0-43.0"},{"Valence":"Lose","Color":"#3366ff99","Rune":"04","Correct":-1,"Choice":32,"RT":357.5300000375137,"Accuracy":0,"Sham":0,"Outcome":"-10","Keys":[1858.4249999839813],"TotalKeys":1,"Block":1,"Trial":32,"Action":"No-Go","Robot":4,"trial_type":"pit-trial","trial_index":44,"time_elapsed":267031,"internal_node_id":"0.0-44.0"},{"Valence":"Lose","Color":"#3366ff99","Rune":"04","Correct":-1,"Choice":32,"RT":562.5299999956042,"Accuracy":0,"Sham":0,"Outcome":"-10","Keys":[2063.0599999567494],"TotalKeys":1,"Block":1,"Trial":33,"Action":"No-Go","Robot":4,"trial_type":"pit-trial","trial_index":45,"time_elapsed":270103,"internal_node_id":"0.0-45.0"},{"Valence":"Win","Color":"#ffcc3399","Rune":"05","Correct":-1,"Choice":-1,"RT":-1,"Accuracy":1,"Sham":0,"Outcome":"+10","Keys":[],"TotalKeys":0,"Block":1,"Trial":34,"Action":"No-Go","Robot":2,"trial_type":"pit-trial","trial_index":46,"time_elapsed":274112,"internal_node_id":"0.0-46.0"},{"Valence":"Win","Color":"#ffcc3399","Rune":"06","Correct":32,"Choice":-1,"RT":-1,"Accuracy":0,"Sham":0,"Outcome":"+1","Keys":[],"TotalKeys":0,"Block":1,"Trial":35,"Action":"Go","Robot":1,"trial_type":"pit-trial","trial_index":47,"time_elapsed":278122,"internal_node_id":"0.0-47.0"},{"Valence":"Lose","Color":"#3366ff99","Rune":"03","Correct":32,"Choice":32,"RT":704.0950000518933,"Accuracy":1,"Sham":1,"Outcome":"-10","Keys":[2204.5299999881536],"TotalKeys":1,"Block":1,"Trial":36,"Action":"Go","Robot":3,"trial_type":"pit-trial","trial_index":48,"time_elapsed":281336,"internal_node_id":"0.0-48.0"},{"Valence":"Lose","Color":"#3366ff99","Rune":"04","Correct":-1,"Choice":32,"RT":706.6549999872223,"Accuracy":0,"Sham":1,"Outcome":"-1","Keys":[2208.0800000112504],"TotalKeys":1,"Block":1,"Trial":37,"Action":"No-Go","Robot":4,"trial_type":"pit-trial","trial_index":49,"time_elapsed":284553,"internal_node_id":"0.0-49.0"},{"Valence":"Lose","Color":"#3366ff99","Rune":"03","Correct":32,"Choice":-1,"RT":-1,"Accuracy":0,"Sham":0,"Outcome":"-10","Keys":[],"TotalKeys":0,"Block":1,"Trial":38,"Action":"Go","Robot":3,"trial_type":"pit-trial","trial_index":50,"time_elapsed":288561,"internal_node_id":"0.0-50.0"},{"Valence":"Win","Color":"#ffcc3399","Rune":"06","Correct":32,"Choice":-1,"RT":-1,"Accuracy":0,"Sham":0,"Outcome":"+1","Keys":[],"TotalKeys":0,"Block":1,"Trial":39,"Action":"Go","Robot":1,"trial_type":"pit-trial","trial_index":51,"time_elapsed":292570,"internal_node_id":"0.0-51.0"},{"Valence":"Win","Color":"#ffcc3399","Rune":"05","Correct":-1,"Choice":-1,"RT":-1,"Accuracy":1,"Sham":0,"Outcome":"+10","Keys":[],"TotalKeys":0,"Block":1,"Trial":40,"Action":"No-Go","Robot":2,"trial_type":"pit-trial","trial_index":52,"time_elapsed":296580,"internal_node_id":"0.0-52.0"},{"Valence":"Lose","Color":"#3366ff99","Rune":"03","Correct":32,"Choice":32,"RT":500.44999993406236,"Accuracy":1,"Sham":1,"Outcome":"-10","Keys":[2001.2250000145286],"TotalKeys":1,"Block":1,"Trial":41,"Action":"Go","Robot":3,"trial_type":"pit-trial","trial_index":53,"time_elapsed":299591,"internal_node_id":"0.0-53.0"},{"Valence":"Win","Color":"#ffcc3399","Rune":"05","Correct":-1,"Choice":-1,"RT":-1,"Accuracy":1,"Sham":0,"Outcome":"+10","Keys":[],"TotalKeys":0,"Block":1,"Trial":42,"Action":"No-Go","Robot":2,"trial_type":"pit-trial","trial_index":54,"time_elapsed":303600,"internal_node_id":"0.0-54.0"},{"Valence":"Lose","Color":"#3366ff99","Rune":"04","Correct":-1,"Choice":32,"RT":456.91499998793006,"Accuracy":0,"Sham":0,"Outcome":"-10","Keys":[1957.2850000113249],"TotalKeys":1,"Block":1,"Trial":43,"Action":"No-Go","Robot":4,"trial_type":"pit-trial","trial_index":55,"time_elapsed":306566,"internal_node_id":"0.0-55.0"},{"Valence":"Win","Color":"#ffcc3399","Rune":"06","Correct":32,"Choice":-1,"RT":-1,"Accuracy":0,"Sham":0,"Outcome":"+1","Keys":[],"TotalKeys":0,"Block":1,"Trial":44,"Action":"Go","Robot":1,"trial_type":"pit-trial","trial_index":56,"time_elapsed":310575,"internal_node_id":"0.0-56.0"},{"Valence":"Lose","Color":"#3366ff99","Rune":"04","Correct":-1,"Choice":-1,"RT":-1,"Accuracy":1,"Sham":0,"Outcome":"-1","Keys":[],"TotalKeys":0,"Block":1,"Trial":45,"Action":"No-Go","Robot":4,"trial_type":"pit-trial","trial_index":57,"time_elapsed":314584,"internal_node_id":"0.0-57.0"},{"Valence":"Win","Color":"#ffcc3399","Rune":"05","Correct":-1,"Choice":32,"RT":352.98000008333474,"Accuracy":0,"Sham":1,"Outcome":"+10","Keys":[1854.2400000151247],"TotalKeys":1,"Block":1,"Trial":46,"Action":"No-Go","Robot":2,"trial_type":"pit-trial","trial_index":58,"time_elapsed":317446,"internal_node_id":"0.0-58.0"},{"Valence":"Lose","Color":"#3366ff99","Rune":"03","Correct":32,"Choice":32,"RT":532.1700000204146,"Accuracy":1,"Sham":0,"Outcome":"-1","Keys":[2032.2650000452995],"TotalKeys":1,"Block":1,"Trial":47,"Action":"Go","Robot":3,"trial_type":"pit-trial","trial_index":59,"time_elapsed":320486,"internal_node_id":"0.0-59.0"},{"Valence":"Win","Color":"#ffcc3399","Rune":"06","Correct":32,"Choice":-1,"RT":-1,"Accuracy":0,"Sham":0,"Outcome":"+1","Keys":[],"TotalKeys":0,"Block":1,"Trial":48,"Action":"Go","Robot":1,"trial_type":"pit-trial","trial_index":60,"time_elapsed":324496,"internal_node_id":"0.0-60.0"},{"Valence":"Lose","Color":"#3366ff99","Rune":"04","Correct":-1,"Choice":32,"RT":393.7399999704212,"Accuracy":0,"Sham":0,"Outcome":"-10","Keys":[1893.8700000289828],"TotalKeys":1,"Block":1,"Trial":49,"Action":"No-Go","Robot":4,"trial_type":"pit-trial","trial_index":61,"time_elapsed":327398,"internal_node_id":"0.0-61.0"},{"Valence":"Win","Color":"#ffcc3399","Rune":"06","Correct":32,"Choice":32,"RT":867.2349998960271,"Accuracy":1,"Sham":0,"Outcome":"+10","Keys":[2367.599999997765],"TotalKeys":1,"Block":1,"Trial":50,"Action":"Go","Robot":1,"trial_type":"pit-trial","trial_index":62,"time_elapsed":330774,"internal_node_id":"0.0-62.0"},{"Valence":"Win","Color":"#ffcc3399","Rune":"05","Correct":-1,"Choice":32,"RT":787.8349999664351,"Accuracy":0,"Sham":0,"Outcome":"+1","Keys":[2287.9200000315905],"TotalKeys":1,"Block":1,"Trial":51,"Action":"No-Go","Robot":2,"trial_type":"pit-trial","trial_index":63,"time_elapsed":334070,"internal_node_id":"0.0-63.0"},{"Valence":"Lose","Color":"#3366ff99","Rune":"03","Correct":32,"Choice":32,"RT":562.5099999597296,"Accuracy":1,"Sham":0,"Outcome":"-1","Keys":[2063.8899999903515],"TotalKeys":1,"Block":1,"Trial":52,"Action":"Go","Robot":3,"trial_type":"pit-trial","trial_index":64,"time_elapsed":337142,"internal_node_id":"0.0-64.0"},{"Valence":"Win","Color":"#ffcc3399","Rune":"05","Correct":-1,"Choice":-1,"RT":-1,"Accuracy":1,"Sham":0,"Outcome":"+10","Keys":[],"TotalKeys":0,"Block":1,"Trial":53,"Action":"No-Go","Robot":2,"trial_type":"pit-trial","trial_index":65,"time_elapsed":341152,"internal_node_id":"0.0-65.0"},{"Valence":"Lose","Color":"#3366ff99","Rune":"03","Correct":32,"Choice":32,"RT":664.3049999838695,"Accuracy":1,"Sham":0,"Outcome":"-1","Keys":[2164.9800000013784],"TotalKeys":1,"Block":1,"Trial":54,"Action":"Go","Robot":3,"trial_type":"pit-trial","trial_index":66,"time_elapsed":344327,"internal_node_id":"0.0-66.0"},{"Valence":"Lose","Color":"#3366ff99","Rune":"04","Correct":-1,"Choice":32,"RT":529.3349999701604,"Accuracy":0,"Sham":0,"Outcome":"-10","Keys":[2029.5799999730662],"TotalKeys":1,"Block":1,"Trial":55,"Action":"No-Go","Robot":4,"trial_type":"pit-trial","trial_index":67,"time_elapsed":347367,"internal_node_id":"0.0-67.0"},{"Valence":"Win","Color":"#ffcc3399","Rune":"06","Correct":32,"Choice":-1,"RT":-1,"Accuracy":0,"Sham":0,"Outcome":"+1","Keys":[],"TotalKeys":0,"Block":1,"Trial":56,"Action":"Go","Robot":1,"trial_type":"pit-trial","trial_index":68,"time_elapsed":351377,"internal_node_id":"0.0-68.0"},{"Valence":"Win","Color":"#ffcc3399","Rune":"06","Correct":32,"Choice":-1,"RT":-1,"Accuracy":0,"Sham":1,"Outcome":"+10","Keys":[],"TotalKeys":0,"Block":1,"Trial":57,"Action":"Go","Robot":1,"trial_type":"pit-trial","trial_index":69,"time_elapsed":355387,"internal_node_id":"0.0-69.0"},{"Valence":"Lose","Color":"#3366ff99","Rune":"03","Correct":32,"Choice":32,"RT":367.1099999919534,"Accuracy":1,"Sham":0,"Outcome":"-1","Keys":[1867.3450000351295],"TotalKeys":1,"Block":1,"Trial":58,"Action":"Go","Robot":3,"trial_type":"pit-trial","trial_index":70,"time_elapsed":358263,"internal_node_id":"0.0-70.0"},{"Valence":"Lose","Color":"#3366ff99","Rune":"04","Correct":-1,"Choice":-1,"RT":-1,"Accuracy":1,"Sham":1,"Outcome":"-10","Keys":[],"TotalKeys":0,"Block":1,"Trial":59,"Action":"No-Go","Robot":4,"trial_type":"pit-trial","trial_index":71,"time_elapsed":362274,"internal_node_id":"0.0-71.0"},{"Valence":"Win","Color":"#ffcc3399","Rune":"05","Correct":-1,"Choice":-1,"RT":-1,"Accuracy":1,"Sham":0,"Outcome":"+10","Keys":[],"TotalKeys":0,"Block":1,"Trial":60,"Action":"No-Go","Robot":2,"trial_type":"pit-trial","trial_index":72,"time_elapsed":366291,"internal_node_id":"0.0-72.0"},{"Valence":"Win","Color":"#ffcc3399","Rune":"05","Correct":-1,"Choice":-1,"RT":-1,"Accuracy":1,"Sham":0,"Outcome":"+10","Keys":[],"TotalKeys":0,"Block":1,"Trial":61,"Action":"No-Go","Robot":2,"trial_type":"pit-trial","trial_index":73,"time_elapsed":370302,"internal_node_id":"0.0-73.0"},{"Valence":"Lose","Color":"#3366ff99","Rune":"03","Correct":32,"Choice":32,"RT":636.9100000010803,"Accuracy":1,"Sham":0,"Outcome":"-1","Keys":[2137.6199999358505],"TotalKeys":1,"Block":1,"Trial":62,"Action":"Go","Robot":3,"trial_type":"pit-trial","trial_index":74,"time_elapsed":373446,"internal_node_id":"0.0-74.0"},{"Valence":"Lose","Color":"#3366ff99","Rune":"04","Correct":-1,"Choice":-1,"RT":-1,"Accuracy":1,"Sham":0,"Outcome":"-1","Keys":[],"TotalKeys":0,"Block":1,"Trial":63,"Action":"No-Go","Robot":4,"trial_type":"pit-trial","trial_index":75,"time_elapsed":377455,"internal_node_id":"0.0-75.0"},{"Valence":"Win","Color":"#ffcc3399","Rune":"06","Correct":32,"Choice":-1,"RT":-1,"Accuracy":0,"Sham":0,"Outcome":"+1","Keys":[],"TotalKeys":0,"Block":1,"Trial":64,"Action":"Go","Robot":1,"trial_type":"pit-trial","trial_index":76,"time_elapsed":381464,"internal_node_id":"0.0-76.0"},{"Valence":"Win","Color":"#ffcc3399","Rune":"05","Correct":-1,"Choice":-1,"RT":-1,"Accuracy":1,"Sham":0,"Outcome":"+10","Keys":[],"TotalKeys":0,"Block":1,"Trial":65,"Action":"No-Go","Robot":2,"trial_type":"pit-trial","trial_index":77,"time_elapsed":385472,"internal_node_id":"0.0-77.0"},{"Valence":"Lose","Color":"#3366ff99","Rune":"04","Correct":-1,"Choice":32,"RT":505.6249999906868,"Accuracy":0,"Sham":0,"Outcome":"-10","Keys":[2006.649999995716],"TotalKeys":1,"Block":1,"Trial":66,"Action":"No-Go","Robot":4,"trial_type":"pit-trial","trial_index":78,"time_elapsed":388488,"internal_node_id":"0.0-78.0"},{"Valence":"Win","Color":"#ffcc3399","Rune":"06","Correct":32,"Choice":-1,"RT":-1,"Accuracy":0,"Sham":1,"Outcome":"+10","Keys":[],"TotalKeys":0,"Block":1,"Trial":67,"Action":"Go","Robot":1,"trial_type":"pit-trial","trial_index":79,"time_elapsed":392497,"internal_node_id":"0.0-79.0"},{"Valence":"Lose","Color":"#3366ff99","Rune":"03","Correct":32,"Choice":32,"RT":856.5399999497458,"Accuracy":1,"Sham":0,"Outcome":"-1","Keys":[2357.3199999518692],"TotalKeys":1,"Block":1,"Trial":68,"Action":"Go","Robot":3,"trial_type":"pit-trial","trial_index":80,"time_elapsed":395864,"internal_node_id":"0.0-80.0"},{"Valence":"Lose","Color":"#3366ff99","Rune":"04","Correct":-1,"Choice":32,"RT":754.4249999336898,"Accuracy":0,"Sham":1,"Outcome":"-1","Keys":[2255.5399999255314],"TotalKeys":1,"Block":1,"Trial":69,"Action":"No-Go","Robot":4,"trial_type":"pit-trial","trial_index":81,"time_elapsed":399128,"internal_node_id":"0.0-81.0"},{"Valence":"Lose","Color":"#3366ff99","Rune":"03","Correct":32,"Choice":32,"RT":545.9950000513345,"Accuracy":1,"Sham":0,"Outcome":"-1","Keys":[2046.4400000637397],"TotalKeys":1,"Block":1,"Trial":70,"Action":"Go","Robot":3,"trial_type":"pit-trial","trial_index":82,"time_elapsed":402183,"internal_node_id":"0.0-82.0"},{"Valence":"Win","Color":"#ffcc3399","Rune":"06","Correct":32,"Choice":32,"RT":546.4500000234693,"Accuracy":1,"Sham":0,"Outcome":"+10","Keys":[2047.6049999706447],"TotalKeys":1,"Block":1,"Trial":71,"Action":"Go","Robot":1,"trial_type":"pit-trial","trial_index":83,"time_elapsed":405239,"internal_node_id":"0.0-83.0"},{"Valence":"Win","Color":"#ffcc3399","Rune":"05","Correct":-1,"Choice":-1,"RT":-1,"Accuracy":1,"Sham":0,"Outcome":"+10","Keys":[],"TotalKeys":0,"Block":1,"Trial":72,"Action":"No-Go","Robot":2,"trial_type":"pit-trial","trial_index":84,"time_elapsed":409248,"internal_node_id":"0.0-84.0"},{"Valence":"Win","Color":"#ffcc3399","Rune":"05","Correct":-1,"Choice":-1,"RT":-1,"Accuracy":1,"Sham":0,"Outcome":"+10","Keys":[],"TotalKeys":0,"Block":1,"Trial":73,"Action":"No-Go","Robot":2,"trial_type":"pit-trial","trial_index":85,"time_elapsed":413257,"internal_node_id":"0.0-85.0"},{"Valence":"Lose","Color":"#3366ff99","Rune":"03","Correct":32,"Choice":32,"RT":639.5400000037625,"Accuracy":1,"Sham":1,"Outcome":"-10","Keys":[2140.315000084229],"TotalKeys":1,"Block":1,"Trial":74,"Action":"Go","Robot":3,"trial_type":"pit-trial","trial_index":86,"time_elapsed":416408,"internal_node_id":"0.0-86.0"},{"Valence":"Win","Color":"#ffcc3399","Rune":"06","Correct":32,"Choice":-1,"RT":-1,"Accuracy":0,"Sham":0,"Outcome":"+1","Keys":[],"TotalKeys":0,"Block":1,"Trial":75,"Action":"Go","Robot":1,"trial_type":"pit-trial","trial_index":87,"time_elapsed":420418,"internal_node_id":"0.0-87.0"},{"Valence":"Lose","Color":"#3366ff99","Rune":"04","Correct":-1,"Choice":32,"RT":508.28499998897314,"Accuracy":0,"Sham":0,"Outcome":"-10","Keys":[2008.9399999706075],"TotalKeys":1,"Block":1,"Trial":76,"Action":"No-Go","Robot":4,"trial_type":"pit-trial","trial_index":88,"time_elapsed":423447,"internal_node_id":"0.0-88.0"},{"Valence":"Win","Color":"#ffcc3399","Rune":"05","Correct":-1,"Choice":-1,"RT":-1,"Accuracy":1,"Sham":1,"Outcome":"1","Keys":[],"TotalKeys":0,"Block":1,"Trial":77,"Action":"No-Go","Robot":2,"trial_type":"pit-trial","trial_index":89,"time_elapsed":427456,"internal_node_id":"0.0-89.0"},{"Valence":"Win","Color":"#ffcc3399","Rune":"06","Correct":32,"Choice":-1,"RT":-1,"Accuracy":0,"Sham":0,"Outcome":"+1","Keys":[],"TotalKeys":0,"Block":1,"Trial":78,"Action":"Go","Robot":1,"trial_type":"pit-trial","trial_index":90,"time_elapsed":431466,"internal_node_id":"0.0-90.0"},{"Valence":"Lose","Color":"#3366ff99","Rune":"04","Correct":-1,"Choice":32,"RT":560.5450000148267,"Accuracy":0,"Sham":0,"Outcome":"-10","Keys":[2061.589999939315],"TotalKeys":1,"Block":1,"Trial":79,"Action":"No-Go","Robot":4,"trial_type":"pit-trial","trial_index":91,"time_elapsed":434536,"internal_node_id":"0.0-91.0"},{"Valence":"Lose","Color":"#3366ff99","Rune":"03","Correct":32,"Choice":32,"RT":621.0649999557063,"Accuracy":1,"Sham":0,"Outcome":"-1","Keys":[2121.64499994833],"TotalKeys":1,"Block":1,"Trial":80,"Action":"Go","Robot":3,"trial_type":"pit-trial","trial_index":92,"time_elapsed":437671,"internal_node_id":"0.0-92.0"},{"value":false,"trial_type":"call-function","trial_index":93,"time_elapsed":437678,"internal_node_id":"0.0-93.0"},{"RT":2072.6550000254065,"trial_type":"pit-pause","trial_index":94,"time_elapsed":441150,"internal_node_id":"0.0-94.0"},{"Valence":"Win","Color":"#ffcc3399","Rune":"06","Correct":32,"Choice":32,"RT":782.2300000116229,"Accuracy":1,"Sham":0,"Outcome":"+10","Keys":[2282.4649999383837],"TotalKeys":1,"Block":2,"Trial":81,"Action":"Go","Robot":1,"trial_type":"pit-trial","trial_index":95,"time_elapsed":444440,"internal_node_id":"0.0-95.0"},{"Valence":"Win","Color":"#ffcc3399","Rune":"05","Correct":-1,"Choice":32,"RT":306.3449999317527,"Accuracy":0,"Sham":0,"Outcome":"+1","Keys":[1806.8950000451878],"TotalKeys":1,"Block":2,"Trial":82,"Action":"No-Go","Robot":2,"trial_type":"pit-trial","trial_index":96,"time_elapsed":447256,"internal_node_id":"0.0-96.0"},{"Valence":"Lose","Color":"#3366ff99","Rune":"04","Correct":-1,"Choice":32,"RT":385.4600000195205,"Accuracy":0,"Sham":0,"Outcome":"-10","Keys":[1886.7300000274554],"TotalKeys":1,"Block":2,"Trial":83,"Action":"No-Go","Robot":4,"trial_type":"pit-trial","trial_index":97,"time_elapsed":450151,"internal_node_id":"0.0-97.0"},{"Valence":"Lose","Color":"#3366ff99","Rune":"03","Correct":32,"Choice":32,"RT":418.01999998278916,"Accuracy":1,"Sham":0,"Outcome":"-1","Keys":[1919.3550000200048],"TotalKeys":1,"Block":2,"Trial":84,"Action":"Go","Robot":3,"trial_type":"pit-trial","trial_index":98,"time_elapsed":453079,"internal_node_id":"0.0-98.0"},{"Valence":"Win","Color":"#ffcc3399","Rune":"06","Correct":32,"Choice":-1,"RT":-1,"Accuracy":0,"Sham":0,"Outcome":"+1","Keys":[],"TotalKeys":0,"Block":2,"Trial":85,"Action":"Go","Robot":1,"trial_type":"pit-trial","trial_index":99,"time_elapsed":457087,"internal_node_id":"0.0-99.0"},{"Valence":"Win","Color":"#ffcc3399","Rune":"05","Correct":-1,"Choice":32,"RT":507.29999993927777,"Accuracy":0,"Sham":0,"Outcome":"+1","Keys":[2007.4749999912456],"TotalKeys":1,"Block":2,"Trial":86,"Action":"No-Go","Robot":2,"trial_type":"pit-trial","trial_index":100,"time_elapsed":460104,"internal_node_id":"0.0-100.0"},{"Valence":"Lose","Color":"#3366ff99","Rune":"03","Correct":32,"Choice":32,"RT":450.75999991968274,"Accuracy":1,"Sham":0,"Outcome":"-1","Keys":[1951.839999994263],"TotalKeys":1,"Block":2,"Trial":87,"Action":"Go","Robot":3,"trial_type":"pit-trial","trial_index":101,"time_elapsed":463063,"internal_node_id":"0.0-101.0"},{"Valence":"Lose","Color":"#3366ff99","Rune":"04","Correct":-1,"Choice":32,"RT":770.8250000141561,"Accuracy":0,"Sham":0,"Outcome":"-10","Keys":[2271.409999928437],"TotalKeys":1,"Block":2,"Trial":88,"Action":"No-Go","Robot":4,"trial_type":"pit-trial","trial_index":102,"time_elapsed":466343,"internal_node_id":"0.0-102.0"},{"Valence":"Lose","Color":"#3366ff99","Rune":"03","Correct":32,"Choice":32,"RT":531.0250000329688,"Accuracy":1,"Sham":1,"Outcome":"-10","Keys":[2032.0950000314042],"TotalKeys":1,"Block":2,"Trial":89,"Action":"Go","Robot":3,"trial_type":"pit-trial","trial_index":103,"time_elapsed":469384,"internal_node_id":"0.0-103.0"},{"Valence":"Win","Color":"#ffcc3399","Rune":"06","Correct":32,"Choice":-1,"RT":-1,"Accuracy":0,"Sham":1,"Outcome":"+10","Keys":[],"TotalKeys":0,"Block":2,"Trial":90,"Action":"Go","Robot":1,"trial_type":"pit-trial","trial_index":104,"time_elapsed":473393,"internal_node_id":"0.0-104.0"},{"Valence":"Win","Color":"#ffcc3399","Rune":"05","Correct":-1,"Choice":32,"RT":1400.8500000927597,"Accuracy":0,"Sham":0,"Outcome":"+1","Keys":[2901.83500002604],"TotalKeys":1,"Block":2,"Trial":91,"Action":"No-Go","Robot":2,"trial_type":"pit-trial","trial_index":105,"time_elapsed":477302,"internal_node_id":"0.0-105.0"},{"Valence":"Lose","Color":"#3366ff99","Rune":"04","Correct":-1,"Choice":32,"RT":499.8749999795109,"Accuracy":0,"Sham":0,"Outcome":"-10","Keys":[2000.3799999831244],"TotalKeys":1,"Block":2,"Trial":92,"Action":"No-Go","Robot":4,"trial_type":"pit-trial","trial_index":106,"time_elapsed":480311,"internal_node_id":"0.0-106.0"},{"Valence":"Lose","Color":"#3366ff99","Rune":"04","Correct":-1,"Choice":32,"RT":577.9650000622496,"Accuracy":0,"Sham":0,"Outcome":"-10","Keys":[2078.514999942854],"TotalKeys":1,"Block":2,"Trial":93,"Action":"No-Go","Robot":4,"trial_type":"pit-trial","trial_index":107,"time_elapsed":483399,"internal_node_id":"0.0-107.0"},{"Valence":"Win","Color":"#ffcc3399","Rune":"06","Correct":32,"Choice":32,"RT":593.4099999722093,"Accuracy":1,"Sham":0,"Outcome":"+10","Keys":[2094.8349999962375],"TotalKeys":1,"Block":2,"Trial":94,"Action":"Go","Robot":1,"trial_type":"pit-trial","trial_index":108,"time_elapsed":486502,"internal_node_id":"0.0-108.0"},{"Valence":"Lose","Color":"#3366ff99","Rune":"03","Correct":32,"Choice":32,"RT":611.9649999309331,"Accuracy":1,"Sham":0,"Outcome":"-1","Keys":[2112.985000014305],"TotalKeys":1,"Block":2,"Trial":95,"Action":"Go","Robot":3,"trial_type":"pit-trial","trial_index":109,"time_elapsed":489623,"internal_node_id":"0.0-109.0"},{"Valence":"Win","Color":"#ffcc3399","Rune":"05","Correct":-1,"Choice":-1,"RT":-1,"Accuracy":1,"Sham":1,"Outcome":"1","Keys":[],"TotalKeys":0,"Block":2,"Trial":96,"Action":"No-Go","Robot":2,"trial_type":"pit-trial","trial_index":110,"time_elapsed":493633,"internal_node_id":"0.0-110.0"},{"Valence":"Lose","Color":"#3366ff99","Rune":"04","Correct":-1,"Choice":32,"RT":759.6899999771267,"Accuracy":0,"Sham":1,"Outcome":"-1","Keys":[2259.9450000561774],"TotalKeys":1,"Block":2,"Trial":97,"Action":"No-Go","Robot":4,"trial_type":"pit-trial","trial_index":111,"time_elapsed":496902,"internal_node_id":"0.0-111.0"},{"Valence":"Win","Color":"#ffcc3399","Rune":"06","Correct":32,"Choice":-1,"RT":-1,"Accuracy":0,"Sham":0,"Outcome":"+1","Keys":[],"TotalKeys":0,"Block":2,"Trial":98,"Action":"Go","Robot":1,"trial_type":"pit-trial","trial_index":112,"time_elapsed":500911,"internal_node_id":"0.0-112.0"},{"Valence":"Lose","Color":"#3366ff99","Rune":"03","Correct":32,"Choice":32,"RT":569.0500000491738,"Accuracy":1,"Sham":0,"Outcome":"-1","Keys":[2070.4149999655783],"TotalKeys":1,"Block":2,"Trial":99,"Action":"Go","Robot":3,"trial_type":"pit-trial","trial_index":113,"time_elapsed":503990,"internal_node_id":"0.0-113.0"},{"Valence":"Win","Color":"#ffcc3399","Rune":"05","Correct":-1,"Choice":-1,"RT":-1,"Accuracy":1,"Sham":0,"Outcome":"+10","Keys":[],"TotalKeys":0,"Block":2,"Trial":100,"Action":"No-Go","Robot":2,"trial_type":"pit-trial","trial_index":114,"time_elapsed":507998,"internal_node_id":"0.0-114.0"},{"Valence":"Lose","Color":"#3366ff99","Rune":"04","Correct":-1,"Choice":32,"RT":346.59000008832663,"Accuracy":0,"Sham":0,"Outcome":"-10","Keys":[1847.3150000208989],"TotalKeys":1,"Block":2,"Trial":101,"Action":"No-Go","Robot":4,"trial_type":"pit-trial","trial_index":115,"time_elapsed":510854,"internal_node_id":"0.0-115.0"},{"Valence":"Lose","Color":"#3366ff99","Rune":"03","Correct":32,"Choice":32,"RT":579.604999977164,"Accuracy":1,"Sham":0,"Outcome":"-1","Keys":[2080.5800000671297],"TotalKeys":1,"Block":2,"Trial":102,"Action":"Go","Robot":3,"trial_type":"pit-trial","trial_index":116,"time_elapsed":513942,"internal_node_id":"0.0-116.0"},{"Valence":"Win","Color":"#ffcc3399","Rune":"06","Correct":32,"Choice":32,"RT":899.6549999574199,"Accuracy":1,"Sham":1,"Outcome":"1","Keys":[2400.4199999617413],"TotalKeys":1,"Block":2,"Trial":103,"Action":"Go","Robot":1,"trial_type":"pit-trial","trial_index":117,"time_elapsed":517351,"internal_node_id":"0.0-117.0"},{"Valence":"Win","Color":"#ffcc3399","Rune":"05","Correct":-1,"Choice":32,"RT":1154.9949999898672,"Accuracy":0,"Sham":1,"Outcome":"+10","Keys":[2655.555000063032],"TotalKeys":1,"Block":2,"Trial":104,"Action":"No-Go","Robot":2,"trial_type":"pit-trial","trial_index":118,"time_elapsed":521014,"internal_node_id":"0.0-118.0"},{"Valence":"Lose","Color":"#3366ff99","Rune":"03","Correct":32,"Choice":32,"RT":580.1850000862032,"Accuracy":1,"Sham":0,"Outcome":"-1","Keys":[2080.270000034943],"TotalKeys":1,"Block":2,"Trial":105,"Action":"Go","Robot":3,"trial_type":"pit-trial","trial_index":119,"time_elapsed":524102,"internal_node_id":"0.0-119.0"},{"Valence":"Win","Color":"#ffcc3399","Rune":"06","Correct":32,"Choice":32,"RT":851.5699999406934,"Accuracy":1,"Sham":0,"Outcome":"+10","Keys":[2352.4149999720976],"TotalKeys":1,"Block":2,"Trial":106,"Action":"Go","Robot":1,"trial_type":"pit-trial","trial_index":120,"time_elapsed":527462,"internal_node_id":"0.0-120.0"},{"Valence":"Win","Color":"#ffcc3399","Rune":"05","Correct":-1,"Choice":-1,"RT":-1,"Accuracy":1,"Sham":0,"Outcome":"+10","Keys":[],"TotalKeys":0,"Block":2,"Trial":107,"Action":"No-Go","Robot":2,"trial_type":"pit-trial","trial_index":121,"time_elapsed":531472,"internal_node_id":"0.0-121.0"},{"Valence":"Lose","Color":"#3366ff99","Rune":"04","Correct":-1,"Choice":32,"RT":457.54000009037554,"Accuracy":0,"Sham":0,"Outcome":"-10","Keys":[1958.3550000097603],"TotalKeys":1,"Block":2,"Trial":108,"Action":"No-Go","Robot":4,"trial_type":"pit-trial","trial_index":122,"time_elapsed":534439,"internal_node_id":"0.0-122.0"},{"Valence":"Win","Color":"#ffcc3399","Rune":"05","Correct":-1,"Choice":-1,"RT":-1,"Accuracy":1,"Sham":0,"Outcome":"+10","Keys":[],"TotalKeys":0,"Block":2,"Trial":109,"Action":"No-Go","Robot":2,"trial_type":"pit-trial","trial_index":123,"time_elapsed":538449,"internal_node_id":"0.0-123.0"},{"Valence":"Lose","Color":"#3366ff99","Rune":"04","Correct":-1,"Choice":32,"RT":360.3799999691546,"Accuracy":0,"Sham":0,"Outcome":"-10","Keys":[1860.9599999617785],"TotalKeys":1,"Block":2,"Trial":110,"Action":"No-Go","Robot":4,"trial_type":"pit-trial","trial_index":124,"time_elapsed":541319,"internal_node_id":"0.0-124.0"},{"Valence":"Win","Color":"#ffcc3399","Rune":"06","Correct":32,"Choice":32,"RT":723.2150000054389,"Accuracy":1,"Sham":0,"Outcome":"+10","Keys":[2223.4199999365956],"TotalKeys":1,"Block":2,"Trial":111,"Action":"Go","Robot":1,"trial_type":"pit-trial","trial_index":125,"time_elapsed":544551,"internal_node_id":"0.0-125.0"},{"Valence":"Lose","Color":"#3366ff99","Rune":"03","Correct":32,"Choice":32,"RT":451.4600000111386,"Accuracy":1,"Sham":0,"Outcome":"-1","Keys":[1951.5949999913573],"TotalKeys":1,"Block":2,"Trial":112,"Action":"Go","Robot":3,"trial_type":"pit-trial","trial_index":126,"time_elapsed":547511,"internal_node_id":"0.0-126.0"},{"Valence":"Win","Color":"#ffcc3399","Rune":"05","Correct":-1,"Choice":-1,"RT":-1,"Accuracy":1,"Sham":0,"Outcome":"+10","Keys":[],"TotalKeys":0,"Block":2,"Trial":113,"Action":"No-Go","Robot":2,"trial_type":"pit-trial","trial_index":127,"time_elapsed":551519,"internal_node_id":"0.0-127.0"},{"Valence":"Lose","Color":"#3366ff99","Rune":"04","Correct":-1,"Choice":32,"RT":522.0350000308827,"Accuracy":0,"Sham":0,"Outcome":"-10","Keys":[2022.9899999685585],"TotalKeys":1,"Block":2,"Trial":114,"Action":"No-Go","Robot":4,"trial_type":"pit-trial","trial_index":128,"time_elapsed":554551,"internal_node_id":"0.0-128.0"},{"Valence":"Lose","Color":"#3366ff99","Rune":"03","Correct":32,"Choice":32,"RT":884.0099999215454,"Accuracy":1,"Sham":1,"Outcome":"-10","Keys":[2384.3650000635535],"TotalKeys":1,"Block":2,"Trial":115,"Action":"Go","Robot":3,"trial_type":"pit-trial","trial_index":129,"time_elapsed":557942,"internal_node_id":"0.0-129.0"},{"Valence":"Win","Color":"#ffcc3399","Rune":"06","Correct":32,"Choice":-1,"RT":-1,"Accuracy":0,"Sham":0,"Outcome":"+1","Keys":[],"TotalKeys":0,"Block":2,"Trial":116,"Action":"Go","Robot":1,"trial_type":"pit-trial","trial_index":130,"time_elapsed":561951,"internal_node_id":"0.0-130.0"},{"Valence":"Lose","Color":"#3366ff99","Rune":"04","Correct":-1,"Choice":32,"RT":524.0950000006706,"Accuracy":0,"Sham":1,"Outcome":"-1","Keys":[2024.6899999910966],"TotalKeys":1,"Block":2,"Trial":117,"Action":"No-Go","Robot":4,"trial_type":"pit-trial","trial_index":131,"time_elapsed":564983,"internal_node_id":"0.0-131.0"},{"Valence":"Lose","Color":"#3366ff99","Rune":"03","Correct":32,"Choice":32,"RT":689.9299999931827,"Accuracy":1,"Sham":0,"Outcome":"-1","Keys":[2190.820000017993],"TotalKeys":1,"Block":2,"Trial":118,"Action":"Go","Robot":3,"trial_type":"pit-trial","trial_index":132,"time_elapsed":568184,"internal_node_id":"0.0-132.0"},{"Valence":"Win","Color":"#ffcc3399","Rune":"05","Correct":-1,"Choice":32,"RT":498.71499999426305,"Accuracy":0,"Sham":0,"Outcome":"+1","Keys":[1999.2400000337511],"TotalKeys":1,"Block":2,"Trial":119,"Action":"No-Go","Robot":2,"trial_type":"pit-trial","trial_index":133,"time_elapsed":571191,"internal_node_id":"0.0-133.0"},{"Valence":"Win","Color":"#ffcc3399","Rune":"06","Correct":32,"Choice":-1,"RT":-1,"Accuracy":0,"Sham":0,"Outcome":"+1","Keys":[],"TotalKeys":0,"Block":2,"Trial":120,"Action":"Go","Robot":1,"trial_type":"pit-trial","trial_index":134,"time_elapsed":575201,"internal_node_id":"0.0-134.0"},{"Valence":"Win","Color":"#ffcc3399","Rune":"05","Correct":-1,"Choice":32,"RT":981.2049999600276,"Accuracy":0,"Sham":0,"Outcome":"+1","Keys":[2485.35999993328],"TotalKeys":1,"Block":2,"Trial":121,"Action":"No-Go","Robot":2,"trial_type":"pit-trial","trial_index":135,"time_elapsed":578695,"internal_node_id":"0.0-135.0"},{"Valence":"Lose","Color":"#3366ff99","Rune":"04","Correct":-1,"Choice":32,"RT":864.9200000800192,"Accuracy":0,"Sham":0,"Outcome":"-10","Keys":[2366.135000018403],"TotalKeys":1,"Block":2,"Trial":122,"Action":"No-Go","Robot":4,"trial_type":"pit-trial","trial_index":136,"time_elapsed":582071,"internal_node_id":"0.0-136.0"},{"Valence":"Lose","Color":"#3366ff99","Rune":"03","Correct":32,"Choice":32,"RT":881.7000000271946,"Accuracy":1,"Sham":0,"Outcome":"-1","Keys":[2383.254999993369],"TotalKeys":1,"Block":2,"Trial":123,"Action":"Go","Robot":3,"trial_type":"pit-trial","trial_index":137,"time_elapsed":585463,"internal_node_id":"0.0-137.0"},{"Valence":"Win","Color":"#ffcc3399","Rune":"06","Correct":32,"Choice":-1,"RT":-1,"Accuracy":0,"Sham":1,"Outcome":"+10","Keys":[],"TotalKeys":0,"Block":2,"Trial":124,"Action":"Go","Robot":1,"trial_type":"pit-trial","trial_index":138,"time_elapsed":589472,"internal_node_id":"0.0-138.0"},{"Valence":"Lose","Color":"#3366ff99","Rune":"03","Correct":32,"Choice":32,"RT":1145.3400000464171,"Accuracy":1,"Sham":1,"Outcome":"-10","Keys":[2646.4149999665096],"TotalKeys":1,"Block":2,"Trial":125,"Action":"Go","Robot":3,"trial_type":"pit-trial","trial_index":139,"time_elapsed":593127,"internal_node_id":"0.0-139.0"},{"Valence":"Lose","Color":"#3366ff99","Rune":"04","Correct":-1,"Choice":-1,"RT":-1,"Accuracy":1,"Sham":0,"Outcome":"-1","Keys":[],"TotalKeys":0,"Block":2,"Trial":126,"Action":"No-Go","Robot":4,"trial_type":"pit-trial","trial_index":140,"time_elapsed":597136,"internal_node_id":"0.0-140.0"},{"Valence":"Win","Color":"#ffcc3399","Rune":"05","Correct":-1,"Choice":-1,"RT":-1,"Accuracy":1,"Sham":0,"Outcome":"+10","Keys":[],"TotalKeys":0,"Block":2,"Trial":127,"Action":"No-Go","Robot":2,"trial_type":"pit-trial","trial_index":141,"time_elapsed":601150,"internal_node_id":"0.0-141.0"},{"Valence":"Win","Color":"#ffcc3399","Rune":"06","Correct":32,"Choice":-1,"RT":-1,"Accuracy":0,"Sham":0,"Outcome":"+1","Keys":[],"TotalKeys":0,"Block":2,"Trial":128,"Action":"Go","Robot":1,"trial_type":"pit-trial","trial_index":142,"time_elapsed":605160,"internal_node_id":"0.0-142.0"},{"Valence":"Lose","Color":"#3366ff99","Rune":"04","Correct":-1,"Choice":-1,"RT":-1,"Accuracy":1,"Sham":0,"Outcome":"-1","Keys":[3323.1599999126047],"TotalKeys":1,"Block":2,"Trial":129,"Action":"No-Go","Robot":4,"trial_type":"pit-trial","trial_index":143,"time_elapsed":609169,"internal_node_id":"0.0-143.0"},{"Valence":"Win","Color":"#ffcc3399","Rune":"06","Correct":32,"Choice":-1,"RT":-1,"Accuracy":0,"Sham":0,"Outcome":"+1","Keys":[],"TotalKeys":0,"Block":2,"Trial":130,"Action":"Go","Robot":1,"trial_type":"pit-trial","trial_index":144,"time_elapsed":613177,"internal_node_id":"0.0-144.0"},{"Valence":"Lose","Color":"#3366ff99","Rune":"03","Correct":32,"Choice":32,"RT":417.75000002235174,"Accuracy":1,"Sham":0,"Outcome":"-1","Keys":[1917.974999989383],"TotalKeys":1,"Block":2,"Trial":131,"Action":"Go","Robot":3,"trial_type":"pit-trial","trial_index":145,"time_elapsed":616102,"internal_node_id":"0.0-145.0"},{"Valence":"Win","Color":"#ffcc3399","Rune":"05","Correct":-1,"Choice":32,"RT":1028.9850000990555,"Accuracy":0,"Sham":0,"Outcome":"+1","Keys":[2529.770000022836],"TotalKeys":1,"Block":2,"Trial":132,"Action":"No-Go","Robot":2,"trial_type":"pit-trial","trial_index":146,"time_elapsed":619640,"internal_node_id":"0.0-146.0"},{"Valence":"Lose","Color":"#3366ff99","Rune":"04","Correct":-1,"Choice":32,"RT":498.39500000234693,"Accuracy":0,"Sham":0,"Outcome":"-10","Keys":[1999.3650000542402],"TotalKeys":1,"Block":2,"Trial":133,"Action":"No-Go","Robot":4,"trial_type":"pit-trial","trial_index":147,"time_elapsed":622647,"internal_node_id":"0.0-147.0"},{"Valence":"Win","Color":"#ffcc3399","Rune":"06","Correct":32,"Choice":32,"RT":434.63000003248453,"Accuracy":1,"Sham":0,"Outcome":"+10","Keys":[1934.8950000712648],"TotalKeys":1,"Block":2,"Trial":134,"Action":"Go","Robot":1,"trial_type":"pit-trial","trial_index":148,"time_elapsed":625590,"internal_node_id":"0.0-148.0"},{"Valence":"Lose","Color":"#3366ff99","Rune":"03","Correct":32,"Choice":32,"RT":484.3500000424683,"Accuracy":1,"Sham":0,"Outcome":"-1","Keys":[1984.8649998893961],"TotalKeys":1,"Block":2,"Trial":135,"Action":"Go","Robot":3,"trial_type":"pit-trial","trial_index":149,"time_elapsed":628583,"internal_node_id":"0.0-149.0"},{"Valence":"Win","Color":"#ffcc3399","Rune":"05","Correct":-1,"Choice":32,"RT":370.56499999016523,"Accuracy":0,"Sham":0,"Outcome":"+1","Keys":[1871.2900000391528],"TotalKeys":1,"Block":2,"Trial":136,"Action":"No-Go","Robot":2,"trial_type":"pit-trial","trial_index":150,"time_elapsed":631463,"internal_node_id":"0.0-150.0"},{"Valence":"Lose","Color":"#3366ff99","Rune":"04","Correct":-1,"Choice":32,"RT":1154.9850000301376,"Accuracy":0,"Sham":1,"Outcome":"-1","Keys":[2656.1300000175834],"TotalKeys":1,"Block":2,"Trial":137,"Action":"No-Go","Robot":4,"trial_type":"pit-trial","trial_index":151,"time_elapsed":635127,"internal_node_id":"0.0-151.0"},{"Valence":"Win","Color":"#ffcc3399","Rune":"06","Correct":32,"Choice":32,"RT":386.0450000502169,"Accuracy":1,"Sham":0,"Outcome":"+10","Keys":[1887.1899999212474],"TotalKeys":1,"Block":2,"Trial":138,"Action":"Go","Robot":1,"trial_type":"pit-trial","trial_index":152,"time_elapsed":638022,"internal_node_id":"0.0-152.0"},{"Valence":"Lose","Color":"#3366ff99","Rune":"03","Correct":32,"Choice":32,"RT":499.66999993193895,"Accuracy":1,"Sham":0,"Outcome":"-1","Keys":[2000.8799999486655],"TotalKeys":1,"Block":2,"Trial":139,"Action":"Go","Robot":3,"trial_type":"pit-trial","trial_index":153,"time_elapsed":641031,"internal_node_id":"0.0-153.0"},{"Valence":"Win","Color":"#ffcc3399","Rune":"05","Correct":-1,"Choice":32,"RT":579.2499999515712,"Accuracy":0,"Sham":1,"Outcome":"+10","Keys":[2079.879999975674],"TotalKeys":1,"Block":2,"Trial":140,"Action":"No-Go","Robot":2,"trial_type":"pit-trial","trial_index":154,"time_elapsed":644119,"internal_node_id":"0.0-154.0"},{"Valence":"Win","Color":"#ffcc3399","Rune":"05","Correct":-1,"Choice":-1,"RT":-1,"Accuracy":1,"Sham":1,"Outcome":"1","Keys":[],"TotalKeys":0,"Block":2,"Trial":141,"Action":"No-Go","Robot":2,"trial_type":"pit-trial","trial_index":155,"time_elapsed":648128,"internal_node_id":"0.0-155.0"},{"Valence":"Lose","Color":"#3366ff99","Rune":"03","Correct":32,"Choice":32,"RT":169.9249999364838,"Accuracy":1,"Sham":0,"Outcome":"-1","Keys":[1670.2250000089407],"TotalKeys":1,"Block":2,"Trial":142,"Action":"Go","Robot":3,"trial_type":"pit-trial","trial_index":156,"time_elapsed":650808,"internal_node_id":"0.0-156.0"},{"Valence":"Win","Color":"#ffcc3399","Rune":"06","Correct":32,"Choice":32,"RT":290.4950000811368,"Accuracy":1,"Sham":0,"Outcome":"+10","Keys":[1790.5949999112636],"TotalKeys":1,"Block":2,"Trial":143,"Action":"Go","Robot":1,"trial_type":"pit-trial","trial_index":157,"time_elapsed":653608,"internal_node_id":"0.0-157.0"},{"Valence":"Lose","Color":"#3366ff99","Rune":"04","Correct":-1,"Choice":32,"RT":270.189999951981,"Accuracy":0,"Sham":0,"Outcome":"-10","Keys":[1770.854999893345],"TotalKeys":1,"Block":2,"Trial":144,"Action":"No-Go","Robot":4,"trial_type":"pit-trial","trial_index":158,"time_elapsed":656392,"internal_node_id":"0.0-158.0"},{"Valence":"Lose","Color":"#3366ff99","Rune":"04","Correct":-1,"Choice":32,"RT":353.16500009503216,"Accuracy":0,"Sham":0,"Outcome":"-10","Keys":[1853.3700000261888],"TotalKeys":1,"Block":2,"Trial":145,"Action":"No-Go","Robot":4,"trial_type":"pit-trial","trial_index":159,"time_elapsed":659255,"internal_node_id":"0.0-159.0"},{"Valence":"Win","Color":"#ffcc3399","Rune":"06","Correct":32,"Choice":32,"RT":115.0850000558421,"Accuracy":1,"Sham":0,"Outcome":"+10","Keys":[1616.080000065267],"TotalKeys":1,"Block":2,"Trial":146,"Action":"Go","Robot":1,"trial_type":"pit-trial","trial_index":160,"time_elapsed":661879,"internal_node_id":"0.0-160.0"},{"Valence":"Lose","Color":"#3366ff99","Rune":"03","Correct":32,"Choice":32,"RT":371.0900000296533,"Accuracy":1,"Sham":0,"Outcome":"-1","Keys":[1872.6249999599531],"TotalKeys":1,"Block":2,"Trial":147,"Action":"Go","Robot":3,"trial_type":"pit-trial","trial_index":161,"time_elapsed":664760,"internal_node_id":"0.0-161.0"},{"Valence":"Win","Color":"#ffcc3399","Rune":"05","Correct":-1,"Choice":32,"RT":337.44000003207475,"Accuracy":0,"Sham":0,"Outcome":"+1","Keys":[1838.3349999785423],"TotalKeys":1,"Block":2,"Trial":148,"Action":"No-Go","Robot":2,"trial_type":"pit-trial","trial_index":162,"time_elapsed":667607,"internal_node_id":"0.0-162.0"},{"Valence":"Win","Color":"#ffcc3399","Rune":"05","Correct":-1,"Choice":-1,"RT":-1,"Accuracy":1,"Sham":0,"Outcome":"+10","Keys":[1359.7500000614673],"TotalKeys":1,"Block":2,"Trial":149,"Action":"No-Go","Robot":2,"trial_type":"pit-trial","trial_index":163,"time_elapsed":671615,"internal_node_id":"0.0-163.0"},{"Valence":"Lose","Color":"#3366ff99","Rune":"04","Correct":-1,"Choice":32,"RT":698.6000000033528,"Accuracy":0,"Sham":0,"Outcome":"-10","Keys":[1351.0750000132248,2199.2900000186637],"TotalKeys":2,"Block":2,"Trial":150,"Action":"No-Go","Robot":4,"trial_type":"pit-trial","trial_index":164,"time_elapsed":674823,"internal_node_id":"0.0-164.0"},{"Valence":"Lose","Color":"#3366ff99","Rune":"03","Correct":32,"Choice":32,"RT":1092.255000025034,"Accuracy":1,"Sham":0,"Outcome":"-1","Keys":[2592.4250000389293],"TotalKeys":1,"Block":2,"Trial":151,"Action":"Go","Robot":3,"trial_type":"pit-trial","trial_index":165,"time_elapsed":678423,"internal_node_id":"0.0-165.0"},{"Valence":"Win","Color":"#ffcc3399","Rune":"06","Correct":32,"Choice":32,"RT":623.3500000089407,"Accuracy":1,"Sham":0,"Outcome":"+10","Keys":[2125.055000069551],"TotalKeys":1,"Block":2,"Trial":152,"Action":"Go","Robot":1,"trial_type":"pit-trial","trial_index":166,"time_elapsed":681558,"internal_node_id":"0.0-166.0"},{"Valence":"Win","Color":"#ffcc3399","Rune":"06","Correct":32,"Choice":32,"RT":322.76999996975064,"Accuracy":1,"Sham":0,"Outcome":"+10","Keys":[1824.7149999951944],"TotalKeys":1,"Block":2,"Trial":153,"Action":"Go","Robot":1,"trial_type":"pit-trial","trial_index":167,"time_elapsed":684391,"internal_node_id":"0.0-167.0"},{"Valence":"Lose","Color":"#3366ff99","Rune":"04","Correct":-1,"Choice":32,"RT":579.5449999859557,"Accuracy":0,"Sham":0,"Outcome":"-10","Keys":[2079.905000049621],"TotalKeys":1,"Block":2,"Trial":154,"Action":"No-Go","Robot":4,"trial_type":"pit-trial","trial_index":168,"time_elapsed":687479,"internal_node_id":"0.0-168.0"},{"Valence":"Lose","Color":"#3366ff99","Rune":"03","Correct":32,"Choice":32,"RT":466.24999993946403,"Accuracy":1,"Sham":0,"Outcome":"-1","Keys":[1967.2250000294298],"TotalKeys":1,"Block":2,"Trial":155,"Action":"Go","Robot":3,"trial_type":"pit-trial","trial_index":169,"time_elapsed":690455,"internal_node_id":"0.0-169.0"},{"Valence":"Win","Color":"#ffcc3399","Rune":"05","Correct":-1,"Choice":-1,"RT":-1,"Accuracy":1,"Sham":0,"Outcome":"+10","Keys":[],"TotalKeys":0,"Block":2,"Trial":156,"Action":"No-Go","Robot":2,"trial_type":"pit-trial","trial_index":170,"time_elapsed":694465,"internal_node_id":"0.0-170.0"},{"Valence":"Lose","Color":"#3366ff99","Rune":"03","Correct":32,"Choice":32,"RT":473.98000000976026,"Accuracy":1,"Sham":1,"Outcome":"-10","Keys":[1974.8399999225512],"TotalKeys":1,"Block":2,"Trial":157,"Action":"Go","Robot":3,"trial_type":"pit-trial","trial_index":171,"time_elapsed":697447,"internal_node_id":"0.0-171.0"},{"Valence":"Lose","Color":"#3366ff99","Rune":"04","Correct":-1,"Choice":32,"RT":403.5450000083074,"Accuracy":0,"Sham":1,"Outcome":"-1","Keys":[1904.0700000477955],"TotalKeys":1,"Block":2,"Trial":158,"Action":"No-Go","Robot":4,"trial_type":"pit-trial","trial_index":172,"time_elapsed":700360,"internal_node_id":"0.0-172.0"},{"Valence":"Win","Color":"#ffcc3399","Rune":"05","Correct":-1,"Choice":32,"RT":563.7550000101328,"Accuracy":0,"Sham":0,"Outcome":"+1","Keys":[2064.1400000313297],"TotalKeys":1,"Block":2,"Trial":159,"Action":"No-Go","Robot":2,"trial_type":"pit-trial","trial_index":173,"time_elapsed":703432,"internal_node_id":"0.0-173.0"},{"Valence":"Win","Color":"#ffcc3399","Rune":"06","Correct":32,"Choice":32,"RT":512.9350000061095,"Accuracy":1,"Sham":1,"Outcome":"1","Keys":[2014.4800000125542],"TotalKeys":1,"Block":2,"Trial":160,"Action":"Go","Robot":1,"trial_type":"pit-trial","trial_index":174,"time_elapsed":706455,"internal_node_id":"0.0-174.0"},{"rt":23951.145000057295,"demographics":{"age":"43","gender-categorical":"Male","ethnicity":"Not Hispanic or Latino","race":"White","english":"Yes","fluency":"Very well"},"trial_type":"survey-demo","trial_index":175,"time_elapsed":730417,"internal_node_id":"0.0-175.0"},{"rt":58424.37000002246,"debriefgraphics":{"difficulty":"1","fun":"4","clarity":"5","strategy":"I tried to remember which symbols meant what on the robot's chest.","feedback":"It seemed to be very random, there was no way to determine if the robot was complete or not."},"trial_type":"survey-debrief","trial_index":176,"time_elapsed":788858,"internal_node_id":"0.0-176.0","interactions":"[]"}]