[{"view_history":"[{\"page_index\":0,\"viewing_time\":1861.4899999229237},{\"page_index\":1,\"viewing_time\":2870.9700000472367},{\"page_index\":2,\"viewing_time\":4095.9149999544024},{\"page_index\":3,\"viewing_time\":3432.2200000751764},{\"page_index\":4,\"viewing_time\":2751.6549999127164}]","rt":15014.929999946617,"trial_type":"pit-instructions","trial_index":0,"time_elapsed":15020,"internal_node_id":"0.0-0.0"},{"Correct":32,"Choice":32,"RT":4.225000040605664,"Accuracy":1,"Sham":0,"Outcome":1,"trial_type":"pit-trial","trial_index":1,"time_elapsed":17537,"internal_node_id":"0.0-1.0"},{"Correct":32,"Choice":32,"RT":488.81000000983477,"Accuracy":1,"Sham":0,"Outcome":1,"trial_type":"pit-trial","trial_index":2,"time_elapsed":20539,"internal_node_id":"0.0-2.0"},{"Correct":32,"Choice":32,"RT":486.02000006940216,"Accuracy":1,"Sham":0,"Outcome":1,"trial_type":"pit-trial","trial_index":3,"time_elapsed":23537,"internal_node_id":"0.0-3.0"},{"Correct":32,"Choice":32,"RT":302.54000006243587,"Accuracy":1,"Sham":0,"Outcome":1,"trial_type":"pit-trial","trial_index":4,"time_elapsed":26351,"internal_node_id":"0.0-4.0"},{"view_history":"[{\"page_index\":0,\"viewing_time\":4024.225000059232}]","rt":4024.8550000833347,"trial_type":"pit-instructions","trial_index":5,"time_elapsed":30384,"internal_node_id":"0.0-5.0"},{"Correct":-1,"Choice":-1,"RT":-1,"Accuracy":1,"Sham":0,"Outcome":1,"trial_type":"pit-trial","trial_index":6,"time_elapsed":34396,"internal_node_id":"0.0-6.0"},{"Correct":-1,"Choice":-1,"RT":-1,"Accuracy":1,"Sham":0,"Outcome":1,"trial_type":"pit-trial","trial_index":7,"time_elapsed":38408,"internal_node_id":"0.0-7.0"},{"Correct":-1,"Choice":-1,"RT":-1,"Accuracy":1,"Sham":0,"Outcome":1,"trial_type":"pit-trial","trial_index":8,"time_elapsed":42422,"internal_node_id":"0.0-8.0"},{"Correct":-1,"Choice":-1,"RT":-1,"Accuracy":1,"Sham":0,"Outcome":1,"trial_type":"pit-trial","trial_index":9,"time_elapsed":46433,"internal_node_id":"0.0-9.0"},{"view_history":"[{\"page_index\":0,\"viewing_time\":3525.4450000356883},{\"page_index\":1,\"viewing_time\":6213.600000017323},{\"page_index\":2,\"viewing_time\":6351.9999999552965},{\"page_index\":3,\"viewing_time\":5503.060000017285},{\"page_index\":4,\"viewing_time\":3857.7949999598786},{\"page_index\":5,\"viewing_time\":9037.91000007186},{\"page_index\":6,\"viewing_time\":2504.8449999885634},{\"page_index\":7,\"viewing_time\":1647.069999948144}]","rt":38642.05000002403,"trial_type":"pit-instructions","trial_index":10,"time_elapsed":85079,"internal_node_id":"0.0-10.0"},{"rt":11621.340000070632,"responses":"{\"no-press\":\"Do nothing\",\"probability\":\"0\",\"bonus\":\"True\"}","errors":0,"trial_type":"pit-comprehension","trial_index":11,"time_elapsed":96709,"internal_node_id":"0.0-11.0"},{"view_history":"[{\"page_index\":0,\"viewing_time\":2236.075000022538}]","rt":2236.7599999997765,"trial_type":"pit-instructions","trial_index":12,"time_elapsed":98960,"internal_node_id":"0.0-12.0"},{"Correct":-1,"Choice":32,"RT":654.8450000118464,"Accuracy":0,"Sham":0,"Outcome":0,"Block":1,"Trial":1,"Valence":"Win","Action":"No-Go","trial_type":"pit-trial","trial_index":13,"time_elapsed":102128,"internal_node_id":"0.0-13.0"},{"Correct":32,"Choice":-1,"RT":-1,"Accuracy":0,"Sham":0,"Outcome":-1,"Block":1,"Trial":2,"Valence":"Lose","Action":"Go","trial_type":"pit-trial","trial_index":14,"time_elapsed":106144,"internal_node_id":"0.0-14.0"},{"Correct":-1,"Choice":-1,"RT":-1,"Accuracy":1,"Sham":0,"Outcome":0,"Block":1,"Trial":3,"Valence":"Lose","Action":"No-Go","trial_type":"pit-trial","trial_index":15,"time_elapsed":110155,"internal_node_id":"0.0-15.0"},{"Correct":32,"Choice":32,"RT":471.83499997481704,"Accuracy":1,"Sham":0,"Outcome":1,"Block":1,"Trial":4,"Valence":"Win","Action":"Go","trial_type":"pit-trial","trial_index":16,"time_elapsed":113134,"internal_node_id":"0.0-16.0"},{"Correct":32,"Choice":-1,"RT":-1,"Accuracy":0,"Sham":1,"Outcome":0,"Block":1,"Trial":5,"Valence":"Lose","Action":"Go","trial_type":"pit-trial","trial_index":17,"time_elapsed":117140,"internal_node_id":"0.0-17.0"},{"Correct":-1,"Choice":-1,"RT":-1,"Accuracy":1,"Sham":0,"Outcome":0,"Block":1,"Trial":6,"Valence":"Lose","Action":"No-Go","trial_type":"pit-trial","trial_index":18,"time_elapsed":121152,"internal_node_id":"0.0-18.0"},{"Correct":32,"Choice":32,"RT":697.8149999631569,"Accuracy":1,"Sham":0,"Outcome":1,"Block":1,"Trial":7,"Valence":"Win","Action":"Go","trial_type":"pit-trial","trial_index":19,"time_elapsed":124362,"internal_node_id":"0.0-19.0"},{"Correct":-1,"Choice":32,"RT":610.3300000540912,"Accuracy":0,"Sham":0,"Outcome":0,"Block":1,"Trial":8,"Valence":"Win","Action":"No-Go","trial_type":"pit-trial","trial_index":20,"time_elapsed":127485,"internal_node_id":"0.0-20.0"},{"Correct":32,"Choice":32,"RT":616.5299999993294,"Accuracy":1,"Sham":0,"Outcome":1,"Block":1,"Trial":9,"Valence":"Win","Action":"Go","trial_type":"pit-trial","trial_index":21,"time_elapsed":130613,"internal_node_id":"0.0-21.0"},{"Correct":32,"Choice":-1,"RT":-1,"Accuracy":0,"Sham":0,"Outcome":-1,"Block":1,"Trial":10,"Valence":"Lose","Action":"Go","trial_type":"pit-trial","trial_index":22,"time_elapsed":134625,"internal_node_id":"0.0-22.0"},{"Correct":-1,"Choice":32,"RT":515.6549999956042,"Accuracy":0,"Sham":0,"Outcome":0,"Block":1,"Trial":11,"Valence":"Win","Action":"No-Go","trial_type":"pit-trial","trial_index":23,"time_elapsed":137652,"internal_node_id":"0.0-23.0"},{"Correct":-1,"Choice":-1,"RT":-1,"Accuracy":1,"Sham":0,"Outcome":0,"Block":1,"Trial":12,"Valence":"Lose","Action":"No-Go","trial_type":"pit-trial","trial_index":24,"time_elapsed":141664,"internal_node_id":"0.0-24.0"},{"Correct":32,"Choice":32,"RT":556.3549998914823,"Accuracy":1,"Sham":0,"Outcome":1,"Block":1,"Trial":13,"Valence":"Win","Action":"Go","trial_type":"pit-trial","trial_index":25,"time_elapsed":144732,"internal_node_id":"0.0-25.0"},{"Correct":-1,"Choice":32,"RT":509.5449999207631,"Accuracy":0,"Sham":0,"Outcome":0,"Block":1,"Trial":14,"Valence":"Win","Action":"No-Go","trial_type":"pit-trial","trial_index":26,"time_elapsed":147752,"internal_node_id":"0.0-26.0"},{"Correct":32,"Choice":-1,"RT":-1,"Accuracy":0,"Sham":0,"Outcome":-1,"Block":1,"Trial":15,"Valence":"Lose","Action":"Go","trial_type":"pit-trial","trial_index":27,"time_elapsed":151764,"internal_node_id":"0.0-27.0"},{"Correct":-1,"Choice":-1,"RT":-1,"Accuracy":1,"Sham":1,"Outcome":-1,"Block":1,"Trial":16,"Valence":"Lose","Action":"No-Go","trial_type":"pit-trial","trial_index":28,"time_elapsed":155775,"internal_node_id":"0.0-28.0"},{"Correct":32,"Choice":32,"RT":343.83499994874,"Accuracy":1,"Sham":1,"Outcome":0,"Block":1,"Trial":17,"Valence":"Win","Action":"Go","trial_type":"pit-trial","trial_index":29,"time_elapsed":158630,"internal_node_id":"0.0-29.0"},{"Correct":32,"Choice":32,"RT":673.9850000012666,"Accuracy":1,"Sham":0,"Outcome":0,"Block":1,"Trial":18,"Valence":"Lose","Action":"Go","trial_type":"pit-trial","trial_index":30,"time_elapsed":161815,"internal_node_id":"0.0-30.0"},{"Correct":-1,"Choice":32,"RT":475.57999996934086,"Accuracy":0,"Sham":1,"Outcome":1,"Block":1,"Trial":19,"Valence":"Win","Action":"No-Go","trial_type":"pit-trial","trial_index":31,"time_elapsed":164803,"internal_node_id":"0.0-31.0"},{"Correct":-1,"Choice":-1,"RT":-1,"Accuracy":1,"Sham":0,"Outcome":0,"Block":1,"Trial":20,"Valence":"Lose","Action":"No-Go","trial_type":"pit-trial","trial_index":32,"time_elapsed":168814,"internal_node_id":"0.0-32.0"},{"Correct":-1,"Choice":-1,"RT":-1,"Accuracy":1,"Sham":0,"Outcome":0,"Block":1,"Trial":21,"Valence":"Lose","Action":"No-Go","trial_type":"pit-trial","trial_index":33,"time_elapsed":172825,"internal_node_id":"0.0-33.0"},{"Correct":-1,"Choice":32,"RT":398.6550000263378,"Accuracy":0,"Sham":0,"Outcome":0,"Block":1,"Trial":22,"Valence":"Win","Action":"No-Go","trial_type":"pit-trial","trial_index":34,"time_elapsed":175735,"internal_node_id":"0.0-34.0"},{"Correct":32,"Choice":32,"RT":529.2800000170246,"Accuracy":1,"Sham":0,"Outcome":1,"Block":1,"Trial":23,"Valence":"Win","Action":"Go","trial_type":"pit-trial","trial_index":35,"time_elapsed":178779,"internal_node_id":"0.0-35.0"},{"Correct":32,"Choice":32,"RT":657.3850000277162,"Accuracy":1,"Sham":0,"Outcome":0,"Block":1,"Trial":24,"Valence":"Lose","Action":"Go","trial_type":"pit-trial","trial_index":36,"time_elapsed":181949,"internal_node_id":"0.0-36.0"},{"Correct":-1,"Choice":-1,"RT":-1,"Accuracy":1,"Sham":0,"Outcome":0,"Block":1,"Trial":25,"Valence":"Lose","Action":"No-Go","trial_type":"pit-trial","trial_index":37,"time_elapsed":185959,"internal_node_id":"0.0-37.0"},{"Correct":32,"Choice":32,"RT":420.1500000199303,"Accuracy":1,"Sham":0,"Outcome":1,"Block":1,"Trial":26,"Valence":"Win","Action":"Go","trial_type":"pit-trial","trial_index":38,"time_elapsed":188891,"internal_node_id":"0.0-38.0"},{"Correct":32,"Choice":32,"RT":590.7250000163913,"Accuracy":1,"Sham":0,"Outcome":0,"Block":1,"Trial":27,"Valence":"Lose","Action":"Go","trial_type":"pit-trial","trial_index":39,"time_elapsed":191992,"internal_node_id":"0.0-39.0"},{"Correct":-1,"Choice":32,"RT":420.48999993130565,"Accuracy":0,"Sham":0,"Outcome":0,"Block":1,"Trial":28,"Valence":"Win","Action":"No-Go","trial_type":"pit-trial","trial_index":40,"time_elapsed":194919,"internal_node_id":"0.0-40.0"},{"Correct":32,"Choice":-1,"RT":-1,"Accuracy":0,"Sham":0,"Outcome":-1,"Block":1,"Trial":29,"Valence":"Lose","Action":"Go","trial_type":"pit-trial","trial_index":41,"time_elapsed":198930,"internal_node_id":"0.0-41.0"},{"Correct":-1,"Choice":32,"RT":335.80000000074506,"Accuracy":0,"Sham":1,"Outcome":1,"Block":1,"Trial":30,"Valence":"Win","Action":"No-Go","trial_type":"pit-trial","trial_index":42,"time_elapsed":201774,"internal_node_id":"0.0-42.0"},{"Correct":32,"Choice":32,"RT":450.32499998342246,"Accuracy":1,"Sham":1,"Outcome":0,"Block":1,"Trial":31,"Valence":"Win","Action":"Go","trial_type":"pit-trial","trial_index":43,"time_elapsed":204735,"internal_node_id":"0.0-43.0"},{"Correct":-1,"Choice":-1,"RT":-1,"Accuracy":1,"Sham":0,"Outcome":0,"Block":1,"Trial":32,"Valence":"Lose","Action":"No-Go","trial_type":"pit-trial","trial_index":44,"time_elapsed":208748,"internal_node_id":"0.0-44.0"},{"Correct":-1,"Choice":-1,"RT":-1,"Accuracy":1,"Sham":0,"Outcome":0,"Block":1,"Trial":33,"Valence":"Lose","Action":"No-Go","trial_type":"pit-trial","trial_index":45,"time_elapsed":212759,"internal_node_id":"0.0-45.0"},{"Correct":-1,"Choice":32,"RT":399.81500001158565,"Accuracy":0,"Sham":0,"Outcome":0,"Block":1,"Trial":34,"Valence":"Win","Action":"No-Go","trial_type":"pit-trial","trial_index":46,"time_elapsed":215671,"internal_node_id":"0.0-46.0"},{"Correct":32,"Choice":32,"RT":661.5800000727177,"Accuracy":1,"Sham":0,"Outcome":1,"Block":1,"Trial":35,"Valence":"Win","Action":"Go","trial_type":"pit-trial","trial_index":47,"time_elapsed":218844,"internal_node_id":"0.0-47.0"},{"Correct":32,"Choice":32,"RT":773.2199999736622,"Accuracy":1,"Sham":1,"Outcome":-1,"Block":1,"Trial":36,"Valence":"Lose","Action":"Go","trial_type":"pit-trial","trial_index":48,"time_elapsed":222129,"internal_node_id":"0.0-48.0"},{"Correct":-1,"Choice":-1,"RT":-1,"Accuracy":1,"Sham":1,"Outcome":-1,"Block":1,"Trial":37,"Valence":"Lose","Action":"No-Go","trial_type":"pit-trial","trial_index":49,"time_elapsed":226139,"internal_node_id":"0.0-49.0"},{"Correct":32,"Choice":32,"RT":786.8749999906868,"Accuracy":1,"Sham":0,"Outcome":0,"Block":1,"Trial":38,"Valence":"Lose","Action":"Go","trial_type":"pit-trial","trial_index":50,"time_elapsed":229438,"internal_node_id":"0.0-50.0"},{"Correct":32,"Choice":32,"RT":802.7449999935925,"Accuracy":1,"Sham":0,"Outcome":1,"Block":1,"Trial":39,"Valence":"Win","Action":"Go","trial_type":"pit-trial","trial_index":51,"time_elapsed":232752,"internal_node_id":"0.0-51.0"},{"Correct":-1,"Choice":32,"RT":542.0600000070408,"Accuracy":0,"Sham":0,"Outcome":0,"Block":1,"Trial":40,"Valence":"Win","Action":"No-Go","trial_type":"pit-trial","trial_index":52,"time_elapsed":235806,"internal_node_id":"0.0-52.0"},{"Correct":32,"Choice":32,"RT":644.5799999637529,"Accuracy":1,"Sham":1,"Outcome":-1,"Block":1,"Trial":41,"Valence":"Lose","Action":"Go","trial_type":"pit-trial","trial_index":53,"time_elapsed":238962,"internal_node_id":"0.0-53.0"},{"Correct":-1,"Choice":32,"RT":445.7300000358373,"Accuracy":0,"Sham":0,"Outcome":0,"Block":1,"Trial":42,"Valence":"Win","Action":"No-Go","trial_type":"pit-trial","trial_index":54,"time_elapsed":241920,"internal_node_id":"0.0-54.0"},{"Correct":-1,"Choice":-1,"RT":-1,"Accuracy":1,"Sham":0,"Outcome":0,"Block":1,"Trial":43,"Valence":"Lose","Action":"No-Go","trial_type":"pit-trial","trial_index":55,"time_elapsed":245933,"internal_node_id":"0.0-55.0"},{"Correct":32,"Choice":32,"RT":478.4549999749288,"Accuracy":1,"Sham":0,"Outcome":1,"Block":1,"Trial":44,"Valence":"Win","Action":"Go","trial_type":"pit-trial","trial_index":56,"time_elapsed":248922,"internal_node_id":"0.0-56.0"},{"Correct":-1,"Choice":-1,"RT":-1,"Accuracy":1,"Sham":0,"Outcome":0,"Block":1,"Trial":45,"Valence":"Lose","Action":"No-Go","trial_type":"pit-trial","trial_index":57,"time_elapsed":252934,"internal_node_id":"0.0-57.0"},{"Correct":-1,"Choice":32,"RT":432.594999903813,"Accuracy":0,"Sham":1,"Outcome":1,"Block":1,"Trial":46,"Valence":"Win","Action":"No-Go","trial_type":"pit-trial","trial_index":58,"time_elapsed":255879,"internal_node_id":"0.0-58.0"},{"Correct":32,"Choice":32,"RT":822.6900000590831,"Accuracy":1,"Sham":0,"Outcome":0,"Block":1,"Trial":47,"Valence":"Lose","Action":"Go","trial_type":"pit-trial","trial_index":59,"time_elapsed":259213,"internal_node_id":"0.0-59.0"},{"Correct":32,"Choice":32,"RT":515.8250000094995,"Accuracy":1,"Sham":0,"Outcome":1,"Block":1,"Trial":48,"Valence":"Win","Action":"Go","trial_type":"pit-trial","trial_index":60,"time_elapsed":262240,"internal_node_id":"0.0-60.0"},{"Correct":-1,"Choice":-1,"RT":-1,"Accuracy":1,"Sham":0,"Outcome":0,"Block":1,"Trial":49,"Valence":"Lose","Action":"No-Go","trial_type":"pit-trial","trial_index":61,"time_elapsed":266252,"internal_node_id":"0.0-61.0"},{"Correct":32,"Choice":32,"RT":478.77000004518777,"Accuracy":1,"Sham":0,"Outcome":1,"Block":1,"Trial":50,"Valence":"Win","Action":"Go","trial_type":"pit-trial","trial_index":62,"time_elapsed":269243,"internal_node_id":"0.0-62.0"},{"Correct":-1,"Choice":32,"RT":581.8699999945238,"Accuracy":0,"Sham":0,"Outcome":0,"Block":1,"Trial":51,"Valence":"Win","Action":"No-Go","trial_type":"pit-trial","trial_index":63,"time_elapsed":272337,"internal_node_id":"0.0-63.0"},{"Correct":32,"Choice":-1,"RT":-1,"Accuracy":0,"Sham":0,"Outcome":-1,"Block":1,"Trial":52,"Valence":"Lose","Action":"Go","trial_type":"pit-trial","trial_index":64,"time_elapsed":276349,"internal_node_id":"0.0-64.0"},{"Correct":-1,"Choice":32,"RT":434.80000004637986,"Accuracy":0,"Sham":0,"Outcome":0,"Block":1,"Trial":53,"Valence":"Win","Action":"No-Go","trial_type":"pit-trial","trial_index":65,"time_elapsed":279294,"internal_node_id":"0.0-65.0"},{"Correct":32,"Choice":32,"RT":838.6199999367818,"Accuracy":1,"Sham":0,"Outcome":0,"Block":1,"Trial":54,"Valence":"Lose","Action":"Go","trial_type":"pit-trial","trial_index":66,"time_elapsed":282639,"internal_node_id":"0.0-66.0"},{"Correct":-1,"Choice":-1,"RT":-1,"Accuracy":1,"Sham":0,"Outcome":0,"Block":1,"Trial":55,"Valence":"Lose","Action":"No-Go","trial_type":"pit-trial","trial_index":67,"time_elapsed":286653,"internal_node_id":"0.0-67.0"},{"Correct":32,"Choice":32,"RT":354.99000002164394,"Accuracy":1,"Sham":0,"Outcome":1,"Block":1,"Trial":56,"Valence":"Win","Action":"Go","trial_type":"pit-trial","trial_index":68,"time_elapsed":289519,"internal_node_id":"0.0-68.0"},{"Correct":32,"Choice":32,"RT":491.11000006087124,"Accuracy":1,"Sham":1,"Outcome":0,"Block":1,"Trial":57,"Valence":"Win","Action":"Go","trial_type":"pit-trial","trial_index":69,"time_elapsed":292517,"internal_node_id":"0.0-69.0"},{"Correct":32,"Choice":32,"RT":607.880000025034,"Accuracy":1,"Sham":0,"Outcome":0,"Block":1,"Trial":58,"Valence":"Lose","Action":"Go","trial_type":"pit-trial","trial_index":70,"time_elapsed":295637,"internal_node_id":"0.0-70.0"},{"Correct":-1,"Choice":-1,"RT":-1,"Accuracy":1,"Sham":1,"Outcome":-1,"Block":1,"Trial":59,"Valence":"Lose","Action":"No-Go","trial_type":"pit-trial","trial_index":71,"time_elapsed":299648,"internal_node_id":"0.0-71.0"},{"Correct":-1,"Choice":32,"RT":654.3400000082329,"Accuracy":0,"Sham":0,"Outcome":0,"Block":1,"Trial":60,"Valence":"Win","Action":"No-Go","trial_type":"pit-trial","trial_index":72,"time_elapsed":302815,"internal_node_id":"0.0-72.0"},{"Correct":-1,"Choice":-1,"RT":-1,"Accuracy":1,"Sham":0,"Outcome":1,"Block":1,"Trial":61,"Valence":"Win","Action":"No-Go","trial_type":"pit-trial","trial_index":73,"time_elapsed":306828,"internal_node_id":"0.0-73.0"},{"Correct":32,"Choice":32,"RT":638.1000000983477,"Accuracy":1,"Sham":0,"Outcome":0,"Block":1,"Trial":62,"Valence":"Lose","Action":"Go","trial_type":"pit-trial","trial_index":74,"time_elapsed":309978,"internal_node_id":"0.0-74.0"},{"Correct":-1,"Choice":-1,"RT":-1,"Accuracy":1,"Sham":0,"Outcome":0,"Block":1,"Trial":63,"Valence":"Lose","Action":"No-Go","trial_type":"pit-trial","trial_index":75,"time_elapsed":313990,"internal_node_id":"0.0-75.0"},{"Correct":32,"Choice":32,"RT":590.0050000054762,"Accuracy":1,"Sham":0,"Outcome":1,"Block":1,"Trial":64,"Valence":"Win","Action":"Go","trial_type":"pit-trial","trial_index":76,"time_elapsed":317087,"internal_node_id":"0.0-76.0"},{"Correct":-1,"Choice":-1,"RT":-1,"Accuracy":1,"Sham":0,"Outcome":1,"Block":1,"Trial":65,"Valence":"Win","Action":"No-Go","trial_type":"pit-trial","trial_index":77,"time_elapsed":321094,"internal_node_id":"0.0-77.0"},{"Correct":-1,"Choice":-1,"RT":-1,"Accuracy":1,"Sham":0,"Outcome":0,"Block":1,"Trial":66,"Valence":"Lose","Action":"No-Go","trial_type":"pit-trial","trial_index":78,"time_elapsed":325105,"internal_node_id":"0.0-78.0"},{"Correct":32,"Choice":32,"RT":463.164999964647,"Accuracy":1,"Sham":1,"Outcome":0,"Block":1,"Trial":67,"Valence":"Win","Action":"Go","trial_type":"pit-trial","trial_index":79,"time_elapsed":328075,"internal_node_id":"0.0-79.0"},{"Correct":32,"Choice":32,"RT":1042.3749999608845,"Accuracy":1,"Sham":0,"Outcome":0,"Block":1,"Trial":68,"Valence":"Lose","Action":"Go","trial_type":"pit-trial","trial_index":80,"time_elapsed":331629,"internal_node_id":"0.0-80.0"},{"Correct":-1,"Choice":-1,"RT":-1,"Accuracy":1,"Sham":1,"Outcome":-1,"Block":1,"Trial":69,"Valence":"Lose","Action":"No-Go","trial_type":"pit-trial","trial_index":81,"time_elapsed":335641,"internal_node_id":"0.0-81.0"},{"Correct":32,"Choice":32,"RT":610.7649999903515,"Accuracy":1,"Sham":0,"Outcome":0,"Block":1,"Trial":70,"Valence":"Lose","Action":"Go","trial_type":"pit-trial","trial_index":82,"time_elapsed":338763,"internal_node_id":"0.0-82.0"},{"Correct":32,"Choice":32,"RT":620.0800000224262,"Accuracy":1,"Sham":0,"Outcome":1,"Block":1,"Trial":71,"Valence":"Win","Action":"Go","trial_type":"pit-trial","trial_index":83,"time_elapsed":341895,"internal_node_id":"0.0-83.0"},{"Correct":-1,"Choice":32,"RT":542.4249999923632,"Accuracy":0,"Sham":0,"Outcome":0,"Block":1,"Trial":72,"Valence":"Win","Action":"No-Go","trial_type":"pit-trial","trial_index":84,"time_elapsed":344949,"internal_node_id":"0.0-84.0"},{"Correct":-1,"Choice":-1,"RT":-1,"Accuracy":1,"Sham":0,"Outcome":1,"Block":1,"Trial":73,"Valence":"Win","Action":"No-Go","trial_type":"pit-trial","trial_index":85,"time_elapsed":348961,"internal_node_id":"0.0-85.0"},{"Correct":32,"Choice":32,"RT":1052.6349999709055,"Accuracy":1,"Sham":1,"Outcome":-1,"Block":1,"Trial":74,"Valence":"Lose","Action":"Go","trial_type":"pit-trial","trial_index":86,"time_elapsed":352520,"internal_node_id":"0.0-86.0"},{"Correct":32,"Choice":32,"RT":548.1450000079349,"Accuracy":1,"Sham":0,"Outcome":1,"Block":1,"Trial":75,"Valence":"Win","Action":"Go","trial_type":"pit-trial","trial_index":87,"time_elapsed":355580,"internal_node_id":"0.0-87.0"},{"Correct":-1,"Choice":-1,"RT":-1,"Accuracy":1,"Sham":0,"Outcome":0,"Block":1,"Trial":76,"Valence":"Lose","Action":"No-Go","trial_type":"pit-trial","trial_index":88,"time_elapsed":359595,"internal_node_id":"0.0-88.0"},{"Correct":-1,"Choice":32,"RT":432.7850000699982,"Accuracy":0,"Sham":1,"Outcome":1,"Block":1,"Trial":77,"Valence":"Win","Action":"No-Go","trial_type":"pit-trial","trial_index":89,"time_elapsed":362540,"internal_node_id":"0.0-89.0"},{"Correct":32,"Choice":32,"RT":567.2900000354275,"Accuracy":1,"Sham":0,"Outcome":1,"Block":1,"Trial":78,"Valence":"Win","Action":"Go","trial_type":"pit-trial","trial_index":90,"time_elapsed":365618,"internal_node_id":"0.0-90.0"},{"Correct":-1,"Choice":-1,"RT":-1,"Accuracy":1,"Sham":0,"Outcome":0,"Block":1,"Trial":79,"Valence":"Lose","Action":"No-Go","trial_type":"pit-trial","trial_index":91,"time_elapsed":369631,"internal_node_id":"0.0-91.0"},{"Correct":32,"Choice":32,"RT":632.7899999450892,"Accuracy":1,"Sham":0,"Outcome":0,"Block":1,"Trial":80,"Valence":"Lose","Action":"Go","trial_type":"pit-trial","trial_index":92,"time_elapsed":372774,"internal_node_id":"0.0-92.0"},{"value":false,"trial_type":"call-function","trial_index":93,"time_elapsed":372785,"internal_node_id":"0.0-93.0"},{"RT":225890.3799999971,"trial_type":"pit-pause","trial_index":94,"time_elapsed":600949,"internal_node_id":"0.0-94.0"},{"Correct":32,"Choice":32,"RT":623.1850000331178,"Accuracy":1,"Sham":0,"Outcome":1,"Block":2,"Trial":81,"Valence":"Win","Action":"Go","trial_type":"pit-trial","trial_index":95,"time_elapsed":604083,"internal_node_id":"0.0-95.0"},{"Correct":-1,"Choice":32,"RT":674.2749999975786,"Accuracy":0,"Sham":0,"Outcome":0,"Block":2,"Trial":82,"Valence":"Win","Action":"No-Go","trial_type":"pit-trial","trial_index":96,"time_elapsed":607263,"internal_node_id":"0.0-96.0"},{"Correct":-1,"Choice":32,"RT":628.3800000092015,"Accuracy":0,"Sham":0,"Outcome":-1,"Block":2,"Trial":83,"Valence":"Lose","Action":"No-Go","trial_type":"pit-trial","trial_index":97,"time_elapsed":610397,"internal_node_id":"0.0-97.0"},{"Correct":32,"Choice":32,"RT":618.5099999420345,"Accuracy":1,"Sham":0,"Outcome":0,"Block":2,"Trial":84,"Valence":"Lose","Action":"Go","trial_type":"pit-trial","trial_index":98,"time_elapsed":613521,"internal_node_id":"0.0-98.0"},{"Correct":32,"Choice":32,"RT":550.5300000077114,"Accuracy":1,"Sham":0,"Outcome":1,"Block":2,"Trial":85,"Valence":"Win","Action":"Go","trial_type":"pit-trial","trial_index":99,"time_elapsed":616580,"internal_node_id":"0.0-99.0"},{"Correct":-1,"Choice":-1,"RT":-1,"Accuracy":1,"Sham":0,"Outcome":1,"Block":2,"Trial":86,"Valence":"Win","Action":"No-Go","trial_type":"pit-trial","trial_index":100,"time_elapsed":620593,"internal_node_id":"0.0-100.0"},{"Correct":32,"Choice":-1,"RT":-1,"Accuracy":0,"Sham":0,"Outcome":-1,"Block":2,"Trial":87,"Valence":"Lose","Action":"Go","trial_type":"pit-trial","trial_index":101,"time_elapsed":624601,"internal_node_id":"0.0-101.0"},{"Correct":-1,"Choice":-1,"RT":-1,"Accuracy":1,"Sham":0,"Outcome":0,"Block":2,"Trial":88,"Valence":"Lose","Action":"No-Go","trial_type":"pit-trial","trial_index":102,"time_elapsed":628613,"internal_node_id":"0.0-102.0"},{"Correct":32,"Choice":32,"RT":392.6600000122562,"Accuracy":1,"Sham":1,"Outcome":-1,"Block":2,"Trial":89,"Valence":"Lose","Action":"Go","trial_type":"pit-trial","trial_index":103,"time_elapsed":631519,"internal_node_id":"0.0-103.0"},{"Correct":32,"Choice":32,"RT":620.8549999864772,"Accuracy":1,"Sham":1,"Outcome":0,"Block":2,"Trial":90,"Valence":"Win","Action":"Go","trial_type":"pit-trial","trial_index":104,"time_elapsed":634652,"internal_node_id":"0.0-104.0"},{"Correct":-1,"Choice":-1,"RT":-1,"Accuracy":1,"Sham":0,"Outcome":1,"Block":2,"Trial":91,"Valence":"Win","Action":"No-Go","trial_type":"pit-trial","trial_index":105,"time_elapsed":638663,"internal_node_id":"0.0-105.0"},{"Correct":-1,"Choice":-1,"RT":-1,"Accuracy":1,"Sham":0,"Outcome":0,"Block":2,"Trial":92,"Valence":"Lose","Action":"No-Go","trial_type":"pit-trial","trial_index":106,"time_elapsed":642674,"internal_node_id":"0.0-106.0"},{"Correct":-1,"Choice":-1,"RT":-1,"Accuracy":1,"Sham":0,"Outcome":0,"Block":2,"Trial":93,"Valence":"Lose","Action":"No-Go","trial_type":"pit-trial","trial_index":107,"time_elapsed":646686,"internal_node_id":"0.0-107.0"},{"Correct":32,"Choice":32,"RT":453.92500003799796,"Accuracy":1,"Sham":0,"Outcome":1,"Block":2,"Trial":94,"Valence":"Win","Action":"Go","trial_type":"pit-trial","trial_index":108,"time_elapsed":649652,"internal_node_id":"0.0-108.0"},{"Correct":32,"Choice":-1,"RT":-1,"Accuracy":0,"Sham":0,"Outcome":-1,"Block":2,"Trial":95,"Valence":"Lose","Action":"Go","trial_type":"pit-trial","trial_index":109,"time_elapsed":653663,"internal_node_id":"0.0-109.0"},{"Correct":-1,"Choice":-1,"RT":-1,"Accuracy":1,"Sham":1,"Outcome":0,"Block":2,"Trial":96,"Valence":"Win","Action":"No-Go","trial_type":"pit-trial","trial_index":110,"time_elapsed":657677,"internal_node_id":"0.0-110.0"},{"Correct":-1,"Choice":-1,"RT":-1,"Accuracy":1,"Sham":1,"Outcome":-1,"Block":2,"Trial":97,"Valence":"Lose","Action":"No-Go","trial_type":"pit-trial","trial_index":111,"time_elapsed":661689,"internal_node_id":"0.0-111.0"},{"Correct":32,"Choice":32,"RT":432.64000001363456,"Accuracy":1,"Sham":0,"Outcome":1,"Block":2,"Trial":98,"Valence":"Win","Action":"Go","trial_type":"pit-trial","trial_index":112,"time_elapsed":664634,"internal_node_id":"0.0-112.0"},{"Correct":32,"Choice":32,"RT":568.3699999935925,"Accuracy":1,"Sham":0,"Outcome":0,"Block":2,"Trial":99,"Valence":"Lose","Action":"Go","trial_type":"pit-trial","trial_index":113,"time_elapsed":667714,"internal_node_id":"0.0-113.0"},{"Correct":-1,"Choice":32,"RT":706.8450000369921,"Accuracy":0,"Sham":0,"Outcome":0,"Block":2,"Trial":100,"Valence":"Win","Action":"No-Go","trial_type":"pit-trial","trial_index":114,"time_elapsed":670934,"internal_node_id":"0.0-114.0"},{"Correct":-1,"Choice":-1,"RT":-1,"Accuracy":1,"Sham":0,"Outcome":0,"Block":2,"Trial":101,"Valence":"Lose","Action":"No-Go","trial_type":"pit-trial","trial_index":115,"time_elapsed":674947,"internal_node_id":"0.0-115.0"},{"Correct":32,"Choice":32,"RT":567.7249999716878,"Accuracy":1,"Sham":0,"Outcome":0,"Block":2,"Trial":102,"Valence":"Lose","Action":"Go","trial_type":"pit-trial","trial_index":116,"time_elapsed":678021,"internal_node_id":"0.0-116.0"},{"Correct":32,"Choice":32,"RT":369.9650000780821,"Accuracy":1,"Sham":1,"Outcome":0,"Block":2,"Trial":103,"Valence":"Win","Action":"Go","trial_type":"pit-trial","trial_index":117,"time_elapsed":680898,"internal_node_id":"0.0-117.0"},{"Correct":-1,"Choice":32,"RT":614.8899999679998,"Accuracy":0,"Sham":1,"Outcome":1,"Block":2,"Trial":104,"Valence":"Win","Action":"No-Go","trial_type":"pit-trial","trial_index":118,"time_elapsed":684025,"internal_node_id":"0.0-118.0"},{"Correct":32,"Choice":32,"RT":664.0399999450892,"Accuracy":1,"Sham":0,"Outcome":0,"Block":2,"Trial":105,"Valence":"Lose","Action":"Go","trial_type":"pit-trial","trial_index":119,"time_elapsed":687195,"internal_node_id":"0.0-119.0"},{"Correct":32,"Choice":32,"RT":467.8800000110641,"Accuracy":1,"Sham":0,"Outcome":1,"Block":2,"Trial":106,"Valence":"Win","Action":"Go","trial_type":"pit-trial","trial_index":120,"time_elapsed":690175,"internal_node_id":"0.0-120.0"},{"Correct":-1,"Choice":32,"RT":468.4750000014901,"Accuracy":0,"Sham":0,"Outcome":0,"Block":2,"Trial":107,"Valence":"Win","Action":"No-Go","trial_type":"pit-trial","trial_index":121,"time_elapsed":693155,"internal_node_id":"0.0-121.0"},{"Correct":-1,"Choice":-1,"RT":-1,"Accuracy":1,"Sham":0,"Outcome":0,"Block":2,"Trial":108,"Valence":"Lose","Action":"No-Go","trial_type":"pit-trial","trial_index":122,"time_elapsed":697166,"internal_node_id":"0.0-122.0"},{"Correct":-1,"Choice":32,"RT":481.2000000383705,"Accuracy":0,"Sham":0,"Outcome":0,"Block":2,"Trial":109,"Valence":"Win","Action":"No-Go","trial_type":"pit-trial","trial_index":123,"time_elapsed":700157,"internal_node_id":"0.0-123.0"},{"Correct":-1,"Choice":-1,"RT":-1,"Accuracy":1,"Sham":0,"Outcome":0,"Block":2,"Trial":110,"Valence":"Lose","Action":"No-Go","trial_type":"pit-trial","trial_index":124,"time_elapsed":704164,"internal_node_id":"0.0-124.0"},{"Correct":32,"Choice":32,"RT":450.45000000391155,"Accuracy":1,"Sham":0,"Outcome":1,"Block":2,"Trial":111,"Valence":"Win","Action":"Go","trial_type":"pit-trial","trial_index":125,"time_elapsed":707127,"internal_node_id":"0.0-125.0"},{"Correct":32,"Choice":32,"RT":475.19499994814396,"Accuracy":1,"Sham":0,"Outcome":0,"Block":2,"Trial":112,"Valence":"Lose","Action":"Go","trial_type":"pit-trial","trial_index":126,"time_elapsed":710108,"internal_node_id":"0.0-126.0"},{"Correct":-1,"Choice":32,"RT":406.5849999897182,"Accuracy":0,"Sham":0,"Outcome":0,"Block":2,"Trial":113,"Valence":"Win","Action":"No-Go","trial_type":"pit-trial","trial_index":127,"time_elapsed":713020,"internal_node_id":"0.0-127.0"},{"Correct":-1,"Choice":-1,"RT":-1,"Accuracy":1,"Sham":0,"Outcome":0,"Block":2,"Trial":114,"Valence":"Lose","Action":"No-Go","trial_type":"pit-trial","trial_index":128,"time_elapsed":717025,"internal_node_id":"0.0-128.0"},{"Correct":32,"Choice":32,"RT":530.2399999927729,"Accuracy":1,"Sham":1,"Outcome":-1,"Block":2,"Trial":115,"Valence":"Lose","Action":"Go","trial_type":"pit-trial","trial_index":129,"time_elapsed":720062,"internal_node_id":"0.0-129.0"},{"Correct":32,"Choice":32,"RT":318.4350000228733,"Accuracy":1,"Sham":0,"Outcome":1,"Block":2,"Trial":116,"Valence":"Win","Action":"Go","trial_type":"pit-trial","trial_index":130,"time_elapsed":722887,"internal_node_id":"0.0-130.0"},{"Correct":-1,"Choice":-1,"RT":-1,"Accuracy":1,"Sham":1,"Outcome":-1,"Block":2,"Trial":117,"Valence":"Lose","Action":"No-Go","trial_type":"pit-trial","trial_index":131,"time_elapsed":726899,"internal_node_id":"0.0-131.0"},{"Correct":32,"Choice":32,"RT":731.0549999820068,"Accuracy":1,"Sham":0,"Outcome":0,"Block":2,"Trial":118,"Valence":"Lose","Action":"Go","trial_type":"pit-trial","trial_index":132,"time_elapsed":730142,"internal_node_id":"0.0-132.0"},{"Correct":-1,"Choice":32,"RT":682.8550000209361,"Accuracy":0,"Sham":0,"Outcome":0,"Block":2,"Trial":119,"Valence":"Win","Action":"No-Go","trial_type":"pit-trial","trial_index":133,"time_elapsed":733338,"internal_node_id":"0.0-133.0"},{"Correct":32,"Choice":32,"RT":417.4950000597164,"Accuracy":1,"Sham":0,"Outcome":1,"Block":2,"Trial":120,"Valence":"Win","Action":"Go","trial_type":"pit-trial","trial_index":134,"time_elapsed":736267,"internal_node_id":"0.0-134.0"},{"Correct":-1,"Choice":32,"RT":594.139999942854,"Accuracy":0,"Sham":0,"Outcome":0,"Block":2,"Trial":121,"Valence":"Win","Action":"No-Go","trial_type":"pit-trial","trial_index":135,"time_elapsed":739367,"internal_node_id":"0.0-135.0"},{"Correct":-1,"Choice":32,"RT":601.7449999926612,"Accuracy":0,"Sham":0,"Outcome":-1,"Block":2,"Trial":122,"Valence":"Lose","Action":"No-Go","trial_type":"pit-trial","trial_index":136,"time_elapsed":742475,"internal_node_id":"0.0-136.0"},{"Correct":32,"Choice":32,"RT":632.6899999985471,"Accuracy":1,"Sham":0,"Outcome":0,"Block":2,"Trial":123,"Valence":"Lose","Action":"Go","trial_type":"pit-trial","trial_index":137,"time_elapsed":745618,"internal_node_id":"0.0-137.0"},{"Correct":32,"Choice":32,"RT":296.19499994441867,"Accuracy":1,"Sham":1,"Outcome":0,"Block":2,"Trial":124,"Valence":"Win","Action":"Go","trial_type":"pit-trial","trial_index":138,"time_elapsed":748426,"internal_node_id":"0.0-138.0"},{"Correct":32,"Choice":-1,"RT":-1,"Accuracy":0,"Sham":1,"Outcome":0,"Block":2,"Trial":125,"Valence":"Lose","Action":"Go","trial_type":"pit-trial","trial_index":139,"time_elapsed":752438,"internal_node_id":"0.0-139.0"},{"Correct":-1,"Choice":-1,"RT":-1,"Accuracy":1,"Sham":0,"Outcome":0,"Block":2,"Trial":126,"Valence":"Lose","Action":"No-Go","trial_type":"pit-trial","trial_index":140,"time_elapsed":756450,"internal_node_id":"0.0-140.0"},{"Correct":-1,"Choice":32,"RT":406.7299999296665,"Accuracy":0,"Sham":0,"Outcome":0,"Block":2,"Trial":127,"Valence":"Win","Action":"No-Go","trial_type":"pit-trial","trial_index":141,"time_elapsed":759366,"internal_node_id":"0.0-141.0"},{"Correct":32,"Choice":32,"RT":469.32499995455146,"Accuracy":1,"Sham":0,"Outcome":1,"Block":2,"Trial":128,"Valence":"Win","Action":"Go","trial_type":"pit-trial","trial_index":142,"time_elapsed":762347,"internal_node_id":"0.0-142.0"},{"Correct":-1,"Choice":-1,"RT":-1,"Accuracy":1,"Sham":0,"Outcome":0,"Block":2,"Trial":129,"Valence":"Lose","Action":"No-Go","trial_type":"pit-trial","trial_index":143,"time_elapsed":766358,"internal_node_id":"0.0-143.0"},{"Correct":32,"Choice":32,"RT":371.05999991763383,"Accuracy":1,"Sham":0,"Outcome":1,"Block":2,"Trial":130,"Valence":"Win","Action":"Go","trial_type":"pit-trial","trial_index":144,"time_elapsed":769241,"internal_node_id":"0.0-144.0"},{"Correct":32,"Choice":-1,"RT":-1,"Accuracy":0,"Sham":0,"Outcome":-1,"Block":2,"Trial":131,"Valence":"Lose","Action":"Go","trial_type":"pit-trial","trial_index":145,"time_elapsed":773254,"internal_node_id":"0.0-145.0"},{"Correct":-1,"Choice":-1,"RT":-1,"Accuracy":1,"Sham":0,"Outcome":1,"Block":2,"Trial":132,"Valence":"Win","Action":"No-Go","trial_type":"pit-trial","trial_index":146,"time_elapsed":777267,"internal_node_id":"0.0-146.0"},{"Correct":-1,"Choice":-1,"RT":-1,"Accuracy":1,"Sham":0,"Outcome":0,"Block":2,"Trial":133,"Valence":"Lose","Action":"No-Go","trial_type":"pit-trial","trial_index":147,"time_elapsed":781274,"internal_node_id":"0.0-147.0"},{"Correct":32,"Choice":32,"RT":527.585000032559,"Accuracy":1,"Sham":0,"Outcome":1,"Block":2,"Trial":134,"Valence":"Win","Action":"Go","trial_type":"pit-trial","trial_index":148,"time_elapsed":784307,"internal_node_id":"0.0-148.0"},{"Correct":32,"Choice":32,"RT":375.7449999684468,"Accuracy":1,"Sham":0,"Outcome":0,"Block":2,"Trial":135,"Valence":"Lose","Action":"Go","trial_type":"pit-trial","trial_index":149,"time_elapsed":787192,"internal_node_id":"0.0-149.0"},{"Correct":-1,"Choice":-1,"RT":-1,"Accuracy":1,"Sham":0,"Outcome":1,"Block":2,"Trial":136,"Valence":"Win","Action":"No-Go","trial_type":"pit-trial","trial_index":150,"time_elapsed":791204,"internal_node_id":"0.0-150.0"},{"Correct":-1,"Choice":-1,"RT":-1,"Accuracy":1,"Sham":1,"Outcome":-1,"Block":2,"Trial":137,"Valence":"Lose","Action":"No-Go","trial_type":"pit-trial","trial_index":151,"time_elapsed":795216,"internal_node_id":"0.0-151.0"},{"Correct":32,"Choice":32,"RT":527.5900000706315,"Accuracy":1,"Sham":0,"Outcome":1,"Block":2,"Trial":138,"Valence":"Win","Action":"Go","trial_type":"pit-trial","trial_index":152,"time_elapsed":798253,"internal_node_id":"0.0-152.0"},{"Correct":32,"Choice":-1,"RT":-1,"Accuracy":0,"Sham":0,"Outcome":-1,"Block":2,"Trial":139,"Valence":"Lose","Action":"Go","trial_type":"pit-trial","trial_index":153,"time_elapsed":802265,"internal_node_id":"0.0-153.0"},{"Correct":-1,"Choice":-1,"RT":-1,"Accuracy":1,"Sham":1,"Outcome":0,"Block":2,"Trial":140,"Valence":"Win","Action":"No-Go","trial_type":"pit-trial","trial_index":154,"time_elapsed":806272,"internal_node_id":"0.0-154.0"},{"Correct":-1,"Choice":32,"RT":658.2649999763817,"Accuracy":0,"Sham":1,"Outcome":1,"Block":2,"Trial":141,"Valence":"Win","Action":"No-Go","trial_type":"pit-trial","trial_index":155,"time_elapsed":809441,"internal_node_id":"0.0-155.0"},{"Correct":32,"Choice":32,"RT":946.5599999530241,"Accuracy":1,"Sham":0,"Outcome":0,"Block":2,"Trial":142,"Valence":"Lose","Action":"Go","trial_type":"pit-trial","trial_index":156,"time_elapsed":812900,"internal_node_id":"0.0-156.0"},{"Correct":32,"Choice":32,"RT":459.0099999913946,"Accuracy":1,"Sham":0,"Outcome":1,"Block":2,"Trial":143,"Valence":"Win","Action":"Go","trial_type":"pit-trial","trial_index":157,"time_elapsed":815871,"internal_node_id":"0.0-157.0"},{"Correct":-1,"Choice":-1,"RT":-1,"Accuracy":1,"Sham":0,"Outcome":0,"Block":2,"Trial":144,"Valence":"Lose","Action":"No-Go","trial_type":"pit-trial","trial_index":158,"time_elapsed":819882,"internal_node_id":"0.0-158.0"},{"Correct":-1,"Choice":-1,"RT":-1,"Accuracy":1,"Sham":0,"Outcome":0,"Block":2,"Trial":145,"Valence":"Lose","Action":"No-Go","trial_type":"pit-trial","trial_index":159,"time_elapsed":823893,"internal_node_id":"0.0-159.0"},{"Correct":32,"Choice":32,"RT":484.79000001680106,"Accuracy":1,"Sham":0,"Outcome":1,"Block":2,"Trial":146,"Valence":"Win","Action":"Go","trial_type":"pit-trial","trial_index":160,"time_elapsed":826884,"internal_node_id":"0.0-160.0"},{"Correct":32,"Choice":32,"RT":591.4249999914318,"Accuracy":1,"Sham":0,"Outcome":0,"Block":2,"Trial":147,"Valence":"Lose","Action":"Go","trial_type":"pit-trial","trial_index":161,"time_elapsed":829985,"internal_node_id":"0.0-161.0"},{"Correct":-1,"Choice":32,"RT":907.6050000730902,"Accuracy":0,"Sham":0,"Outcome":0,"Block":2,"Trial":148,"Valence":"Win","Action":"No-Go","trial_type":"pit-trial","trial_index":162,"time_elapsed":833399,"internal_node_id":"0.0-162.0"},{"Correct":-1,"Choice":-1,"RT":-1,"Accuracy":1,"Sham":0,"Outcome":1,"Block":2,"Trial":149,"Valence":"Win","Action":"No-Go","trial_type":"pit-trial","trial_index":163,"time_elapsed":837410,"internal_node_id":"0.0-163.0"},{"Correct":-1,"Choice":-1,"RT":-1,"Accuracy":1,"Sham":0,"Outcome":0,"Block":2,"Trial":150,"Valence":"Lose","Action":"No-Go","trial_type":"pit-trial","trial_index":164,"time_elapsed":841423,"internal_node_id":"0.0-164.0"},{"Correct":32,"Choice":32,"RT":597.7150000398979,"Accuracy":1,"Sham":0,"Outcome":0,"Block":2,"Trial":151,"Valence":"Lose","Action":"Go","trial_type":"pit-trial","trial_index":165,"time_elapsed":844534,"internal_node_id":"0.0-165.0"},{"Correct":32,"Choice":32,"RT":474.61499995552003,"Accuracy":1,"Sham":0,"Outcome":1,"Block":2,"Trial":152,"Valence":"Win","Action":"Go","trial_type":"pit-trial","trial_index":166,"time_elapsed":847519,"internal_node_id":"0.0-166.0"},{"Correct":32,"Choice":32,"RT":443.76999989617616,"Accuracy":1,"Sham":0,"Outcome":1,"Block":2,"Trial":153,"Valence":"Win","Action":"Go","trial_type":"pit-trial","trial_index":167,"time_elapsed":850474,"internal_node_id":"0.0-167.0"},{"Correct":-1,"Choice":-1,"RT":-1,"Accuracy":1,"Sham":0,"Outcome":0,"Block":2,"Trial":154,"Valence":"Lose","Action":"No-Go","trial_type":"pit-trial","trial_index":168,"time_elapsed":854482,"internal_node_id":"0.0-168.0"},{"Correct":32,"Choice":32,"RT":758.8050001068041,"Accuracy":1,"Sham":0,"Outcome":0,"Block":2,"Trial":155,"Valence":"Lose","Action":"Go","trial_type":"pit-trial","trial_index":169,"time_elapsed":857753,"internal_node_id":"0.0-169.0"},{"Correct":-1,"Choice":32,"RT":817.0549999922514,"Accuracy":0,"Sham":0,"Outcome":0,"Block":2,"Trial":156,"Valence":"Win","Action":"No-Go","trial_type":"pit-trial","trial_index":170,"time_elapsed":861081,"internal_node_id":"0.0-170.0"},{"Correct":32,"Choice":32,"RT":1272.9399999370798,"Accuracy":1,"Sham":1,"Outcome":-1,"Block":2,"Trial":157,"Valence":"Lose","Action":"Go","trial_type":"pit-trial","trial_index":171,"time_elapsed":864860,"internal_node_id":"0.0-171.0"},{"Correct":-1,"Choice":-1,"RT":-1,"Accuracy":1,"Sham":1,"Outcome":-1,"Block":2,"Trial":158,"Valence":"Lose","Action":"No-Go","trial_type":"pit-trial","trial_index":172,"time_elapsed":868872,"internal_node_id":"0.0-172.0"},{"Correct":-1,"Choice":32,"RT":543.6300000874326,"Accuracy":0,"Sham":0,"Outcome":0,"Block":2,"Trial":159,"Valence":"Win","Action":"No-Go","trial_type":"pit-trial","trial_index":173,"time_elapsed":871927,"internal_node_id":"0.0-173.0"},{"Correct":32,"Choice":32,"RT":470.28500004671514,"Accuracy":1,"Sham":1,"Outcome":0,"Block":2,"Trial":160,"Valence":"Win","Action":"Go","trial_type":"pit-trial","trial_index":174,"time_elapsed":874903,"internal_node_id":"0.0-174.0"},{"rt":12730.050000012852,"demographics":{"age":"40","gender-categorical":"Female","ethnicity":"Hispanic or Latino","race":"White","english":"Yes","fluency":"Very well"},"trial_type":"survey-demo","trial_index":175,"time_elapsed":887646,"internal_node_id":"0.0-175.0"},{"rt":69903.79000001121,"debriefgraphics":{"difficulty":"4","fun":"4","clarity":"5","strategy":"I tried to give each shape a name and used go or stop silently as each one rolled by. I also tried both pressing or not regardless of the light color.","feedback":"none"},"trial_type":"survey-debrief","trial_index":176,"time_elapsed":957569,"internal_node_id":"0.0-176.0","interactions":"[{\"event\":\"blur\",\"trial\":94,\"time\":411287},{\"event\":\"focus\",\"trial\":94,\"time\":597013}]"}]