[{"view_history":"[{\"page_index\":0,\"viewing_time\":4715.055000036955},{\"page_index\":1,\"viewing_time\":2489.819999958854},{\"page_index\":2,\"viewing_time\":6902.100000006612},{\"page_index\":3,\"viewing_time\":3960.2300000260584},{\"page_index\":4,\"viewing_time\":5627.649999980349}]","rt":23697.704999998678,"trial_type":"pit-instructions","trial_index":0,"time_elapsed":23704,"internal_node_id":"0.0-0.0"},{"Valence":"Practice","Color":"#fffff080","Rune":"01","Correct":32,"Choice":32,"RT":80.08500002324581,"Accuracy":1,"Sham":0,"Outcome":"+10","Keys":[1582.8549999860115],"TotalKeys":1,"trial_type":"pit-trial","trial_index":1,"time_elapsed":26312,"internal_node_id":"0.0-1.0"},{"Valence":"Practice","Color":"#fffff080","Rune":"01","Correct":32,"Choice":32,"RT":359.6399999805726,"Accuracy":1,"Sham":0,"Outcome":"+10","Keys":[1860.2899999823421],"TotalKeys":1,"trial_type":"pit-trial","trial_index":2,"time_elapsed":29195,"internal_node_id":"0.0-2.0"},{"Valence":"Practice","Color":"#fffff080","Rune":"01","Correct":32,"Choice":32,"RT":382.4250000179745,"Accuracy":1,"Sham":0,"Outcome":"+10","Keys":[1882.915000023786],"TotalKeys":1,"trial_type":"pit-trial","trial_index":3,"time_elapsed":32125,"internal_node_id":"0.0-3.0"},{"Valence":"Practice","Color":"#fffff080","Rune":"01","Correct":32,"Choice":32,"RT":446.7900000163354,"Accuracy":1,"Sham":0,"Outcome":"+10","Keys":[1947.06999999471],"TotalKeys":1,"trial_type":"pit-trial","trial_index":4,"time_elapsed":35111,"internal_node_id":"0.0-4.0"},{"view_history":"[{\"page_index\":0,\"viewing_time\":2783.6699999752454}]","rt":2788.600000028964,"trial_type":"pit-instructions","trial_index":5,"time_elapsed":37911,"internal_node_id":"0.0-5.0"},{"Valence":"Practice","Color":"#fffff080","Rune":"02","Correct":-1,"Choice":-1,"RT":-1,"Accuracy":1,"Sham":0,"Outcome":"+10","Keys":[],"TotalKeys":0,"trial_type":"pit-trial","trial_index":6,"time_elapsed":41946,"internal_node_id":"0.0-6.0"},{"Valence":"Practice","Color":"#fffff080","Rune":"02","Correct":-1,"Choice":-1,"RT":-1,"Accuracy":1,"Sham":0,"Outcome":"+10","Keys":[],"TotalKeys":0,"trial_type":"pit-trial","trial_index":7,"time_elapsed":45968,"internal_node_id":"0.0-7.0"},{"Valence":"Practice","Color":"#fffff080","Rune":"02","Correct":-1,"Choice":-1,"RT":-1,"Accuracy":1,"Sham":0,"Outcome":"+10","Keys":[],"TotalKeys":0,"trial_type":"pit-trial","trial_index":8,"time_elapsed":49985,"internal_node_id":"0.0-8.0"},{"Valence":"Practice","Color":"#fffff080","Rune":"02","Correct":-1,"Choice":-1,"RT":-1,"Accuracy":1,"Sham":0,"Outcome":"+10","Keys":[],"TotalKeys":0,"trial_type":"pit-trial","trial_index":9,"time_elapsed":54007,"internal_node_id":"0.0-9.0"},{"view_history":"[{\"page_index\":0,\"viewing_time\":4821.565000049304},{\"page_index\":1,\"viewing_time\":6909.744999953546},{\"page_index\":2,\"viewing_time\":10306.26000004122},{\"page_index\":3,\"viewing_time\":3778.134999971371},{\"page_index\":4,\"viewing_time\":3947.630000009667},{\"page_index\":5,\"viewing_time\":11326.080000028014},{\"page_index\":6,\"viewing_time\":4542.119999998249},{\"page_index\":7,\"viewing_time\":1311.9350000051782}]","rt":46945.08500001393,"trial_type":"pit-instructions","trial_index":10,"time_elapsed":100971,"internal_node_id":"0.0-10.0"},{"rt":20072.214999992866,"responses":"{\"no-press\":\"Do nothing\",\"context-win\":\"+10\",\"context-lose\":\"-1\",\"feedback\":\"True\"}","errors":0,"trial_type":"pit-comprehension","trial_index":11,"time_elapsed":121067,"internal_node_id":"0.0-11.0"},{"view_history":"[{\"page_index\":0,\"viewing_time\":1898.8699999754317}]","rt":1900.3299999749288,"trial_type":"pit-instructions","trial_index":12,"time_elapsed":122989,"internal_node_id":"0.0-12.0"},{"Valence":"Win","Color":"#3366ff99","Rune":"05","Correct":-1,"Choice":32,"RT":489.934999961406,"Accuracy":0,"Sham":0,"Outcome":"+1","Keys":[1990.590000001248],"TotalKeys":1,"Block":1,"Trial":1,"Action":"No-Go","Robot":2,"trial_type":"pit-trial","trial_index":13,"time_elapsed":125998,"internal_node_id":"0.0-13.0"},{"Valence":"Lose","Color":"#ffcc3399","Rune":"04","Correct":32,"Choice":-1,"RT":-1,"Accuracy":0,"Sham":0,"Outcome":"-10","Keys":[],"TotalKeys":0,"Block":1,"Trial":2,"Action":"Go","Robot":3,"trial_type":"pit-trial","trial_index":14,"time_elapsed":130019,"internal_node_id":"0.0-14.0"},{"Valence":"Lose","Color":"#ffcc3399","Rune":"03","Correct":-1,"Choice":-1,"RT":-1,"Accuracy":1,"Sham":0,"Outcome":"-1","Keys":[],"TotalKeys":0,"Block":1,"Trial":3,"Action":"No-Go","Robot":4,"trial_type":"pit-trial","trial_index":15,"time_elapsed":134047,"internal_node_id":"0.0-15.0"},{"Valence":"Win","Color":"#3366ff99","Rune":"06","Correct":32,"Choice":32,"RT":937.2350000194274,"Accuracy":1,"Sham":0,"Outcome":"+10","Keys":[2438.514999987092],"TotalKeys":1,"Block":1,"Trial":4,"Action":"Go","Robot":1,"trial_type":"pit-trial","trial_index":16,"time_elapsed":137513,"internal_node_id":"0.0-16.0"},{"Valence":"Lose","Color":"#ffcc3399","Rune":"04","Correct":32,"Choice":-1,"RT":-1,"Accuracy":0,"Sham":1,"Outcome":"-1","Keys":[],"TotalKeys":0,"Block":1,"Trial":5,"Action":"Go","Robot":3,"trial_type":"pit-trial","trial_index":17,"time_elapsed":141533,"internal_node_id":"0.0-17.0"},{"Valence":"Lose","Color":"#ffcc3399","Rune":"03","Correct":-1,"Choice":-1,"RT":-1,"Accuracy":1,"Sham":0,"Outcome":"-1","Keys":[],"TotalKeys":0,"Block":1,"Trial":6,"Action":"No-Go","Robot":4,"trial_type":"pit-trial","trial_index":18,"time_elapsed":145550,"internal_node_id":"0.0-18.0"},{"Valence":"Win","Color":"#3366ff99","Rune":"06","Correct":32,"Choice":32,"RT":622.3800000152551,"Accuracy":1,"Sham":0,"Outcome":"+10","Keys":[2123.20000003092],"TotalKeys":1,"Block":1,"Trial":7,"Action":"Go","Robot":1,"trial_type":"pit-trial","trial_index":19,"time_elapsed":148688,"internal_node_id":"0.0-19.0"},{"Valence":"Win","Color":"#3366ff99","Rune":"05","Correct":-1,"Choice":32,"RT":716.744999983348,"Accuracy":0,"Sham":0,"Outcome":"+1","Keys":[2218.9999999827705],"TotalKeys":1,"Block":1,"Trial":8,"Action":"No-Go","Robot":2,"trial_type":"pit-trial","trial_index":20,"time_elapsed":151929,"internal_node_id":"0.0-20.0"},{"Valence":"Win","Color":"#3366ff99","Rune":"06","Correct":32,"Choice":32,"RT":633.1100000534207,"Accuracy":1,"Sham":0,"Outcome":"+10","Keys":[2134.269999980461],"TotalKeys":1,"Block":1,"Trial":9,"Action":"Go","Robot":1,"trial_type":"pit-trial","trial_index":21,"time_elapsed":155078,"internal_node_id":"0.0-21.0"},{"Valence":"Lose","Color":"#ffcc3399","Rune":"04","Correct":32,"Choice":-1,"RT":-1,"Accuracy":0,"Sham":0,"Outcome":"-10","Keys":[],"TotalKeys":0,"Block":1,"Trial":10,"Action":"Go","Robot":3,"trial_type":"pit-trial","trial_index":22,"time_elapsed":159094,"internal_node_id":"0.0-22.0"},{"Valence":"Win","Color":"#3366ff99","Rune":"05","Correct":-1,"Choice":32,"RT":728.3199999947101,"Accuracy":0,"Sham":0,"Outcome":"+1","Keys":[2230.5000000051223],"TotalKeys":1,"Block":1,"Trial":11,"Action":"No-Go","Robot":2,"trial_type":"pit-trial","trial_index":23,"time_elapsed":162341,"internal_node_id":"0.0-23.0"},{"Valence":"Lose","Color":"#ffcc3399","Rune":"03","Correct":-1,"Choice":-1,"RT":-1,"Accuracy":1,"Sham":0,"Outcome":"-1","Keys":[],"TotalKeys":0,"Block":1,"Trial":12,"Action":"No-Go","Robot":4,"trial_type":"pit-trial","trial_index":24,"time_elapsed":166364,"internal_node_id":"0.0-24.0"},{"Valence":"Win","Color":"#3366ff99","Rune":"06","Correct":32,"Choice":32,"RT":458.22999998927116,"Accuracy":1,"Sham":0,"Outcome":"+10","Keys":[1958.5949999745935],"TotalKeys":1,"Block":1,"Trial":13,"Action":"Go","Robot":1,"trial_type":"pit-trial","trial_index":25,"time_elapsed":169344,"internal_node_id":"0.0-25.0"},{"Valence":"Win","Color":"#3366ff99","Rune":"05","Correct":-1,"Choice":-1,"RT":-1,"Accuracy":1,"Sham":0,"Outcome":"+10","Keys":[],"TotalKeys":0,"Block":1,"Trial":14,"Action":"No-Go","Robot":2,"trial_type":"pit-trial","trial_index":26,"time_elapsed":173361,"internal_node_id":"0.0-26.0"},{"Valence":"Lose","Color":"#ffcc3399","Rune":"04","Correct":32,"Choice":32,"RT":824.3450000300072,"Accuracy":1,"Sham":0,"Outcome":"-1","Keys":[2326.0950000258163],"TotalKeys":1,"Block":1,"Trial":15,"Action":"Go","Robot":3,"trial_type":"pit-trial","trial_index":27,"time_elapsed":176705,"internal_node_id":"0.0-27.0"},{"Valence":"Lose","Color":"#ffcc3399","Rune":"03","Correct":-1,"Choice":-1,"RT":-1,"Accuracy":1,"Sham":1,"Outcome":"-10","Keys":[],"TotalKeys":0,"Block":1,"Trial":16,"Action":"No-Go","Robot":4,"trial_type":"pit-trial","trial_index":28,"time_elapsed":180724,"internal_node_id":"0.0-28.0"},{"Valence":"Win","Color":"#3366ff99","Rune":"06","Correct":32,"Choice":32,"RT":497.6150000002235,"Accuracy":1,"Sham":1,"Outcome":"1","Keys":[1997.719999984838],"TotalKeys":1,"Block":1,"Trial":17,"Action":"Go","Robot":1,"trial_type":"pit-trial","trial_index":29,"time_elapsed":183743,"internal_node_id":"0.0-29.0"},{"Valence":"Lose","Color":"#ffcc3399","Rune":"04","Correct":32,"Choice":32,"RT":752.0299999741837,"Accuracy":1,"Sham":0,"Outcome":"-1","Keys":[2254.015000013169],"TotalKeys":1,"Block":1,"Trial":18,"Action":"Go","Robot":3,"trial_type":"pit-trial","trial_index":30,"time_elapsed":187026,"internal_node_id":"0.0-30.0"},{"Valence":"Win","Color":"#3366ff99","Rune":"05","Correct":-1,"Choice":32,"RT":610.0700000533834,"Accuracy":0,"Sham":1,"Outcome":"+10","Keys":[2111.3149999873713],"TotalKeys":1,"Block":1,"Trial":19,"Action":"No-Go","Robot":2,"trial_type":"pit-trial","trial_index":31,"time_elapsed":190152,"internal_node_id":"0.0-31.0"},{"Valence":"Lose","Color":"#ffcc3399","Rune":"03","Correct":-1,"Choice":-1,"RT":-1,"Accuracy":1,"Sham":0,"Outcome":"-1","Keys":[],"TotalKeys":0,"Block":1,"Trial":20,"Action":"No-Go","Robot":4,"trial_type":"pit-trial","trial_index":32,"time_elapsed":194171,"internal_node_id":"0.0-32.0"},{"Valence":"Lose","Color":"#ffcc3399","Rune":"03","Correct":-1,"Choice":-1,"RT":-1,"Accuracy":1,"Sham":0,"Outcome":"-1","Keys":[],"TotalKeys":0,"Block":1,"Trial":21,"Action":"No-Go","Robot":4,"trial_type":"pit-trial","trial_index":33,"time_elapsed":198187,"internal_node_id":"0.0-33.0"},{"Valence":"Win","Color":"#3366ff99","Rune":"05","Correct":-1,"Choice":32,"RT":497.58500000461936,"Accuracy":0,"Sham":0,"Outcome":"+1","Keys":[1997.6749999914318],"TotalKeys":1,"Block":1,"Trial":22,"Action":"No-Go","Robot":2,"trial_type":"pit-trial","trial_index":34,"time_elapsed":201200,"internal_node_id":"0.0-34.0"},{"Valence":"Win","Color":"#3366ff99","Rune":"06","Correct":32,"Choice":32,"RT":527.4699999717996,"Accuracy":1,"Sham":0,"Outcome":"+10","Keys":[2028.180000022985],"TotalKeys":1,"Block":1,"Trial":23,"Action":"Go","Robot":1,"trial_type":"pit-trial","trial_index":35,"time_elapsed":204244,"internal_node_id":"0.0-35.0"},{"Valence":"Lose","Color":"#ffcc3399","Rune":"04","Correct":32,"Choice":32,"RT":629.674999974668,"Accuracy":1,"Sham":0,"Outcome":"-1","Keys":[2132.144999981392],"TotalKeys":1,"Block":1,"Trial":24,"Action":"Go","Robot":3,"trial_type":"pit-trial","trial_index":36,"time_elapsed":207394,"internal_node_id":"0.0-36.0"},{"Valence":"Lose","Color":"#ffcc3399","Rune":"03","Correct":-1,"Choice":32,"RT":788.2749999989755,"Accuracy":0,"Sham":0,"Outcome":"-10","Keys":[2290.760000003502],"TotalKeys":1,"Block":1,"Trial":25,"Action":"No-Go","Robot":4,"trial_type":"pit-trial","trial_index":37,"time_elapsed":210703,"internal_node_id":"0.0-37.0"},{"Valence":"Win","Color":"#3366ff99","Rune":"06","Correct":32,"Choice":32,"RT":457.85999996587634,"Accuracy":1,"Sham":0,"Outcome":"+10","Keys":[1959.6499999752268],"TotalKeys":1,"Block":1,"Trial":26,"Action":"Go","Robot":1,"trial_type":"pit-trial","trial_index":38,"time_elapsed":213721,"internal_node_id":"0.0-38.0"},{"Valence":"Lose","Color":"#ffcc3399","Rune":"04","Correct":32,"Choice":32,"RT":757.2300000465475,"Accuracy":1,"Sham":0,"Outcome":"-1","Keys":[2257.8949999879114],"TotalKeys":1,"Block":1,"Trial":27,"Action":"Go","Robot":3,"trial_type":"pit-trial","trial_index":39,"time_elapsed":216999,"internal_node_id":"0.0-39.0"},{"Valence":"Win","Color":"#3366ff99","Rune":"05","Correct":-1,"Choice":-1,"RT":-1,"Accuracy":1,"Sham":0,"Outcome":"+10","Keys":[],"TotalKeys":0,"Block":1,"Trial":28,"Action":"No-Go","Robot":2,"trial_type":"pit-trial","trial_index":40,"time_elapsed":221040,"internal_node_id":"0.0-40.0"},{"Valence":"Lose","Color":"#ffcc3399","Rune":"04","Correct":32,"Choice":32,"RT":856.4650000189431,"Accuracy":1,"Sham":0,"Outcome":"-1","Keys":[2356.804999988526],"TotalKeys":1,"Block":1,"Trial":29,"Action":"Go","Robot":3,"trial_type":"pit-trial","trial_index":41,"time_elapsed":224429,"internal_node_id":"0.0-41.0"},{"Valence":"Win","Color":"#3366ff99","Rune":"05","Correct":-1,"Choice":-1,"RT":-1,"Accuracy":1,"Sham":1,"Outcome":"1","Keys":[],"TotalKeys":0,"Block":1,"Trial":30,"Action":"No-Go","Robot":2,"trial_type":"pit-trial","trial_index":42,"time_elapsed":228454,"internal_node_id":"0.0-42.0"},{"Valence":"Win","Color":"#3366ff99","Rune":"06","Correct":32,"Choice":32,"RT":514.1299999668263,"Accuracy":1,"Sham":1,"Outcome":"1","Keys":[2014.6999999997206],"TotalKeys":1,"Block":1,"Trial":31,"Action":"Go","Robot":1,"trial_type":"pit-trial","trial_index":43,"time_elapsed":231488,"internal_node_id":"0.0-43.0"},{"Valence":"Lose","Color":"#ffcc3399","Rune":"03","Correct":-1,"Choice":32,"RT":773.769999970682,"Accuracy":0,"Sham":0,"Outcome":"-10","Keys":[2274.390000035055],"TotalKeys":1,"Block":1,"Trial":32,"Action":"No-Go","Robot":4,"trial_type":"pit-trial","trial_index":44,"time_elapsed":234781,"internal_node_id":"0.0-44.0"},{"Valence":"Lose","Color":"#ffcc3399","Rune":"03","Correct":-1,"Choice":-1,"RT":-1,"Accuracy":1,"Sham":0,"Outcome":"-1","Keys":[],"TotalKeys":0,"Block":1,"Trial":33,"Action":"No-Go","Robot":4,"trial_type":"pit-trial","trial_index":45,"time_elapsed":238795,"internal_node_id":"0.0-45.0"},{"Valence":"Win","Color":"#3366ff99","Rune":"05","Correct":-1,"Choice":32,"RT":980.6649999809451,"Accuracy":0,"Sham":0,"Outcome":"+1","Keys":[2481.5200000302866],"TotalKeys":1,"Block":1,"Trial":34,"Action":"No-Go","Robot":2,"trial_type":"pit-trial","trial_index":46,"time_elapsed":242292,"internal_node_id":"0.0-46.0"},{"Valence":"Win","Color":"#3366ff99","Rune":"06","Correct":32,"Choice":32,"RT":586.0399999655783,"Accuracy":1,"Sham":0,"Outcome":"+10","Keys":[2086.639999994077],"TotalKeys":1,"Block":1,"Trial":35,"Action":"Go","Robot":1,"trial_type":"pit-trial","trial_index":47,"time_elapsed":245400,"internal_node_id":"0.0-47.0"},{"Valence":"Lose","Color":"#ffcc3399","Rune":"04","Correct":32,"Choice":32,"RT":843.75,"Accuracy":1,"Sham":1,"Outcome":"-10","Keys":[2346.36500000488],"TotalKeys":1,"Block":1,"Trial":36,"Action":"Go","Robot":3,"trial_type":"pit-trial","trial_index":48,"time_elapsed":248766,"internal_node_id":"0.0-48.0"},{"Valence":"Lose","Color":"#ffcc3399","Rune":"03","Correct":-1,"Choice":32,"RT":1017.7850000327453,"Accuracy":0,"Sham":1,"Outcome":"-1","Keys":[2517.959999968298],"TotalKeys":1,"Block":1,"Trial":37,"Action":"No-Go","Robot":4,"trial_type":"pit-trial","trial_index":49,"time_elapsed":252319,"internal_node_id":"0.0-49.0"},{"Valence":"Lose","Color":"#ffcc3399","Rune":"04","Correct":32,"Choice":32,"RT":1048.125000030268,"Accuracy":1,"Sham":0,"Outcome":"-1","Keys":[2549.31500001112],"TotalKeys":1,"Block":1,"Trial":38,"Action":"Go","Robot":3,"trial_type":"pit-trial","trial_index":50,"time_elapsed":255890,"internal_node_id":"0.0-50.0"},{"Valence":"Win","Color":"#3366ff99","Rune":"06","Correct":32,"Choice":32,"RT":453.3100000116974,"Accuracy":1,"Sham":0,"Outcome":"+10","Keys":[1954.2950000031851],"TotalKeys":1,"Block":1,"Trial":39,"Action":"Go","Robot":1,"trial_type":"pit-trial","trial_index":51,"time_elapsed":258865,"internal_node_id":"0.0-51.0"},{"Valence":"Win","Color":"#3366ff99","Rune":"05","Correct":-1,"Choice":32,"RT":903.0949999578297,"Accuracy":0,"Sham":0,"Outcome":"+1","Keys":[2405.0249999854714],"TotalKeys":1,"Block":1,"Trial":40,"Action":"No-Go","Robot":2,"trial_type":"pit-trial","trial_index":52,"time_elapsed":262287,"internal_node_id":"0.0-52.0"},{"Valence":"Lose","Color":"#ffcc3399","Rune":"04","Correct":32,"Choice":32,"RT":1003.2200000132434,"Accuracy":1,"Sham":1,"Outcome":"-10","Keys":[2503.6550000077114],"TotalKeys":1,"Block":1,"Trial":41,"Action":"Go","Robot":3,"trial_type":"pit-trial","trial_index":53,"time_elapsed":265818,"internal_node_id":"0.0-53.0"},{"Valence":"Win","Color":"#3366ff99","Rune":"05","Correct":-1,"Choice":32,"RT":812.1449999744073,"Accuracy":0,"Sham":0,"Outcome":"+1","Keys":[2312.6950000296347],"TotalKeys":1,"Block":1,"Trial":42,"Action":"No-Go","Robot":2,"trial_type":"pit-trial","trial_index":54,"time_elapsed":269148,"internal_node_id":"0.0-54.0"},{"Valence":"Lose","Color":"#ffcc3399","Rune":"03","Correct":-1,"Choice":32,"RT":615.2400000137277,"Accuracy":0,"Sham":0,"Outcome":"-10","Keys":[2117.0249999850057],"TotalKeys":1,"Block":1,"Trial":43,"Action":"No-Go","Robot":4,"trial_type":"pit-trial","trial_index":55,"time_elapsed":272279,"internal_node_id":"0.0-55.0"},{"Valence":"Win","Color":"#3366ff99","Rune":"06","Correct":32,"Choice":32,"RT":310.43000001227483,"Accuracy":1,"Sham":0,"Outcome":"+10","Keys":[1810.6750000151806],"TotalKeys":1,"Block":1,"Trial":44,"Action":"Go","Robot":1,"trial_type":"pit-trial","trial_index":56,"time_elapsed":275109,"internal_node_id":"0.0-56.0"},{"Valence":"Lose","Color":"#ffcc3399","Rune":"03","Correct":-1,"Choice":32,"RT":667.940000013914,"Accuracy":0,"Sham":0,"Outcome":"-10","Keys":[2168.2900000014342],"TotalKeys":1,"Block":1,"Trial":45,"Action":"No-Go","Robot":4,"trial_type":"pit-trial","trial_index":57,"time_elapsed":278304,"internal_node_id":"0.0-57.0"},{"Valence":"Win","Color":"#3366ff99","Rune":"05","Correct":-1,"Choice":32,"RT":531.2099999864586,"Accuracy":0,"Sham":1,"Outcome":"+10","Keys":[2031.7049999721348],"TotalKeys":1,"Block":1,"Trial":46,"Action":"No-Go","Robot":2,"trial_type":"pit-trial","trial_index":58,"time_elapsed":281355,"internal_node_id":"0.0-58.0"},{"Valence":"Lose","Color":"#ffcc3399","Rune":"04","Correct":32,"Choice":32,"RT":800.0799999572337,"Accuracy":1,"Sham":0,"Outcome":"-1","Keys":[2300.244999991264],"TotalKeys":1,"Block":1,"Trial":47,"Action":"Go","Robot":3,"trial_type":"pit-trial","trial_index":59,"time_elapsed":284683,"internal_node_id":"0.0-59.0"},{"Valence":"Win","Color":"#3366ff99","Rune":"06","Correct":32,"Choice":32,"RT":491.73499998869374,"Accuracy":1,"Sham":0,"Outcome":"+10","Keys":[1992.2249999945052],"TotalKeys":1,"Block":1,"Trial":48,"Action":"Go","Robot":1,"trial_type":"pit-trial","trial_index":60,"time_elapsed":287700,"internal_node_id":"0.0-60.0"},{"Valence":"Lose","Color":"#ffcc3399","Rune":"03","Correct":-1,"Choice":32,"RT":707.8350000083447,"Accuracy":0,"Sham":0,"Outcome":"-10","Keys":[2209.4100000103936],"TotalKeys":1,"Block":1,"Trial":49,"Action":"No-Go","Robot":4,"trial_type":"pit-trial","trial_index":61,"time_elapsed":290926,"internal_node_id":"0.0-61.0"},{"Valence":"Win","Color":"#3366ff99","Rune":"06","Correct":32,"Choice":32,"RT":462.8750000265427,"Accuracy":1,"Sham":0,"Outcome":"+10","Keys":[1963.4899999946356],"TotalKeys":1,"Block":1,"Trial":50,"Action":"Go","Robot":1,"trial_type":"pit-trial","trial_index":62,"time_elapsed":293915,"internal_node_id":"0.0-62.0"},{"Valence":"Win","Color":"#3366ff99","Rune":"05","Correct":-1,"Choice":32,"RT":449.82499995967373,"Accuracy":0,"Sham":0,"Outcome":"+1","Keys":[1949.8550000134856],"TotalKeys":1,"Block":1,"Trial":51,"Action":"No-Go","Robot":2,"trial_type":"pit-trial","trial_index":63,"time_elapsed":296880,"internal_node_id":"0.0-63.0"},{"Valence":"Lose","Color":"#ffcc3399","Rune":"04","Correct":32,"Choice":32,"RT":513.9699999708682,"Accuracy":1,"Sham":0,"Outcome":"-1","Keys":[2014.2200000118464],"TotalKeys":1,"Block":1,"Trial":52,"Action":"Go","Robot":3,"trial_type":"pit-trial","trial_index":64,"time_elapsed":299912,"internal_node_id":"0.0-64.0"},{"Valence":"Win","Color":"#3366ff99","Rune":"05","Correct":-1,"Choice":32,"RT":453.2199999666773,"Accuracy":0,"Sham":0,"Outcome":"+1","Keys":[1953.5000000032596],"TotalKeys":1,"Block":1,"Trial":53,"Action":"No-Go","Robot":2,"trial_type":"pit-trial","trial_index":65,"time_elapsed":302880,"internal_node_id":"0.0-65.0"},{"Valence":"Lose","Color":"#ffcc3399","Rune":"04","Correct":32,"Choice":32,"RT":541.8300000019372,"Accuracy":1,"Sham":0,"Outcome":"-1","Keys":[2041.9899999978952],"TotalKeys":1,"Block":1,"Trial":54,"Action":"Go","Robot":3,"trial_type":"pit-trial","trial_index":66,"time_elapsed":305937,"internal_node_id":"0.0-66.0"},{"Valence":"Lose","Color":"#ffcc3399","Rune":"03","Correct":-1,"Choice":32,"RT":502.5000000023283,"Accuracy":0,"Sham":0,"Outcome":"-10","Keys":[2002.6599999982864],"TotalKeys":1,"Block":1,"Trial":55,"Action":"No-Go","Robot":4,"trial_type":"pit-trial","trial_index":67,"time_elapsed":308954,"internal_node_id":"0.0-67.0"},{"Valence":"Win","Color":"#3366ff99","Rune":"06","Correct":32,"Choice":32,"RT":639.1350000048988,"Accuracy":1,"Sham":0,"Outcome":"+10","Keys":[2140.109999978449],"TotalKeys":1,"Block":1,"Trial":56,"Action":"Go","Robot":1,"trial_type":"pit-trial","trial_index":68,"time_elapsed":312110,"internal_node_id":"0.0-68.0"},{"Valence":"Win","Color":"#3366ff99","Rune":"06","Correct":32,"Choice":32,"RT":410.6599999940954,"Accuracy":1,"Sham":1,"Outcome":"1","Keys":[1911.965000035707],"TotalKeys":1,"Block":1,"Trial":57,"Action":"Go","Robot":1,"trial_type":"pit-trial","trial_index":69,"time_elapsed":315057,"internal_node_id":"0.0-69.0"},{"Valence":"Lose","Color":"#ffcc3399","Rune":"04","Correct":32,"Choice":32,"RT":508.11500003328547,"Accuracy":1,"Sham":0,"Outcome":"-1","Keys":[2009.9100000225008],"TotalKeys":1,"Block":1,"Trial":58,"Action":"Go","Robot":3,"trial_type":"pit-trial","trial_index":70,"time_elapsed":318081,"internal_node_id":"0.0-70.0"},{"Valence":"Lose","Color":"#ffcc3399","Rune":"03","Correct":-1,"Choice":-1,"RT":-1,"Accuracy":1,"Sham":1,"Outcome":"-10","Keys":[],"TotalKeys":0,"Block":1,"Trial":59,"Action":"No-Go","Robot":4,"trial_type":"pit-trial","trial_index":71,"time_elapsed":322114,"internal_node_id":"0.0-71.0"},{"Valence":"Win","Color":"#3366ff99","Rune":"05","Correct":-1,"Choice":32,"RT":550.1599999843165,"Accuracy":0,"Sham":0,"Outcome":"+1","Keys":[2085.915000003297],"TotalKeys":1,"Block":1,"Trial":60,"Action":"No-Go","Robot":2,"trial_type":"pit-trial","trial_index":72,"time_elapsed":325245,"internal_node_id":"0.0-72.0"},{"Valence":"Win","Color":"#3366ff99","Rune":"05","Correct":-1,"Choice":32,"RT":432.8000000095926,"Accuracy":0,"Sham":0,"Outcome":"+1","Keys":[1936.1349999671802],"TotalKeys":1,"Block":1,"Trial":61,"Action":"No-Go","Robot":2,"trial_type":"pit-trial","trial_index":73,"time_elapsed":328199,"internal_node_id":"0.0-73.0"},{"Valence":"Lose","Color":"#ffcc3399","Rune":"04","Correct":32,"Choice":32,"RT":877.695000031963,"Accuracy":1,"Sham":0,"Outcome":"-1","Keys":[2379.0550000267103],"TotalKeys":1,"Block":1,"Trial":62,"Action":"Go","Robot":3,"trial_type":"pit-trial","trial_index":74,"time_elapsed":331593,"internal_node_id":"0.0-74.0"},{"Valence":"Lose","Color":"#ffcc3399","Rune":"03","Correct":-1,"Choice":-1,"RT":-1,"Accuracy":1,"Sham":0,"Outcome":"-1","Keys":[],"TotalKeys":0,"Block":1,"Trial":63,"Action":"No-Go","Robot":4,"trial_type":"pit-trial","trial_index":75,"time_elapsed":335614,"internal_node_id":"0.0-75.0"},{"Valence":"Win","Color":"#3366ff99","Rune":"06","Correct":32,"Choice":32,"RT":561.9550000410527,"Accuracy":1,"Sham":0,"Outcome":"+10","Keys":[2062.8450000076555],"TotalKeys":1,"Block":1,"Trial":64,"Action":"Go","Robot":1,"trial_type":"pit-trial","trial_index":76,"time_elapsed":338696,"internal_node_id":"0.0-76.0"},{"Valence":"Win","Color":"#3366ff99","Rune":"05","Correct":-1,"Choice":-1,"RT":-1,"Accuracy":1,"Sham":0,"Outcome":"+10","Keys":[],"TotalKeys":0,"Block":1,"Trial":65,"Action":"No-Go","Robot":2,"trial_type":"pit-trial","trial_index":77,"time_elapsed":342713,"internal_node_id":"0.0-77.0"},{"Valence":"Lose","Color":"#ffcc3399","Rune":"03","Correct":-1,"Choice":-1,"RT":-1,"Accuracy":1,"Sham":0,"Outcome":"-1","Keys":[],"TotalKeys":0,"Block":1,"Trial":66,"Action":"No-Go","Robot":4,"trial_type":"pit-trial","trial_index":78,"time_elapsed":346730,"internal_node_id":"0.0-78.0"},{"Valence":"Win","Color":"#3366ff99","Rune":"06","Correct":32,"Choice":32,"RT":618.0400000303052,"Accuracy":1,"Sham":1,"Outcome":"1","Keys":[2119.0499999793246],"TotalKeys":1,"Block":1,"Trial":67,"Action":"Go","Robot":1,"trial_type":"pit-trial","trial_index":79,"time_elapsed":349865,"internal_node_id":"0.0-79.0"},{"Valence":"Lose","Color":"#ffcc3399","Rune":"04","Correct":32,"Choice":-1,"RT":-1,"Accuracy":0,"Sham":0,"Outcome":"-10","Keys":[],"TotalKeys":0,"Block":1,"Trial":68,"Action":"Go","Robot":3,"trial_type":"pit-trial","trial_index":80,"time_elapsed":353879,"internal_node_id":"0.0-80.0"},{"Valence":"Lose","Color":"#ffcc3399","Rune":"03","Correct":-1,"Choice":-1,"RT":-1,"Accuracy":1,"Sham":1,"Outcome":"-10","Keys":[],"TotalKeys":0,"Block":1,"Trial":69,"Action":"No-Go","Robot":4,"trial_type":"pit-trial","trial_index":81,"time_elapsed":357896,"internal_node_id":"0.0-81.0"},{"Valence":"Lose","Color":"#ffcc3399","Rune":"04","Correct":32,"Choice":-1,"RT":-1,"Accuracy":0,"Sham":0,"Outcome":"-10","Keys":[],"TotalKeys":0,"Block":1,"Trial":70,"Action":"Go","Robot":3,"trial_type":"pit-trial","trial_index":82,"time_elapsed":361912,"internal_node_id":"0.0-82.0"},{"Valence":"Win","Color":"#3366ff99","Rune":"06","Correct":32,"Choice":32,"RT":610.0900000310503,"Accuracy":1,"Sham":0,"Outcome":"+10","Keys":[2110.8600000152364],"TotalKeys":1,"Block":1,"Trial":71,"Action":"Go","Robot":1,"trial_type":"pit-trial","trial_index":83,"time_elapsed":365042,"internal_node_id":"0.0-83.0"},{"Valence":"Win","Color":"#3366ff99","Rune":"05","Correct":-1,"Choice":-1,"RT":-1,"Accuracy":1,"Sham":0,"Outcome":"+10","Keys":[],"TotalKeys":0,"Block":1,"Trial":72,"Action":"No-Go","Robot":2,"trial_type":"pit-trial","trial_index":84,"time_elapsed":369074,"internal_node_id":"0.0-84.0"},{"Valence":"Win","Color":"#3366ff99","Rune":"05","Correct":-1,"Choice":-1,"RT":-1,"Accuracy":1,"Sham":0,"Outcome":"+10","Keys":[],"TotalKeys":0,"Block":1,"Trial":73,"Action":"No-Go","Robot":2,"trial_type":"pit-trial","trial_index":85,"time_elapsed":373102,"internal_node_id":"0.0-85.0"},{"Valence":"Lose","Color":"#ffcc3399","Rune":"04","Correct":32,"Choice":32,"RT":1025.0450000166893,"Accuracy":1,"Sham":1,"Outcome":"-10","Keys":[2525.1200000056997],"TotalKeys":1,"Block":1,"Trial":74,"Action":"Go","Robot":3,"trial_type":"pit-trial","trial_index":86,"time_elapsed":376651,"internal_node_id":"0.0-86.0"},{"Valence":"Win","Color":"#3366ff99","Rune":"06","Correct":32,"Choice":32,"RT":489.4099999801256,"Accuracy":1,"Sham":0,"Outcome":"+10","Keys":[1991.05499999132],"TotalKeys":1,"Block":1,"Trial":75,"Action":"Go","Robot":1,"trial_type":"pit-trial","trial_index":87,"time_elapsed":379657,"internal_node_id":"0.0-87.0"},{"Valence":"Lose","Color":"#ffcc3399","Rune":"03","Correct":-1,"Choice":32,"RT":1146.1049999925308,"Accuracy":0,"Sham":0,"Outcome":"-10","Keys":[2646.2049999972805],"TotalKeys":1,"Block":1,"Trial":76,"Action":"No-Go","Robot":4,"trial_type":"pit-trial","trial_index":88,"time_elapsed":383319,"internal_node_id":"0.0-88.0"},{"Valence":"Win","Color":"#3366ff99","Rune":"05","Correct":-1,"Choice":-1,"RT":-1,"Accuracy":1,"Sham":1,"Outcome":"1","Keys":[],"TotalKeys":0,"Block":1,"Trial":77,"Action":"No-Go","Robot":2,"trial_type":"pit-trial","trial_index":89,"time_elapsed":387338,"internal_node_id":"0.0-89.0"},{"Valence":"Win","Color":"#3366ff99","Rune":"06","Correct":32,"Choice":32,"RT":537.0499999844469,"Accuracy":1,"Sham":0,"Outcome":"+10","Keys":[2038.494999986142],"TotalKeys":1,"Block":1,"Trial":78,"Action":"Go","Robot":1,"trial_type":"pit-trial","trial_index":90,"time_elapsed":390394,"internal_node_id":"0.0-90.0"},{"Valence":"Lose","Color":"#ffcc3399","Rune":"03","Correct":-1,"Choice":-1,"RT":-1,"Accuracy":1,"Sham":0,"Outcome":"-1","Keys":[],"TotalKeys":0,"Block":1,"Trial":79,"Action":"No-Go","Robot":4,"trial_type":"pit-trial","trial_index":91,"time_elapsed":394409,"internal_node_id":"0.0-91.0"},{"Valence":"Lose","Color":"#ffcc3399","Rune":"04","Correct":32,"Choice":-1,"RT":-1,"Accuracy":0,"Sham":0,"Outcome":"-10","Keys":[],"TotalKeys":0,"Block":1,"Trial":80,"Action":"Go","Robot":3,"trial_type":"pit-trial","trial_index":92,"time_elapsed":398424,"internal_node_id":"0.0-92.0"},{"value":false,"trial_type":"call-function","trial_index":93,"time_elapsed":398441,"internal_node_id":"0.0-93.0"},{"RT":2814.8899999796413,"trial_type":"pit-pause","trial_index":94,"time_elapsed":403589,"internal_node_id":"0.0-94.0"},{"Valence":"Win","Color":"#3366ff99","Rune":"06","Correct":32,"Choice":32,"RT":505.5449999636039,"Accuracy":1,"Sham":0,"Outcome":"+10","Keys":[2005.6449999683537],"TotalKeys":1,"Block":2,"Trial":81,"Action":"Go","Robot":1,"trial_type":"pit-trial","trial_index":95,"time_elapsed":406610,"internal_node_id":"0.0-95.0"},{"Valence":"Win","Color":"#3366ff99","Rune":"05","Correct":-1,"Choice":32,"RT":588.0799999576993,"Accuracy":0,"Sham":0,"Outcome":"+1","Keys":[2088.24499999173],"TotalKeys":1,"Block":2,"Trial":82,"Action":"No-Go","Robot":2,"trial_type":"pit-trial","trial_index":96,"time_elapsed":409715,"internal_node_id":"0.0-96.0"},{"Valence":"Lose","Color":"#ffcc3399","Rune":"03","Correct":-1,"Choice":32,"RT":839.464999968186,"Accuracy":0,"Sham":0,"Outcome":"-10","Keys":[2340.1400000439025],"TotalKeys":1,"Block":2,"Trial":83,"Action":"No-Go","Robot":4,"trial_type":"pit-trial","trial_index":97,"time_elapsed":413069,"internal_node_id":"0.0-97.0"},{"Valence":"Lose","Color":"#ffcc3399","Rune":"04","Correct":32,"Choice":32,"RT":516.9999999925494,"Accuracy":1,"Sham":0,"Outcome":"-1","Keys":[2017.5600000075065],"TotalKeys":1,"Block":2,"Trial":84,"Action":"Go","Robot":3,"trial_type":"pit-trial","trial_index":98,"time_elapsed":416102,"internal_node_id":"0.0-98.0"},{"Valence":"Win","Color":"#3366ff99","Rune":"06","Correct":32,"Choice":32,"RT":487.3200000147335,"Accuracy":1,"Sham":0,"Outcome":"+10","Keys":[1987.8299999982119],"TotalKeys":1,"Block":2,"Trial":85,"Action":"Go","Robot":1,"trial_type":"pit-trial","trial_index":99,"time_elapsed":419104,"internal_node_id":"0.0-99.0"},{"Valence":"Win","Color":"#3366ff99","Rune":"05","Correct":-1,"Choice":-1,"RT":-1,"Accuracy":1,"Sham":0,"Outcome":"+10","Keys":[],"TotalKeys":0,"Block":2,"Trial":86,"Action":"No-Go","Robot":2,"trial_type":"pit-trial","trial_index":100,"time_elapsed":423129,"internal_node_id":"0.0-100.0"},{"Valence":"Lose","Color":"#ffcc3399","Rune":"04","Correct":32,"Choice":32,"RT":1039.5550000248477,"Accuracy":1,"Sham":0,"Outcome":"-1","Keys":[2541.650000028312],"TotalKeys":1,"Block":2,"Trial":87,"Action":"Go","Robot":3,"trial_type":"pit-trial","trial_index":101,"time_elapsed":426687,"internal_node_id":"0.0-101.0"},{"Valence":"Lose","Color":"#ffcc3399","Rune":"03","Correct":-1,"Choice":32,"RT":1149.2749999742955,"Accuracy":0,"Sham":0,"Outcome":"-10","Keys":[2650.2999999793246],"TotalKeys":1,"Block":2,"Trial":88,"Action":"No-Go","Robot":4,"trial_type":"pit-trial","trial_index":102,"time_elapsed":430353,"internal_node_id":"0.0-102.0"},{"Valence":"Lose","Color":"#ffcc3399","Rune":"04","Correct":32,"Choice":-1,"RT":-1,"Accuracy":0,"Sham":1,"Outcome":"-1","Keys":[],"TotalKeys":0,"Block":2,"Trial":89,"Action":"Go","Robot":3,"trial_type":"pit-trial","trial_index":103,"time_elapsed":434370,"internal_node_id":"0.0-103.0"},{"Valence":"Win","Color":"#3366ff99","Rune":"06","Correct":32,"Choice":32,"RT":582.6249999809079,"Accuracy":1,"Sham":1,"Outcome":"1","Keys":[2083.5599999991246],"TotalKeys":1,"Block":2,"Trial":90,"Action":"Go","Robot":1,"trial_type":"pit-trial","trial_index":104,"time_elapsed":437469,"internal_node_id":"0.0-104.0"},{"Valence":"Win","Color":"#3366ff99","Rune":"05","Correct":-1,"Choice":-1,"RT":-1,"Accuracy":1,"Sham":0,"Outcome":"+10","Keys":[],"TotalKeys":0,"Block":2,"Trial":91,"Action":"No-Go","Robot":2,"trial_type":"pit-trial","trial_index":105,"time_elapsed":441490,"internal_node_id":"0.0-105.0"},{"Valence":"Lose","Color":"#ffcc3399","Rune":"03","Correct":-1,"Choice":32,"RT":784.8949999897741,"Accuracy":0,"Sham":0,"Outcome":"-10","Keys":[2286.729999992531],"TotalKeys":1,"Block":2,"Trial":92,"Action":"No-Go","Robot":4,"trial_type":"pit-trial","trial_index":106,"time_elapsed":444803,"internal_node_id":"0.0-106.0"},{"Valence":"Lose","Color":"#ffcc3399","Rune":"03","Correct":-1,"Choice":-1,"RT":-1,"Accuracy":1,"Sham":0,"Outcome":"-1","Keys":[],"TotalKeys":0,"Block":2,"Trial":93,"Action":"No-Go","Robot":4,"trial_type":"pit-trial","trial_index":107,"time_elapsed":448830,"internal_node_id":"0.0-107.0"},{"Valence":"Win","Color":"#3366ff99","Rune":"06","Correct":32,"Choice":32,"RT":564.0000000130385,"Accuracy":1,"Sham":0,"Outcome":"+10","Keys":[2064.205000002403],"TotalKeys":1,"Block":2,"Trial":94,"Action":"Go","Robot":1,"trial_type":"pit-trial","trial_index":108,"time_elapsed":451923,"internal_node_id":"0.0-108.0"},{"Valence":"Lose","Color":"#ffcc3399","Rune":"04","Correct":32,"Choice":32,"RT":788.5349999996834,"Accuracy":1,"Sham":0,"Outcome":"-1","Keys":[2288.7750000227243],"TotalKeys":1,"Block":2,"Trial":95,"Action":"Go","Robot":3,"trial_type":"pit-trial","trial_index":109,"time_elapsed":455245,"internal_node_id":"0.0-109.0"},{"Valence":"Win","Color":"#3366ff99","Rune":"05","Correct":-1,"Choice":32,"RT":577.9499999480322,"Accuracy":0,"Sham":1,"Outcome":"+10","Keys":[2078.845000010915],"TotalKeys":1,"Block":2,"Trial":96,"Action":"No-Go","Robot":2,"trial_type":"pit-trial","trial_index":110,"time_elapsed":458347,"internal_node_id":"0.0-110.0"},{"Valence":"Lose","Color":"#ffcc3399","Rune":"03","Correct":-1,"Choice":-1,"RT":-1,"Accuracy":1,"Sham":1,"Outcome":"-10","Keys":[],"TotalKeys":0,"Block":2,"Trial":97,"Action":"No-Go","Robot":4,"trial_type":"pit-trial","trial_index":111,"time_elapsed":462364,"internal_node_id":"0.0-111.0"},{"Valence":"Win","Color":"#3366ff99","Rune":"06","Correct":32,"Choice":32,"RT":429.73500001244247,"Accuracy":1,"Sham":0,"Outcome":"+10","Keys":[1929.8299999791197],"TotalKeys":1,"Block":2,"Trial":98,"Action":"Go","Robot":1,"trial_type":"pit-trial","trial_index":112,"time_elapsed":465308,"internal_node_id":"0.0-112.0"},{"Valence":"Lose","Color":"#ffcc3399","Rune":"04","Correct":32,"Choice":-1,"RT":-1,"Accuracy":0,"Sham":0,"Outcome":"-10","Keys":[],"TotalKeys":0,"Block":2,"Trial":99,"Action":"Go","Robot":3,"trial_type":"pit-trial","trial_index":113,"time_elapsed":469326,"internal_node_id":"0.0-113.0"},{"Valence":"Win","Color":"#3366ff99","Rune":"05","Correct":-1,"Choice":32,"RT":567.01499997871,"Accuracy":0,"Sham":0,"Outcome":"+1","Keys":[2067.6649999804795],"TotalKeys":1,"Block":2,"Trial":100,"Action":"No-Go","Robot":2,"trial_type":"pit-trial","trial_index":114,"time_elapsed":472416,"internal_node_id":"0.0-114.0"},{"Valence":"Lose","Color":"#ffcc3399","Rune":"03","Correct":-1,"Choice":32,"RT":900.5999999935739,"Accuracy":0,"Sham":0,"Outcome":"-10","Keys":[2401.5699999872595],"TotalKeys":1,"Block":2,"Trial":101,"Action":"No-Go","Robot":4,"trial_type":"pit-trial","trial_index":115,"time_elapsed":475837,"internal_node_id":"0.0-115.0"},{"Valence":"Lose","Color":"#ffcc3399","Rune":"04","Correct":32,"Choice":32,"RT":575.974999985192,"Accuracy":1,"Sham":0,"Outcome":"-1","Keys":[2076.1899999924935],"TotalKeys":1,"Block":2,"Trial":102,"Action":"Go","Robot":3,"trial_type":"pit-trial","trial_index":116,"time_elapsed":478928,"internal_node_id":"0.0-116.0"},{"Valence":"Win","Color":"#3366ff99","Rune":"06","Correct":32,"Choice":32,"RT":421.20499996235594,"Accuracy":1,"Sham":1,"Outcome":"1","Keys":[1922.1200000029057],"TotalKeys":1,"Block":2,"Trial":103,"Action":"Go","Robot":1,"trial_type":"pit-trial","trial_index":117,"time_elapsed":481865,"internal_node_id":"0.0-117.0"},{"Valence":"Win","Color":"#3366ff99","Rune":"05","Correct":-1,"Choice":32,"RT":521.8199999653734,"Accuracy":0,"Sham":1,"Outcome":"+10","Keys":[2022.0500000286847],"TotalKeys":1,"Block":2,"Trial":104,"Action":"No-Go","Robot":2,"trial_type":"pit-trial","trial_index":118,"time_elapsed":484902,"internal_node_id":"0.0-118.0"},{"Valence":"Lose","Color":"#ffcc3399","Rune":"04","Correct":32,"Choice":32,"RT":672.4249999970198,"Accuracy":1,"Sham":0,"Outcome":"-1","Keys":[2172.5200000219047],"TotalKeys":1,"Block":2,"Trial":105,"Action":"Go","Robot":3,"trial_type":"pit-trial","trial_index":119,"time_elapsed":488090,"internal_node_id":"0.0-119.0"},{"Valence":"Win","Color":"#3366ff99","Rune":"06","Correct":32,"Choice":32,"RT":471.47000004770234,"Accuracy":1,"Sham":0,"Outcome":"+10","Keys":[1972.5300000282004],"TotalKeys":1,"Block":2,"Trial":106,"Action":"Go","Robot":1,"trial_type":"pit-trial","trial_index":120,"time_elapsed":491077,"internal_node_id":"0.0-120.0"},{"Valence":"Win","Color":"#3366ff99","Rune":"05","Correct":-1,"Choice":-1,"RT":-1,"Accuracy":1,"Sham":0,"Outcome":"+10","Keys":[],"TotalKeys":0,"Block":2,"Trial":107,"Action":"No-Go","Robot":2,"trial_type":"pit-trial","trial_index":121,"time_elapsed":495099,"internal_node_id":"0.0-121.0"},{"Valence":"Lose","Color":"#ffcc3399","Rune":"03","Correct":-1,"Choice":32,"RT":736.849999986589,"Accuracy":0,"Sham":0,"Outcome":"-10","Keys":[2237.040000036359],"TotalKeys":1,"Block":2,"Trial":108,"Action":"No-Go","Robot":4,"trial_type":"pit-trial","trial_index":122,"time_elapsed":498356,"internal_node_id":"0.0-122.0"},{"Valence":"Win","Color":"#3366ff99","Rune":"05","Correct":-1,"Choice":-1,"RT":-1,"Accuracy":1,"Sham":0,"Outcome":"+10","Keys":[],"TotalKeys":0,"Block":2,"Trial":109,"Action":"No-Go","Robot":2,"trial_type":"pit-trial","trial_index":123,"time_elapsed":502374,"internal_node_id":"0.0-123.0"},{"Valence":"Lose","Color":"#ffcc3399","Rune":"03","Correct":-1,"Choice":32,"RT":936.3200000370853,"Accuracy":0,"Sham":0,"Outcome":"-10","Keys":[2436.4799999748357],"TotalKeys":1,"Block":2,"Trial":110,"Action":"No-Go","Robot":4,"trial_type":"pit-trial","trial_index":124,"time_elapsed":505826,"internal_node_id":"0.0-124.0"},{"Valence":"Win","Color":"#3366ff99","Rune":"06","Correct":32,"Choice":32,"RT":558.275000017602,"Accuracy":1,"Sham":0,"Outcome":"+10","Keys":[2058.8499999721535],"TotalKeys":1,"Block":2,"Trial":111,"Action":"Go","Robot":1,"trial_type":"pit-trial","trial_index":125,"time_elapsed":508902,"internal_node_id":"0.0-125.0"},{"Valence":"Lose","Color":"#ffcc3399","Rune":"04","Correct":32,"Choice":-1,"RT":-1,"Accuracy":0,"Sham":0,"Outcome":"-10","Keys":[],"TotalKeys":0,"Block":2,"Trial":112,"Action":"Go","Robot":3,"trial_type":"pit-trial","trial_index":126,"time_elapsed":512916,"internal_node_id":"0.0-126.0"},{"Valence":"Win","Color":"#3366ff99","Rune":"05","Correct":-1,"Choice":-1,"RT":-1,"Accuracy":1,"Sham":0,"Outcome":"+10","Keys":[],"TotalKeys":0,"Block":2,"Trial":113,"Action":"No-Go","Robot":2,"trial_type":"pit-trial","trial_index":127,"time_elapsed":516932,"internal_node_id":"0.0-127.0"},{"Valence":"Lose","Color":"#ffcc3399","Rune":"03","Correct":-1,"Choice":32,"RT":668.0499999783933,"Accuracy":0,"Sham":0,"Outcome":"-10","Keys":[2168.2049999944866],"TotalKeys":1,"Block":2,"Trial":114,"Action":"No-Go","Robot":4,"trial_type":"pit-trial","trial_index":128,"time_elapsed":520116,"internal_node_id":"0.0-128.0"},{"Valence":"Lose","Color":"#ffcc3399","Rune":"04","Correct":32,"Choice":32,"RT":665.8949999837205,"Accuracy":1,"Sham":1,"Outcome":"-10","Keys":[2166.250000009313],"TotalKeys":1,"Block":2,"Trial":115,"Action":"Go","Robot":3,"trial_type":"pit-trial","trial_index":129,"time_elapsed":523298,"internal_node_id":"0.0-129.0"},{"Valence":"Win","Color":"#3366ff99","Rune":"06","Correct":32,"Choice":32,"RT":847.6249999948777,"Accuracy":1,"Sham":0,"Outcome":"+10","Keys":[2348.4300000127405],"TotalKeys":1,"Block":2,"Trial":116,"Action":"Go","Robot":1,"trial_type":"pit-trial","trial_index":130,"time_elapsed":526662,"internal_node_id":"0.0-130.0"},{"Valence":"Lose","Color":"#ffcc3399","Rune":"03","Correct":-1,"Choice":32,"RT":867.8749999962747,"Accuracy":0,"Sham":1,"Outcome":"-1","Keys":[2368.3900000178255],"TotalKeys":1,"Block":2,"Trial":117,"Action":"No-Go","Robot":4,"trial_type":"pit-trial","trial_index":131,"time_elapsed":530048,"internal_node_id":"0.0-131.0"},{"Valence":"Lose","Color":"#ffcc3399","Rune":"04","Correct":32,"Choice":32,"RT":820.9849999984726,"Accuracy":1,"Sham":0,"Outcome":"-1","Keys":[2321.1149999988265],"TotalKeys":1,"Block":2,"Trial":118,"Action":"Go","Robot":3,"trial_type":"pit-trial","trial_index":132,"time_elapsed":533383,"internal_node_id":"0.0-132.0"},{"Valence":"Win","Color":"#3366ff99","Rune":"05","Correct":-1,"Choice":-1,"RT":-1,"Accuracy":1,"Sham":0,"Outcome":"+10","Keys":[],"TotalKeys":0,"Block":2,"Trial":119,"Action":"No-Go","Robot":2,"trial_type":"pit-trial","trial_index":133,"time_elapsed":537402,"internal_node_id":"0.0-133.0"},{"Valence":"Win","Color":"#3366ff99","Rune":"06","Correct":32,"Choice":32,"RT":443.6499999719672,"Accuracy":1,"Sham":0,"Outcome":"+10","Keys":[1944.4099999964237],"TotalKeys":1,"Block":2,"Trial":120,"Action":"Go","Robot":1,"trial_type":"pit-trial","trial_index":134,"time_elapsed":540372,"internal_node_id":"0.0-134.0"},{"Valence":"Win","Color":"#3366ff99","Rune":"05","Correct":-1,"Choice":-1,"RT":-1,"Accuracy":1,"Sham":0,"Outcome":"+10","Keys":[],"TotalKeys":0,"Block":2,"Trial":121,"Action":"No-Go","Robot":2,"trial_type":"pit-trial","trial_index":135,"time_elapsed":544390,"internal_node_id":"0.0-135.0"},{"Valence":"Lose","Color":"#ffcc3399","Rune":"03","Correct":-1,"Choice":-1,"RT":-1,"Accuracy":1,"Sham":0,"Outcome":"-1","Keys":[],"TotalKeys":0,"Block":2,"Trial":122,"Action":"No-Go","Robot":4,"trial_type":"pit-trial","trial_index":136,"time_elapsed":548408,"internal_node_id":"0.0-136.0"},{"Valence":"Lose","Color":"#ffcc3399","Rune":"04","Correct":32,"Choice":32,"RT":326.4199999975972,"Accuracy":1,"Sham":0,"Outcome":"-1","Keys":[1826.6500000027008],"TotalKeys":1,"Block":2,"Trial":123,"Action":"Go","Robot":3,"trial_type":"pit-trial","trial_index":137,"time_elapsed":551250,"internal_node_id":"0.0-137.0"},{"Valence":"Win","Color":"#3366ff99","Rune":"06","Correct":32,"Choice":32,"RT":409.1550000011921,"Accuracy":1,"Sham":1,"Outcome":"1","Keys":[1909.7049999982119],"TotalKeys":1,"Block":2,"Trial":124,"Action":"Go","Robot":1,"trial_type":"pit-trial","trial_index":138,"time_elapsed":554179,"internal_node_id":"0.0-138.0"},{"Valence":"Lose","Color":"#ffcc3399","Rune":"04","Correct":32,"Choice":-1,"RT":-1,"Accuracy":0,"Sham":1,"Outcome":"-1","Keys":[],"TotalKeys":0,"Block":2,"Trial":125,"Action":"Go","Robot":3,"trial_type":"pit-trial","trial_index":139,"time_elapsed":558197,"internal_node_id":"0.0-139.0"},{"Valence":"Lose","Color":"#ffcc3399","Rune":"03","Correct":-1,"Choice":32,"RT":619.9049999704584,"Accuracy":0,"Sham":0,"Outcome":"-10","Keys":[2120.839999988675],"TotalKeys":1,"Block":2,"Trial":126,"Action":"No-Go","Robot":4,"trial_type":"pit-trial","trial_index":140,"time_elapsed":561333,"internal_node_id":"0.0-140.0"},{"Valence":"Win","Color":"#3366ff99","Rune":"05","Correct":-1,"Choice":-1,"RT":-1,"Accuracy":1,"Sham":0,"Outcome":"+10","Keys":[],"TotalKeys":0,"Block":2,"Trial":127,"Action":"No-Go","Robot":2,"trial_type":"pit-trial","trial_index":141,"time_elapsed":565353,"internal_node_id":"0.0-141.0"},{"Valence":"Win","Color":"#3366ff99","Rune":"06","Correct":32,"Choice":32,"RT":421.474999981001,"Accuracy":1,"Sham":0,"Outcome":"+10","Keys":[1922.420000017155],"TotalKeys":1,"Block":2,"Trial":128,"Action":"Go","Robot":1,"trial_type":"pit-trial","trial_index":142,"time_elapsed":568295,"internal_node_id":"0.0-142.0"},{"Valence":"Lose","Color":"#ffcc3399","Rune":"03","Correct":-1,"Choice":32,"RT":664.92000001017,"Accuracy":0,"Sham":0,"Outcome":"-10","Keys":[2165.035000012722],"TotalKeys":1,"Block":2,"Trial":129,"Action":"No-Go","Robot":4,"trial_type":"pit-trial","trial_index":143,"time_elapsed":571491,"internal_node_id":"0.0-143.0"},{"Valence":"Win","Color":"#3366ff99","Rune":"06","Correct":32,"Choice":32,"RT":467.52499998547137,"Accuracy":1,"Sham":0,"Outcome":"+10","Keys":[1967.629999970086],"TotalKeys":1,"Block":2,"Trial":130,"Action":"Go","Robot":1,"trial_type":"pit-trial","trial_index":144,"time_elapsed":574477,"internal_node_id":"0.0-144.0"},{"Valence":"Lose","Color":"#ffcc3399","Rune":"04","Correct":32,"Choice":32,"RT":579.280000005383,"Accuracy":1,"Sham":0,"Outcome":"-1","Keys":[2079.5800000196323],"TotalKeys":1,"Block":2,"Trial":131,"Action":"Go","Robot":3,"trial_type":"pit-trial","trial_index":145,"time_elapsed":577572,"internal_node_id":"0.0-145.0"},{"Valence":"Win","Color":"#3366ff99","Rune":"05","Correct":-1,"Choice":-1,"RT":-1,"Accuracy":1,"Sham":0,"Outcome":"+10","Keys":[],"TotalKeys":0,"Block":2,"Trial":132,"Action":"No-Go","Robot":2,"trial_type":"pit-trial","trial_index":146,"time_elapsed":581593,"internal_node_id":"0.0-146.0"},{"Valence":"Lose","Color":"#ffcc3399","Rune":"03","Correct":-1,"Choice":-1,"RT":-1,"Accuracy":1,"Sham":0,"Outcome":"-1","Keys":[],"TotalKeys":0,"Block":2,"Trial":133,"Action":"No-Go","Robot":4,"trial_type":"pit-trial","trial_index":147,"time_elapsed":585613,"internal_node_id":"0.0-147.0"},{"Valence":"Win","Color":"#3366ff99","Rune":"06","Correct":32,"Choice":32,"RT":511.0049999784678,"Accuracy":1,"Sham":0,"Outcome":"+10","Keys":[2011.6200000047684],"TotalKeys":1,"Block":2,"Trial":134,"Action":"Go","Robot":1,"trial_type":"pit-trial","trial_index":148,"time_elapsed":588640,"internal_node_id":"0.0-148.0"},{"Valence":"Lose","Color":"#ffcc3399","Rune":"04","Correct":32,"Choice":-1,"RT":-1,"Accuracy":0,"Sham":0,"Outcome":"-10","Keys":[],"TotalKeys":0,"Block":2,"Trial":135,"Action":"Go","Robot":3,"trial_type":"pit-trial","trial_index":149,"time_elapsed":592655,"internal_node_id":"0.0-149.0"},{"Valence":"Win","Color":"#3366ff99","Rune":"05","Correct":-1,"Choice":32,"RT":484.3600000021979,"Accuracy":0,"Sham":0,"Outcome":"+1","Keys":[1985.0699999951757],"TotalKeys":1,"Block":2,"Trial":136,"Action":"No-Go","Robot":2,"trial_type":"pit-trial","trial_index":150,"time_elapsed":595655,"internal_node_id":"0.0-150.0"},{"Valence":"Lose","Color":"#ffcc3399","Rune":"03","Correct":-1,"Choice":32,"RT":1016.9149999856018,"Accuracy":0,"Sham":1,"Outcome":"-1","Keys":[2517.4499999848194],"TotalKeys":1,"Block":2,"Trial":137,"Action":"No-Go","Robot":4,"trial_type":"pit-trial","trial_index":151,"time_elapsed":599188,"internal_node_id":"0.0-151.0"},{"Valence":"Win","Color":"#3366ff99","Rune":"06","Correct":32,"Choice":32,"RT":457.63499999884516,"Accuracy":1,"Sham":0,"Outcome":"+10","Keys":[1957.7949999948032],"TotalKeys":1,"Block":2,"Trial":138,"Action":"Go","Robot":1,"trial_type":"pit-trial","trial_index":152,"time_elapsed":602163,"internal_node_id":"0.0-152.0"},{"Valence":"Lose","Color":"#ffcc3399","Rune":"04","Correct":32,"Choice":-1,"RT":-1,"Accuracy":0,"Sham":0,"Outcome":"-10","Keys":[],"TotalKeys":0,"Block":2,"Trial":139,"Action":"Go","Robot":3,"trial_type":"pit-trial","trial_index":153,"time_elapsed":606181,"internal_node_id":"0.0-153.0"},{"Valence":"Win","Color":"#3366ff99","Rune":"05","Correct":-1,"Choice":32,"RT":683.6849999963306,"Accuracy":0,"Sham":1,"Outcome":"+10","Keys":[2184.0549999615178],"TotalKeys":1,"Block":2,"Trial":140,"Action":"No-Go","Robot":2,"trial_type":"pit-trial","trial_index":154,"time_elapsed":609382,"internal_node_id":"0.0-154.0"},{"Valence":"Win","Color":"#3366ff99","Rune":"05","Correct":-1,"Choice":32,"RT":1185.094999964349,"Accuracy":0,"Sham":1,"Outcome":"+10","Keys":[2686.8949999916367],"TotalKeys":1,"Block":2,"Trial":141,"Action":"No-Go","Robot":2,"trial_type":"pit-trial","trial_index":155,"time_elapsed":613086,"internal_node_id":"0.0-155.0"},{"Valence":"Lose","Color":"#ffcc3399","Rune":"04","Correct":32,"Choice":-1,"RT":-1,"Accuracy":0,"Sham":0,"Outcome":"-10","Keys":[],"TotalKeys":0,"Block":2,"Trial":142,"Action":"Go","Robot":3,"trial_type":"pit-trial","trial_index":156,"time_elapsed":617103,"internal_node_id":"0.0-156.0"},{"Valence":"Win","Color":"#3366ff99","Rune":"06","Correct":32,"Choice":32,"RT":507.15000001946464,"Accuracy":1,"Sham":0,"Outcome":"+10","Keys":[2007.9600000171922],"TotalKeys":1,"Block":2,"Trial":143,"Action":"Go","Robot":1,"trial_type":"pit-trial","trial_index":157,"time_elapsed":620125,"internal_node_id":"0.0-157.0"},{"Valence":"Lose","Color":"#ffcc3399","Rune":"03","Correct":-1,"Choice":-1,"RT":-1,"Accuracy":1,"Sham":0,"Outcome":"-1","Keys":[],"TotalKeys":0,"Block":2,"Trial":144,"Action":"No-Go","Robot":4,"trial_type":"pit-trial","trial_index":158,"time_elapsed":624143,"internal_node_id":"0.0-158.0"},{"Valence":"Lose","Color":"#ffcc3399","Rune":"03","Correct":-1,"Choice":32,"RT":796.5500000282191,"Accuracy":0,"Sham":0,"Outcome":"-10","Keys":[2296.5950000216253],"TotalKeys":1,"Block":2,"Trial":145,"Action":"No-Go","Robot":4,"trial_type":"pit-trial","trial_index":159,"time_elapsed":627456,"internal_node_id":"0.0-159.0"},{"Valence":"Win","Color":"#3366ff99","Rune":"06","Correct":32,"Choice":32,"RT":492.7299999981187,"Accuracy":1,"Sham":0,"Outcome":"+10","Keys":[1994.6600000257604],"TotalKeys":1,"Block":2,"Trial":146,"Action":"Go","Robot":1,"trial_type":"pit-trial","trial_index":160,"time_elapsed":630465,"internal_node_id":"0.0-160.0"},{"Valence":"Lose","Color":"#ffcc3399","Rune":"04","Correct":32,"Choice":32,"RT":1368.2949999929406,"Accuracy":1,"Sham":0,"Outcome":"-1","Keys":[2869.8399999993853],"TotalKeys":1,"Block":2,"Trial":147,"Action":"Go","Robot":3,"trial_type":"pit-trial","trial_index":161,"time_elapsed":634354,"internal_node_id":"0.0-161.0"},{"Valence":"Win","Color":"#3366ff99","Rune":"05","Correct":-1,"Choice":32,"RT":913.6450000223704,"Accuracy":0,"Sham":0,"Outcome":"+1","Keys":[2414.229999994859],"TotalKeys":1,"Block":2,"Trial":148,"Action":"No-Go","Robot":2,"trial_type":"pit-trial","trial_index":162,"time_elapsed":637784,"internal_node_id":"0.0-162.0"},{"Valence":"Win","Color":"#3366ff99","Rune":"05","Correct":-1,"Choice":32,"RT":691.0200000274926,"Accuracy":0,"Sham":0,"Outcome":"+1","Keys":[2191.065000020899],"TotalKeys":1,"Block":2,"Trial":149,"Action":"No-Go","Robot":2,"trial_type":"pit-trial","trial_index":163,"time_elapsed":640992,"internal_node_id":"0.0-163.0"},{"Valence":"Lose","Color":"#ffcc3399","Rune":"03","Correct":-1,"Choice":32,"RT":680.2199999801815,"Accuracy":0,"Sham":0,"Outcome":"-10","Keys":[2180.7150000240654],"TotalKeys":1,"Block":2,"Trial":150,"Action":"No-Go","Robot":4,"trial_type":"pit-trial","trial_index":164,"time_elapsed":644199,"internal_node_id":"0.0-164.0"},{"Valence":"Lose","Color":"#ffcc3399","Rune":"04","Correct":32,"Choice":32,"RT":828.7400000263005,"Accuracy":1,"Sham":0,"Outcome":"-1","Keys":[2329.845000000205],"TotalKeys":1,"Block":2,"Trial":151,"Action":"Go","Robot":3,"trial_type":"pit-trial","trial_index":165,"time_elapsed":647550,"internal_node_id":"0.0-165.0"},{"Valence":"Win","Color":"#3366ff99","Rune":"06","Correct":32,"Choice":32,"RT":371.49499997030944,"Accuracy":1,"Sham":0,"Outcome":"+10","Keys":[1871.5850000153296],"TotalKeys":1,"Block":2,"Trial":152,"Action":"Go","Robot":1,"trial_type":"pit-trial","trial_index":166,"time_elapsed":650436,"internal_node_id":"0.0-166.0"},{"Valence":"Win","Color":"#3366ff99","Rune":"06","Correct":32,"Choice":32,"RT":456.5300000249408,"Accuracy":1,"Sham":0,"Outcome":"+10","Keys":[1957.0249999524094],"TotalKeys":1,"Block":2,"Trial":153,"Action":"Go","Robot":1,"trial_type":"pit-trial","trial_index":167,"time_elapsed":653408,"internal_node_id":"0.0-167.0"},{"Valence":"Lose","Color":"#ffcc3399","Rune":"03","Correct":-1,"Choice":-1,"RT":-1,"Accuracy":1,"Sham":0,"Outcome":"-1","Keys":[],"TotalKeys":0,"Block":2,"Trial":154,"Action":"No-Go","Robot":4,"trial_type":"pit-trial","trial_index":168,"time_elapsed":657424,"internal_node_id":"0.0-168.0"},{"Valence":"Lose","Color":"#ffcc3399","Rune":"04","Correct":32,"Choice":32,"RT":887.8350000013597,"Accuracy":1,"Sham":0,"Outcome":"-1","Keys":[2388.3800000185147],"TotalKeys":1,"Block":2,"Trial":155,"Action":"Go","Robot":3,"trial_type":"pit-trial","trial_index":169,"time_elapsed":660827,"internal_node_id":"0.0-169.0"},{"Valence":"Win","Color":"#3366ff99","Rune":"05","Correct":-1,"Choice":32,"RT":505.925000004936,"Accuracy":0,"Sham":0,"Outcome":"+1","Keys":[2006.424999970477],"TotalKeys":1,"Block":2,"Trial":156,"Action":"No-Go","Robot":2,"trial_type":"pit-trial","trial_index":170,"time_elapsed":663849,"internal_node_id":"0.0-170.0"},{"Valence":"Lose","Color":"#ffcc3399","Rune":"04","Correct":32,"Choice":32,"RT":667.4399999901652,"Accuracy":1,"Sham":1,"Outcome":"-10","Keys":[2168.3800000464544],"TotalKeys":1,"Block":2,"Trial":157,"Action":"Go","Robot":3,"trial_type":"pit-trial","trial_index":171,"time_elapsed":667034,"internal_node_id":"0.0-171.0"},{"Valence":"Lose","Color":"#ffcc3399","Rune":"03","Correct":-1,"Choice":32,"RT":948.9700000267476,"Accuracy":0,"Sham":1,"Outcome":"-1","Keys":[2450.970000005327],"TotalKeys":1,"Block":2,"Trial":158,"Action":"No-Go","Robot":4,"trial_type":"pit-trial","trial_index":172,"time_elapsed":670502,"internal_node_id":"0.0-172.0"},{"Valence":"Win","Color":"#3366ff99","Rune":"05","Correct":-1,"Choice":32,"RT":598.1649999739602,"Accuracy":0,"Sham":0,"Outcome":"+1","Keys":[2098.7000000313856],"TotalKeys":1,"Block":2,"Trial":159,"Action":"No-Go","Robot":2,"trial_type":"pit-trial","trial_index":173,"time_elapsed":673621,"internal_node_id":"0.0-173.0"},{"Valence":"Win","Color":"#3366ff99","Rune":"06","Correct":32,"Choice":32,"RT":528.5699999658391,"Accuracy":1,"Sham":1,"Outcome":"1","Keys":[2028.9750000229105],"TotalKeys":1,"Block":2,"Trial":160,"Action":"Go","Robot":1,"trial_type":"pit-trial","trial_index":174,"time_elapsed":676666,"internal_node_id":"0.0-174.0"},{"rt":32676.020000013523,"demographics":{"age":"52","gender-categorical":"Female","ethnicity":"Rather not say","race":"Rather not say","english":"Yes","fluency":"Very well"},"trial_type":"survey-demo","trial_index":175,"time_elapsed":709370,"internal_node_id":"0.0-175.0"},{"rt":26978.6450000247,"debriefgraphics":{"difficulty":"3","fun":"2","clarity":"4","strategy":"No","feedback":""},"trial_type":"survey-debrief","trial_index":176,"time_elapsed":736369,"internal_node_id":"0.0-176.0","interactions":"[]"}]