[{"view_history":"[{\"page_index\":0,\"viewing_time\":420198},{\"page_index\":1,\"viewing_time\":4784},{\"page_index\":2,\"viewing_time\":4972},{\"page_index\":3,\"viewing_time\":7642},{\"page_index\":4,\"viewing_time\":4942}]","rt":442540,"trial_type":"pit-instructions","trial_index":0,"time_elapsed":442543,"internal_node_id":"0.0-0.0"},{"Correct":32,"Choice":32,"RT":498,"Accuracy":1,"Sham":0,"Outcome":1,"trial_type":"pit-trial","trial_index":1,"time_elapsed":445572,"internal_node_id":"0.0-1.0"},{"Correct":32,"Choice":32,"RT":299,"Accuracy":1,"Sham":0,"Outcome":1,"trial_type":"pit-trial","trial_index":2,"time_elapsed":448392,"internal_node_id":"0.0-2.0"},{"Correct":32,"Choice":32,"RT":385,"Accuracy":1,"Sham":0,"Outcome":1,"trial_type":"pit-trial","trial_index":3,"time_elapsed":451307,"internal_node_id":"0.0-3.0"},{"Correct":32,"Choice":32,"RT":618,"Accuracy":1,"Sham":0,"Outcome":1,"trial_type":"pit-trial","trial_index":4,"time_elapsed":454441,"internal_node_id":"0.0-4.0"},{"view_history":"[{\"page_index\":0,\"viewing_time\":5513}]","rt":5515,"trial_type":"pit-instructions","trial_index":5,"time_elapsed":459958,"internal_node_id":"0.0-5.0"},{"Correct":-1,"Choice":-1,"RT":-1,"Accuracy":1,"Sham":0,"Outcome":1,"trial_type":"pit-trial","trial_index":6,"time_elapsed":463981,"internal_node_id":"0.0-6.0"},{"Correct":-1,"Choice":-1,"RT":-1,"Accuracy":1,"Sham":0,"Outcome":1,"trial_type":"pit-trial","trial_index":7,"time_elapsed":468012,"internal_node_id":"0.0-7.0"},{"Correct":-1,"Choice":-1,"RT":-1,"Accuracy":1,"Sham":0,"Outcome":1,"trial_type":"pit-trial","trial_index":8,"time_elapsed":472051,"internal_node_id":"0.0-8.0"},{"Correct":-1,"Choice":-1,"RT":-1,"Accuracy":1,"Sham":0,"Outcome":1,"trial_type":"pit-trial","trial_index":9,"time_elapsed":476072,"internal_node_id":"0.0-9.0"},{"view_history":"[{\"page_index\":0,\"viewing_time\":4240},{\"page_index\":1,\"viewing_time\":6860},{\"page_index\":2,\"viewing_time\":12528},{\"page_index\":3,\"viewing_time\":8796},{\"page_index\":4,\"viewing_time\":8899},{\"page_index\":5,\"viewing_time\":8141},{\"page_index\":6,\"viewing_time\":4484},{\"page_index\":7,\"viewing_time\":2082}]","rt":56031,"trial_type":"pit-instructions","trial_index":10,"time_elapsed":532103,"internal_node_id":"0.0-10.0"},{"rt":23900,"responses":"{\"no-press\":\"Do nothing\",\"probability\":\"0\",\"bonus\":\"True\"}","errors":0,"trial_type":"pit-comprehension","trial_index":11,"time_elapsed":556007,"internal_node_id":"0.0-11.0"},{"view_history":"[{\"page_index\":0,\"viewing_time\":3271}]","rt":3272,"trial_type":"pit-instructions","trial_index":12,"time_elapsed":559281,"internal_node_id":"0.0-12.0"},{"Correct":-1,"Choice":32,"RT":729,"Accuracy":0,"Sham":0,"Outcome":0,"Block":1,"Trial":1,"Valence":"Win","Action":"No-Go","trial_type":"pit-trial","trial_index":13,"time_elapsed":562532,"internal_node_id":"0.0-13.0"},{"Correct":32,"Choice":32,"RT":949,"Accuracy":1,"Sham":0,"Outcome":0,"Block":1,"Trial":2,"Valence":"Lose","Action":"Go","trial_type":"pit-trial","trial_index":14,"time_elapsed":566012,"internal_node_id":"0.0-14.0"},{"Correct":-1,"Choice":-1,"RT":-1,"Accuracy":1,"Sham":0,"Outcome":0,"Block":1,"Trial":3,"Valence":"Lose","Action":"No-Go","trial_type":"pit-trial","trial_index":15,"time_elapsed":570042,"internal_node_id":"0.0-15.0"},{"Correct":32,"Choice":32,"RT":594,"Accuracy":1,"Sham":0,"Outcome":1,"Block":1,"Trial":4,"Valence":"Win","Action":"Go","trial_type":"pit-trial","trial_index":16,"time_elapsed":573163,"internal_node_id":"0.0-16.0"},{"Correct":32,"Choice":32,"RT":582,"Accuracy":1,"Sham":1,"Outcome":-1,"Block":1,"Trial":5,"Valence":"Lose","Action":"Go","trial_type":"pit-trial","trial_index":17,"time_elapsed":576282,"internal_node_id":"0.0-17.0"},{"Correct":-1,"Choice":32,"RT":700,"Accuracy":0,"Sham":0,"Outcome":-1,"Block":1,"Trial":6,"Valence":"Lose","Action":"No-Go","trial_type":"pit-trial","trial_index":18,"time_elapsed":579502,"internal_node_id":"0.0-18.0"},{"Correct":32,"Choice":32,"RT":467,"Accuracy":1,"Sham":0,"Outcome":1,"Block":1,"Trial":7,"Valence":"Win","Action":"Go","trial_type":"pit-trial","trial_index":19,"time_elapsed":582502,"internal_node_id":"0.0-19.0"},{"Correct":-1,"Choice":32,"RT":678,"Accuracy":0,"Sham":0,"Outcome":0,"Block":1,"Trial":8,"Valence":"Win","Action":"No-Go","trial_type":"pit-trial","trial_index":20,"time_elapsed":585701,"internal_node_id":"0.0-20.0"},{"Correct":32,"Choice":32,"RT":650,"Accuracy":1,"Sham":0,"Outcome":1,"Block":1,"Trial":9,"Valence":"Win","Action":"Go","trial_type":"pit-trial","trial_index":21,"time_elapsed":588882,"internal_node_id":"0.0-21.0"},{"Correct":32,"Choice":-1,"RT":-1,"Accuracy":0,"Sham":0,"Outcome":-1,"Block":1,"Trial":10,"Valence":"Lose","Action":"Go","trial_type":"pit-trial","trial_index":22,"time_elapsed":592911,"internal_node_id":"0.0-22.0"},{"Correct":-1,"Choice":-1,"RT":-1,"Accuracy":1,"Sham":0,"Outcome":1,"Block":1,"Trial":11,"Valence":"Win","Action":"No-Go","trial_type":"pit-trial","trial_index":23,"time_elapsed":596952,"internal_node_id":"0.0-23.0"},{"Correct":-1,"Choice":-1,"RT":-1,"Accuracy":1,"Sham":0,"Outcome":0,"Block":1,"Trial":12,"Valence":"Lose","Action":"No-Go","trial_type":"pit-trial","trial_index":24,"time_elapsed":600982,"internal_node_id":"0.0-24.0"},{"Correct":32,"Choice":32,"RT":528,"Accuracy":1,"Sham":0,"Outcome":1,"Block":1,"Trial":13,"Valence":"Win","Action":"Go","trial_type":"pit-trial","trial_index":25,"time_elapsed":604042,"internal_node_id":"0.0-25.0"},{"Correct":-1,"Choice":-1,"RT":-1,"Accuracy":1,"Sham":0,"Outcome":1,"Block":1,"Trial":14,"Valence":"Win","Action":"No-Go","trial_type":"pit-trial","trial_index":26,"time_elapsed":608082,"internal_node_id":"0.0-26.0"},{"Correct":32,"Choice":32,"RT":785,"Accuracy":1,"Sham":0,"Outcome":0,"Block":1,"Trial":15,"Valence":"Lose","Action":"Go","trial_type":"pit-trial","trial_index":27,"time_elapsed":611401,"internal_node_id":"0.0-27.0"},{"Correct":-1,"Choice":-1,"RT":-1,"Accuracy":1,"Sham":1,"Outcome":-1,"Block":1,"Trial":16,"Valence":"Lose","Action":"No-Go","trial_type":"pit-trial","trial_index":28,"time_elapsed":615432,"internal_node_id":"0.0-28.0"},{"Correct":32,"Choice":32,"RT":626,"Accuracy":1,"Sham":1,"Outcome":0,"Block":1,"Trial":17,"Valence":"Win","Action":"Go","trial_type":"pit-trial","trial_index":29,"time_elapsed":618593,"internal_node_id":"0.0-29.0"},{"Correct":32,"Choice":32,"RT":810,"Accuracy":1,"Sham":0,"Outcome":0,"Block":1,"Trial":18,"Valence":"Lose","Action":"Go","trial_type":"pit-trial","trial_index":30,"time_elapsed":621932,"internal_node_id":"0.0-30.0"},{"Correct":-1,"Choice":-1,"RT":-1,"Accuracy":1,"Sham":1,"Outcome":0,"Block":1,"Trial":19,"Valence":"Win","Action":"No-Go","trial_type":"pit-trial","trial_index":31,"time_elapsed":625951,"internal_node_id":"0.0-31.0"},{"Correct":-1,"Choice":-1,"RT":-1,"Accuracy":1,"Sham":0,"Outcome":0,"Block":1,"Trial":20,"Valence":"Lose","Action":"No-Go","trial_type":"pit-trial","trial_index":32,"time_elapsed":629986,"internal_node_id":"0.0-32.0"},{"Correct":-1,"Choice":-1,"RT":-1,"Accuracy":1,"Sham":0,"Outcome":0,"Block":1,"Trial":21,"Valence":"Lose","Action":"No-Go","trial_type":"pit-trial","trial_index":33,"time_elapsed":634021,"internal_node_id":"0.0-33.0"},{"Correct":-1,"Choice":32,"RT":661,"Accuracy":0,"Sham":0,"Outcome":0,"Block":1,"Trial":22,"Valence":"Win","Action":"No-Go","trial_type":"pit-trial","trial_index":34,"time_elapsed":637222,"internal_node_id":"0.0-34.0"},{"Correct":32,"Choice":32,"RT":577,"Accuracy":1,"Sham":0,"Outcome":1,"Block":1,"Trial":23,"Valence":"Win","Action":"Go","trial_type":"pit-trial","trial_index":35,"time_elapsed":640322,"internal_node_id":"0.0-35.0"},{"Correct":32,"Choice":32,"RT":901,"Accuracy":1,"Sham":0,"Outcome":0,"Block":1,"Trial":24,"Valence":"Lose","Action":"Go","trial_type":"pit-trial","trial_index":36,"time_elapsed":643761,"internal_node_id":"0.0-36.0"},{"Correct":-1,"Choice":32,"RT":755,"Accuracy":0,"Sham":0,"Outcome":-1,"Block":1,"Trial":25,"Valence":"Lose","Action":"No-Go","trial_type":"pit-trial","trial_index":37,"time_elapsed":647042,"internal_node_id":"0.0-37.0"},{"Correct":32,"Choice":32,"RT":478,"Accuracy":1,"Sham":0,"Outcome":1,"Block":1,"Trial":26,"Valence":"Win","Action":"Go","trial_type":"pit-trial","trial_index":38,"time_elapsed":650042,"internal_node_id":"0.0-38.0"},{"Correct":32,"Choice":-1,"RT":-1,"Accuracy":0,"Sham":0,"Outcome":-1,"Block":1,"Trial":27,"Valence":"Lose","Action":"Go","trial_type":"pit-trial","trial_index":39,"time_elapsed":654052,"internal_node_id":"0.0-39.0"},{"Correct":-1,"Choice":-1,"RT":-1,"Accuracy":1,"Sham":0,"Outcome":1,"Block":1,"Trial":28,"Valence":"Win","Action":"No-Go","trial_type":"pit-trial","trial_index":40,"time_elapsed":658072,"internal_node_id":"0.0-40.0"},{"Correct":32,"Choice":32,"RT":543,"Accuracy":1,"Sham":0,"Outcome":0,"Block":1,"Trial":29,"Valence":"Lose","Action":"Go","trial_type":"pit-trial","trial_index":41,"time_elapsed":661152,"internal_node_id":"0.0-41.0"},{"Correct":-1,"Choice":-1,"RT":-1,"Accuracy":1,"Sham":1,"Outcome":0,"Block":1,"Trial":30,"Valence":"Win","Action":"No-Go","trial_type":"pit-trial","trial_index":42,"time_elapsed":665172,"internal_node_id":"0.0-42.0"},{"Correct":32,"Choice":32,"RT":495,"Accuracy":1,"Sham":1,"Outcome":0,"Block":1,"Trial":31,"Valence":"Win","Action":"Go","trial_type":"pit-trial","trial_index":43,"time_elapsed":668182,"internal_node_id":"0.0-43.0"},{"Correct":-1,"Choice":-1,"RT":-1,"Accuracy":1,"Sham":0,"Outcome":0,"Block":1,"Trial":32,"Valence":"Lose","Action":"No-Go","trial_type":"pit-trial","trial_index":44,"time_elapsed":672202,"internal_node_id":"0.0-44.0"},{"Correct":-1,"Choice":-1,"RT":-1,"Accuracy":1,"Sham":0,"Outcome":0,"Block":1,"Trial":33,"Valence":"Lose","Action":"No-Go","trial_type":"pit-trial","trial_index":45,"time_elapsed":676242,"internal_node_id":"0.0-45.0"},{"Correct":-1,"Choice":32,"RT":826,"Accuracy":0,"Sham":0,"Outcome":0,"Block":1,"Trial":34,"Valence":"Win","Action":"No-Go","trial_type":"pit-trial","trial_index":46,"time_elapsed":679591,"internal_node_id":"0.0-46.0"},{"Correct":32,"Choice":32,"RT":376,"Accuracy":1,"Sham":0,"Outcome":1,"Block":1,"Trial":35,"Valence":"Win","Action":"Go","trial_type":"pit-trial","trial_index":47,"time_elapsed":682492,"internal_node_id":"0.0-47.0"},{"Correct":32,"Choice":32,"RT":793,"Accuracy":1,"Sham":1,"Outcome":-1,"Block":1,"Trial":36,"Valence":"Lose","Action":"Go","trial_type":"pit-trial","trial_index":48,"time_elapsed":685812,"internal_node_id":"0.0-48.0"},{"Correct":-1,"Choice":-1,"RT":-1,"Accuracy":1,"Sham":1,"Outcome":-1,"Block":1,"Trial":37,"Valence":"Lose","Action":"No-Go","trial_type":"pit-trial","trial_index":49,"time_elapsed":689851,"internal_node_id":"0.0-49.0"},{"Correct":32,"Choice":32,"RT":670,"Accuracy":1,"Sham":0,"Outcome":0,"Block":1,"Trial":38,"Valence":"Lose","Action":"Go","trial_type":"pit-trial","trial_index":50,"time_elapsed":693053,"internal_node_id":"0.0-50.0"},{"Correct":32,"Choice":32,"RT":388,"Accuracy":1,"Sham":0,"Outcome":1,"Block":1,"Trial":39,"Valence":"Win","Action":"Go","trial_type":"pit-trial","trial_index":51,"time_elapsed":695962,"internal_node_id":"0.0-51.0"},{"Correct":-1,"Choice":-1,"RT":-1,"Accuracy":1,"Sham":0,"Outcome":1,"Block":1,"Trial":40,"Valence":"Win","Action":"No-Go","trial_type":"pit-trial","trial_index":52,"time_elapsed":699972,"internal_node_id":"0.0-52.0"},{"Correct":32,"Choice":32,"RT":587,"Accuracy":1,"Sham":1,"Outcome":-1,"Block":1,"Trial":41,"Valence":"Lose","Action":"Go","trial_type":"pit-trial","trial_index":53,"time_elapsed":703090,"internal_node_id":"0.0-53.0"},{"Correct":-1,"Choice":32,"RT":565,"Accuracy":0,"Sham":0,"Outcome":0,"Block":1,"Trial":42,"Valence":"Win","Action":"No-Go","trial_type":"pit-trial","trial_index":54,"time_elapsed":706191,"internal_node_id":"0.0-54.0"},{"Correct":-1,"Choice":-1,"RT":-1,"Accuracy":1,"Sham":0,"Outcome":0,"Block":1,"Trial":43,"Valence":"Lose","Action":"No-Go","trial_type":"pit-trial","trial_index":55,"time_elapsed":710222,"internal_node_id":"0.0-55.0"},{"Correct":32,"Choice":32,"RT":458,"Accuracy":1,"Sham":0,"Outcome":1,"Block":1,"Trial":44,"Valence":"Win","Action":"Go","trial_type":"pit-trial","trial_index":56,"time_elapsed":713212,"internal_node_id":"0.0-56.0"},{"Correct":-1,"Choice":-1,"RT":-1,"Accuracy":1,"Sham":0,"Outcome":0,"Block":1,"Trial":45,"Valence":"Lose","Action":"No-Go","trial_type":"pit-trial","trial_index":57,"time_elapsed":717222,"internal_node_id":"0.0-57.0"},{"Correct":-1,"Choice":-1,"RT":-1,"Accuracy":1,"Sham":1,"Outcome":0,"Block":1,"Trial":46,"Valence":"Win","Action":"No-Go","trial_type":"pit-trial","trial_index":58,"time_elapsed":721242,"internal_node_id":"0.0-58.0"},{"Correct":32,"Choice":-1,"RT":-1,"Accuracy":0,"Sham":0,"Outcome":-1,"Block":1,"Trial":47,"Valence":"Lose","Action":"Go","trial_type":"pit-trial","trial_index":59,"time_elapsed":725282,"internal_node_id":"0.0-59.0"},{"Correct":32,"Choice":32,"RT":536,"Accuracy":1,"Sham":0,"Outcome":1,"Block":1,"Trial":48,"Valence":"Win","Action":"Go","trial_type":"pit-trial","trial_index":60,"time_elapsed":728357,"internal_node_id":"0.0-60.0"},{"Correct":-1,"Choice":-1,"RT":-1,"Accuracy":1,"Sham":0,"Outcome":0,"Block":1,"Trial":49,"Valence":"Lose","Action":"No-Go","trial_type":"pit-trial","trial_index":61,"time_elapsed":732372,"internal_node_id":"0.0-61.0"},{"Correct":32,"Choice":32,"RT":473,"Accuracy":1,"Sham":0,"Outcome":1,"Block":1,"Trial":50,"Valence":"Win","Action":"Go","trial_type":"pit-trial","trial_index":62,"time_elapsed":735372,"internal_node_id":"0.0-62.0"},{"Correct":-1,"Choice":-1,"RT":-1,"Accuracy":1,"Sham":0,"Outcome":1,"Block":1,"Trial":51,"Valence":"Win","Action":"No-Go","trial_type":"pit-trial","trial_index":63,"time_elapsed":739391,"internal_node_id":"0.0-63.0"},{"Correct":32,"Choice":-1,"RT":-1,"Accuracy":0,"Sham":0,"Outcome":-1,"Block":1,"Trial":52,"Valence":"Lose","Action":"Go","trial_type":"pit-trial","trial_index":64,"time_elapsed":743432,"internal_node_id":"0.0-64.0"},{"Correct":-1,"Choice":-1,"RT":-1,"Accuracy":1,"Sham":0,"Outcome":1,"Block":1,"Trial":53,"Valence":"Win","Action":"No-Go","trial_type":"pit-trial","trial_index":65,"time_elapsed":747452,"internal_node_id":"0.0-65.0"},{"Correct":32,"Choice":32,"RT":661,"Accuracy":1,"Sham":0,"Outcome":0,"Block":1,"Trial":54,"Valence":"Lose","Action":"Go","trial_type":"pit-trial","trial_index":66,"time_elapsed":750652,"internal_node_id":"0.0-66.0"},{"Correct":-1,"Choice":-1,"RT":-1,"Accuracy":1,"Sham":0,"Outcome":0,"Block":1,"Trial":55,"Valence":"Lose","Action":"No-Go","trial_type":"pit-trial","trial_index":67,"time_elapsed":754682,"internal_node_id":"0.0-67.0"},{"Correct":32,"Choice":32,"RT":256,"Accuracy":1,"Sham":0,"Outcome":1,"Block":1,"Trial":56,"Valence":"Win","Action":"Go","trial_type":"pit-trial","trial_index":68,"time_elapsed":757462,"internal_node_id":"0.0-68.0"},{"Correct":32,"Choice":32,"RT":515,"Accuracy":1,"Sham":1,"Outcome":0,"Block":1,"Trial":57,"Valence":"Win","Action":"Go","trial_type":"pit-trial","trial_index":69,"time_elapsed":760502,"internal_node_id":"0.0-69.0"},{"Correct":32,"Choice":-1,"RT":-1,"Accuracy":0,"Sham":0,"Outcome":-1,"Block":1,"Trial":58,"Valence":"Lose","Action":"Go","trial_type":"pit-trial","trial_index":70,"time_elapsed":764532,"internal_node_id":"0.0-70.0"},{"Correct":-1,"Choice":-1,"RT":-1,"Accuracy":1,"Sham":1,"Outcome":-1,"Block":1,"Trial":59,"Valence":"Lose","Action":"No-Go","trial_type":"pit-trial","trial_index":71,"time_elapsed":768552,"internal_node_id":"0.0-71.0"},{"Correct":-1,"Choice":-1,"RT":-1,"Accuracy":1,"Sham":0,"Outcome":1,"Block":1,"Trial":60,"Valence":"Win","Action":"No-Go","trial_type":"pit-trial","trial_index":72,"time_elapsed":772569,"internal_node_id":"0.0-72.0"},{"Correct":-1,"Choice":-1,"RT":-1,"Accuracy":1,"Sham":0,"Outcome":1,"Block":1,"Trial":61,"Valence":"Win","Action":"No-Go","trial_type":"pit-trial","trial_index":73,"time_elapsed":776582,"internal_node_id":"0.0-73.0"},{"Correct":32,"Choice":32,"RT":751,"Accuracy":1,"Sham":0,"Outcome":0,"Block":1,"Trial":62,"Valence":"Lose","Action":"Go","trial_type":"pit-trial","trial_index":74,"time_elapsed":779862,"internal_node_id":"0.0-74.0"},{"Correct":-1,"Choice":-1,"RT":-1,"Accuracy":1,"Sham":0,"Outcome":0,"Block":1,"Trial":63,"Valence":"Lose","Action":"No-Go","trial_type":"pit-trial","trial_index":75,"time_elapsed":783882,"internal_node_id":"0.0-75.0"},{"Correct":32,"Choice":32,"RT":410,"Accuracy":1,"Sham":0,"Outcome":1,"Block":1,"Trial":64,"Valence":"Win","Action":"Go","trial_type":"pit-trial","trial_index":76,"time_elapsed":786822,"internal_node_id":"0.0-76.0"},{"Correct":-1,"Choice":-1,"RT":-1,"Accuracy":1,"Sham":0,"Outcome":1,"Block":1,"Trial":65,"Valence":"Win","Action":"No-Go","trial_type":"pit-trial","trial_index":77,"time_elapsed":790841,"internal_node_id":"0.0-77.0"},{"Correct":-1,"Choice":-1,"RT":-1,"Accuracy":1,"Sham":0,"Outcome":0,"Block":1,"Trial":66,"Valence":"Lose","Action":"No-Go","trial_type":"pit-trial","trial_index":78,"time_elapsed":794862,"internal_node_id":"0.0-78.0"},{"Correct":32,"Choice":32,"RT":397,"Accuracy":1,"Sham":1,"Outcome":0,"Block":1,"Trial":67,"Valence":"Win","Action":"Go","trial_type":"pit-trial","trial_index":79,"time_elapsed":797782,"internal_node_id":"0.0-79.0"},{"Correct":32,"Choice":32,"RT":506,"Accuracy":1,"Sham":0,"Outcome":0,"Block":1,"Trial":68,"Valence":"Lose","Action":"Go","trial_type":"pit-trial","trial_index":80,"time_elapsed":800822,"internal_node_id":"0.0-80.0"},{"Correct":-1,"Choice":-1,"RT":-1,"Accuracy":1,"Sham":1,"Outcome":-1,"Block":1,"Trial":69,"Valence":"Lose","Action":"No-Go","trial_type":"pit-trial","trial_index":81,"time_elapsed":804862,"internal_node_id":"0.0-81.0"},{"Correct":32,"Choice":32,"RT":681,"Accuracy":1,"Sham":0,"Outcome":0,"Block":1,"Trial":70,"Valence":"Lose","Action":"Go","trial_type":"pit-trial","trial_index":82,"time_elapsed":808082,"internal_node_id":"0.0-82.0"},{"Correct":32,"Choice":32,"RT":409,"Accuracy":1,"Sham":0,"Outcome":1,"Block":1,"Trial":71,"Valence":"Win","Action":"Go","trial_type":"pit-trial","trial_index":83,"time_elapsed":811002,"internal_node_id":"0.0-83.0"},{"Correct":-1,"Choice":-1,"RT":-1,"Accuracy":1,"Sham":0,"Outcome":1,"Block":1,"Trial":72,"Valence":"Win","Action":"No-Go","trial_type":"pit-trial","trial_index":84,"time_elapsed":815042,"internal_node_id":"0.0-84.0"},{"Correct":-1,"Choice":-1,"RT":-1,"Accuracy":1,"Sham":0,"Outcome":1,"Block":1,"Trial":73,"Valence":"Win","Action":"No-Go","trial_type":"pit-trial","trial_index":85,"time_elapsed":819062,"internal_node_id":"0.0-85.0"},{"Correct":32,"Choice":32,"RT":617,"Accuracy":1,"Sham":1,"Outcome":-1,"Block":1,"Trial":74,"Valence":"Lose","Action":"Go","trial_type":"pit-trial","trial_index":86,"time_elapsed":822201,"internal_node_id":"0.0-86.0"},{"Correct":32,"Choice":32,"RT":732,"Accuracy":1,"Sham":0,"Outcome":1,"Block":1,"Trial":75,"Valence":"Win","Action":"Go","trial_type":"pit-trial","trial_index":87,"time_elapsed":825472,"internal_node_id":"0.0-87.0"},{"Correct":-1,"Choice":-1,"RT":-1,"Accuracy":1,"Sham":0,"Outcome":0,"Block":1,"Trial":76,"Valence":"Lose","Action":"No-Go","trial_type":"pit-trial","trial_index":88,"time_elapsed":829501,"internal_node_id":"0.0-88.0"},{"Correct":-1,"Choice":-1,"RT":-1,"Accuracy":1,"Sham":1,"Outcome":0,"Block":1,"Trial":77,"Valence":"Win","Action":"No-Go","trial_type":"pit-trial","trial_index":89,"time_elapsed":833541,"internal_node_id":"0.0-89.0"},{"Correct":32,"Choice":32,"RT":323,"Accuracy":1,"Sham":0,"Outcome":1,"Block":1,"Trial":78,"Valence":"Win","Action":"Go","trial_type":"pit-trial","trial_index":90,"time_elapsed":836402,"internal_node_id":"0.0-90.0"},{"Correct":-1,"Choice":-1,"RT":-1,"Accuracy":1,"Sham":0,"Outcome":0,"Block":1,"Trial":79,"Valence":"Lose","Action":"No-Go","trial_type":"pit-trial","trial_index":91,"time_elapsed":840423,"internal_node_id":"0.0-91.0"},{"Correct":32,"Choice":32,"RT":726,"Accuracy":1,"Sham":0,"Outcome":0,"Block":1,"Trial":80,"Valence":"Lose","Action":"Go","trial_type":"pit-trial","trial_index":92,"time_elapsed":843682,"internal_node_id":"0.0-92.0"},{"value":false,"trial_type":"call-function","trial_index":93,"time_elapsed":843684,"internal_node_id":"0.0-93.0"},{"RT":3154,"trial_type":"pit-pause","trial_index":94,"time_elapsed":850080,"internal_node_id":"0.0-94.0"},{"Correct":32,"Choice":32,"RT":507,"Accuracy":1,"Sham":0,"Outcome":1,"Block":2,"Trial":81,"Valence":"Win","Action":"Go","trial_type":"pit-trial","trial_index":95,"time_elapsed":853122,"internal_node_id":"0.0-95.0"},{"Correct":-1,"Choice":-1,"RT":-1,"Accuracy":1,"Sham":0,"Outcome":1,"Block":2,"Trial":82,"Valence":"Win","Action":"No-Go","trial_type":"pit-trial","trial_index":96,"time_elapsed":857161,"internal_node_id":"0.0-96.0"},{"Correct":-1,"Choice":32,"RT":1042,"Accuracy":0,"Sham":0,"Outcome":-1,"Block":2,"Trial":83,"Valence":"Lose","Action":"No-Go","trial_type":"pit-trial","trial_index":97,"time_elapsed":860741,"internal_node_id":"0.0-97.0"},{"Correct":32,"Choice":32,"RT":778,"Accuracy":1,"Sham":0,"Outcome":0,"Block":2,"Trial":84,"Valence":"Lose","Action":"Go","trial_type":"pit-trial","trial_index":98,"time_elapsed":864042,"internal_node_id":"0.0-98.0"},{"Correct":32,"Choice":32,"RT":348,"Accuracy":1,"Sham":0,"Outcome":1,"Block":2,"Trial":85,"Valence":"Win","Action":"Go","trial_type":"pit-trial","trial_index":99,"time_elapsed":866922,"internal_node_id":"0.0-99.0"},{"Correct":-1,"Choice":-1,"RT":-1,"Accuracy":1,"Sham":0,"Outcome":1,"Block":2,"Trial":86,"Valence":"Win","Action":"No-Go","trial_type":"pit-trial","trial_index":100,"time_elapsed":870941,"internal_node_id":"0.0-100.0"},{"Correct":32,"Choice":-1,"RT":-1,"Accuracy":0,"Sham":0,"Outcome":-1,"Block":2,"Trial":87,"Valence":"Lose","Action":"Go","trial_type":"pit-trial","trial_index":101,"time_elapsed":874982,"internal_node_id":"0.0-101.0"},{"Correct":-1,"Choice":-1,"RT":-1,"Accuracy":1,"Sham":0,"Outcome":0,"Block":2,"Trial":88,"Valence":"Lose","Action":"No-Go","trial_type":"pit-trial","trial_index":102,"time_elapsed":879002,"internal_node_id":"0.0-102.0"},{"Correct":32,"Choice":32,"RT":697,"Accuracy":1,"Sham":1,"Outcome":-1,"Block":2,"Trial":89,"Valence":"Lose","Action":"Go","trial_type":"pit-trial","trial_index":103,"time_elapsed":882222,"internal_node_id":"0.0-103.0"},{"Correct":32,"Choice":32,"RT":282,"Accuracy":1,"Sham":1,"Outcome":0,"Block":2,"Trial":90,"Valence":"Win","Action":"Go","trial_type":"pit-trial","trial_index":104,"time_elapsed":885042,"internal_node_id":"0.0-104.0"},{"Correct":-1,"Choice":-1,"RT":-1,"Accuracy":1,"Sham":0,"Outcome":1,"Block":2,"Trial":91,"Valence":"Win","Action":"No-Go","trial_type":"pit-trial","trial_index":105,"time_elapsed":889082,"internal_node_id":"0.0-105.0"},{"Correct":-1,"Choice":-1,"RT":-1,"Accuracy":1,"Sham":0,"Outcome":0,"Block":2,"Trial":92,"Valence":"Lose","Action":"No-Go","trial_type":"pit-trial","trial_index":106,"time_elapsed":893112,"internal_node_id":"0.0-106.0"},{"Correct":-1,"Choice":-1,"RT":-1,"Accuracy":1,"Sham":0,"Outcome":0,"Block":2,"Trial":93,"Valence":"Lose","Action":"No-Go","trial_type":"pit-trial","trial_index":107,"time_elapsed":897121,"internal_node_id":"0.0-107.0"},{"Correct":32,"Choice":32,"RT":539,"Accuracy":1,"Sham":0,"Outcome":1,"Block":2,"Trial":94,"Valence":"Win","Action":"Go","trial_type":"pit-trial","trial_index":108,"time_elapsed":900182,"internal_node_id":"0.0-108.0"},{"Correct":32,"Choice":-1,"RT":-1,"Accuracy":0,"Sham":0,"Outcome":-1,"Block":2,"Trial":95,"Valence":"Lose","Action":"Go","trial_type":"pit-trial","trial_index":109,"time_elapsed":904202,"internal_node_id":"0.0-109.0"},{"Correct":-1,"Choice":-1,"RT":-1,"Accuracy":1,"Sham":1,"Outcome":0,"Block":2,"Trial":96,"Valence":"Win","Action":"No-Go","trial_type":"pit-trial","trial_index":110,"time_elapsed":908222,"internal_node_id":"0.0-110.0"},{"Correct":-1,"Choice":-1,"RT":-1,"Accuracy":1,"Sham":1,"Outcome":-1,"Block":2,"Trial":97,"Valence":"Lose","Action":"No-Go","trial_type":"pit-trial","trial_index":111,"time_elapsed":912262,"internal_node_id":"0.0-111.0"},{"Correct":32,"Choice":32,"RT":339,"Accuracy":1,"Sham":0,"Outcome":1,"Block":2,"Trial":98,"Valence":"Win","Action":"Go","trial_type":"pit-trial","trial_index":112,"time_elapsed":915122,"internal_node_id":"0.0-112.0"},{"Correct":32,"Choice":-1,"RT":-1,"Accuracy":0,"Sham":0,"Outcome":-1,"Block":2,"Trial":99,"Valence":"Lose","Action":"Go","trial_type":"pit-trial","trial_index":113,"time_elapsed":919138,"internal_node_id":"0.0-113.0"},{"Correct":-1,"Choice":-1,"RT":-1,"Accuracy":1,"Sham":0,"Outcome":1,"Block":2,"Trial":100,"Valence":"Win","Action":"No-Go","trial_type":"pit-trial","trial_index":114,"time_elapsed":923152,"internal_node_id":"0.0-114.0"},{"Correct":-1,"Choice":32,"RT":484,"Accuracy":0,"Sham":0,"Outcome":-1,"Block":2,"Trial":101,"Valence":"Lose","Action":"No-Go","trial_type":"pit-trial","trial_index":115,"time_elapsed":926172,"internal_node_id":"0.0-115.0"},{"Correct":32,"Choice":32,"RT":945,"Accuracy":1,"Sham":0,"Outcome":0,"Block":2,"Trial":102,"Valence":"Lose","Action":"Go","trial_type":"pit-trial","trial_index":116,"time_elapsed":929651,"internal_node_id":"0.0-116.0"},{"Correct":32,"Choice":32,"RT":365,"Accuracy":1,"Sham":1,"Outcome":0,"Block":2,"Trial":103,"Valence":"Win","Action":"Go","trial_type":"pit-trial","trial_index":117,"time_elapsed":932552,"internal_node_id":"0.0-117.0"},{"Correct":-1,"Choice":-1,"RT":-1,"Accuracy":1,"Sham":1,"Outcome":0,"Block":2,"Trial":104,"Valence":"Win","Action":"No-Go","trial_type":"pit-trial","trial_index":118,"time_elapsed":936575,"internal_node_id":"0.0-118.0"},{"Correct":32,"Choice":-1,"RT":-1,"Accuracy":0,"Sham":0,"Outcome":-1,"Block":2,"Trial":105,"Valence":"Lose","Action":"Go","trial_type":"pit-trial","trial_index":119,"time_elapsed":940592,"internal_node_id":"0.0-119.0"},{"Correct":32,"Choice":32,"RT":478,"Accuracy":1,"Sham":0,"Outcome":1,"Block":2,"Trial":106,"Valence":"Win","Action":"Go","trial_type":"pit-trial","trial_index":120,"time_elapsed":943592,"internal_node_id":"0.0-120.0"},{"Correct":-1,"Choice":-1,"RT":-1,"Accuracy":1,"Sham":0,"Outcome":1,"Block":2,"Trial":107,"Valence":"Win","Action":"No-Go","trial_type":"pit-trial","trial_index":121,"time_elapsed":947612,"internal_node_id":"0.0-121.0"},{"Correct":-1,"Choice":-1,"RT":-1,"Accuracy":1,"Sham":0,"Outcome":0,"Block":2,"Trial":108,"Valence":"Lose","Action":"No-Go","trial_type":"pit-trial","trial_index":122,"time_elapsed":951632,"internal_node_id":"0.0-122.0"},{"Correct":-1,"Choice":-1,"RT":-1,"Accuracy":1,"Sham":0,"Outcome":1,"Block":2,"Trial":109,"Valence":"Win","Action":"No-Go","trial_type":"pit-trial","trial_index":123,"time_elapsed":955653,"internal_node_id":"0.0-123.0"},{"Correct":-1,"Choice":32,"RT":518,"Accuracy":0,"Sham":0,"Outcome":-1,"Block":2,"Trial":110,"Valence":"Lose","Action":"No-Go","trial_type":"pit-trial","trial_index":124,"time_elapsed":958701,"internal_node_id":"0.0-124.0"},{"Correct":32,"Choice":32,"RT":390,"Accuracy":1,"Sham":0,"Outcome":1,"Block":2,"Trial":111,"Valence":"Win","Action":"Go","trial_type":"pit-trial","trial_index":125,"time_elapsed":961622,"internal_node_id":"0.0-125.0"},{"Correct":32,"Choice":32,"RT":559,"Accuracy":1,"Sham":0,"Outcome":0,"Block":2,"Trial":112,"Valence":"Lose","Action":"Go","trial_type":"pit-trial","trial_index":126,"time_elapsed":964702,"internal_node_id":"0.0-126.0"},{"Correct":-1,"Choice":-1,"RT":-1,"Accuracy":1,"Sham":0,"Outcome":1,"Block":2,"Trial":113,"Valence":"Win","Action":"No-Go","trial_type":"pit-trial","trial_index":127,"time_elapsed":968722,"internal_node_id":"0.0-127.0"},{"Correct":-1,"Choice":-1,"RT":-1,"Accuracy":1,"Sham":0,"Outcome":0,"Block":2,"Trial":114,"Valence":"Lose","Action":"No-Go","trial_type":"pit-trial","trial_index":128,"time_elapsed":972751,"internal_node_id":"0.0-128.0"},{"Correct":32,"Choice":32,"RT":845,"Accuracy":1,"Sham":1,"Outcome":-1,"Block":2,"Trial":115,"Valence":"Lose","Action":"Go","trial_type":"pit-trial","trial_index":129,"time_elapsed":976122,"internal_node_id":"0.0-129.0"},{"Correct":32,"Choice":32,"RT":294,"Accuracy":1,"Sham":0,"Outcome":1,"Block":2,"Trial":116,"Valence":"Win","Action":"Go","trial_type":"pit-trial","trial_index":130,"time_elapsed":978941,"internal_node_id":"0.0-130.0"},{"Correct":-1,"Choice":32,"RT":711,"Accuracy":0,"Sham":1,"Outcome":0,"Block":2,"Trial":117,"Valence":"Lose","Action":"No-Go","trial_type":"pit-trial","trial_index":131,"time_elapsed":982182,"internal_node_id":"0.0-131.0"},{"Correct":32,"Choice":-1,"RT":-1,"Accuracy":0,"Sham":0,"Outcome":-1,"Block":2,"Trial":118,"Valence":"Lose","Action":"Go","trial_type":"pit-trial","trial_index":132,"time_elapsed":986202,"internal_node_id":"0.0-132.0"},{"Correct":-1,"Choice":-1,"RT":-1,"Accuracy":1,"Sham":0,"Outcome":1,"Block":2,"Trial":119,"Valence":"Win","Action":"No-Go","trial_type":"pit-trial","trial_index":133,"time_elapsed":990242,"internal_node_id":"0.0-133.0"},{"Correct":32,"Choice":32,"RT":291,"Accuracy":1,"Sham":0,"Outcome":1,"Block":2,"Trial":120,"Valence":"Win","Action":"Go","trial_type":"pit-trial","trial_index":134,"time_elapsed":993062,"internal_node_id":"0.0-134.0"},{"Correct":-1,"Choice":-1,"RT":-1,"Accuracy":1,"Sham":0,"Outcome":1,"Block":2,"Trial":121,"Valence":"Win","Action":"No-Go","trial_type":"pit-trial","trial_index":135,"time_elapsed":997073,"internal_node_id":"0.0-135.0"},{"Correct":-1,"Choice":32,"RT":514,"Accuracy":0,"Sham":0,"Outcome":-1,"Block":2,"Trial":122,"Valence":"Lose","Action":"No-Go","trial_type":"pit-trial","trial_index":136,"time_elapsed":1000112,"internal_node_id":"0.0-136.0"},{"Correct":32,"Choice":32,"RT":1266,"Accuracy":1,"Sham":0,"Outcome":0,"Block":2,"Trial":123,"Valence":"Lose","Action":"Go","trial_type":"pit-trial","trial_index":137,"time_elapsed":1003912,"internal_node_id":"0.0-137.0"},{"Correct":32,"Choice":32,"RT":446,"Accuracy":1,"Sham":1,"Outcome":0,"Block":2,"Trial":124,"Valence":"Win","Action":"Go","trial_type":"pit-trial","trial_index":138,"time_elapsed":1006892,"internal_node_id":"0.0-138.0"},{"Correct":32,"Choice":32,"RT":952,"Accuracy":1,"Sham":1,"Outcome":-1,"Block":2,"Trial":125,"Valence":"Lose","Action":"Go","trial_type":"pit-trial","trial_index":139,"time_elapsed":1010372,"internal_node_id":"0.0-139.0"},{"Correct":-1,"Choice":32,"RT":892,"Accuracy":0,"Sham":0,"Outcome":-1,"Block":2,"Trial":126,"Valence":"Lose","Action":"No-Go","trial_type":"pit-trial","trial_index":140,"time_elapsed":1013792,"internal_node_id":"0.0-140.0"},{"Correct":-1,"Choice":-1,"RT":-1,"Accuracy":1,"Sham":0,"Outcome":1,"Block":2,"Trial":127,"Valence":"Win","Action":"No-Go","trial_type":"pit-trial","trial_index":141,"time_elapsed":1017822,"internal_node_id":"0.0-141.0"},{"Correct":32,"Choice":32,"RT":286,"Accuracy":1,"Sham":0,"Outcome":1,"Block":2,"Trial":128,"Valence":"Win","Action":"Go","trial_type":"pit-trial","trial_index":142,"time_elapsed":1020633,"internal_node_id":"0.0-142.0"},{"Correct":-1,"Choice":32,"RT":923,"Accuracy":0,"Sham":0,"Outcome":-1,"Block":2,"Trial":129,"Valence":"Lose","Action":"No-Go","trial_type":"pit-trial","trial_index":143,"time_elapsed":1024092,"internal_node_id":"0.0-143.0"},{"Correct":32,"Choice":32,"RT":469,"Accuracy":1,"Sham":0,"Outcome":1,"Block":2,"Trial":130,"Valence":"Win","Action":"Go","trial_type":"pit-trial","trial_index":144,"time_elapsed":1027092,"internal_node_id":"0.0-144.0"},{"Correct":32,"Choice":32,"RT":623,"Accuracy":1,"Sham":0,"Outcome":0,"Block":2,"Trial":131,"Valence":"Lose","Action":"Go","trial_type":"pit-trial","trial_index":145,"time_elapsed":1030252,"internal_node_id":"0.0-145.0"},{"Correct":-1,"Choice":-1,"RT":-1,"Accuracy":1,"Sham":0,"Outcome":1,"Block":2,"Trial":132,"Valence":"Win","Action":"No-Go","trial_type":"pit-trial","trial_index":146,"time_elapsed":1034292,"internal_node_id":"0.0-146.0"},{"Correct":-1,"Choice":-1,"RT":-1,"Accuracy":1,"Sham":0,"Outcome":0,"Block":2,"Trial":133,"Valence":"Lose","Action":"No-Go","trial_type":"pit-trial","trial_index":147,"time_elapsed":1038312,"internal_node_id":"0.0-147.0"},{"Correct":32,"Choice":32,"RT":406,"Accuracy":1,"Sham":0,"Outcome":1,"Block":2,"Trial":134,"Valence":"Win","Action":"Go","trial_type":"pit-trial","trial_index":148,"time_elapsed":1041252,"internal_node_id":"0.0-148.0"},{"Correct":32,"Choice":32,"RT":300,"Accuracy":1,"Sham":0,"Outcome":0,"Block":2,"Trial":135,"Valence":"Lose","Action":"Go","trial_type":"pit-trial","trial_index":149,"time_elapsed":1044072,"internal_node_id":"0.0-149.0"},{"Correct":-1,"Choice":-1,"RT":-1,"Accuracy":1,"Sham":0,"Outcome":1,"Block":2,"Trial":136,"Valence":"Win","Action":"No-Go","trial_type":"pit-trial","trial_index":150,"time_elapsed":1048092,"internal_node_id":"0.0-150.0"},{"Correct":-1,"Choice":-1,"RT":-1,"Accuracy":1,"Sham":1,"Outcome":-1,"Block":2,"Trial":137,"Valence":"Lose","Action":"No-Go","trial_type":"pit-trial","trial_index":151,"time_elapsed":1052112,"internal_node_id":"0.0-151.0"},{"Correct":32,"Choice":32,"RT":419,"Accuracy":1,"Sham":0,"Outcome":1,"Block":2,"Trial":138,"Valence":"Win","Action":"Go","trial_type":"pit-trial","trial_index":152,"time_elapsed":1055043,"internal_node_id":"0.0-152.0"},{"Correct":32,"Choice":32,"RT":520,"Accuracy":1,"Sham":0,"Outcome":0,"Block":2,"Trial":139,"Valence":"Lose","Action":"Go","trial_type":"pit-trial","trial_index":153,"time_elapsed":1058102,"internal_node_id":"0.0-153.0"},{"Correct":-1,"Choice":-1,"RT":-1,"Accuracy":1,"Sham":1,"Outcome":0,"Block":2,"Trial":140,"Valence":"Win","Action":"No-Go","trial_type":"pit-trial","trial_index":154,"time_elapsed":1062141,"internal_node_id":"0.0-154.0"},{"Correct":-1,"Choice":-1,"RT":-1,"Accuracy":1,"Sham":1,"Outcome":0,"Block":2,"Trial":141,"Valence":"Win","Action":"No-Go","trial_type":"pit-trial","trial_index":155,"time_elapsed":1066152,"internal_node_id":"0.0-155.0"},{"Correct":32,"Choice":32,"RT":467,"Accuracy":1,"Sham":0,"Outcome":0,"Block":2,"Trial":142,"Valence":"Lose","Action":"Go","trial_type":"pit-trial","trial_index":156,"time_elapsed":1069152,"internal_node_id":"0.0-156.0"},{"Correct":32,"Choice":32,"RT":456,"Accuracy":1,"Sham":0,"Outcome":1,"Block":2,"Trial":143,"Valence":"Win","Action":"Go","trial_type":"pit-trial","trial_index":157,"time_elapsed":1072132,"internal_node_id":"0.0-157.0"},{"Correct":-1,"Choice":32,"RT":725,"Accuracy":0,"Sham":0,"Outcome":-1,"Block":2,"Trial":144,"Valence":"Lose","Action":"No-Go","trial_type":"pit-trial","trial_index":158,"time_elapsed":1075372,"internal_node_id":"0.0-158.0"},{"Correct":-1,"Choice":-1,"RT":-1,"Accuracy":1,"Sham":0,"Outcome":0,"Block":2,"Trial":145,"Valence":"Lose","Action":"No-Go","trial_type":"pit-trial","trial_index":159,"time_elapsed":1079392,"internal_node_id":"0.0-159.0"},{"Correct":32,"Choice":32,"RT":439,"Accuracy":1,"Sham":0,"Outcome":1,"Block":2,"Trial":146,"Valence":"Win","Action":"Go","trial_type":"pit-trial","trial_index":160,"time_elapsed":1082352,"internal_node_id":"0.0-160.0"},{"Correct":32,"Choice":32,"RT":326,"Accuracy":1,"Sham":0,"Outcome":0,"Block":2,"Trial":147,"Valence":"Lose","Action":"Go","trial_type":"pit-trial","trial_index":161,"time_elapsed":1085201,"internal_node_id":"0.0-161.0"},{"Correct":-1,"Choice":-1,"RT":-1,"Accuracy":1,"Sham":0,"Outcome":1,"Block":2,"Trial":148,"Valence":"Win","Action":"No-Go","trial_type":"pit-trial","trial_index":162,"time_elapsed":1089233,"internal_node_id":"0.0-162.0"},{"Correct":-1,"Choice":-1,"RT":-1,"Accuracy":1,"Sham":0,"Outcome":1,"Block":2,"Trial":149,"Valence":"Win","Action":"No-Go","trial_type":"pit-trial","trial_index":163,"time_elapsed":1093262,"internal_node_id":"0.0-163.0"},{"Correct":-1,"Choice":-1,"RT":-1,"Accuracy":1,"Sham":0,"Outcome":0,"Block":2,"Trial":150,"Valence":"Lose","Action":"No-Go","trial_type":"pit-trial","trial_index":164,"time_elapsed":1097302,"internal_node_id":"0.0-164.0"},{"Correct":32,"Choice":32,"RT":368,"Accuracy":1,"Sham":0,"Outcome":0,"Block":2,"Trial":151,"Valence":"Lose","Action":"Go","trial_type":"pit-trial","trial_index":165,"time_elapsed":1100203,"internal_node_id":"0.0-165.0"},{"Correct":32,"Choice":32,"RT":319,"Accuracy":1,"Sham":0,"Outcome":1,"Block":2,"Trial":152,"Valence":"Win","Action":"Go","trial_type":"pit-trial","trial_index":166,"time_elapsed":1103042,"internal_node_id":"0.0-166.0"},{"Correct":32,"Choice":32,"RT":489,"Accuracy":1,"Sham":0,"Outcome":1,"Block":2,"Trial":153,"Valence":"Win","Action":"Go","trial_type":"pit-trial","trial_index":167,"time_elapsed":1106062,"internal_node_id":"0.0-167.0"},{"Correct":-1,"Choice":-1,"RT":-1,"Accuracy":1,"Sham":0,"Outcome":0,"Block":2,"Trial":154,"Valence":"Lose","Action":"No-Go","trial_type":"pit-trial","trial_index":168,"time_elapsed":1110092,"internal_node_id":"0.0-168.0"},{"Correct":32,"Choice":32,"RT":287,"Accuracy":1,"Sham":0,"Outcome":0,"Block":2,"Trial":155,"Valence":"Lose","Action":"Go","trial_type":"pit-trial","trial_index":169,"time_elapsed":1112912,"internal_node_id":"0.0-169.0"},{"Correct":-1,"Choice":-1,"RT":-1,"Accuracy":1,"Sham":0,"Outcome":1,"Block":2,"Trial":156,"Valence":"Win","Action":"No-Go","trial_type":"pit-trial","trial_index":170,"time_elapsed":1116932,"internal_node_id":"0.0-170.0"},{"Correct":32,"Choice":32,"RT":525,"Accuracy":1,"Sham":1,"Outcome":-1,"Block":2,"Trial":157,"Valence":"Lose","Action":"Go","trial_type":"pit-trial","trial_index":171,"time_elapsed":1119992,"internal_node_id":"0.0-171.0"},{"Correct":-1,"Choice":-1,"RT":-1,"Accuracy":1,"Sham":1,"Outcome":-1,"Block":2,"Trial":158,"Valence":"Lose","Action":"No-Go","trial_type":"pit-trial","trial_index":172,"time_elapsed":1124012,"internal_node_id":"0.0-172.0"},{"Correct":-1,"Choice":-1,"RT":-1,"Accuracy":1,"Sham":0,"Outcome":1,"Block":2,"Trial":159,"Valence":"Win","Action":"No-Go","trial_type":"pit-trial","trial_index":173,"time_elapsed":1128042,"internal_node_id":"0.0-173.0"},{"Correct":32,"Choice":32,"RT":309,"Accuracy":1,"Sham":1,"Outcome":0,"Block":2,"Trial":160,"Valence":"Win","Action":"Go","trial_type":"pit-trial","trial_index":174,"time_elapsed":1130882,"internal_node_id":"0.0-174.0"},{"rt":14898,"demographics":{"age":"32","gender-categorical":"Male","ethnicity":"Not Hispanic or Latino","race":"White","english":"Yes","fluency":"Very well"},"trial_type":"survey-demo","trial_index":175,"time_elapsed":1145782,"internal_node_id":"0.0-175.0"},{"rt":44336,"debriefgraphics":{"difficulty":"4","fun":"3","clarity":"4","strategy":"Just tried to remember what each one normally did","feedback":"NA"},"trial_type":"survey-debrief","trial_index":176,"time_elapsed":1190124,"internal_node_id":"0.0-176.0","interactions":"[{\"event\":\"focus\",\"trial\":0,\"time\":0}]"}]