[{"view_history":"[{\"page_index\":0,\"viewing_time\":3253.4199999645352},{\"page_index\":1,\"viewing_time\":4984.664999879897},{\"page_index\":2,\"viewing_time\":9138.849999988452},{\"page_index\":3,\"viewing_time\":4851.60499997437},{\"page_index\":4,\"viewing_time\":4143.705000169575}]","rt":26375.609999988228,"trial_type":"pit-instructions","trial_index":0,"time_elapsed":26384,"internal_node_id":"0.0-0.0"},{"Valence":"Practice","Color":"#fffff080","Rune":"01","Correct":32,"Choice":32,"RT":586.06499992311,"Accuracy":1,"Sham":0,"Outcome":"+10","Keys":[2088.7949999887496],"TotalKeys":1,"trial_type":"pit-trial","trial_index":1,"time_elapsed":29490,"internal_node_id":"0.0-1.0"},{"Valence":"Practice","Color":"#fffff080","Rune":"01","Correct":32,"Choice":32,"RT":327.5150000117719,"Accuracy":1,"Sham":0,"Outcome":"+10","Keys":[1831.1749999411404],"TotalKeys":1,"trial_type":"pit-trial","trial_index":2,"time_elapsed":32337,"internal_node_id":"0.0-2.0"},{"Valence":"Practice","Color":"#fffff080","Rune":"01","Correct":32,"Choice":32,"RT":818.9499999862164,"Accuracy":1,"Sham":0,"Outcome":"+10","Keys":[2322.4300001747906],"TotalKeys":1,"trial_type":"pit-trial","trial_index":3,"time_elapsed":35674,"internal_node_id":"0.0-3.0"},{"Valence":"Practice","Color":"#fffff080","Rune":"01","Correct":32,"Choice":32,"RT":833.5250001400709,"Accuracy":1,"Sham":0,"Outcome":"+10","Keys":[2335.124999983236],"TotalKeys":1,"trial_type":"pit-trial","trial_index":4,"time_elapsed":39021,"internal_node_id":"0.0-4.0"},{"view_history":"[{\"page_index\":0,\"viewing_time\":8760.84000011906}]","rt":8761.530000017956,"trial_type":"pit-instructions","trial_index":5,"time_elapsed":47786,"internal_node_id":"0.0-5.0"},{"Valence":"Practice","Color":"#fffff080","Rune":"02","Correct":-1,"Choice":-1,"RT":-1,"Accuracy":1,"Sham":0,"Outcome":"+10","Keys":[],"TotalKeys":0,"trial_type":"pit-trial","trial_index":6,"time_elapsed":51802,"internal_node_id":"0.0-6.0"},{"Valence":"Practice","Color":"#fffff080","Rune":"02","Correct":-1,"Choice":-1,"RT":-1,"Accuracy":1,"Sham":0,"Outcome":"+10","Keys":[],"TotalKeys":0,"trial_type":"pit-trial","trial_index":7,"time_elapsed":55813,"internal_node_id":"0.0-7.0"},{"Valence":"Practice","Color":"#fffff080","Rune":"02","Correct":-1,"Choice":-1,"RT":-1,"Accuracy":1,"Sham":0,"Outcome":"+10","Keys":[],"TotalKeys":0,"trial_type":"pit-trial","trial_index":8,"time_elapsed":59830,"internal_node_id":"0.0-8.0"},{"Valence":"Practice","Color":"#fffff080","Rune":"02","Correct":-1,"Choice":-1,"RT":-1,"Accuracy":1,"Sham":0,"Outcome":"+10","Keys":[],"TotalKeys":0,"trial_type":"pit-trial","trial_index":9,"time_elapsed":63853,"internal_node_id":"0.0-9.0"},{"view_history":"[{\"page_index\":0,\"viewing_time\":3223.045000107959},{\"page_index\":1,\"viewing_time\":9882.64500000514},{\"page_index\":2,\"viewing_time\":16709.400000050664},{\"page_index\":3,\"viewing_time\":4799.594999989495},{\"page_index\":4,\"viewing_time\":4098.869999870658},{\"page_index\":5,\"viewing_time\":7943.424999946728},{\"page_index\":6,\"viewing_time\":3482.645000098273},{\"page_index\":7,\"viewing_time\":2144.49999993667}]","rt":52284.75000010803,"trial_type":"pit-instructions","trial_index":10,"time_elapsed":116141,"internal_node_id":"0.0-10.0"},{"rt":20681.74000014551,"responses":"{\"no-press\":\"Do nothing\",\"context-win\":\"+10\",\"context-lose\":\"-1\",\"feedback\":\"True\"}","errors":0,"trial_type":"pit-comprehension","trial_index":11,"time_elapsed":136827,"internal_node_id":"0.0-11.0"},{"view_history":"[{\"page_index\":0,\"viewing_time\":3606.9799999240786}]","rt":3607.679999899119,"trial_type":"pit-instructions","trial_index":12,"time_elapsed":140439,"internal_node_id":"0.0-12.0"},{"Valence":"Win","Color":"#ffcc3399","Rune":"04","Correct":-1,"Choice":32,"RT":82.91999995708466,"Accuracy":0,"Sham":0,"Outcome":"+1","Keys":[1584.9850000813603],"TotalKeys":1,"Block":1,"Trial":1,"Action":"No-Go","Robot":2,"trial_type":"pit-trial","trial_index":13,"time_elapsed":143033,"internal_node_id":"0.0-13.0"},{"Valence":"Lose","Color":"#3366ff99","Rune":"05","Correct":32,"Choice":32,"RT":722.770000109449,"Accuracy":1,"Sham":0,"Outcome":"-1","Keys":[2223.805000074208],"TotalKeys":1,"Block":1,"Trial":2,"Action":"Go","Robot":3,"trial_type":"pit-trial","trial_index":14,"time_elapsed":146275,"internal_node_id":"0.0-14.0"},{"Valence":"Lose","Color":"#3366ff99","Rune":"06","Correct":-1,"Choice":32,"RT":1037.430000025779,"Accuracy":0,"Sham":0,"Outcome":"-10","Keys":[2540.379999903962],"TotalKeys":1,"Block":1,"Trial":3,"Action":"No-Go","Robot":4,"trial_type":"pit-trial","trial_index":15,"time_elapsed":149831,"internal_node_id":"0.0-15.0"},{"Valence":"Win","Color":"#ffcc3399","Rune":"03","Correct":32,"Choice":32,"RT":702.4799999780953,"Accuracy":1,"Sham":0,"Outcome":"+10","Keys":[2205.034999875352],"TotalKeys":1,"Block":1,"Trial":4,"Action":"Go","Robot":1,"trial_type":"pit-trial","trial_index":16,"time_elapsed":153048,"internal_node_id":"0.0-16.0"},{"Valence":"Lose","Color":"#3366ff99","Rune":"05","Correct":32,"Choice":-1,"RT":-1,"Accuracy":0,"Sham":1,"Outcome":"-1","Keys":[],"TotalKeys":0,"Block":1,"Trial":5,"Action":"Go","Robot":3,"trial_type":"pit-trial","trial_index":17,"time_elapsed":157064,"internal_node_id":"0.0-17.0"},{"Valence":"Lose","Color":"#3366ff99","Rune":"06","Correct":-1,"Choice":-1,"RT":-1,"Accuracy":1,"Sham":0,"Outcome":"-1","Keys":[],"TotalKeys":0,"Block":1,"Trial":6,"Action":"No-Go","Robot":4,"trial_type":"pit-trial","trial_index":18,"time_elapsed":161081,"internal_node_id":"0.0-18.0"},{"Valence":"Win","Color":"#ffcc3399","Rune":"03","Correct":32,"Choice":32,"RT":721.2350000627339,"Accuracy":1,"Sham":0,"Outcome":"+10","Keys":[2222.150000045076],"TotalKeys":1,"Block":1,"Trial":7,"Action":"Go","Robot":1,"trial_type":"pit-trial","trial_index":19,"time_elapsed":164312,"internal_node_id":"0.0-19.0"},{"Valence":"Win","Color":"#ffcc3399","Rune":"04","Correct":-1,"Choice":32,"RT":1248.2399998698384,"Accuracy":0,"Sham":0,"Outcome":"+1","Keys":[2749.735000077635],"TotalKeys":1,"Block":1,"Trial":8,"Action":"No-Go","Robot":2,"trial_type":"pit-trial","trial_index":20,"time_elapsed":168072,"internal_node_id":"0.0-20.0"},{"Valence":"Win","Color":"#ffcc3399","Rune":"03","Correct":32,"Choice":32,"RT":1017.7099998109043,"Accuracy":1,"Sham":0,"Outcome":"+10","Keys":[2520.699999993667],"TotalKeys":1,"Block":1,"Trial":9,"Action":"Go","Robot":1,"trial_type":"pit-trial","trial_index":21,"time_elapsed":171602,"internal_node_id":"0.0-21.0"},{"Valence":"Lose","Color":"#3366ff99","Rune":"05","Correct":32,"Choice":-1,"RT":-1,"Accuracy":0,"Sham":0,"Outcome":"-10","Keys":[],"TotalKeys":0,"Block":1,"Trial":10,"Action":"Go","Robot":3,"trial_type":"pit-trial","trial_index":22,"time_elapsed":175621,"internal_node_id":"0.0-22.0"},{"Valence":"Win","Color":"#ffcc3399","Rune":"04","Correct":-1,"Choice":32,"RT":867.6150001119822,"Accuracy":0,"Sham":0,"Outcome":"+1","Keys":[2374.9750000424683],"TotalKeys":1,"Block":1,"Trial":11,"Action":"No-Go","Robot":2,"trial_type":"pit-trial","trial_index":23,"time_elapsed":179005,"internal_node_id":"0.0-23.0"},{"Valence":"Lose","Color":"#3366ff99","Rune":"06","Correct":-1,"Choice":-1,"RT":-1,"Accuracy":1,"Sham":0,"Outcome":"-1","Keys":[],"TotalKeys":0,"Block":1,"Trial":12,"Action":"No-Go","Robot":4,"trial_type":"pit-trial","trial_index":24,"time_elapsed":183016,"internal_node_id":"0.0-24.0"},{"Valence":"Win","Color":"#ffcc3399","Rune":"03","Correct":32,"Choice":32,"RT":842.4449998419732,"Accuracy":1,"Sham":0,"Outcome":"+10","Keys":[2348.5650001093745],"TotalKeys":1,"Block":1,"Trial":13,"Action":"Go","Robot":1,"trial_type":"pit-trial","trial_index":25,"time_elapsed":186373,"internal_node_id":"0.0-25.0"},{"Valence":"Win","Color":"#ffcc3399","Rune":"04","Correct":-1,"Choice":32,"RT":928.1600001268089,"Accuracy":0,"Sham":0,"Outcome":"+1","Keys":[2428.9249998982996],"TotalKeys":1,"Block":1,"Trial":14,"Action":"No-Go","Robot":2,"trial_type":"pit-trial","trial_index":26,"time_elapsed":189812,"internal_node_id":"0.0-26.0"},{"Valence":"Lose","Color":"#3366ff99","Rune":"05","Correct":32,"Choice":32,"RT":764.9000000674278,"Accuracy":1,"Sham":0,"Outcome":"-1","Keys":[2265.2600000146776],"TotalKeys":1,"Block":1,"Trial":15,"Action":"Go","Robot":3,"trial_type":"pit-trial","trial_index":27,"time_elapsed":193089,"internal_node_id":"0.0-27.0"},{"Valence":"Lose","Color":"#3366ff99","Rune":"06","Correct":-1,"Choice":-1,"RT":-1,"Accuracy":1,"Sham":1,"Outcome":"-10","Keys":[],"TotalKeys":0,"Block":1,"Trial":16,"Action":"No-Go","Robot":4,"trial_type":"pit-trial","trial_index":28,"time_elapsed":197110,"internal_node_id":"0.0-28.0"},{"Valence":"Win","Color":"#ffcc3399","Rune":"03","Correct":32,"Choice":32,"RT":514.1799999400973,"Accuracy":1,"Sham":1,"Outcome":"1","Keys":[2016.8000000994653],"TotalKeys":1,"Block":1,"Trial":17,"Action":"Go","Robot":1,"trial_type":"pit-trial","trial_index":29,"time_elapsed":200140,"internal_node_id":"0.0-29.0"},{"Valence":"Lose","Color":"#3366ff99","Rune":"05","Correct":32,"Choice":32,"RT":895.1499999966472,"Accuracy":1,"Sham":0,"Outcome":"-1","Keys":[2396.6600000858307],"TotalKeys":1,"Block":1,"Trial":18,"Action":"Go","Robot":3,"trial_type":"pit-trial","trial_index":30,"time_elapsed":203547,"internal_node_id":"0.0-30.0"},{"Valence":"Win","Color":"#ffcc3399","Rune":"04","Correct":-1,"Choice":32,"RT":808.2949998788536,"Accuracy":0,"Sham":1,"Outcome":"+10","Keys":[2309.934999793768],"TotalKeys":1,"Block":1,"Trial":19,"Action":"No-Go","Robot":2,"trial_type":"pit-trial","trial_index":31,"time_elapsed":206867,"internal_node_id":"0.0-31.0"},{"Valence":"Lose","Color":"#3366ff99","Rune":"06","Correct":-1,"Choice":32,"RT":1240.1499999687076,"Accuracy":0,"Sham":0,"Outcome":"-10","Keys":[2744.704999960959],"TotalKeys":1,"Block":1,"Trial":20,"Action":"No-Go","Robot":4,"trial_type":"pit-trial","trial_index":32,"time_elapsed":210622,"internal_node_id":"0.0-32.0"},{"Valence":"Lose","Color":"#3366ff99","Rune":"06","Correct":-1,"Choice":32,"RT":980.6900001130998,"Accuracy":0,"Sham":0,"Outcome":"-10","Keys":[2481.7900001071393],"TotalKeys":1,"Block":1,"Trial":21,"Action":"No-Go","Robot":4,"trial_type":"pit-trial","trial_index":33,"time_elapsed":214113,"internal_node_id":"0.0-33.0"},{"Valence":"Win","Color":"#ffcc3399","Rune":"04","Correct":-1,"Choice":32,"RT":650.2850002143532,"Accuracy":0,"Sham":0,"Outcome":"+1","Keys":[2157.670000102371],"TotalKeys":1,"Block":1,"Trial":22,"Action":"No-Go","Robot":2,"trial_type":"pit-trial","trial_index":34,"time_elapsed":217281,"internal_node_id":"0.0-34.0"},{"Valence":"Win","Color":"#ffcc3399","Rune":"03","Correct":32,"Choice":32,"RT":566.0749999806285,"Accuracy":1,"Sham":0,"Outcome":"+10","Keys":[2067.0749999117106],"TotalKeys":1,"Block":1,"Trial":23,"Action":"Go","Robot":1,"trial_type":"pit-trial","trial_index":35,"time_elapsed":220359,"internal_node_id":"0.0-35.0"},{"Valence":"Lose","Color":"#3366ff99","Rune":"05","Correct":32,"Choice":32,"RT":947.3650001455098,"Accuracy":1,"Sham":0,"Outcome":"-1","Keys":[2449.2250001057982],"TotalKeys":1,"Block":1,"Trial":24,"Action":"Go","Robot":3,"trial_type":"pit-trial","trial_index":36,"time_elapsed":223823,"internal_node_id":"0.0-36.0"},{"Valence":"Lose","Color":"#3366ff99","Rune":"06","Correct":-1,"Choice":-1,"RT":-1,"Accuracy":1,"Sham":0,"Outcome":"-1","Keys":[],"TotalKeys":0,"Block":1,"Trial":25,"Action":"No-Go","Robot":4,"trial_type":"pit-trial","trial_index":37,"time_elapsed":227841,"internal_node_id":"0.0-37.0"},{"Valence":"Win","Color":"#ffcc3399","Rune":"03","Correct":32,"Choice":32,"RT":516.2500001024455,"Accuracy":1,"Sham":0,"Outcome":"+10","Keys":[2018.364999908954],"TotalKeys":1,"Block":1,"Trial":26,"Action":"Go","Robot":1,"trial_type":"pit-trial","trial_index":38,"time_elapsed":230871,"internal_node_id":"0.0-38.0"},{"Valence":"Lose","Color":"#3366ff99","Rune":"05","Correct":32,"Choice":32,"RT":958.8699999731034,"Accuracy":1,"Sham":0,"Outcome":"-1","Keys":[2460.230000084266],"TotalKeys":1,"Block":1,"Trial":27,"Action":"Go","Robot":3,"trial_type":"pit-trial","trial_index":39,"time_elapsed":234344,"internal_node_id":"0.0-39.0"},{"Valence":"Win","Color":"#ffcc3399","Rune":"04","Correct":-1,"Choice":32,"RT":758.6049998644739,"Accuracy":0,"Sham":0,"Outcome":"+1","Keys":[2260.0799999199808],"TotalKeys":1,"Block":1,"Trial":28,"Action":"No-Go","Robot":2,"trial_type":"pit-trial","trial_index":40,"time_elapsed":237617,"internal_node_id":"0.0-40.0"},{"Valence":"Lose","Color":"#3366ff99","Rune":"05","Correct":32,"Choice":32,"RT":1006.0300000477582,"Accuracy":1,"Sham":0,"Outcome":"-1","Keys":[2508.1350000109524],"TotalKeys":1,"Block":1,"Trial":29,"Action":"Go","Robot":3,"trial_type":"pit-trial","trial_index":41,"time_elapsed":241137,"internal_node_id":"0.0-41.0"},{"Valence":"Win","Color":"#ffcc3399","Rune":"04","Correct":-1,"Choice":32,"RT":1108.100000070408,"Accuracy":0,"Sham":1,"Outcome":"+10","Keys":[2610.300000058487],"TotalKeys":1,"Block":1,"Trial":30,"Action":"No-Go","Robot":2,"trial_type":"pit-trial","trial_index":42,"time_elapsed":244756,"internal_node_id":"0.0-42.0"},{"Valence":"Win","Color":"#ffcc3399","Rune":"03","Correct":32,"Choice":32,"RT":682.3249999433756,"Accuracy":1,"Sham":1,"Outcome":"1","Keys":[2183.7550001218915],"TotalKeys":1,"Block":1,"Trial":31,"Action":"Go","Robot":1,"trial_type":"pit-trial","trial_index":43,"time_elapsed":247954,"internal_node_id":"0.0-43.0"},{"Valence":"Lose","Color":"#3366ff99","Rune":"06","Correct":-1,"Choice":-1,"RT":-1,"Accuracy":1,"Sham":0,"Outcome":"-1","Keys":[],"TotalKeys":0,"Block":1,"Trial":32,"Action":"No-Go","Robot":4,"trial_type":"pit-trial","trial_index":44,"time_elapsed":251972,"internal_node_id":"0.0-44.0"},{"Valence":"Lose","Color":"#3366ff99","Rune":"06","Correct":-1,"Choice":-1,"RT":-1,"Accuracy":1,"Sham":0,"Outcome":"-1","Keys":[],"TotalKeys":0,"Block":1,"Trial":33,"Action":"No-Go","Robot":4,"trial_type":"pit-trial","trial_index":45,"time_elapsed":255983,"internal_node_id":"0.0-45.0"},{"Valence":"Win","Color":"#ffcc3399","Rune":"04","Correct":-1,"Choice":32,"RT":589.1350000165403,"Accuracy":0,"Sham":0,"Outcome":"+1","Keys":[2090.4200000222772],"TotalKeys":1,"Block":1,"Trial":34,"Action":"No-Go","Robot":2,"trial_type":"pit-trial","trial_index":46,"time_elapsed":259085,"internal_node_id":"0.0-46.0"},{"Valence":"Win","Color":"#ffcc3399","Rune":"03","Correct":32,"Choice":32,"RT":529.9349999986589,"Accuracy":1,"Sham":0,"Outcome":"+10","Keys":[2030.3799998946488],"TotalKeys":1,"Block":1,"Trial":35,"Action":"Go","Robot":1,"trial_type":"pit-trial","trial_index":47,"time_elapsed":262125,"internal_node_id":"0.0-47.0"},{"Valence":"Lose","Color":"#3366ff99","Rune":"05","Correct":32,"Choice":32,"RT":1036.2949999980628,"Accuracy":1,"Sham":1,"Outcome":"-10","Keys":[2537.2450000140816],"TotalKeys":1,"Block":1,"Trial":36,"Action":"Go","Robot":3,"trial_type":"pit-trial","trial_index":48,"time_elapsed":265672,"internal_node_id":"0.0-48.0"},{"Valence":"Lose","Color":"#3366ff99","Rune":"06","Correct":-1,"Choice":-1,"RT":-1,"Accuracy":1,"Sham":1,"Outcome":"-10","Keys":[],"TotalKeys":0,"Block":1,"Trial":37,"Action":"No-Go","Robot":4,"trial_type":"pit-trial","trial_index":49,"time_elapsed":269685,"internal_node_id":"0.0-49.0"},{"Valence":"Lose","Color":"#3366ff99","Rune":"05","Correct":32,"Choice":32,"RT":1025.0099999830127,"Accuracy":1,"Sham":0,"Outcome":"-1","Keys":[2527.2949999198318],"TotalKeys":1,"Block":1,"Trial":38,"Action":"Go","Robot":3,"trial_type":"pit-trial","trial_index":50,"time_elapsed":273222,"internal_node_id":"0.0-50.0"},{"Valence":"Win","Color":"#ffcc3399","Rune":"03","Correct":32,"Choice":32,"RT":491.440000012517,"Accuracy":1,"Sham":0,"Outcome":"+10","Keys":[1992.5949999596924],"TotalKeys":1,"Block":1,"Trial":39,"Action":"Go","Robot":1,"trial_type":"pit-trial","trial_index":51,"time_elapsed":276225,"internal_node_id":"0.0-51.0"},{"Valence":"Win","Color":"#ffcc3399","Rune":"04","Correct":-1,"Choice":32,"RT":650.0649999361485,"Accuracy":0,"Sham":0,"Outcome":"+1","Keys":[2152.07999991253],"TotalKeys":1,"Block":1,"Trial":40,"Action":"No-Go","Robot":2,"trial_type":"pit-trial","trial_index":52,"time_elapsed":279389,"internal_node_id":"0.0-52.0"},{"Valence":"Lose","Color":"#3366ff99","Rune":"05","Correct":32,"Choice":32,"RT":749.1300001274794,"Accuracy":1,"Sham":1,"Outcome":"-10","Keys":[2252.3650000803173],"TotalKeys":1,"Block":1,"Trial":41,"Action":"Go","Robot":3,"trial_type":"pit-trial","trial_index":53,"time_elapsed":282655,"internal_node_id":"0.0-53.0"},{"Valence":"Win","Color":"#ffcc3399","Rune":"04","Correct":-1,"Choice":32,"RT":526.4500000048429,"Accuracy":0,"Sham":0,"Outcome":"+1","Keys":[2026.8749999813735],"TotalKeys":1,"Block":1,"Trial":42,"Action":"No-Go","Robot":2,"trial_type":"pit-trial","trial_index":54,"time_elapsed":285691,"internal_node_id":"0.0-54.0"},{"Valence":"Lose","Color":"#3366ff99","Rune":"06","Correct":-1,"Choice":-1,"RT":-1,"Accuracy":1,"Sham":0,"Outcome":"-1","Keys":[],"TotalKeys":0,"Block":1,"Trial":43,"Action":"No-Go","Robot":4,"trial_type":"pit-trial","trial_index":55,"time_elapsed":289710,"internal_node_id":"0.0-55.0"},{"Valence":"Win","Color":"#ffcc3399","Rune":"03","Correct":32,"Choice":32,"RT":472.6449998561293,"Accuracy":1,"Sham":0,"Outcome":"+10","Keys":[1973.6000001430511],"TotalKeys":1,"Block":1,"Trial":44,"Action":"Go","Robot":1,"trial_type":"pit-trial","trial_index":56,"time_elapsed":292694,"internal_node_id":"0.0-56.0"},{"Valence":"Lose","Color":"#3366ff99","Rune":"06","Correct":-1,"Choice":-1,"RT":-1,"Accuracy":1,"Sham":0,"Outcome":"-1","Keys":[],"TotalKeys":0,"Block":1,"Trial":45,"Action":"No-Go","Robot":4,"trial_type":"pit-trial","trial_index":57,"time_elapsed":296706,"internal_node_id":"0.0-57.0"},{"Valence":"Win","Color":"#ffcc3399","Rune":"04","Correct":-1,"Choice":32,"RT":490.39000016637146,"Accuracy":0,"Sham":1,"Outcome":"+10","Keys":[1994.925000006333],"TotalKeys":1,"Block":1,"Trial":46,"Action":"No-Go","Robot":2,"trial_type":"pit-trial","trial_index":58,"time_elapsed":299717,"internal_node_id":"0.0-58.0"},{"Valence":"Lose","Color":"#3366ff99","Rune":"05","Correct":32,"Choice":-1,"RT":-1,"Accuracy":0,"Sham":0,"Outcome":"-10","Keys":[400.3449999727309],"TotalKeys":1,"Block":1,"Trial":47,"Action":"Go","Robot":3,"trial_type":"pit-trial","trial_index":59,"time_elapsed":303736,"internal_node_id":"0.0-59.0"},{"Valence":"Win","Color":"#ffcc3399","Rune":"03","Correct":32,"Choice":32,"RT":450.13000001199543,"Accuracy":1,"Sham":0,"Outcome":"+10","Keys":[1951.3499999884516],"TotalKeys":1,"Block":1,"Trial":48,"Action":"Go","Robot":1,"trial_type":"pit-trial","trial_index":60,"time_elapsed":306699,"internal_node_id":"0.0-60.0"},{"Valence":"Lose","Color":"#3366ff99","Rune":"06","Correct":-1,"Choice":-1,"RT":-1,"Accuracy":1,"Sham":0,"Outcome":"-1","Keys":[],"TotalKeys":0,"Block":1,"Trial":49,"Action":"No-Go","Robot":4,"trial_type":"pit-trial","trial_index":61,"time_elapsed":310720,"internal_node_id":"0.0-61.0"},{"Valence":"Win","Color":"#ffcc3399","Rune":"03","Correct":32,"Choice":32,"RT":493.0650000460446,"Accuracy":1,"Sham":0,"Outcome":"+10","Keys":[1993.999999947846],"TotalKeys":1,"Block":1,"Trial":50,"Action":"Go","Robot":1,"trial_type":"pit-trial","trial_index":62,"time_elapsed":313723,"internal_node_id":"0.0-62.0"},{"Valence":"Win","Color":"#ffcc3399","Rune":"04","Correct":-1,"Choice":32,"RT":522.2500001545995,"Accuracy":0,"Sham":0,"Outcome":"+1","Keys":[2028.090000152588],"TotalKeys":1,"Block":1,"Trial":51,"Action":"No-Go","Robot":2,"trial_type":"pit-trial","trial_index":63,"time_elapsed":316764,"internal_node_id":"0.0-63.0"},{"Valence":"Lose","Color":"#3366ff99","Rune":"05","Correct":32,"Choice":32,"RT":1418.6299999710172,"Accuracy":1,"Sham":0,"Outcome":"-1","Keys":[2919.389999937266],"TotalKeys":1,"Block":1,"Trial":52,"Action":"Go","Robot":3,"trial_type":"pit-trial","trial_index":64,"time_elapsed":320692,"internal_node_id":"0.0-64.0"},{"Valence":"Win","Color":"#ffcc3399","Rune":"04","Correct":-1,"Choice":32,"RT":578.04000005126,"Accuracy":0,"Sham":0,"Outcome":"+1","Keys":[2081.6049999557436],"TotalKeys":1,"Block":1,"Trial":53,"Action":"No-Go","Robot":2,"trial_type":"pit-trial","trial_index":65,"time_elapsed":323793,"internal_node_id":"0.0-65.0"},{"Valence":"Lose","Color":"#3366ff99","Rune":"05","Correct":32,"Choice":32,"RT":1044.7450000792742,"Accuracy":1,"Sham":0,"Outcome":"-1","Keys":[2547.2849998623133],"TotalKeys":1,"Block":1,"Trial":54,"Action":"Go","Robot":3,"trial_type":"pit-trial","trial_index":66,"time_elapsed":327349,"internal_node_id":"0.0-66.0"},{"Valence":"Lose","Color":"#3366ff99","Rune":"06","Correct":-1,"Choice":-1,"RT":-1,"Accuracy":1,"Sham":0,"Outcome":"-1","Keys":[],"TotalKeys":0,"Block":1,"Trial":55,"Action":"No-Go","Robot":4,"trial_type":"pit-trial","trial_index":67,"time_elapsed":331360,"internal_node_id":"0.0-67.0"},{"Valence":"Win","Color":"#ffcc3399","Rune":"03","Correct":32,"Choice":32,"RT":418.12500008381903,"Accuracy":1,"Sham":0,"Outcome":"+10","Keys":[1919.4450001232326],"TotalKeys":1,"Block":1,"Trial":56,"Action":"Go","Robot":1,"trial_type":"pit-trial","trial_index":68,"time_elapsed":334292,"internal_node_id":"0.0-68.0"},{"Valence":"Win","Color":"#ffcc3399","Rune":"03","Correct":32,"Choice":32,"RT":531.9099999032915,"Accuracy":1,"Sham":1,"Outcome":"1","Keys":[2033.629999961704],"TotalKeys":1,"Block":1,"Trial":57,"Action":"Go","Robot":1,"trial_type":"pit-trial","trial_index":69,"time_elapsed":337348,"internal_node_id":"0.0-69.0"},{"Valence":"Lose","Color":"#3366ff99","Rune":"05","Correct":32,"Choice":32,"RT":967.4299999605864,"Accuracy":1,"Sham":0,"Outcome":"-1","Keys":[2471.8599999323487],"TotalKeys":1,"Block":1,"Trial":58,"Action":"Go","Robot":3,"trial_type":"pit-trial","trial_index":70,"time_elapsed":340829,"internal_node_id":"0.0-70.0"},{"Valence":"Lose","Color":"#3366ff99","Rune":"06","Correct":-1,"Choice":-1,"RT":-1,"Accuracy":1,"Sham":1,"Outcome":"-10","Keys":[],"TotalKeys":0,"Block":1,"Trial":59,"Action":"No-Go","Robot":4,"trial_type":"pit-trial","trial_index":71,"time_elapsed":344842,"internal_node_id":"0.0-71.0"},{"Valence":"Win","Color":"#ffcc3399","Rune":"04","Correct":-1,"Choice":32,"RT":581.8399998825043,"Accuracy":0,"Sham":0,"Outcome":"+1","Keys":[2085.8450001105666],"TotalKeys":1,"Block":1,"Trial":60,"Action":"No-Go","Robot":2,"trial_type":"pit-trial","trial_index":72,"time_elapsed":347940,"internal_node_id":"0.0-72.0"},{"Valence":"Win","Color":"#ffcc3399","Rune":"04","Correct":-1,"Choice":-1,"RT":-1,"Accuracy":1,"Sham":0,"Outcome":"+10","Keys":[],"TotalKeys":0,"Block":1,"Trial":61,"Action":"No-Go","Robot":2,"trial_type":"pit-trial","trial_index":73,"time_elapsed":351953,"internal_node_id":"0.0-73.0"},{"Valence":"Lose","Color":"#3366ff99","Rune":"05","Correct":32,"Choice":32,"RT":743.0650000460446,"Accuracy":1,"Sham":0,"Outcome":"-1","Keys":[2245.3649998642504],"TotalKeys":1,"Block":1,"Trial":62,"Action":"Go","Robot":3,"trial_type":"pit-trial","trial_index":74,"time_elapsed":355211,"internal_node_id":"0.0-74.0"},{"Valence":"Lose","Color":"#3366ff99","Rune":"06","Correct":-1,"Choice":-1,"RT":-1,"Accuracy":1,"Sham":0,"Outcome":"-1","Keys":[],"TotalKeys":0,"Block":1,"Trial":63,"Action":"No-Go","Robot":4,"trial_type":"pit-trial","trial_index":75,"time_elapsed":359226,"internal_node_id":"0.0-75.0"},{"Valence":"Win","Color":"#ffcc3399","Rune":"03","Correct":32,"Choice":32,"RT":468.53499999269843,"Accuracy":1,"Sham":0,"Outcome":"+10","Keys":[1971.5850001666695],"TotalKeys":1,"Block":1,"Trial":64,"Action":"Go","Robot":1,"trial_type":"pit-trial","trial_index":76,"time_elapsed":362212,"internal_node_id":"0.0-76.0"},{"Valence":"Win","Color":"#ffcc3399","Rune":"04","Correct":-1,"Choice":-1,"RT":-1,"Accuracy":1,"Sham":0,"Outcome":"+10","Keys":[],"TotalKeys":0,"Block":1,"Trial":65,"Action":"No-Go","Robot":2,"trial_type":"pit-trial","trial_index":77,"time_elapsed":366230,"internal_node_id":"0.0-77.0"},{"Valence":"Lose","Color":"#3366ff99","Rune":"06","Correct":-1,"Choice":32,"RT":1114.8850000463426,"Accuracy":0,"Sham":0,"Outcome":"-10","Keys":[2615.9700001589954],"TotalKeys":1,"Block":1,"Trial":66,"Action":"No-Go","Robot":4,"trial_type":"pit-trial","trial_index":78,"time_elapsed":369863,"internal_node_id":"0.0-78.0"},{"Valence":"Win","Color":"#ffcc3399","Rune":"03","Correct":32,"Choice":32,"RT":958.6300000082701,"Accuracy":1,"Sham":1,"Outcome":"1","Keys":[2458.4699999541044],"TotalKeys":1,"Block":1,"Trial":67,"Action":"Go","Robot":1,"trial_type":"pit-trial","trial_index":79,"time_elapsed":373337,"internal_node_id":"0.0-79.0"},{"Valence":"Lose","Color":"#3366ff99","Rune":"05","Correct":32,"Choice":32,"RT":1026.1599998921156,"Accuracy":1,"Sham":0,"Outcome":"-1","Keys":[2527.1399999037385],"TotalKeys":1,"Block":1,"Trial":68,"Action":"Go","Robot":3,"trial_type":"pit-trial","trial_index":80,"time_elapsed":376875,"internal_node_id":"0.0-80.0"},{"Valence":"Lose","Color":"#3366ff99","Rune":"06","Correct":-1,"Choice":-1,"RT":-1,"Accuracy":1,"Sham":1,"Outcome":"-10","Keys":[],"TotalKeys":0,"Block":1,"Trial":69,"Action":"No-Go","Robot":4,"trial_type":"pit-trial","trial_index":81,"time_elapsed":380893,"internal_node_id":"0.0-81.0"},{"Valence":"Lose","Color":"#3366ff99","Rune":"05","Correct":32,"Choice":32,"RT":1017.2799997963011,"Accuracy":1,"Sham":0,"Outcome":"-1","Keys":[2520.5399999395013],"TotalKeys":1,"Block":1,"Trial":70,"Action":"Go","Robot":3,"trial_type":"pit-trial","trial_index":82,"time_elapsed":384423,"internal_node_id":"0.0-82.0"},{"Valence":"Win","Color":"#ffcc3399","Rune":"03","Correct":32,"Choice":32,"RT":491.7349999304861,"Accuracy":1,"Sham":0,"Outcome":"+10","Keys":[2008.515000110492],"TotalKeys":1,"Block":1,"Trial":71,"Action":"Go","Robot":1,"trial_type":"pit-trial","trial_index":83,"time_elapsed":387445,"internal_node_id":"0.0-83.0"},{"Valence":"Win","Color":"#ffcc3399","Rune":"04","Correct":-1,"Choice":-1,"RT":-1,"Accuracy":1,"Sham":0,"Outcome":"+10","Keys":[],"TotalKeys":0,"Block":1,"Trial":72,"Action":"No-Go","Robot":2,"trial_type":"pit-trial","trial_index":84,"time_elapsed":391464,"internal_node_id":"0.0-84.0"},{"Valence":"Win","Color":"#ffcc3399","Rune":"04","Correct":-1,"Choice":-1,"RT":-1,"Accuracy":1,"Sham":0,"Outcome":"+10","Keys":[],"TotalKeys":0,"Block":1,"Trial":73,"Action":"No-Go","Robot":2,"trial_type":"pit-trial","trial_index":85,"time_elapsed":395483,"internal_node_id":"0.0-85.0"},{"Valence":"Lose","Color":"#3366ff99","Rune":"05","Correct":32,"Choice":32,"RT":1100.815000012517,"Accuracy":1,"Sham":1,"Outcome":"-10","Keys":[2602.7599999215454],"TotalKeys":1,"Block":1,"Trial":74,"Action":"Go","Robot":3,"trial_type":"pit-trial","trial_index":86,"time_elapsed":399095,"internal_node_id":"0.0-86.0"},{"Valence":"Win","Color":"#ffcc3399","Rune":"03","Correct":32,"Choice":32,"RT":560.6299999635667,"Accuracy":1,"Sham":0,"Outcome":"+10","Keys":[2061.449999921024],"TotalKeys":1,"Block":1,"Trial":75,"Action":"Go","Robot":1,"trial_type":"pit-trial","trial_index":87,"time_elapsed":402169,"internal_node_id":"0.0-87.0"},{"Valence":"Lose","Color":"#3366ff99","Rune":"06","Correct":-1,"Choice":-1,"RT":-1,"Accuracy":1,"Sham":0,"Outcome":"-1","Keys":[],"TotalKeys":0,"Block":1,"Trial":76,"Action":"No-Go","Robot":4,"trial_type":"pit-trial","trial_index":88,"time_elapsed":406446,"internal_node_id":"0.0-88.0"},{"Valence":"Win","Color":"#ffcc3399","Rune":"04","Correct":-1,"Choice":32,"RT":642.6849998533726,"Accuracy":0,"Sham":1,"Outcome":"+10","Keys":[2146.3050001766533],"TotalKeys":1,"Block":1,"Trial":77,"Action":"No-Go","Robot":2,"trial_type":"pit-trial","trial_index":89,"time_elapsed":409599,"internal_node_id":"0.0-89.0"},{"Valence":"Win","Color":"#ffcc3399","Rune":"03","Correct":32,"Choice":32,"RT":480.1900000311434,"Accuracy":1,"Sham":0,"Outcome":"+10","Keys":[1984.5600000116974],"TotalKeys":1,"Block":1,"Trial":78,"Action":"Go","Robot":1,"trial_type":"pit-trial","trial_index":90,"time_elapsed":412591,"internal_node_id":"0.0-90.0"},{"Valence":"Lose","Color":"#3366ff99","Rune":"06","Correct":-1,"Choice":-1,"RT":-1,"Accuracy":1,"Sham":0,"Outcome":"-1","Keys":[],"TotalKeys":0,"Block":1,"Trial":79,"Action":"No-Go","Robot":4,"trial_type":"pit-trial","trial_index":91,"time_elapsed":416608,"internal_node_id":"0.0-91.0"},{"Valence":"Lose","Color":"#3366ff99","Rune":"05","Correct":32,"Choice":-1,"RT":-1,"Accuracy":0,"Sham":0,"Outcome":"-10","Keys":[],"TotalKeys":0,"Block":1,"Trial":80,"Action":"Go","Robot":3,"trial_type":"pit-trial","trial_index":92,"time_elapsed":420623,"internal_node_id":"0.0-92.0"},{"value":false,"trial_type":"call-function","trial_index":93,"time_elapsed":420629,"internal_node_id":"0.0-93.0"},{"RT":24958.730000071228,"trial_type":"pit-pause","trial_index":94,"time_elapsed":447467,"internal_node_id":"0.0-94.0"},{"Valence":"Win","Color":"#ffcc3399","Rune":"03","Correct":32,"Choice":32,"RT":1146.1649998091161,"Accuracy":1,"Sham":0,"Outcome":"+10","Keys":[2649.0099998191],"TotalKeys":1,"Block":2,"Trial":81,"Action":"Go","Robot":1,"trial_type":"pit-trial","trial_index":95,"time_elapsed":451128,"internal_node_id":"0.0-95.0"},{"Valence":"Win","Color":"#ffcc3399","Rune":"04","Correct":-1,"Choice":-1,"RT":-1,"Accuracy":1,"Sham":0,"Outcome":"+10","Keys":[],"TotalKeys":0,"Block":2,"Trial":82,"Action":"No-Go","Robot":2,"trial_type":"pit-trial","trial_index":96,"time_elapsed":455142,"internal_node_id":"0.0-96.0"},{"Valence":"Lose","Color":"#3366ff99","Rune":"06","Correct":-1,"Choice":-1,"RT":-1,"Accuracy":1,"Sham":0,"Outcome":"-1","Keys":[],"TotalKeys":0,"Block":2,"Trial":83,"Action":"No-Go","Robot":4,"trial_type":"pit-trial","trial_index":97,"time_elapsed":459155,"internal_node_id":"0.0-97.0"},{"Valence":"Lose","Color":"#3366ff99","Rune":"05","Correct":32,"Choice":32,"RT":377.0900000818074,"Accuracy":1,"Sham":0,"Outcome":"-1","Keys":[1878.0099998693913],"TotalKeys":1,"Block":2,"Trial":84,"Action":"Go","Robot":3,"trial_type":"pit-trial","trial_index":98,"time_elapsed":462044,"internal_node_id":"0.0-98.0"},{"Valence":"Win","Color":"#ffcc3399","Rune":"03","Correct":32,"Choice":32,"RT":858.534999890253,"Accuracy":1,"Sham":0,"Outcome":"+10","Keys":[2360.259999986738],"TotalKeys":1,"Block":2,"Trial":85,"Action":"Go","Robot":1,"trial_type":"pit-trial","trial_index":99,"time_elapsed":465450,"internal_node_id":"0.0-99.0"},{"Valence":"Win","Color":"#ffcc3399","Rune":"04","Correct":-1,"Choice":-1,"RT":-1,"Accuracy":1,"Sham":0,"Outcome":"+10","Keys":[],"TotalKeys":0,"Block":2,"Trial":86,"Action":"No-Go","Robot":2,"trial_type":"pit-trial","trial_index":100,"time_elapsed":469475,"internal_node_id":"0.0-100.0"},{"Valence":"Lose","Color":"#3366ff99","Rune":"05","Correct":32,"Choice":32,"RT":618.3749998454005,"Accuracy":1,"Sham":0,"Outcome":"-1","Keys":[2120.729999849573],"TotalKeys":1,"Block":2,"Trial":87,"Action":"Go","Robot":3,"trial_type":"pit-trial","trial_index":101,"time_elapsed":472606,"internal_node_id":"0.0-101.0"},{"Valence":"Lose","Color":"#3366ff99","Rune":"06","Correct":-1,"Choice":-1,"RT":-1,"Accuracy":1,"Sham":0,"Outcome":"-1","Keys":[],"TotalKeys":0,"Block":2,"Trial":88,"Action":"No-Go","Robot":4,"trial_type":"pit-trial","trial_index":102,"time_elapsed":476625,"internal_node_id":"0.0-102.0"},{"Valence":"Lose","Color":"#3366ff99","Rune":"05","Correct":32,"Choice":32,"RT":697.7150000166148,"Accuracy":1,"Sham":1,"Outcome":"-10","Keys":[2510.645000031218],"TotalKeys":1,"Block":2,"Trial":89,"Action":"Go","Robot":3,"trial_type":"pit-trial","trial_index":103,"time_elapsed":480447,"internal_node_id":"0.0-103.0"},{"Valence":"Win","Color":"#ffcc3399","Rune":"03","Correct":32,"Choice":32,"RT":1332.8350000083447,"Accuracy":1,"Sham":1,"Outcome":"1","Keys":[2836.0150000080466],"TotalKeys":1,"Block":2,"Trial":90,"Action":"Go","Robot":1,"trial_type":"pit-trial","trial_index":104,"time_elapsed":484298,"internal_node_id":"0.0-104.0"},{"Valence":"Win","Color":"#ffcc3399","Rune":"04","Correct":-1,"Choice":-1,"RT":-1,"Accuracy":1,"Sham":0,"Outcome":"+10","Keys":[],"TotalKeys":0,"Block":2,"Trial":91,"Action":"No-Go","Robot":2,"trial_type":"pit-trial","trial_index":105,"time_elapsed":488317,"internal_node_id":"0.0-105.0"},{"Valence":"Lose","Color":"#3366ff99","Rune":"06","Correct":-1,"Choice":-1,"RT":-1,"Accuracy":1,"Sham":0,"Outcome":"-1","Keys":[],"TotalKeys":0,"Block":2,"Trial":92,"Action":"No-Go","Robot":4,"trial_type":"pit-trial","trial_index":106,"time_elapsed":492330,"internal_node_id":"0.0-106.0"},{"Valence":"Lose","Color":"#3366ff99","Rune":"06","Correct":-1,"Choice":-1,"RT":-1,"Accuracy":1,"Sham":0,"Outcome":"-1","Keys":[],"TotalKeys":0,"Block":2,"Trial":93,"Action":"No-Go","Robot":4,"trial_type":"pit-trial","trial_index":107,"time_elapsed":496443,"internal_node_id":"0.0-107.0"},{"Valence":"Win","Color":"#ffcc3399","Rune":"03","Correct":32,"Choice":-1,"RT":-1,"Accuracy":0,"Sham":0,"Outcome":"+1","Keys":[3215.5750000383705],"TotalKeys":1,"Block":2,"Trial":94,"Action":"Go","Robot":1,"trial_type":"pit-trial","trial_index":108,"time_elapsed":500459,"internal_node_id":"0.0-108.0"},{"Valence":"Lose","Color":"#3366ff99","Rune":"05","Correct":32,"Choice":32,"RT":840.7999998889863,"Accuracy":1,"Sham":0,"Outcome":"-1","Keys":[2343.64499989897],"TotalKeys":1,"Block":2,"Trial":95,"Action":"Go","Robot":3,"trial_type":"pit-trial","trial_index":109,"time_elapsed":503813,"internal_node_id":"0.0-109.0"},{"Valence":"Win","Color":"#ffcc3399","Rune":"04","Correct":-1,"Choice":32,"RT":510.4800001718104,"Accuracy":0,"Sham":1,"Outcome":"+10","Keys":[2010.7549999374896],"TotalKeys":1,"Block":2,"Trial":96,"Action":"No-Go","Robot":2,"trial_type":"pit-trial","trial_index":110,"time_elapsed":506833,"internal_node_id":"0.0-110.0"},{"Valence":"Lose","Color":"#3366ff99","Rune":"06","Correct":-1,"Choice":-1,"RT":-1,"Accuracy":1,"Sham":1,"Outcome":"-10","Keys":[],"TotalKeys":0,"Block":2,"Trial":97,"Action":"No-Go","Robot":4,"trial_type":"pit-trial","trial_index":111,"time_elapsed":510846,"internal_node_id":"0.0-111.0"},{"Valence":"Win","Color":"#ffcc3399","Rune":"03","Correct":32,"Choice":32,"RT":516.2449998315424,"Accuracy":1,"Sham":0,"Outcome":"+10","Keys":[2017.7549999207258],"TotalKeys":1,"Block":2,"Trial":98,"Action":"Go","Robot":1,"trial_type":"pit-trial","trial_index":112,"time_elapsed":513876,"internal_node_id":"0.0-112.0"},{"Valence":"Lose","Color":"#3366ff99","Rune":"05","Correct":32,"Choice":32,"RT":772.3650000989437,"Accuracy":1,"Sham":0,"Outcome":"-1","Keys":[2272.709999931976],"TotalKeys":1,"Block":2,"Trial":99,"Action":"Go","Robot":3,"trial_type":"pit-trial","trial_index":113,"time_elapsed":517159,"internal_node_id":"0.0-113.0"},{"Valence":"Win","Color":"#ffcc3399","Rune":"04","Correct":-1,"Choice":32,"RT":537.9649999085814,"Accuracy":0,"Sham":0,"Outcome":"+1","Keys":[2039.0850000549108],"TotalKeys":1,"Block":2,"Trial":100,"Action":"No-Go","Robot":2,"trial_type":"pit-trial","trial_index":114,"time_elapsed":520212,"internal_node_id":"0.0-114.0"},{"Valence":"Lose","Color":"#3366ff99","Rune":"06","Correct":-1,"Choice":-1,"RT":-1,"Accuracy":1,"Sham":0,"Outcome":"-1","Keys":[],"TotalKeys":0,"Block":2,"Trial":101,"Action":"No-Go","Robot":4,"trial_type":"pit-trial","trial_index":115,"time_elapsed":524245,"internal_node_id":"0.0-115.0"},{"Valence":"Lose","Color":"#3366ff99","Rune":"05","Correct":32,"Choice":32,"RT":584.610000019893,"Accuracy":1,"Sham":0,"Outcome":"-1","Keys":[2088.6049999389797],"TotalKeys":1,"Block":2,"Trial":102,"Action":"Go","Robot":3,"trial_type":"pit-trial","trial_index":116,"time_elapsed":527446,"internal_node_id":"0.0-116.0"},{"Valence":"Win","Color":"#ffcc3399","Rune":"03","Correct":32,"Choice":-1,"RT":-1,"Accuracy":0,"Sham":1,"Outcome":"+10","Keys":[3372.0499998889863],"TotalKeys":1,"Block":2,"Trial":103,"Action":"Go","Robot":1,"trial_type":"pit-trial","trial_index":117,"time_elapsed":531464,"internal_node_id":"0.0-117.0"},{"Valence":"Win","Color":"#ffcc3399","Rune":"04","Correct":-1,"Choice":-1,"RT":-1,"Accuracy":1,"Sham":1,"Outcome":"1","Keys":[3950.524999992922],"TotalKeys":1,"Block":2,"Trial":104,"Action":"No-Go","Robot":2,"trial_type":"pit-trial","trial_index":118,"time_elapsed":535477,"internal_node_id":"0.0-118.0"},{"Valence":"Lose","Color":"#3366ff99","Rune":"05","Correct":32,"Choice":32,"RT":569.7200000286102,"Accuracy":1,"Sham":0,"Outcome":"-1","Keys":[2073.945000069216],"TotalKeys":1,"Block":2,"Trial":105,"Action":"Go","Robot":3,"trial_type":"pit-trial","trial_index":119,"time_elapsed":538561,"internal_node_id":"0.0-119.0"},{"Valence":"Win","Color":"#ffcc3399","Rune":"03","Correct":32,"Choice":32,"RT":525.5299999844283,"Accuracy":1,"Sham":0,"Outcome":"+10","Keys":[2027.0850001834333],"TotalKeys":1,"Block":2,"Trial":106,"Action":"Go","Robot":1,"trial_type":"pit-trial","trial_index":120,"time_elapsed":541600,"internal_node_id":"0.0-120.0"},{"Valence":"Win","Color":"#ffcc3399","Rune":"04","Correct":-1,"Choice":-1,"RT":-1,"Accuracy":1,"Sham":0,"Outcome":"+10","Keys":[],"TotalKeys":0,"Block":2,"Trial":107,"Action":"No-Go","Robot":2,"trial_type":"pit-trial","trial_index":121,"time_elapsed":545613,"internal_node_id":"0.0-121.0"},{"Valence":"Lose","Color":"#3366ff99","Rune":"06","Correct":-1,"Choice":-1,"RT":-1,"Accuracy":1,"Sham":0,"Outcome":"-1","Keys":[],"TotalKeys":0,"Block":2,"Trial":108,"Action":"No-Go","Robot":4,"trial_type":"pit-trial","trial_index":122,"time_elapsed":549627,"internal_node_id":"0.0-122.0"},{"Valence":"Win","Color":"#ffcc3399","Rune":"04","Correct":-1,"Choice":32,"RT":707.1299999952316,"Accuracy":0,"Sham":0,"Outcome":"+1","Keys":[2209.8150001838803],"TotalKeys":1,"Block":2,"Trial":109,"Action":"No-Go","Robot":2,"trial_type":"pit-trial","trial_index":123,"time_elapsed":552849,"internal_node_id":"0.0-123.0"},{"Valence":"Lose","Color":"#3366ff99","Rune":"06","Correct":-1,"Choice":-1,"RT":-1,"Accuracy":1,"Sham":0,"Outcome":"-1","Keys":[],"TotalKeys":0,"Block":2,"Trial":110,"Action":"No-Go","Robot":4,"trial_type":"pit-trial","trial_index":124,"time_elapsed":556864,"internal_node_id":"0.0-124.0"},{"Valence":"Win","Color":"#ffcc3399","Rune":"03","Correct":32,"Choice":32,"RT":496.72000017017126,"Accuracy":1,"Sham":0,"Outcome":"+10","Keys":[1999.254999915138],"TotalKeys":1,"Block":2,"Trial":111,"Action":"Go","Robot":1,"trial_type":"pit-trial","trial_index":125,"time_elapsed":559881,"internal_node_id":"0.0-125.0"},{"Valence":"Lose","Color":"#3366ff99","Rune":"05","Correct":32,"Choice":32,"RT":512.6549999695271,"Accuracy":1,"Sham":0,"Outcome":"-1","Keys":[2014.4950000103563],"TotalKeys":1,"Block":2,"Trial":112,"Action":"Go","Robot":3,"trial_type":"pit-trial","trial_index":126,"time_elapsed":562905,"internal_node_id":"0.0-126.0"},{"Valence":"Win","Color":"#ffcc3399","Rune":"04","Correct":-1,"Choice":-1,"RT":-1,"Accuracy":1,"Sham":0,"Outcome":"+10","Keys":[],"TotalKeys":0,"Block":2,"Trial":113,"Action":"No-Go","Robot":2,"trial_type":"pit-trial","trial_index":127,"time_elapsed":566918,"internal_node_id":"0.0-127.0"},{"Valence":"Lose","Color":"#3366ff99","Rune":"06","Correct":-1,"Choice":-1,"RT":-1,"Accuracy":1,"Sham":0,"Outcome":"-1","Keys":[],"TotalKeys":0,"Block":2,"Trial":114,"Action":"No-Go","Robot":4,"trial_type":"pit-trial","trial_index":128,"time_elapsed":570935,"internal_node_id":"0.0-128.0"},{"Valence":"Lose","Color":"#3366ff99","Rune":"05","Correct":32,"Choice":32,"RT":566.5899999439716,"Accuracy":1,"Sham":1,"Outcome":"-10","Keys":[2067.090000025928],"TotalKeys":1,"Block":2,"Trial":115,"Action":"Go","Robot":3,"trial_type":"pit-trial","trial_index":129,"time_elapsed":574012,"internal_node_id":"0.0-129.0"},{"Valence":"Win","Color":"#ffcc3399","Rune":"03","Correct":32,"Choice":32,"RT":477.2149999625981,"Accuracy":1,"Sham":0,"Outcome":"+10","Keys":[1977.4949999991804],"TotalKeys":1,"Block":2,"Trial":116,"Action":"Go","Robot":1,"trial_type":"pit-trial","trial_index":130,"time_elapsed":577001,"internal_node_id":"0.0-130.0"},{"Valence":"Lose","Color":"#3366ff99","Rune":"06","Correct":-1,"Choice":-1,"RT":-1,"Accuracy":1,"Sham":1,"Outcome":"-10","Keys":[],"TotalKeys":0,"Block":2,"Trial":117,"Action":"No-Go","Robot":4,"trial_type":"pit-trial","trial_index":131,"time_elapsed":581017,"internal_node_id":"0.0-131.0"},{"Valence":"Lose","Color":"#3366ff99","Rune":"05","Correct":32,"Choice":32,"RT":744.3100002128631,"Accuracy":1,"Sham":0,"Outcome":"-1","Keys":[2247.6049999240786],"TotalKeys":1,"Block":2,"Trial":118,"Action":"Go","Robot":3,"trial_type":"pit-trial","trial_index":132,"time_elapsed":584279,"internal_node_id":"0.0-132.0"},{"Valence":"Win","Color":"#ffcc3399","Rune":"04","Correct":-1,"Choice":-1,"RT":-1,"Accuracy":1,"Sham":0,"Outcome":"+10","Keys":[],"TotalKeys":0,"Block":2,"Trial":119,"Action":"No-Go","Robot":2,"trial_type":"pit-trial","trial_index":133,"time_elapsed":588294,"internal_node_id":"0.0-133.0"},{"Valence":"Win","Color":"#ffcc3399","Rune":"03","Correct":32,"Choice":32,"RT":514.6599998697639,"Accuracy":1,"Sham":0,"Outcome":"+10","Keys":[2015.5449998565018],"TotalKeys":1,"Block":2,"Trial":120,"Action":"Go","Robot":1,"trial_type":"pit-trial","trial_index":134,"time_elapsed":591320,"internal_node_id":"0.0-134.0"},{"Valence":"Win","Color":"#ffcc3399","Rune":"04","Correct":-1,"Choice":-1,"RT":-1,"Accuracy":1,"Sham":0,"Outcome":"+10","Keys":[],"TotalKeys":0,"Block":2,"Trial":121,"Action":"No-Go","Robot":2,"trial_type":"pit-trial","trial_index":135,"time_elapsed":595338,"internal_node_id":"0.0-135.0"},{"Valence":"Lose","Color":"#3366ff99","Rune":"06","Correct":-1,"Choice":32,"RT":801.6150000039488,"Accuracy":0,"Sham":0,"Outcome":"-10","Keys":[287.7899999730289,2303.1750000081956],"TotalKeys":2,"Block":2,"Trial":122,"Action":"No-Go","Robot":4,"trial_type":"pit-trial","trial_index":136,"time_elapsed":598656,"internal_node_id":"0.0-136.0"},{"Valence":"Lose","Color":"#3366ff99","Rune":"05","Correct":32,"Choice":32,"RT":705.6399998255074,"Accuracy":1,"Sham":0,"Outcome":"-1","Keys":[2205.864999908954],"TotalKeys":1,"Block":2,"Trial":123,"Action":"Go","Robot":3,"trial_type":"pit-trial","trial_index":137,"time_elapsed":601875,"internal_node_id":"0.0-137.0"},{"Valence":"Win","Color":"#ffcc3399","Rune":"03","Correct":32,"Choice":32,"RT":479.8799999989569,"Accuracy":1,"Sham":1,"Outcome":"1","Keys":[1980.7250001467764],"TotalKeys":1,"Block":2,"Trial":124,"Action":"Go","Robot":1,"trial_type":"pit-trial","trial_index":138,"time_elapsed":604868,"internal_node_id":"0.0-138.0"},{"Valence":"Lose","Color":"#3366ff99","Rune":"05","Correct":32,"Choice":32,"RT":571.4800001587719,"Accuracy":1,"Sham":1,"Outcome":"-10","Keys":[2073.629999998957],"TotalKeys":1,"Block":2,"Trial":125,"Action":"Go","Robot":3,"trial_type":"pit-trial","trial_index":139,"time_elapsed":607952,"internal_node_id":"0.0-139.0"},{"Valence":"Lose","Color":"#3366ff99","Rune":"06","Correct":-1,"Choice":-1,"RT":-1,"Accuracy":1,"Sham":0,"Outcome":"-1","Keys":[],"TotalKeys":0,"Block":2,"Trial":126,"Action":"No-Go","Robot":4,"trial_type":"pit-trial","trial_index":140,"time_elapsed":611976,"internal_node_id":"0.0-140.0"},{"Valence":"Win","Color":"#ffcc3399","Rune":"04","Correct":-1,"Choice":-1,"RT":-1,"Accuracy":1,"Sham":0,"Outcome":"+10","Keys":[3895.1599998399615],"TotalKeys":1,"Block":2,"Trial":127,"Action":"No-Go","Robot":2,"trial_type":"pit-trial","trial_index":141,"time_elapsed":615992,"internal_node_id":"0.0-141.0"},{"Valence":"Win","Color":"#ffcc3399","Rune":"03","Correct":32,"Choice":32,"RT":494.9299998115748,"Accuracy":1,"Sham":0,"Outcome":"+10","Keys":[1995.2549999579787],"TotalKeys":1,"Block":2,"Trial":128,"Action":"Go","Robot":1,"trial_type":"pit-trial","trial_index":142,"time_elapsed":618997,"internal_node_id":"0.0-142.0"},{"Valence":"Lose","Color":"#3366ff99","Rune":"06","Correct":-1,"Choice":-1,"RT":-1,"Accuracy":1,"Sham":0,"Outcome":"-1","Keys":[],"TotalKeys":0,"Block":2,"Trial":129,"Action":"No-Go","Robot":4,"trial_type":"pit-trial","trial_index":143,"time_elapsed":623018,"internal_node_id":"0.0-143.0"},{"Valence":"Win","Color":"#ffcc3399","Rune":"03","Correct":32,"Choice":32,"RT":547.675000037998,"Accuracy":1,"Sham":0,"Outcome":"+10","Keys":[2047.7750001009554],"TotalKeys":1,"Block":2,"Trial":130,"Action":"Go","Robot":1,"trial_type":"pit-trial","trial_index":144,"time_elapsed":626449,"internal_node_id":"0.0-144.0"},{"Valence":"Lose","Color":"#3366ff99","Rune":"05","Correct":32,"Choice":-1,"RT":-1,"Accuracy":0,"Sham":0,"Outcome":"-10","Keys":[],"TotalKeys":0,"Block":2,"Trial":131,"Action":"Go","Robot":3,"trial_type":"pit-trial","trial_index":145,"time_elapsed":631545,"internal_node_id":"0.0-145.0"},{"Valence":"Win","Color":"#ffcc3399","Rune":"04","Correct":-1,"Choice":-1,"RT":-1,"Accuracy":1,"Sham":0,"Outcome":"+10","Keys":[],"TotalKeys":0,"Block":2,"Trial":132,"Action":"No-Go","Robot":2,"trial_type":"pit-trial","trial_index":146,"time_elapsed":635555,"internal_node_id":"0.0-146.0"},{"Valence":"Lose","Color":"#3366ff99","Rune":"06","Correct":-1,"Choice":-1,"RT":-1,"Accuracy":1,"Sham":0,"Outcome":"-1","Keys":[],"TotalKeys":0,"Block":2,"Trial":133,"Action":"No-Go","Robot":4,"trial_type":"pit-trial","trial_index":147,"time_elapsed":639568,"internal_node_id":"0.0-147.0"},{"Valence":"Win","Color":"#ffcc3399","Rune":"03","Correct":32,"Choice":32,"RT":498.90000000596046,"Accuracy":1,"Sham":0,"Outcome":"+10","Keys":[2000.660000136122,2821.2550000753254],"TotalKeys":2,"Block":2,"Trial":134,"Action":"Go","Robot":1,"trial_type":"pit-trial","trial_index":148,"time_elapsed":642580,"internal_node_id":"0.0-148.0"},{"Valence":"Lose","Color":"#3366ff99","Rune":"05","Correct":32,"Choice":32,"RT":833.2599999848753,"Accuracy":1,"Sham":0,"Outcome":"-1","Keys":[2336.0250000841916],"TotalKeys":1,"Block":2,"Trial":135,"Action":"Go","Robot":3,"trial_type":"pit-trial","trial_index":149,"time_elapsed":645928,"internal_node_id":"0.0-149.0"},{"Valence":"Win","Color":"#ffcc3399","Rune":"04","Correct":-1,"Choice":-1,"RT":-1,"Accuracy":1,"Sham":0,"Outcome":"+10","Keys":[],"TotalKeys":0,"Block":2,"Trial":136,"Action":"No-Go","Robot":2,"trial_type":"pit-trial","trial_index":150,"time_elapsed":649942,"internal_node_id":"0.0-150.0"},{"Valence":"Lose","Color":"#3366ff99","Rune":"06","Correct":-1,"Choice":-1,"RT":-1,"Accuracy":1,"Sham":1,"Outcome":"-10","Keys":[],"TotalKeys":0,"Block":2,"Trial":137,"Action":"No-Go","Robot":4,"trial_type":"pit-trial","trial_index":151,"time_elapsed":653964,"internal_node_id":"0.0-151.0"},{"Valence":"Win","Color":"#ffcc3399","Rune":"03","Correct":32,"Choice":32,"RT":477.309999987483,"Accuracy":1,"Sham":0,"Outcome":"+10","Keys":[1982.3450001422316],"TotalKeys":1,"Block":2,"Trial":138,"Action":"Go","Robot":1,"trial_type":"pit-trial","trial_index":152,"time_elapsed":656959,"internal_node_id":"0.0-152.0"},{"Valence":"Lose","Color":"#3366ff99","Rune":"05","Correct":32,"Choice":32,"RT":690.7200000714511,"Accuracy":1,"Sham":0,"Outcome":"-1","Keys":[2192.510000197217],"TotalKeys":1,"Block":2,"Trial":139,"Action":"Go","Robot":3,"trial_type":"pit-trial","trial_index":153,"time_elapsed":660167,"internal_node_id":"0.0-153.0"},{"Valence":"Win","Color":"#ffcc3399","Rune":"04","Correct":-1,"Choice":-1,"RT":-1,"Accuracy":1,"Sham":1,"Outcome":"1","Keys":[],"TotalKeys":0,"Block":2,"Trial":140,"Action":"No-Go","Robot":2,"trial_type":"pit-trial","trial_index":154,"time_elapsed":664185,"internal_node_id":"0.0-154.0"},{"Valence":"Win","Color":"#ffcc3399","Rune":"04","Correct":-1,"Choice":32,"RT":996.0000000428408,"Accuracy":0,"Sham":1,"Outcome":"+10","Keys":[2498.7000001128763],"TotalKeys":1,"Block":2,"Trial":141,"Action":"No-Go","Robot":2,"trial_type":"pit-trial","trial_index":155,"time_elapsed":667701,"internal_node_id":"0.0-155.0"},{"Valence":"Lose","Color":"#3366ff99","Rune":"05","Correct":32,"Choice":32,"RT":1017.7150000818074,"Accuracy":1,"Sham":0,"Outcome":"-1","Keys":[2520.0199999380857],"TotalKeys":1,"Block":2,"Trial":142,"Action":"Go","Robot":3,"trial_type":"pit-trial","trial_index":156,"time_elapsed":671231,"internal_node_id":"0.0-156.0"},{"Valence":"Win","Color":"#ffcc3399","Rune":"03","Correct":32,"Choice":-1,"RT":-1,"Accuracy":0,"Sham":0,"Outcome":"+1","Keys":[3198.249999899417],"TotalKeys":1,"Block":2,"Trial":143,"Action":"Go","Robot":1,"trial_type":"pit-trial","trial_index":157,"time_elapsed":675243,"internal_node_id":"0.0-157.0"},{"Valence":"Lose","Color":"#3366ff99","Rune":"06","Correct":-1,"Choice":-1,"RT":-1,"Accuracy":1,"Sham":0,"Outcome":"-1","Keys":[],"TotalKeys":0,"Block":2,"Trial":144,"Action":"No-Go","Robot":4,"trial_type":"pit-trial","trial_index":158,"time_elapsed":679257,"internal_node_id":"0.0-158.0"},{"Valence":"Lose","Color":"#3366ff99","Rune":"06","Correct":-1,"Choice":-1,"RT":-1,"Accuracy":1,"Sham":0,"Outcome":"-1","Keys":[],"TotalKeys":0,"Block":2,"Trial":145,"Action":"No-Go","Robot":4,"trial_type":"pit-trial","trial_index":159,"time_elapsed":683269,"internal_node_id":"0.0-159.0"},{"Valence":"Win","Color":"#ffcc3399","Rune":"03","Correct":32,"Choice":32,"RT":473.3800000976771,"Accuracy":1,"Sham":0,"Outcome":"+10","Keys":[1973.5550000332296],"TotalKeys":1,"Block":2,"Trial":146,"Action":"Go","Robot":1,"trial_type":"pit-trial","trial_index":160,"time_elapsed":686255,"internal_node_id":"0.0-160.0"},{"Valence":"Lose","Color":"#3366ff99","Rune":"05","Correct":32,"Choice":32,"RT":1385.6399999931455,"Accuracy":1,"Sham":0,"Outcome":"-1","Keys":[2888.82500003092],"TotalKeys":1,"Block":2,"Trial":147,"Action":"Go","Robot":3,"trial_type":"pit-trial","trial_index":161,"time_elapsed":690159,"internal_node_id":"0.0-161.0"},{"Valence":"Win","Color":"#ffcc3399","Rune":"04","Correct":-1,"Choice":32,"RT":498.7049999181181,"Accuracy":0,"Sham":0,"Outcome":"+1","Keys":[2000.6249998696148],"TotalKeys":1,"Block":2,"Trial":148,"Action":"No-Go","Robot":2,"trial_type":"pit-trial","trial_index":162,"time_elapsed":693180,"internal_node_id":"0.0-162.0"},{"Valence":"Win","Color":"#ffcc3399","Rune":"04","Correct":-1,"Choice":32,"RT":866.9400000944734,"Accuracy":0,"Sham":0,"Outcome":"+1","Keys":[2368.0549999698997],"TotalKeys":1,"Block":2,"Trial":149,"Action":"No-Go","Robot":2,"trial_type":"pit-trial","trial_index":163,"time_elapsed":696560,"internal_node_id":"0.0-163.0"},{"Valence":"Lose","Color":"#3366ff99","Rune":"06","Correct":-1,"Choice":-1,"RT":-1,"Accuracy":1,"Sham":0,"Outcome":"-1","Keys":[],"TotalKeys":0,"Block":2,"Trial":150,"Action":"No-Go","Robot":4,"trial_type":"pit-trial","trial_index":164,"time_elapsed":700581,"internal_node_id":"0.0-164.0"},{"Valence":"Lose","Color":"#3366ff99","Rune":"05","Correct":32,"Choice":32,"RT":558.4650000091642,"Accuracy":1,"Sham":0,"Outcome":"-1","Keys":[2059.869999997318],"TotalKeys":1,"Block":2,"Trial":151,"Action":"Go","Robot":3,"trial_type":"pit-trial","trial_index":165,"time_elapsed":703652,"internal_node_id":"0.0-165.0"},{"Valence":"Win","Color":"#ffcc3399","Rune":"03","Correct":32,"Choice":32,"RT":1028.8600001949817,"Accuracy":1,"Sham":0,"Outcome":"+10","Keys":[2529.469999950379],"TotalKeys":1,"Block":2,"Trial":152,"Action":"Go","Robot":1,"trial_type":"pit-trial","trial_index":166,"time_elapsed":707191,"internal_node_id":"0.0-166.0"},{"Valence":"Win","Color":"#ffcc3399","Rune":"03","Correct":32,"Choice":32,"RT":533.850000007078,"Accuracy":1,"Sham":0,"Outcome":"+10","Keys":[2036.8250000756234],"TotalKeys":1,"Block":2,"Trial":153,"Action":"Go","Robot":1,"trial_type":"pit-trial","trial_index":167,"time_elapsed":710240,"internal_node_id":"0.0-167.0"},{"Valence":"Lose","Color":"#3366ff99","Rune":"06","Correct":-1,"Choice":-1,"RT":-1,"Accuracy":1,"Sham":0,"Outcome":"-1","Keys":[],"TotalKeys":0,"Block":2,"Trial":154,"Action":"No-Go","Robot":4,"trial_type":"pit-trial","trial_index":168,"time_elapsed":714254,"internal_node_id":"0.0-168.0"},{"Valence":"Lose","Color":"#3366ff99","Rune":"05","Correct":32,"Choice":32,"RT":581.389999948442,"Accuracy":1,"Sham":0,"Outcome":"-1","Keys":[2081.955000059679],"TotalKeys":1,"Block":2,"Trial":155,"Action":"Go","Robot":3,"trial_type":"pit-trial","trial_index":169,"time_elapsed":717349,"internal_node_id":"0.0-169.0"},{"Valence":"Win","Color":"#ffcc3399","Rune":"04","Correct":-1,"Choice":32,"RT":512.8049999475479,"Accuracy":0,"Sham":0,"Outcome":"+1","Keys":[2014.4400000572205],"TotalKeys":1,"Block":2,"Trial":156,"Action":"No-Go","Robot":2,"trial_type":"pit-trial","trial_index":170,"time_elapsed":720376,"internal_node_id":"0.0-170.0"},{"Valence":"Lose","Color":"#3366ff99","Rune":"05","Correct":32,"Choice":32,"RT":542.7399999462068,"Accuracy":1,"Sham":1,"Outcome":"-10","Keys":[501.1800001375377,2045.0699999928474],"TotalKeys":2,"Block":2,"Trial":157,"Action":"Go","Robot":3,"trial_type":"pit-trial","trial_index":171,"time_elapsed":723436,"internal_node_id":"0.0-171.0"},{"Valence":"Lose","Color":"#3366ff99","Rune":"06","Correct":-1,"Choice":-1,"RT":-1,"Accuracy":1,"Sham":1,"Outcome":"-10","Keys":[],"TotalKeys":0,"Block":2,"Trial":158,"Action":"No-Go","Robot":4,"trial_type":"pit-trial","trial_index":172,"time_elapsed":727453,"internal_node_id":"0.0-172.0"},{"Valence":"Win","Color":"#ffcc3399","Rune":"04","Correct":-1,"Choice":-1,"RT":-1,"Accuracy":1,"Sham":0,"Outcome":"+10","Keys":[],"TotalKeys":0,"Block":2,"Trial":159,"Action":"No-Go","Robot":2,"trial_type":"pit-trial","trial_index":173,"time_elapsed":731470,"internal_node_id":"0.0-173.0"},{"Valence":"Win","Color":"#ffcc3399","Rune":"03","Correct":32,"Choice":32,"RT":351.3750000856817,"Accuracy":1,"Sham":1,"Outcome":"1","Keys":[1852.4599999655038],"TotalKeys":1,"Block":2,"Trial":160,"Action":"Go","Robot":1,"trial_type":"pit-trial","trial_index":174,"time_elapsed":734336,"internal_node_id":"0.0-174.0"},{"rt":14733.334999997169,"demographics":{"age":"28","gender-categorical":"Male","ethnicity":"Not Hispanic or Latino","race":"Black or African American","english":"Yes","fluency":"Very well"},"trial_type":"survey-demo","trial_index":175,"time_elapsed":749081,"internal_node_id":"0.0-175.0"},{"rt":16532.660000026226,"debriefgraphics":{"difficulty":"4","fun":"2","clarity":"5","strategy":"not at all","feedback":""},"trial_type":"survey-debrief","trial_index":176,"time_elapsed":765619,"internal_node_id":"0.0-176.0","interactions":"[{\"event\":\"blur\",\"trial\":5,\"time\":41483},{\"event\":\"focus\",\"trial\":5,\"time\":44179},{\"event\":\"blur\",\"trial\":88,\"time\":402928},{\"event\":\"focus\",\"trial\":88,\"time\":406286},{\"event\":\"blur\",\"trial\":92,\"time\":416975},{\"event\":\"focus\",\"trial\":92,\"time\":419659},{\"event\":\"blur\",\"trial\":94,\"time\":425541},{\"event\":\"focus\",\"trial\":94,\"time\":443170},{\"event\":\"blur\",\"trial\":99,\"time\":465132},{\"event\":\"focus\",\"trial\":100,\"time\":466733},{\"event\":\"blur\",\"trial\":103,\"time\":477147},{\"event\":\"focus\",\"trial\":103,\"time\":478510},{\"event\":\"blur\",\"trial\":103,\"time\":480010},{\"event\":\"focus\",\"trial\":104,\"time\":481491},{\"event\":\"blur\",\"trial\":107,\"time\":495934},{\"event\":\"focus\",\"trial\":108,\"time\":497809},{\"event\":\"blur\",\"trial\":116,\"time\":527032},{\"event\":\"focus\",\"trial\":117,\"time\":528887},{\"event\":\"blur\",\"trial\":131,\"time\":577555},{\"event\":\"focus\",\"trial\":131,\"time\":579327},{\"event\":\"blur\",\"trial\":144,\"time\":625798},{\"event\":\"focus\",\"trial\":146,\"time\":631548},{\"event\":\"blur\",\"trial\":166,\"time\":704661},{\"event\":\"focus\",\"trial\":166,\"time\":706033}]"}]