[{"view_history":"[{\"page_index\":0,\"viewing_time\":1772.3399999958929},{\"page_index\":1,\"viewing_time\":4655.675000001793},{\"page_index\":2,\"viewing_time\":3648.025000002235},{\"page_index\":3,\"viewing_time\":3049.830000003567},{\"page_index\":4,\"viewing_time\":3585.9199999977136}]","rt":16712.845000001835,"trial_type":"pit-instructions","trial_index":0,"time_elapsed":16715,"internal_node_id":"0.0-0.0"},{"Correct":32,"Choice":32,"RT":1082.764999999199,"Accuracy":1,"Sham":0,"Outcome":1,"trial_type":"pit-trial","trial_index":1,"time_elapsed":20305,"internal_node_id":"0.0-1.0"},{"Correct":32,"Choice":32,"RT":535.825000013574,"Accuracy":1,"Sham":0,"Outcome":1,"trial_type":"pit-trial","trial_index":2,"time_elapsed":23345,"internal_node_id":"0.0-2.0"},{"Correct":32,"Choice":32,"RT":734.295000002021,"Accuracy":1,"Sham":0,"Outcome":1,"trial_type":"pit-trial","trial_index":3,"time_elapsed":26584,"internal_node_id":"0.0-3.0"},{"Correct":32,"Choice":32,"RT":392.1550000086427,"Accuracy":1,"Sham":0,"Outcome":1,"trial_type":"pit-trial","trial_index":4,"time_elapsed":29480,"internal_node_id":"0.0-4.0"},{"view_history":"[{\"page_index\":0,\"viewing_time\":3328.704999992624}]","rt":3329.0799999958836,"trial_type":"pit-instructions","trial_index":5,"time_elapsed":32811,"internal_node_id":"0.0-5.0"},{"Correct":-1,"Choice":-1,"RT":-1,"Accuracy":1,"Sham":0,"Outcome":1,"trial_type":"pit-trial","trial_index":6,"time_elapsed":36814,"internal_node_id":"0.0-6.0"},{"Correct":-1,"Choice":-1,"RT":-1,"Accuracy":1,"Sham":0,"Outcome":1,"trial_type":"pit-trial","trial_index":7,"time_elapsed":40817,"internal_node_id":"0.0-7.0"},{"Correct":-1,"Choice":-1,"RT":-1,"Accuracy":1,"Sham":0,"Outcome":1,"trial_type":"pit-trial","trial_index":8,"time_elapsed":44821,"internal_node_id":"0.0-8.0"},{"Correct":-1,"Choice":-1,"RT":-1,"Accuracy":1,"Sham":0,"Outcome":1,"trial_type":"pit-trial","trial_index":9,"time_elapsed":48825,"internal_node_id":"0.0-9.0"},{"view_history":"[{\"page_index\":0,\"viewing_time\":21745.410000003176},{\"page_index\":1,\"viewing_time\":2951.9749999890337},{\"page_index\":2,\"viewing_time\":2383.640000000014},{\"page_index\":3,\"viewing_time\":3816.579999998794},{\"page_index\":4,\"viewing_time\":4013.585000007879},{\"page_index\":5,\"viewing_time\":3399.730000004638},{\"page_index\":6,\"viewing_time\":1004.3299999961164},{\"page_index\":7,\"viewing_time\":851.8949999997858}]","rt":40167.560000001686,"trial_type":"pit-instructions","trial_index":10,"time_elapsed":88993,"internal_node_id":"0.0-10.0"},{"rt":10439.480000000913,"responses":"{\"no-press\":\"Do nothing\",\"probability\":\"0\",\"bonus\":\"True\"}","errors":1,"trial_type":"pit-comprehension","trial_index":11,"time_elapsed":99437,"internal_node_id":"0.0-11.0"},{"view_history":"[{\"page_index\":0,\"viewing_time\":2227.889999994659}]","rt":2228.3000000024913,"trial_type":"pit-instructions","trial_index":12,"time_elapsed":101669,"internal_node_id":"0.0-12.0"},{"Correct":-1,"Choice":-1,"RT":-1,"Accuracy":1,"Sham":0,"Outcome":1,"Block":1,"Trial":1,"Valence":"Win","Action":"No-Go","trial_type":"pit-trial","trial_index":13,"time_elapsed":105673,"internal_node_id":"0.0-13.0"},{"Correct":32,"Choice":32,"RT":804.6400000021094,"Accuracy":1,"Sham":0,"Outcome":0,"Block":1,"Trial":2,"Valence":"Lose","Action":"Go","trial_type":"pit-trial","trial_index":14,"time_elapsed":108983,"internal_node_id":"0.0-14.0"},{"Correct":-1,"Choice":32,"RT":807.8099999984261,"Accuracy":0,"Sham":0,"Outcome":-1,"Block":1,"Trial":3,"Valence":"Lose","Action":"No-Go","trial_type":"pit-trial","trial_index":15,"time_elapsed":112294,"internal_node_id":"0.0-15.0"},{"Correct":32,"Choice":32,"RT":631.984999999986,"Accuracy":1,"Sham":0,"Outcome":1,"Block":1,"Trial":4,"Valence":"Win","Action":"Go","trial_type":"pit-trial","trial_index":16,"time_elapsed":115433,"internal_node_id":"0.0-16.0"},{"Correct":32,"Choice":-1,"RT":-1,"Accuracy":0,"Sham":1,"Outcome":0,"Block":1,"Trial":5,"Valence":"Lose","Action":"Go","trial_type":"pit-trial","trial_index":17,"time_elapsed":119437,"internal_node_id":"0.0-17.0"},{"Correct":-1,"Choice":32,"RT":778.3849999977974,"Accuracy":0,"Sham":0,"Outcome":-1,"Block":1,"Trial":6,"Valence":"Lose","Action":"No-Go","trial_type":"pit-trial","trial_index":18,"time_elapsed":122719,"internal_node_id":"0.0-18.0"},{"Correct":32,"Choice":32,"RT":464.0300000028219,"Accuracy":1,"Sham":0,"Outcome":1,"Block":1,"Trial":7,"Valence":"Win","Action":"Go","trial_type":"pit-trial","trial_index":19,"time_elapsed":125686,"internal_node_id":"0.0-19.0"},{"Correct":-1,"Choice":32,"RT":544.0949999901932,"Accuracy":0,"Sham":0,"Outcome":0,"Block":1,"Trial":8,"Valence":"Win","Action":"No-Go","trial_type":"pit-trial","trial_index":20,"time_elapsed":128735,"internal_node_id":"0.0-20.0"},{"Correct":32,"Choice":32,"RT":462.8999999986263,"Accuracy":1,"Sham":0,"Outcome":1,"Block":1,"Trial":9,"Valence":"Win","Action":"Go","trial_type":"pit-trial","trial_index":21,"time_elapsed":131703,"internal_node_id":"0.0-21.0"},{"Correct":32,"Choice":-1,"RT":-1,"Accuracy":0,"Sham":0,"Outcome":-1,"Block":1,"Trial":10,"Valence":"Lose","Action":"Go","trial_type":"pit-trial","trial_index":22,"time_elapsed":135708,"internal_node_id":"0.0-22.0"},{"Correct":-1,"Choice":32,"RT":625.2999999996973,"Accuracy":0,"Sham":0,"Outcome":0,"Block":1,"Trial":11,"Valence":"Win","Action":"No-Go","trial_type":"pit-trial","trial_index":23,"time_elapsed":138838,"internal_node_id":"0.0-23.0"},{"Correct":-1,"Choice":32,"RT":720.7049999997253,"Accuracy":0,"Sham":0,"Outcome":-1,"Block":1,"Trial":12,"Valence":"Lose","Action":"No-Go","trial_type":"pit-trial","trial_index":24,"time_elapsed":142063,"internal_node_id":"0.0-24.0"},{"Correct":32,"Choice":32,"RT":527.6349999912782,"Accuracy":1,"Sham":0,"Outcome":1,"Block":1,"Trial":13,"Valence":"Win","Action":"Go","trial_type":"pit-trial","trial_index":25,"time_elapsed":145094,"internal_node_id":"0.0-25.0"},{"Correct":-1,"Choice":32,"RT":575.7600000069942,"Accuracy":0,"Sham":0,"Outcome":0,"Block":1,"Trial":14,"Valence":"Win","Action":"No-Go","trial_type":"pit-trial","trial_index":26,"time_elapsed":148175,"internal_node_id":"0.0-26.0"},{"Correct":32,"Choice":32,"RT":856.0049999941839,"Accuracy":1,"Sham":0,"Outcome":0,"Block":1,"Trial":15,"Valence":"Lose","Action":"Go","trial_type":"pit-trial","trial_index":27,"time_elapsed":151535,"internal_node_id":"0.0-27.0"},{"Correct":-1,"Choice":-1,"RT":-1,"Accuracy":1,"Sham":1,"Outcome":-1,"Block":1,"Trial":16,"Valence":"Lose","Action":"No-Go","trial_type":"pit-trial","trial_index":28,"time_elapsed":155539,"internal_node_id":"0.0-28.0"},{"Correct":32,"Choice":32,"RT":411.46000000298955,"Accuracy":1,"Sham":1,"Outcome":0,"Block":1,"Trial":17,"Valence":"Win","Action":"Go","trial_type":"pit-trial","trial_index":29,"time_elapsed":158454,"internal_node_id":"0.0-29.0"},{"Correct":32,"Choice":-1,"RT":-1,"Accuracy":0,"Sham":0,"Outcome":-1,"Block":1,"Trial":18,"Valence":"Lose","Action":"Go","trial_type":"pit-trial","trial_index":30,"time_elapsed":162458,"internal_node_id":"0.0-30.0"},{"Correct":-1,"Choice":32,"RT":517.2499999898719,"Accuracy":0,"Sham":1,"Outcome":1,"Block":1,"Trial":19,"Valence":"Win","Action":"No-Go","trial_type":"pit-trial","trial_index":31,"time_elapsed":165479,"internal_node_id":"0.0-31.0"},{"Correct":-1,"Choice":-1,"RT":-1,"Accuracy":1,"Sham":0,"Outcome":0,"Block":1,"Trial":20,"Valence":"Lose","Action":"No-Go","trial_type":"pit-trial","trial_index":32,"time_elapsed":169483,"internal_node_id":"0.0-32.0"},{"Correct":-1,"Choice":-1,"RT":-1,"Accuracy":1,"Sham":0,"Outcome":0,"Block":1,"Trial":21,"Valence":"Lose","Action":"No-Go","trial_type":"pit-trial","trial_index":33,"time_elapsed":173488,"internal_node_id":"0.0-33.0"},{"Correct":-1,"Choice":32,"RT":414.4300000043586,"Accuracy":0,"Sham":0,"Outcome":0,"Block":1,"Trial":22,"Valence":"Win","Action":"No-Go","trial_type":"pit-trial","trial_index":34,"time_elapsed":176406,"internal_node_id":"0.0-34.0"},{"Correct":32,"Choice":32,"RT":569.0250000043306,"Accuracy":1,"Sham":0,"Outcome":1,"Block":1,"Trial":23,"Valence":"Win","Action":"Go","trial_type":"pit-trial","trial_index":35,"time_elapsed":179477,"internal_node_id":"0.0-35.0"},{"Correct":32,"Choice":-1,"RT":-1,"Accuracy":0,"Sham":0,"Outcome":-1,"Block":1,"Trial":24,"Valence":"Lose","Action":"Go","trial_type":"pit-trial","trial_index":36,"time_elapsed":183481,"internal_node_id":"0.0-36.0"},{"Correct":-1,"Choice":-1,"RT":-1,"Accuracy":1,"Sham":0,"Outcome":0,"Block":1,"Trial":25,"Valence":"Lose","Action":"No-Go","trial_type":"pit-trial","trial_index":37,"time_elapsed":187486,"internal_node_id":"0.0-37.0"},{"Correct":32,"Choice":32,"RT":848.6599999887403,"Accuracy":1,"Sham":0,"Outcome":1,"Block":1,"Trial":26,"Valence":"Win","Action":"Go","trial_type":"pit-trial","trial_index":38,"time_elapsed":190838,"internal_node_id":"0.0-38.0"},{"Correct":32,"Choice":-1,"RT":-1,"Accuracy":0,"Sham":0,"Outcome":-1,"Block":1,"Trial":27,"Valence":"Lose","Action":"Go","trial_type":"pit-trial","trial_index":39,"time_elapsed":194842,"internal_node_id":"0.0-39.0"},{"Correct":-1,"Choice":32,"RT":707.909999997355,"Accuracy":0,"Sham":0,"Outcome":0,"Block":1,"Trial":28,"Valence":"Win","Action":"No-Go","trial_type":"pit-trial","trial_index":40,"time_elapsed":198054,"internal_node_id":"0.0-40.0"},{"Correct":32,"Choice":-1,"RT":-1,"Accuracy":0,"Sham":0,"Outcome":-1,"Block":1,"Trial":29,"Valence":"Lose","Action":"Go","trial_type":"pit-trial","trial_index":41,"time_elapsed":202060,"internal_node_id":"0.0-41.0"},{"Correct":-1,"Choice":32,"RT":578.2550000003539,"Accuracy":0,"Sham":1,"Outcome":1,"Block":1,"Trial":30,"Valence":"Win","Action":"No-Go","trial_type":"pit-trial","trial_index":42,"time_elapsed":205142,"internal_node_id":"0.0-42.0"},{"Correct":32,"Choice":32,"RT":830.1849999988917,"Accuracy":1,"Sham":1,"Outcome":0,"Block":1,"Trial":31,"Valence":"Win","Action":"Go","trial_type":"pit-trial","trial_index":43,"time_elapsed":208478,"internal_node_id":"0.0-43.0"},{"Correct":-1,"Choice":-1,"RT":-1,"Accuracy":1,"Sham":0,"Outcome":0,"Block":1,"Trial":32,"Valence":"Lose","Action":"No-Go","trial_type":"pit-trial","trial_index":44,"time_elapsed":212483,"internal_node_id":"0.0-44.0"},{"Correct":-1,"Choice":-1,"RT":-1,"Accuracy":1,"Sham":0,"Outcome":0,"Block":1,"Trial":33,"Valence":"Lose","Action":"No-Go","trial_type":"pit-trial","trial_index":45,"time_elapsed":216487,"internal_node_id":"0.0-45.0"},{"Correct":-1,"Choice":32,"RT":479.5600000070408,"Accuracy":0,"Sham":0,"Outcome":0,"Block":1,"Trial":34,"Valence":"Win","Action":"No-Go","trial_type":"pit-trial","trial_index":46,"time_elapsed":219470,"internal_node_id":"0.0-46.0"},{"Correct":32,"Choice":32,"RT":424.25500000535976,"Accuracy":1,"Sham":0,"Outcome":1,"Block":1,"Trial":35,"Valence":"Win","Action":"Go","trial_type":"pit-trial","trial_index":47,"time_elapsed":222397,"internal_node_id":"0.0-47.0"},{"Correct":32,"Choice":32,"RT":727.759999994305,"Accuracy":1,"Sham":1,"Outcome":-1,"Block":1,"Trial":36,"Valence":"Lose","Action":"Go","trial_type":"pit-trial","trial_index":48,"time_elapsed":225631,"internal_node_id":"0.0-48.0"},{"Correct":-1,"Choice":-1,"RT":-1,"Accuracy":1,"Sham":1,"Outcome":-1,"Block":1,"Trial":37,"Valence":"Lose","Action":"No-Go","trial_type":"pit-trial","trial_index":49,"time_elapsed":229634,"internal_node_id":"0.0-49.0"},{"Correct":32,"Choice":-1,"RT":-1,"Accuracy":0,"Sham":0,"Outcome":-1,"Block":1,"Trial":38,"Valence":"Lose","Action":"Go","trial_type":"pit-trial","trial_index":50,"time_elapsed":233637,"internal_node_id":"0.0-50.0"},{"Correct":32,"Choice":32,"RT":472.8000000031898,"Accuracy":1,"Sham":0,"Outcome":1,"Block":1,"Trial":39,"Valence":"Win","Action":"Go","trial_type":"pit-trial","trial_index":51,"time_elapsed":236613,"internal_node_id":"0.0-51.0"},{"Correct":-1,"Choice":32,"RT":592.7249999949709,"Accuracy":0,"Sham":0,"Outcome":0,"Block":1,"Trial":40,"Valence":"Win","Action":"No-Go","trial_type":"pit-trial","trial_index":52,"time_elapsed":239710,"internal_node_id":"0.0-52.0"},{"Correct":32,"Choice":32,"RT":1095.0599999923725,"Accuracy":1,"Sham":1,"Outcome":-1,"Block":1,"Trial":41,"Valence":"Lose","Action":"Go","trial_type":"pit-trial","trial_index":53,"time_elapsed":243309,"internal_node_id":"0.0-53.0"},{"Correct":-1,"Choice":32,"RT":480.92000000178814,"Accuracy":0,"Sham":0,"Outcome":0,"Block":1,"Trial":42,"Valence":"Win","Action":"No-Go","trial_type":"pit-trial","trial_index":54,"time_elapsed":246294,"internal_node_id":"0.0-54.0"},{"Correct":-1,"Choice":32,"RT":735.0700000097277,"Accuracy":0,"Sham":0,"Outcome":-1,"Block":1,"Trial":43,"Valence":"Lose","Action":"No-Go","trial_type":"pit-trial","trial_index":55,"time_elapsed":249533,"internal_node_id":"0.0-55.0"},{"Correct":32,"Choice":32,"RT":464.22499998880085,"Accuracy":1,"Sham":0,"Outcome":1,"Block":1,"Trial":44,"Valence":"Win","Action":"Go","trial_type":"pit-trial","trial_index":56,"time_elapsed":252501,"internal_node_id":"0.0-56.0"},{"Correct":-1,"Choice":32,"RT":625.1849999971455,"Accuracy":0,"Sham":0,"Outcome":-1,"Block":1,"Trial":45,"Valence":"Lose","Action":"No-Go","trial_type":"pit-trial","trial_index":57,"time_elapsed":255629,"internal_node_id":"0.0-57.0"},{"Correct":-1,"Choice":32,"RT":535.9250000037719,"Accuracy":0,"Sham":1,"Outcome":1,"Block":1,"Trial":46,"Valence":"Win","Action":"No-Go","trial_type":"pit-trial","trial_index":58,"time_elapsed":258669,"internal_node_id":"0.0-58.0"},{"Correct":32,"Choice":32,"RT":943.9850000053411,"Accuracy":1,"Sham":0,"Outcome":0,"Block":1,"Trial":47,"Valence":"Lose","Action":"Go","trial_type":"pit-trial","trial_index":59,"time_elapsed":262117,"internal_node_id":"0.0-59.0"},{"Correct":32,"Choice":32,"RT":504.84499998856336,"Accuracy":1,"Sham":0,"Outcome":1,"Block":1,"Trial":48,"Valence":"Win","Action":"Go","trial_type":"pit-trial","trial_index":60,"time_elapsed":265125,"internal_node_id":"0.0-60.0"},{"Correct":-1,"Choice":-1,"RT":-1,"Accuracy":1,"Sham":0,"Outcome":0,"Block":1,"Trial":49,"Valence":"Lose","Action":"No-Go","trial_type":"pit-trial","trial_index":61,"time_elapsed":269129,"internal_node_id":"0.0-61.0"},{"Correct":32,"Choice":32,"RT":522.0699999917997,"Accuracy":1,"Sham":0,"Outcome":1,"Block":1,"Trial":50,"Valence":"Win","Action":"Go","trial_type":"pit-trial","trial_index":62,"time_elapsed":272156,"internal_node_id":"0.0-62.0"},{"Correct":-1,"Choice":32,"RT":785.2799999964191,"Accuracy":0,"Sham":0,"Outcome":0,"Block":1,"Trial":51,"Valence":"Win","Action":"No-Go","trial_type":"pit-trial","trial_index":63,"time_elapsed":275446,"internal_node_id":"0.0-63.0"},{"Correct":32,"Choice":-1,"RT":-1,"Accuracy":0,"Sham":0,"Outcome":-1,"Block":1,"Trial":52,"Valence":"Lose","Action":"Go","trial_type":"pit-trial","trial_index":64,"time_elapsed":279450,"internal_node_id":"0.0-64.0"},{"Correct":-1,"Choice":32,"RT":601.0999999998603,"Accuracy":0,"Sham":0,"Outcome":0,"Block":1,"Trial":53,"Valence":"Win","Action":"No-Go","trial_type":"pit-trial","trial_index":65,"time_elapsed":283295,"internal_node_id":"0.0-65.0"},{"Correct":32,"Choice":-1,"RT":-1,"Accuracy":0,"Sham":0,"Outcome":-1,"Block":1,"Trial":54,"Valence":"Lose","Action":"Go","trial_type":"pit-trial","trial_index":66,"time_elapsed":287298,"internal_node_id":"0.0-66.0"},{"Correct":-1,"Choice":32,"RT":490.4300000052899,"Accuracy":0,"Sham":0,"Outcome":-1,"Block":1,"Trial":55,"Valence":"Lose","Action":"No-Go","trial_type":"pit-trial","trial_index":67,"time_elapsed":290294,"internal_node_id":"0.0-67.0"},{"Correct":32,"Choice":-1,"RT":-1,"Accuracy":0,"Sham":0,"Outcome":0,"Block":1,"Trial":56,"Valence":"Win","Action":"Go","trial_type":"pit-trial","trial_index":68,"time_elapsed":294299,"internal_node_id":"0.0-68.0"},{"Correct":32,"Choice":32,"RT":656.5100000007078,"Accuracy":1,"Sham":1,"Outcome":0,"Block":1,"Trial":57,"Valence":"Win","Action":"Go","trial_type":"pit-trial","trial_index":69,"time_elapsed":297461,"internal_node_id":"0.0-69.0"},{"Correct":32,"Choice":-1,"RT":-1,"Accuracy":0,"Sham":0,"Outcome":-1,"Block":1,"Trial":58,"Valence":"Lose","Action":"Go","trial_type":"pit-trial","trial_index":70,"time_elapsed":301466,"internal_node_id":"0.0-70.0"},{"Correct":-1,"Choice":-1,"RT":-1,"Accuracy":1,"Sham":1,"Outcome":-1,"Block":1,"Trial":59,"Valence":"Lose","Action":"No-Go","trial_type":"pit-trial","trial_index":71,"time_elapsed":305472,"internal_node_id":"0.0-71.0"},{"Correct":-1,"Choice":32,"RT":364.65999999199994,"Accuracy":0,"Sham":0,"Outcome":0,"Block":1,"Trial":60,"Valence":"Win","Action":"No-Go","trial_type":"pit-trial","trial_index":72,"time_elapsed":308341,"internal_node_id":"0.0-72.0"},{"Correct":-1,"Choice":32,"RT":390.255000005709,"Accuracy":0,"Sham":0,"Outcome":0,"Block":1,"Trial":61,"Valence":"Win","Action":"No-Go","trial_type":"pit-trial","trial_index":73,"time_elapsed":311236,"internal_node_id":"0.0-73.0"},{"Correct":32,"Choice":-1,"RT":-1,"Accuracy":0,"Sham":0,"Outcome":-1,"Block":1,"Trial":62,"Valence":"Lose","Action":"Go","trial_type":"pit-trial","trial_index":74,"time_elapsed":315240,"internal_node_id":"0.0-74.0"},{"Correct":-1,"Choice":-1,"RT":-1,"Accuracy":1,"Sham":0,"Outcome":0,"Block":1,"Trial":63,"Valence":"Lose","Action":"No-Go","trial_type":"pit-trial","trial_index":75,"time_elapsed":319244,"internal_node_id":"0.0-75.0"},{"Correct":32,"Choice":32,"RT":361.47499999788124,"Accuracy":1,"Sham":0,"Outcome":1,"Block":1,"Trial":64,"Valence":"Win","Action":"Go","trial_type":"pit-trial","trial_index":76,"time_elapsed":322109,"internal_node_id":"0.0-76.0"},{"Correct":-1,"Choice":32,"RT":807.7900000062073,"Accuracy":0,"Sham":0,"Outcome":0,"Block":1,"Trial":65,"Valence":"Win","Action":"No-Go","trial_type":"pit-trial","trial_index":77,"time_elapsed":325420,"internal_node_id":"0.0-77.0"},{"Correct":-1,"Choice":-1,"RT":-1,"Accuracy":1,"Sham":0,"Outcome":0,"Block":1,"Trial":66,"Valence":"Lose","Action":"No-Go","trial_type":"pit-trial","trial_index":78,"time_elapsed":329425,"internal_node_id":"0.0-78.0"},{"Correct":32,"Choice":32,"RT":659.9900000001071,"Accuracy":1,"Sham":1,"Outcome":0,"Block":1,"Trial":67,"Valence":"Win","Action":"Go","trial_type":"pit-trial","trial_index":79,"time_elapsed":332589,"internal_node_id":"0.0-79.0"},{"Correct":32,"Choice":-1,"RT":-1,"Accuracy":0,"Sham":0,"Outcome":-1,"Block":1,"Trial":68,"Valence":"Lose","Action":"Go","trial_type":"pit-trial","trial_index":80,"time_elapsed":336591,"internal_node_id":"0.0-80.0"},{"Correct":-1,"Choice":-1,"RT":-1,"Accuracy":1,"Sham":1,"Outcome":-1,"Block":1,"Trial":69,"Valence":"Lose","Action":"No-Go","trial_type":"pit-trial","trial_index":81,"time_elapsed":340597,"internal_node_id":"0.0-81.0"},{"Correct":32,"Choice":-1,"RT":-1,"Accuracy":0,"Sham":0,"Outcome":-1,"Block":1,"Trial":70,"Valence":"Lose","Action":"Go","trial_type":"pit-trial","trial_index":82,"time_elapsed":345293,"internal_node_id":"0.0-82.0"},{"Correct":32,"Choice":-1,"RT":-1,"Accuracy":0,"Sham":0,"Outcome":0,"Block":1,"Trial":71,"Valence":"Win","Action":"Go","trial_type":"pit-trial","trial_index":83,"time_elapsed":349295,"internal_node_id":"0.0-83.0"},{"Correct":-1,"Choice":-1,"RT":-1,"Accuracy":1,"Sham":0,"Outcome":1,"Block":1,"Trial":72,"Valence":"Win","Action":"No-Go","trial_type":"pit-trial","trial_index":84,"time_elapsed":353299,"internal_node_id":"0.0-84.0"},{"Correct":-1,"Choice":32,"RT":576.4199999975972,"Accuracy":0,"Sham":0,"Outcome":0,"Block":1,"Trial":73,"Valence":"Win","Action":"No-Go","trial_type":"pit-trial","trial_index":85,"time_elapsed":356380,"internal_node_id":"0.0-85.0"},{"Correct":32,"Choice":-1,"RT":-1,"Accuracy":0,"Sham":1,"Outcome":0,"Block":1,"Trial":74,"Valence":"Lose","Action":"Go","trial_type":"pit-trial","trial_index":86,"time_elapsed":360384,"internal_node_id":"0.0-86.0"},{"Correct":32,"Choice":32,"RT":413.05000000284053,"Accuracy":1,"Sham":0,"Outcome":1,"Block":1,"Trial":75,"Valence":"Win","Action":"Go","trial_type":"pit-trial","trial_index":87,"time_elapsed":363300,"internal_node_id":"0.0-87.0"},{"Correct":-1,"Choice":-1,"RT":-1,"Accuracy":1,"Sham":0,"Outcome":0,"Block":1,"Trial":76,"Valence":"Lose","Action":"No-Go","trial_type":"pit-trial","trial_index":88,"time_elapsed":367305,"internal_node_id":"0.0-88.0"},{"Correct":-1,"Choice":32,"RT":244.14500000420958,"Accuracy":0,"Sham":1,"Outcome":1,"Block":1,"Trial":77,"Valence":"Win","Action":"No-Go","trial_type":"pit-trial","trial_index":89,"time_elapsed":370295,"internal_node_id":"0.0-89.0"},{"Correct":32,"Choice":32,"RT":764.4099999888567,"Accuracy":1,"Sham":0,"Outcome":1,"Block":1,"Trial":78,"Valence":"Win","Action":"Go","trial_type":"pit-trial","trial_index":90,"time_elapsed":373564,"internal_node_id":"0.0-90.0"},{"Correct":-1,"Choice":-1,"RT":-1,"Accuracy":1,"Sham":0,"Outcome":0,"Block":1,"Trial":79,"Valence":"Lose","Action":"No-Go","trial_type":"pit-trial","trial_index":91,"time_elapsed":377567,"internal_node_id":"0.0-91.0"},{"Correct":32,"Choice":-1,"RT":-1,"Accuracy":0,"Sham":0,"Outcome":-1,"Block":1,"Trial":80,"Valence":"Lose","Action":"Go","trial_type":"pit-trial","trial_index":92,"time_elapsed":381571,"internal_node_id":"0.0-92.0"},{"value":false,"trial_type":"call-function","trial_index":93,"time_elapsed":381573,"internal_node_id":"0.0-93.0"},{"RT":2775.274999992689,"trial_type":"pit-pause","trial_index":94,"time_elapsed":387251,"internal_node_id":"0.0-94.0"},{"Correct":32,"Choice":32,"RT":569.0250000043306,"Accuracy":1,"Sham":0,"Outcome":1,"Block":2,"Trial":81,"Valence":"Win","Action":"Go","trial_type":"pit-trial","trial_index":95,"time_elapsed":390323,"internal_node_id":"0.0-95.0"},{"Correct":-1,"Choice":32,"RT":648.8399999943795,"Accuracy":0,"Sham":0,"Outcome":0,"Block":2,"Trial":82,"Valence":"Win","Action":"No-Go","trial_type":"pit-trial","trial_index":96,"time_elapsed":393476,"internal_node_id":"0.0-96.0"},{"Correct":-1,"Choice":-1,"RT":-1,"Accuracy":1,"Sham":0,"Outcome":0,"Block":2,"Trial":83,"Valence":"Lose","Action":"No-Go","trial_type":"pit-trial","trial_index":97,"time_elapsed":397481,"internal_node_id":"0.0-97.0"},{"Correct":32,"Choice":-1,"RT":-1,"Accuracy":0,"Sham":0,"Outcome":-1,"Block":2,"Trial":84,"Valence":"Lose","Action":"Go","trial_type":"pit-trial","trial_index":98,"time_elapsed":401485,"internal_node_id":"0.0-98.0"},{"Correct":32,"Choice":32,"RT":710.5700000101933,"Accuracy":1,"Sham":0,"Outcome":1,"Block":2,"Trial":85,"Valence":"Win","Action":"Go","trial_type":"pit-trial","trial_index":99,"time_elapsed":404700,"internal_node_id":"0.0-99.0"},{"Correct":-1,"Choice":32,"RT":748.5650000016904,"Accuracy":0,"Sham":0,"Outcome":0,"Block":2,"Trial":86,"Valence":"Win","Action":"No-Go","trial_type":"pit-trial","trial_index":100,"time_elapsed":408044,"internal_node_id":"0.0-100.0"},{"Correct":32,"Choice":32,"RT":319.8149999952875,"Accuracy":1,"Sham":0,"Outcome":0,"Block":2,"Trial":87,"Valence":"Lose","Action":"Go","trial_type":"pit-trial","trial_index":101,"time_elapsed":410868,"internal_node_id":"0.0-101.0"},{"Correct":-1,"Choice":-1,"RT":-1,"Accuracy":1,"Sham":0,"Outcome":0,"Block":2,"Trial":88,"Valence":"Lose","Action":"No-Go","trial_type":"pit-trial","trial_index":102,"time_elapsed":414872,"internal_node_id":"0.0-102.0"},{"Correct":32,"Choice":-1,"RT":-1,"Accuracy":0,"Sham":1,"Outcome":0,"Block":2,"Trial":89,"Valence":"Lose","Action":"Go","trial_type":"pit-trial","trial_index":103,"time_elapsed":418877,"internal_node_id":"0.0-103.0"},{"Correct":32,"Choice":32,"RT":239.02999999700114,"Accuracy":1,"Sham":1,"Outcome":0,"Block":2,"Trial":90,"Valence":"Win","Action":"Go","trial_type":"pit-trial","trial_index":104,"time_elapsed":422293,"internal_node_id":"0.0-104.0"},{"Correct":-1,"Choice":-1,"RT":-1,"Accuracy":1,"Sham":0,"Outcome":1,"Block":2,"Trial":91,"Valence":"Win","Action":"No-Go","trial_type":"pit-trial","trial_index":105,"time_elapsed":426298,"internal_node_id":"0.0-105.0"},{"Correct":-1,"Choice":-1,"RT":-1,"Accuracy":1,"Sham":0,"Outcome":0,"Block":2,"Trial":92,"Valence":"Lose","Action":"No-Go","trial_type":"pit-trial","trial_index":106,"time_elapsed":430304,"internal_node_id":"0.0-106.0"},{"Correct":-1,"Choice":-1,"RT":-1,"Accuracy":1,"Sham":0,"Outcome":0,"Block":2,"Trial":93,"Valence":"Lose","Action":"No-Go","trial_type":"pit-trial","trial_index":107,"time_elapsed":434310,"internal_node_id":"0.0-107.0"},{"Correct":32,"Choice":32,"RT":941.4899999974295,"Accuracy":1,"Sham":0,"Outcome":1,"Block":2,"Trial":94,"Valence":"Win","Action":"Go","trial_type":"pit-trial","trial_index":108,"time_elapsed":438235,"internal_node_id":"0.0-108.0"},{"Correct":32,"Choice":-1,"RT":-1,"Accuracy":0,"Sham":0,"Outcome":-1,"Block":2,"Trial":95,"Valence":"Lose","Action":"Go","trial_type":"pit-trial","trial_index":109,"time_elapsed":442239,"internal_node_id":"0.0-109.0"},{"Correct":-1,"Choice":32,"RT":436.5149999939604,"Accuracy":0,"Sham":1,"Outcome":1,"Block":2,"Trial":96,"Valence":"Win","Action":"No-Go","trial_type":"pit-trial","trial_index":110,"time_elapsed":445179,"internal_node_id":"0.0-110.0"},{"Correct":-1,"Choice":-1,"RT":-1,"Accuracy":1,"Sham":1,"Outcome":-1,"Block":2,"Trial":97,"Valence":"Lose","Action":"No-Go","trial_type":"pit-trial","trial_index":111,"time_elapsed":449184,"internal_node_id":"0.0-111.0"},{"Correct":32,"Choice":32,"RT":242.4099999916507,"Accuracy":1,"Sham":0,"Outcome":1,"Block":2,"Trial":98,"Valence":"Win","Action":"Go","trial_type":"pit-trial","trial_index":112,"time_elapsed":451931,"internal_node_id":"0.0-112.0"},{"Correct":32,"Choice":-1,"RT":-1,"Accuracy":0,"Sham":0,"Outcome":-1,"Block":2,"Trial":99,"Valence":"Lose","Action":"Go","trial_type":"pit-trial","trial_index":113,"time_elapsed":455936,"internal_node_id":"0.0-113.0"},{"Correct":-1,"Choice":32,"RT":363.42000000877306,"Accuracy":0,"Sham":0,"Outcome":0,"Block":2,"Trial":100,"Valence":"Win","Action":"No-Go","trial_type":"pit-trial","trial_index":114,"time_elapsed":458803,"internal_node_id":"0.0-114.0"},{"Correct":-1,"Choice":-1,"RT":-1,"Accuracy":1,"Sham":0,"Outcome":0,"Block":2,"Trial":101,"Valence":"Lose","Action":"No-Go","trial_type":"pit-trial","trial_index":115,"time_elapsed":462809,"internal_node_id":"0.0-115.0"},{"Correct":32,"Choice":-1,"RT":-1,"Accuracy":0,"Sham":0,"Outcome":-1,"Block":2,"Trial":102,"Valence":"Lose","Action":"Go","trial_type":"pit-trial","trial_index":116,"time_elapsed":466812,"internal_node_id":"0.0-116.0"},{"Correct":32,"Choice":32,"RT":591.3700000091922,"Accuracy":1,"Sham":1,"Outcome":0,"Block":2,"Trial":103,"Valence":"Win","Action":"Go","trial_type":"pit-trial","trial_index":117,"time_elapsed":469907,"internal_node_id":"0.0-117.0"},{"Correct":-1,"Choice":32,"RT":888.0700000008801,"Accuracy":0,"Sham":1,"Outcome":1,"Block":2,"Trial":104,"Valence":"Win","Action":"No-Go","trial_type":"pit-trial","trial_index":118,"time_elapsed":473300,"internal_node_id":"0.0-118.0"},{"Correct":32,"Choice":-1,"RT":-1,"Accuracy":0,"Sham":0,"Outcome":-1,"Block":2,"Trial":105,"Valence":"Lose","Action":"Go","trial_type":"pit-trial","trial_index":119,"time_elapsed":477305,"internal_node_id":"0.0-119.0"},{"Correct":32,"Choice":32,"RT":610.2400000090711,"Accuracy":1,"Sham":0,"Outcome":1,"Block":2,"Trial":106,"Valence":"Win","Action":"Go","trial_type":"pit-trial","trial_index":120,"time_elapsed":480419,"internal_node_id":"0.0-120.0"},{"Correct":-1,"Choice":32,"RT":559.8350000072969,"Accuracy":0,"Sham":0,"Outcome":0,"Block":2,"Trial":107,"Valence":"Win","Action":"No-Go","trial_type":"pit-trial","trial_index":121,"time_elapsed":483483,"internal_node_id":"0.0-121.0"},{"Correct":-1,"Choice":-1,"RT":-1,"Accuracy":1,"Sham":0,"Outcome":0,"Block":2,"Trial":108,"Valence":"Lose","Action":"No-Go","trial_type":"pit-trial","trial_index":122,"time_elapsed":487486,"internal_node_id":"0.0-122.0"},{"Correct":-1,"Choice":32,"RT":371.6850000055274,"Accuracy":0,"Sham":0,"Outcome":0,"Block":2,"Trial":109,"Valence":"Win","Action":"No-Go","trial_type":"pit-trial","trial_index":123,"time_elapsed":490363,"internal_node_id":"0.0-123.0"},{"Correct":-1,"Choice":-1,"RT":-1,"Accuracy":1,"Sham":0,"Outcome":0,"Block":2,"Trial":110,"Valence":"Lose","Action":"No-Go","trial_type":"pit-trial","trial_index":124,"time_elapsed":494367,"internal_node_id":"0.0-124.0"},{"Correct":32,"Choice":32,"RT":396.31500000541564,"Accuracy":1,"Sham":0,"Outcome":1,"Block":2,"Trial":111,"Valence":"Win","Action":"Go","trial_type":"pit-trial","trial_index":125,"time_elapsed":497266,"internal_node_id":"0.0-125.0"},{"Correct":32,"Choice":-1,"RT":-1,"Accuracy":0,"Sham":0,"Outcome":-1,"Block":2,"Trial":112,"Valence":"Lose","Action":"Go","trial_type":"pit-trial","trial_index":126,"time_elapsed":501270,"internal_node_id":"0.0-126.0"},{"Correct":-1,"Choice":32,"RT":964.9550000031013,"Accuracy":0,"Sham":0,"Outcome":0,"Block":2,"Trial":113,"Valence":"Win","Action":"No-Go","trial_type":"pit-trial","trial_index":127,"time_elapsed":504739,"internal_node_id":"0.0-127.0"},{"Correct":-1,"Choice":-1,"RT":-1,"Accuracy":1,"Sham":0,"Outcome":0,"Block":2,"Trial":114,"Valence":"Lose","Action":"No-Go","trial_type":"pit-trial","trial_index":128,"time_elapsed":508744,"internal_node_id":"0.0-128.0"},{"Correct":32,"Choice":-1,"RT":-1,"Accuracy":0,"Sham":1,"Outcome":0,"Block":2,"Trial":115,"Valence":"Lose","Action":"Go","trial_type":"pit-trial","trial_index":129,"time_elapsed":512747,"internal_node_id":"0.0-129.0"},{"Correct":32,"Choice":32,"RT":511.995000008028,"Accuracy":1,"Sham":0,"Outcome":1,"Block":2,"Trial":116,"Valence":"Win","Action":"Go","trial_type":"pit-trial","trial_index":130,"time_elapsed":515762,"internal_node_id":"0.0-130.0"},{"Correct":-1,"Choice":-1,"RT":-1,"Accuracy":1,"Sham":1,"Outcome":-1,"Block":2,"Trial":117,"Valence":"Lose","Action":"No-Go","trial_type":"pit-trial","trial_index":131,"time_elapsed":519768,"internal_node_id":"0.0-131.0"},{"Correct":32,"Choice":-1,"RT":-1,"Accuracy":0,"Sham":0,"Outcome":-1,"Block":2,"Trial":118,"Valence":"Lose","Action":"Go","trial_type":"pit-trial","trial_index":132,"time_elapsed":523773,"internal_node_id":"0.0-132.0"},{"Correct":-1,"Choice":32,"RT":341.6549999965355,"Accuracy":0,"Sham":0,"Outcome":0,"Block":2,"Trial":119,"Valence":"Win","Action":"No-Go","trial_type":"pit-trial","trial_index":133,"time_elapsed":526619,"internal_node_id":"0.0-133.0"},{"Correct":32,"Choice":32,"RT":326.9749999890337,"Accuracy":1,"Sham":0,"Outcome":1,"Block":2,"Trial":120,"Valence":"Win","Action":"Go","trial_type":"pit-trial","trial_index":134,"time_elapsed":529451,"internal_node_id":"0.0-134.0"},{"Correct":-1,"Choice":32,"RT":423.17999999795575,"Accuracy":0,"Sham":0,"Outcome":0,"Block":2,"Trial":121,"Valence":"Win","Action":"No-Go","trial_type":"pit-trial","trial_index":135,"time_elapsed":532378,"internal_node_id":"0.0-135.0"},{"Correct":-1,"Choice":32,"RT":384.7549999918556,"Accuracy":0,"Sham":0,"Outcome":-1,"Block":2,"Trial":122,"Valence":"Lose","Action":"No-Go","trial_type":"pit-trial","trial_index":136,"time_elapsed":535267,"internal_node_id":"0.0-136.0"},{"Correct":32,"Choice":-1,"RT":-1,"Accuracy":0,"Sham":0,"Outcome":-1,"Block":2,"Trial":123,"Valence":"Lose","Action":"Go","trial_type":"pit-trial","trial_index":137,"time_elapsed":539270,"internal_node_id":"0.0-137.0"},{"Correct":32,"Choice":32,"RT":540.1200000051176,"Accuracy":1,"Sham":1,"Outcome":0,"Block":2,"Trial":124,"Valence":"Win","Action":"Go","trial_type":"pit-trial","trial_index":138,"time_elapsed":542314,"internal_node_id":"0.0-138.0"},{"Correct":32,"Choice":-1,"RT":-1,"Accuracy":0,"Sham":1,"Outcome":0,"Block":2,"Trial":125,"Valence":"Lose","Action":"Go","trial_type":"pit-trial","trial_index":139,"time_elapsed":546318,"internal_node_id":"0.0-139.0"},{"Correct":-1,"Choice":-1,"RT":-1,"Accuracy":1,"Sham":0,"Outcome":0,"Block":2,"Trial":126,"Valence":"Lose","Action":"No-Go","trial_type":"pit-trial","trial_index":140,"time_elapsed":550321,"internal_node_id":"0.0-140.0"},{"Correct":-1,"Choice":32,"RT":601.1600000056205,"Accuracy":0,"Sham":0,"Outcome":0,"Block":2,"Trial":127,"Valence":"Win","Action":"No-Go","trial_type":"pit-trial","trial_index":141,"time_elapsed":553426,"internal_node_id":"0.0-141.0"},{"Correct":32,"Choice":-1,"RT":-1,"Accuracy":0,"Sham":0,"Outcome":0,"Block":2,"Trial":128,"Valence":"Win","Action":"Go","trial_type":"pit-trial","trial_index":142,"time_elapsed":557430,"internal_node_id":"0.0-142.0"},{"Correct":-1,"Choice":-1,"RT":-1,"Accuracy":1,"Sham":0,"Outcome":0,"Block":2,"Trial":129,"Valence":"Lose","Action":"No-Go","trial_type":"pit-trial","trial_index":143,"time_elapsed":561433,"internal_node_id":"0.0-143.0"},{"Correct":32,"Choice":32,"RT":376.9999999931315,"Accuracy":1,"Sham":0,"Outcome":1,"Block":2,"Trial":130,"Valence":"Win","Action":"Go","trial_type":"pit-trial","trial_index":144,"time_elapsed":564314,"internal_node_id":"0.0-144.0"},{"Correct":32,"Choice":-1,"RT":-1,"Accuracy":0,"Sham":0,"Outcome":-1,"Block":2,"Trial":131,"Valence":"Lose","Action":"Go","trial_type":"pit-trial","trial_index":145,"time_elapsed":568318,"internal_node_id":"0.0-145.0"},{"Correct":-1,"Choice":32,"RT":516.9949999981327,"Accuracy":0,"Sham":0,"Outcome":0,"Block":2,"Trial":132,"Valence":"Win","Action":"No-Go","trial_type":"pit-trial","trial_index":146,"time_elapsed":571338,"internal_node_id":"0.0-146.0"},{"Correct":-1,"Choice":32,"RT":888.2400000002235,"Accuracy":0,"Sham":0,"Outcome":-1,"Block":2,"Trial":133,"Valence":"Lose","Action":"No-Go","trial_type":"pit-trial","trial_index":147,"time_elapsed":574731,"internal_node_id":"0.0-147.0"},{"Correct":32,"Choice":32,"RT":360.0949999963632,"Accuracy":1,"Sham":0,"Outcome":1,"Block":2,"Trial":134,"Valence":"Win","Action":"Go","trial_type":"pit-trial","trial_index":148,"time_elapsed":577594,"internal_node_id":"0.0-148.0"},{"Correct":32,"Choice":-1,"RT":-1,"Accuracy":0,"Sham":0,"Outcome":-1,"Block":2,"Trial":135,"Valence":"Lose","Action":"Go","trial_type":"pit-trial","trial_index":149,"time_elapsed":581597,"internal_node_id":"0.0-149.0"},{"Correct":-1,"Choice":32,"RT":349.79499998735264,"Accuracy":0,"Sham":0,"Outcome":0,"Block":2,"Trial":136,"Valence":"Win","Action":"No-Go","trial_type":"pit-trial","trial_index":150,"time_elapsed":584450,"internal_node_id":"0.0-150.0"},{"Correct":-1,"Choice":-1,"RT":-1,"Accuracy":1,"Sham":1,"Outcome":-1,"Block":2,"Trial":137,"Valence":"Lose","Action":"No-Go","trial_type":"pit-trial","trial_index":151,"time_elapsed":588455,"internal_node_id":"0.0-151.0"},{"Correct":32,"Choice":32,"RT":330.9700000099838,"Accuracy":1,"Sham":0,"Outcome":1,"Block":2,"Trial":138,"Valence":"Win","Action":"Go","trial_type":"pit-trial","trial_index":152,"time_elapsed":591291,"internal_node_id":"0.0-152.0"},{"Correct":32,"Choice":-1,"RT":-1,"Accuracy":0,"Sham":0,"Outcome":-1,"Block":2,"Trial":139,"Valence":"Lose","Action":"Go","trial_type":"pit-trial","trial_index":153,"time_elapsed":595294,"internal_node_id":"0.0-153.0"},{"Correct":-1,"Choice":32,"RT":446.7150000127731,"Accuracy":0,"Sham":1,"Outcome":1,"Block":2,"Trial":140,"Valence":"Win","Action":"No-Go","trial_type":"pit-trial","trial_index":154,"time_elapsed":598246,"internal_node_id":"0.0-154.0"},{"Correct":-1,"Choice":32,"RT":524.7700000036275,"Accuracy":0,"Sham":1,"Outcome":1,"Block":2,"Trial":141,"Valence":"Win","Action":"No-Go","trial_type":"pit-trial","trial_index":155,"time_elapsed":601274,"internal_node_id":"0.0-155.0"},{"Correct":32,"Choice":-1,"RT":-1,"Accuracy":0,"Sham":0,"Outcome":-1,"Block":2,"Trial":142,"Valence":"Lose","Action":"Go","trial_type":"pit-trial","trial_index":156,"time_elapsed":605277,"internal_node_id":"0.0-156.0"},{"Correct":32,"Choice":32,"RT":254.08500000776257,"Accuracy":1,"Sham":0,"Outcome":1,"Block":2,"Trial":143,"Valence":"Win","Action":"Go","trial_type":"pit-trial","trial_index":157,"time_elapsed":608034,"internal_node_id":"0.0-157.0"},{"Correct":-1,"Choice":-1,"RT":-1,"Accuracy":1,"Sham":0,"Outcome":0,"Block":2,"Trial":144,"Valence":"Lose","Action":"No-Go","trial_type":"pit-trial","trial_index":158,"time_elapsed":612038,"internal_node_id":"0.0-158.0"},{"Correct":-1,"Choice":-1,"RT":-1,"Accuracy":1,"Sham":0,"Outcome":0,"Block":2,"Trial":145,"Valence":"Lose","Action":"No-Go","trial_type":"pit-trial","trial_index":159,"time_elapsed":616042,"internal_node_id":"0.0-159.0"},{"Correct":32,"Choice":32,"RT":375.4950000002282,"Accuracy":1,"Sham":0,"Outcome":1,"Block":2,"Trial":146,"Valence":"Win","Action":"Go","trial_type":"pit-trial","trial_index":160,"time_elapsed":618922,"internal_node_id":"0.0-160.0"},{"Correct":32,"Choice":-1,"RT":-1,"Accuracy":0,"Sham":0,"Outcome":-1,"Block":2,"Trial":147,"Valence":"Lose","Action":"Go","trial_type":"pit-trial","trial_index":161,"time_elapsed":622926,"internal_node_id":"0.0-161.0"},{"Correct":-1,"Choice":32,"RT":355.73500000464264,"Accuracy":0,"Sham":0,"Outcome":0,"Block":2,"Trial":148,"Valence":"Win","Action":"No-Go","trial_type":"pit-trial","trial_index":162,"time_elapsed":625786,"internal_node_id":"0.0-162.0"},{"Correct":-1,"Choice":32,"RT":416.0100000008242,"Accuracy":0,"Sham":0,"Outcome":0,"Block":2,"Trial":149,"Valence":"Win","Action":"No-Go","trial_type":"pit-trial","trial_index":163,"time_elapsed":628707,"internal_node_id":"0.0-163.0"},{"Correct":-1,"Choice":-1,"RT":-1,"Accuracy":1,"Sham":0,"Outcome":0,"Block":2,"Trial":150,"Valence":"Lose","Action":"No-Go","trial_type":"pit-trial","trial_index":164,"time_elapsed":632711,"internal_node_id":"0.0-164.0"},{"Correct":32,"Choice":-1,"RT":-1,"Accuracy":0,"Sham":0,"Outcome":-1,"Block":2,"Trial":151,"Valence":"Lose","Action":"Go","trial_type":"pit-trial","trial_index":165,"time_elapsed":636714,"internal_node_id":"0.0-165.0"},{"Correct":32,"Choice":32,"RT":303.05000000225846,"Accuracy":1,"Sham":0,"Outcome":1,"Block":2,"Trial":152,"Valence":"Win","Action":"Go","trial_type":"pit-trial","trial_index":166,"time_elapsed":639521,"internal_node_id":"0.0-166.0"},{"Correct":32,"Choice":32,"RT":528.904999999213,"Accuracy":1,"Sham":0,"Outcome":1,"Block":2,"Trial":153,"Valence":"Win","Action":"Go","trial_type":"pit-trial","trial_index":167,"time_elapsed":642554,"internal_node_id":"0.0-167.0"},{"Correct":-1,"Choice":-1,"RT":-1,"Accuracy":1,"Sham":0,"Outcome":0,"Block":2,"Trial":154,"Valence":"Lose","Action":"No-Go","trial_type":"pit-trial","trial_index":168,"time_elapsed":646557,"internal_node_id":"0.0-168.0"},{"Correct":32,"Choice":32,"RT":1075.7349999912549,"Accuracy":1,"Sham":0,"Outcome":0,"Block":2,"Trial":155,"Valence":"Lose","Action":"Go","trial_type":"pit-trial","trial_index":169,"time_elapsed":650137,"internal_node_id":"0.0-169.0"},{"Correct":-1,"Choice":32,"RT":440.0700000114739,"Accuracy":0,"Sham":0,"Outcome":0,"Block":2,"Trial":156,"Valence":"Win","Action":"No-Go","trial_type":"pit-trial","trial_index":170,"time_elapsed":653081,"internal_node_id":"0.0-170.0"},{"Correct":32,"Choice":-1,"RT":-1,"Accuracy":0,"Sham":1,"Outcome":0,"Block":2,"Trial":157,"Valence":"Lose","Action":"Go","trial_type":"pit-trial","trial_index":171,"time_elapsed":657085,"internal_node_id":"0.0-171.0"},{"Correct":-1,"Choice":-1,"RT":-1,"Accuracy":1,"Sham":1,"Outcome":-1,"Block":2,"Trial":158,"Valence":"Lose","Action":"No-Go","trial_type":"pit-trial","trial_index":172,"time_elapsed":661088,"internal_node_id":"0.0-172.0"},{"Correct":-1,"Choice":32,"RT":377.1149999956833,"Accuracy":0,"Sham":0,"Outcome":0,"Block":2,"Trial":159,"Valence":"Win","Action":"No-Go","trial_type":"pit-trial","trial_index":173,"time_elapsed":663969,"internal_node_id":"0.0-173.0"},{"Correct":32,"Choice":32,"RT":431.04999999923166,"Accuracy":1,"Sham":1,"Outcome":0,"Block":2,"Trial":160,"Valence":"Win","Action":"Go","trial_type":"pit-trial","trial_index":174,"time_elapsed":666905,"internal_node_id":"0.0-174.0"},{"rt":18534.075000003213,"demographics":{"age":"29","gender-categorical":"Male","ethnicity":"Not Hispanic or Latino","race":"Black or African American","english":"Yes","fluency":"Very well"},"trial_type":"survey-demo","trial_index":175,"time_elapsed":685443,"internal_node_id":"0.0-175.0"},{"rt":20835.954999987734,"debriefgraphics":{"difficulty":"2","fun":"3","clarity":"5","strategy":"Just tried to remember the signals and the colors","feedback":""},"trial_type":"survey-debrief","trial_index":176,"time_elapsed":706284,"internal_node_id":"0.0-176.0","interactions":"[{\"event\":\"blur\",\"trial\":20,\"time\":125894},{\"event\":\"focus\",\"trial\":20,\"time\":126616},{\"event\":\"blur\",\"trial\":62,\"time\":269259},{\"event\":\"focus\",\"trial\":62,\"time\":270194},{\"event\":\"blur\",\"trial\":64,\"time\":276359},{\"event\":\"focus\",\"trial\":64,\"time\":277970},{\"event\":\"blur\",\"trial\":65,\"time\":282382},{\"event\":\"focus\",\"trial\":66,\"time\":284281},{\"event\":\"blur\",\"trial\":66,\"time\":285699},{\"event\":\"focus\",\"trial\":66,\"time\":286134},{\"event\":\"blur\",\"trial\":67,\"time\":289721},{\"event\":\"focus\",\"trial\":68,\"time\":292220},{\"event\":\"blur\",\"trial\":82,\"time\":341185},{\"event\":\"focus\",\"trial\":82,\"time\":342361},{\"event\":\"blur\",\"trial\":82,\"time\":344029},{\"event\":\"focus\",\"trial\":84,\"time\":350566},{\"event\":\"blur\",\"trial\":89,\"time\":369365},{\"event\":\"focus\",\"trial\":90,\"time\":370685},{\"event\":\"blur\",\"trial\":100,\"time\":404818},{\"event\":\"focus\",\"trial\":100,\"time\":406328},{\"event\":\"blur\",\"trial\":104,\"time\":421574},{\"event\":\"focus\",\"trial\":105,\"time\":423987},{\"event\":\"blur\",\"trial\":107,\"time\":433681},{\"event\":\"focus\",\"trial\":107,\"time\":434179},{\"event\":\"blur\",\"trial\":108,\"time\":435146},{\"event\":\"focus\",\"trial\":108,\"time\":436707}]"}]