[{"view_history":"[{\"page_index\":0,\"viewing_time\":5646.7849999899045},{\"page_index\":1,\"viewing_time\":1513.9699999708682},{\"page_index\":2,\"viewing_time\":4139.680000022054},{\"page_index\":3,\"viewing_time\":1071.6799999936484},{\"page_index\":4,\"viewing_time\":779.7199999913573}]","rt":13155.119999952149,"trial_type":"pit-instructions","trial_index":0,"time_elapsed":13177,"internal_node_id":"0.0-0.0"},{"Rune":"01","Correct":32,"Choice":-1,"RT":-1,"Accuracy":0,"Sham":0,"Outcome":"+0","Keys":[],"TotalKeys":0,"trial_type":"pit-trial","trial_index":1,"time_elapsed":17201,"internal_node_id":"0.0-1.0"},{"Rune":"01","Correct":32,"Choice":32,"RT":471.8350000330247,"Accuracy":1,"Sham":0,"Outcome":"+10","Keys":[1972.925000009127],"TotalKeys":1,"trial_type":"pit-trial","trial_index":2,"time_elapsed":20183,"internal_node_id":"0.0-2.0"},{"Rune":"01","Correct":32,"Choice":32,"RT":882.4250000179745,"Accuracy":1,"Sham":0,"Outcome":"+10","Keys":[1406.5999999875203,2382.884999969974],"TotalKeys":2,"trial_type":"pit-trial","trial_index":3,"time_elapsed":23574,"internal_node_id":"0.0-3.0"},{"Rune":"01","Correct":32,"Choice":32,"RT":144.73999995971099,"Accuracy":1,"Sham":0,"Outcome":"+10","Keys":[1645.3900000196882],"TotalKeys":1,"trial_type":"pit-trial","trial_index":4,"time_elapsed":26225,"internal_node_id":"0.0-4.0"},{"view_history":"[{\"page_index\":0,\"viewing_time\":3427.849999978207}]","rt":3428.7599999806844,"trial_type":"pit-instructions","trial_index":5,"time_elapsed":29657,"internal_node_id":"0.0-5.0"},{"Rune":"02","Correct":-1,"Choice":32,"RT":108.7000000406988,"Accuracy":0,"Sham":0,"Outcome":"+0","Keys":[1117.3550000530668,1609.6499999985099],"TotalKeys":2,"trial_type":"pit-trial","trial_index":6,"time_elapsed":32273,"internal_node_id":"0.0-6.0"},{"Rune":"02","Correct":-1,"Choice":32,"RT":320.52499998826534,"Accuracy":0,"Sham":0,"Outcome":"+0","Keys":[1276.430000027176,1822.8600000147708],"TotalKeys":2,"trial_type":"pit-trial","trial_index":7,"time_elapsed":35102,"internal_node_id":"0.0-7.0"},{"Rune":"02","Correct":-1,"Choice":32,"RT":846.2550000404008,"Accuracy":0,"Sham":0,"Outcome":"+0","Keys":[1249.2199999978766,2346.4399999938905,3087.7699999837205],"TotalKeys":3,"trial_type":"pit-trial","trial_index":8,"time_elapsed":38456,"internal_node_id":"0.0-8.0"},{"Rune":"02","Correct":-1,"Choice":32,"RT":72.32500001555309,"Accuracy":0,"Sham":0,"Outcome":"+0","Keys":[831.5300000249408,1258.960000006482,1572.8050000034273,2102.7600000379607],"TotalKeys":4,"trial_type":"pit-trial","trial_index":9,"time_elapsed":41036,"internal_node_id":"0.0-9.0"},{"view_history":"[{\"page_index\":0,\"viewing_time\":29331.235000048764},{\"page_index\":1,\"viewing_time\":4808.214999968186},{\"page_index\":2,\"viewing_time\":1470.1300000306219},{\"page_index\":3,\"viewing_time\":524.7299999464303},{\"page_index\":4,\"viewing_time\":522.5150000187568},{\"page_index\":5,\"viewing_time\":520.3300000284798},{\"page_index\":6,\"viewing_time\":584.1249999939464},{\"page_index\":7,\"viewing_time\":532.5399999856018}]","rt":38294.870000041556,"trial_type":"pit-instructions","trial_index":10,"time_elapsed":79334,"internal_node_id":"0.0-10.0"},{"rt":17205.86500002537,"responses":"{\"no-press\":\"Do nothing\",\"context-win\":\"+10\",\"context-lose\":\"+0\",\"feedback\":\"True\"}","errors":2,"trial_type":"pit-comprehension","trial_index":11,"time_elapsed":96553,"internal_node_id":"0.0-11.0"},{"view_history":"[{\"page_index\":0,\"viewing_time\":2900.595000013709}]","rt":2902.040000015404,"trial_type":"pit-instructions","trial_index":12,"time_elapsed":99464,"internal_node_id":"0.0-12.0"},{"Rune":"05","Correct":-1,"Choice":32,"RT":872.1999999834225,"Accuracy":0,"Sham":0,"Outcome":"+0","Keys":[2373.085000028368],"TotalKeys":1,"Block":1,"Trial":1,"Valence":"Win","Action":"No-Go","Robot":2,"trial_type":"pit-trial","trial_index":13,"time_elapsed":102844,"internal_node_id":"0.0-13.0"},{"Rune":"06","Correct":32,"Choice":32,"RT":130.12499996693805,"Accuracy":1,"Sham":0,"Outcome":"+0","Keys":[459.2699999921024,1630.574999959208],"TotalKeys":2,"Block":1,"Trial":2,"Valence":"Lose","Action":"Go","Robot":3,"trial_type":"pit-trial","trial_index":14,"time_elapsed":105480,"internal_node_id":"0.0-14.0"},{"Rune":"04","Correct":-1,"Choice":-1,"RT":-1,"Accuracy":1,"Sham":0,"Outcome":"+0","Keys":[1473.070000007283,3744.5300000254065],"TotalKeys":2,"Block":1,"Trial":3,"Valence":"Lose","Action":"No-Go","Robot":4,"trial_type":"pit-trial","trial_index":15,"time_elapsed":109492,"internal_node_id":"0.0-15.0"},{"Rune":"03","Correct":32,"Choice":-1,"RT":-1,"Accuracy":0,"Sham":0,"Outcome":"+0","Keys":[977.9249999555759,1495.409999974072,3185.659999959171],"TotalKeys":3,"Block":1,"Trial":4,"Valence":"Win","Action":"Go","Robot":1,"trial_type":"pit-trial","trial_index":16,"time_elapsed":113503,"internal_node_id":"0.0-16.0"},{"Rune":"06","Correct":32,"Choice":32,"RT":1430.599999963306,"Accuracy":1,"Sham":1,"Outcome":"-10","Keys":[2930.9699999867007],"TotalKeys":1,"Block":1,"Trial":5,"Valence":"Lose","Action":"Go","Robot":3,"trial_type":"pit-trial","trial_index":17,"time_elapsed":117440,"internal_node_id":"0.0-17.0"},{"Rune":"04","Correct":-1,"Choice":-1,"RT":-1,"Accuracy":1,"Sham":0,"Outcome":"+0","Keys":[],"TotalKeys":0,"Block":1,"Trial":6,"Valence":"Lose","Action":"No-Go","Robot":4,"trial_type":"pit-trial","trial_index":18,"time_elapsed":121458,"internal_node_id":"0.0-18.0"},{"Rune":"03","Correct":32,"Choice":-1,"RT":-1,"Accuracy":0,"Sham":0,"Outcome":"+0","Keys":[],"TotalKeys":0,"Block":1,"Trial":7,"Valence":"Win","Action":"Go","Robot":1,"trial_type":"pit-trial","trial_index":19,"time_elapsed":125465,"internal_node_id":"0.0-19.0"},{"Rune":"05","Correct":-1,"Choice":-1,"RT":-1,"Accuracy":1,"Sham":0,"Outcome":"+10","Keys":[],"TotalKeys":0,"Block":1,"Trial":8,"Valence":"Win","Action":"No-Go","Robot":2,"trial_type":"pit-trial","trial_index":20,"time_elapsed":129473,"internal_node_id":"0.0-20.0"},{"Rune":"03","Correct":32,"Choice":32,"RT":50.30500004068017,"Accuracy":1,"Sham":0,"Outcome":"+10","Keys":[916.1049999529496,1550.954999984242],"TotalKeys":2,"Block":1,"Trial":9,"Valence":"Win","Action":"Go","Robot":1,"trial_type":"pit-trial","trial_index":21,"time_elapsed":132031,"internal_node_id":"0.0-21.0"},{"Rune":"06","Correct":32,"Choice":-1,"RT":-1,"Accuracy":0,"Sham":0,"Outcome":"-10","Keys":[3092.75000001071],"TotalKeys":1,"Block":1,"Trial":10,"Valence":"Lose","Action":"Go","Robot":3,"trial_type":"pit-trial","trial_index":22,"time_elapsed":136038,"internal_node_id":"0.0-22.0"},{"Rune":"05","Correct":-1,"Choice":-1,"RT":-1,"Accuracy":1,"Sham":0,"Outcome":"+10","Keys":[],"TotalKeys":0,"Block":1,"Trial":11,"Valence":"Win","Action":"No-Go","Robot":2,"trial_type":"pit-trial","trial_index":23,"time_elapsed":140044,"internal_node_id":"0.0-23.0"},{"Rune":"04","Correct":-1,"Choice":-1,"RT":-1,"Accuracy":1,"Sham":0,"Outcome":"+0","Keys":[],"TotalKeys":0,"Block":1,"Trial":12,"Valence":"Lose","Action":"No-Go","Robot":4,"trial_type":"pit-trial","trial_index":24,"time_elapsed":144051,"internal_node_id":"0.0-24.0"},{"Rune":"03","Correct":32,"Choice":-1,"RT":-1,"Accuracy":0,"Sham":0,"Outcome":"+0","Keys":[593.570000026375,1098.1400000164285],"TotalKeys":2,"Block":1,"Trial":13,"Valence":"Win","Action":"Go","Robot":1,"trial_type":"pit-trial","trial_index":25,"time_elapsed":148057,"internal_node_id":"0.0-25.0"},{"Rune":"05","Correct":-1,"Choice":32,"RT":766.7850000434555,"Accuracy":0,"Sham":0,"Outcome":"+0","Keys":[2267.5400000298396],"TotalKeys":1,"Block":1,"Trial":14,"Valence":"Win","Action":"No-Go","Robot":2,"trial_type":"pit-trial","trial_index":26,"time_elapsed":151333,"internal_node_id":"0.0-26.0"},{"Rune":"06","Correct":32,"Choice":-1,"RT":-1,"Accuracy":0,"Sham":0,"Outcome":"-10","Keys":[1232.094999984838,3741.005000018049],"TotalKeys":2,"Block":1,"Trial":15,"Valence":"Lose","Action":"Go","Robot":3,"trial_type":"pit-trial","trial_index":27,"time_elapsed":155345,"internal_node_id":"0.0-27.0"},{"Rune":"04","Correct":-1,"Choice":-1,"RT":-1,"Accuracy":1,"Sham":1,"Outcome":"-10","Keys":[3256.2350000371225],"TotalKeys":1,"Block":1,"Trial":16,"Valence":"Lose","Action":"No-Go","Robot":4,"trial_type":"pit-trial","trial_index":28,"time_elapsed":159352,"internal_node_id":"0.0-28.0"},{"Rune":"03","Correct":32,"Choice":32,"RT":446.56999997096136,"Accuracy":1,"Sham":1,"Outcome":"+0","Keys":[1391.4349999977276,1946.959999972023],"TotalKeys":2,"Block":1,"Trial":17,"Valence":"Win","Action":"Go","Robot":1,"trial_type":"pit-trial","trial_index":29,"time_elapsed":162305,"internal_node_id":"0.0-29.0"},{"Rune":"06","Correct":32,"Choice":32,"RT":107.95500001404434,"Accuracy":1,"Sham":0,"Outcome":"+0","Keys":[1285.3150000446476,1611.0050000133924],"TotalKeys":2,"Block":1,"Trial":18,"Valence":"Lose","Action":"Go","Robot":3,"trial_type":"pit-trial","trial_index":30,"time_elapsed":165189,"internal_node_id":"0.0-30.0"},{"Rune":"05","Correct":-1,"Choice":-1,"RT":-1,"Accuracy":1,"Sham":1,"Outcome":"+0","Keys":[3591.680000012275],"TotalKeys":1,"Block":1,"Trial":19,"Valence":"Win","Action":"No-Go","Robot":2,"trial_type":"pit-trial","trial_index":31,"time_elapsed":169228,"internal_node_id":"0.0-31.0"},{"Rune":"04","Correct":-1,"Choice":-1,"RT":-1,"Accuracy":1,"Sham":0,"Outcome":"+0","Keys":[202.21000001765788,3642.3700000159442],"TotalKeys":2,"Block":1,"Trial":20,"Valence":"Lose","Action":"No-Go","Robot":4,"trial_type":"pit-trial","trial_index":32,"time_elapsed":174119,"internal_node_id":"0.0-32.0"},{"Rune":"04","Correct":-1,"Choice":-1,"RT":-1,"Accuracy":1,"Sham":0,"Outcome":"+0","Keys":[1070.5899999593385],"TotalKeys":1,"Block":1,"Trial":21,"Valence":"Lose","Action":"No-Go","Robot":4,"trial_type":"pit-trial","trial_index":33,"time_elapsed":178140,"internal_node_id":"0.0-33.0"},{"Rune":"05","Correct":-1,"Choice":-1,"RT":-1,"Accuracy":1,"Sham":0,"Outcome":"+10","Keys":[],"TotalKeys":0,"Block":1,"Trial":22,"Valence":"Win","Action":"No-Go","Robot":2,"trial_type":"pit-trial","trial_index":34,"time_elapsed":182152,"internal_node_id":"0.0-34.0"},{"Rune":"03","Correct":32,"Choice":-1,"RT":-1,"Accuracy":0,"Sham":0,"Outcome":"+0","Keys":[],"TotalKeys":0,"Block":1,"Trial":23,"Valence":"Win","Action":"Go","Robot":1,"trial_type":"pit-trial","trial_index":35,"time_elapsed":186160,"internal_node_id":"0.0-35.0"},{"Rune":"06","Correct":32,"Choice":-1,"RT":-1,"Accuracy":0,"Sham":0,"Outcome":"-10","Keys":[],"TotalKeys":0,"Block":1,"Trial":24,"Valence":"Lose","Action":"Go","Robot":3,"trial_type":"pit-trial","trial_index":36,"time_elapsed":190195,"internal_node_id":"0.0-36.0"},{"Rune":"04","Correct":-1,"Choice":-1,"RT":-1,"Accuracy":1,"Sham":0,"Outcome":"+0","Keys":[],"TotalKeys":0,"Block":1,"Trial":25,"Valence":"Lose","Action":"No-Go","Robot":4,"trial_type":"pit-trial","trial_index":37,"time_elapsed":194201,"internal_node_id":"0.0-37.0"},{"Rune":"03","Correct":32,"Choice":-1,"RT":-1,"Accuracy":0,"Sham":0,"Outcome":"+0","Keys":[],"TotalKeys":0,"Block":1,"Trial":26,"Valence":"Win","Action":"Go","Robot":1,"trial_type":"pit-trial","trial_index":38,"time_elapsed":198208,"internal_node_id":"0.0-38.0"},{"Rune":"06","Correct":32,"Choice":-1,"RT":-1,"Accuracy":0,"Sham":0,"Outcome":"-10","Keys":[],"TotalKeys":0,"Block":1,"Trial":27,"Valence":"Lose","Action":"Go","Robot":3,"trial_type":"pit-trial","trial_index":39,"time_elapsed":202255,"internal_node_id":"0.0-39.0"},{"Rune":"05","Correct":-1,"Choice":-1,"RT":-1,"Accuracy":1,"Sham":0,"Outcome":"+10","Keys":[],"TotalKeys":0,"Block":1,"Trial":28,"Valence":"Win","Action":"No-Go","Robot":2,"trial_type":"pit-trial","trial_index":40,"time_elapsed":206263,"internal_node_id":"0.0-40.0"},{"Rune":"06","Correct":32,"Choice":-1,"RT":-1,"Accuracy":0,"Sham":0,"Outcome":"-10","Keys":[],"TotalKeys":0,"Block":1,"Trial":29,"Valence":"Lose","Action":"Go","Robot":3,"trial_type":"pit-trial","trial_index":41,"time_elapsed":210270,"internal_node_id":"0.0-41.0"},{"Rune":"05","Correct":-1,"Choice":-1,"RT":-1,"Accuracy":1,"Sham":1,"Outcome":"+0","Keys":[],"TotalKeys":0,"Block":1,"Trial":30,"Valence":"Win","Action":"No-Go","Robot":2,"trial_type":"pit-trial","trial_index":42,"time_elapsed":214277,"internal_node_id":"0.0-42.0"},{"Rune":"03","Correct":32,"Choice":-1,"RT":-1,"Accuracy":0,"Sham":1,"Outcome":"+10","Keys":[],"TotalKeys":0,"Block":1,"Trial":31,"Valence":"Win","Action":"Go","Robot":1,"trial_type":"pit-trial","trial_index":43,"time_elapsed":218283,"internal_node_id":"0.0-43.0"},{"Rune":"04","Correct":-1,"Choice":-1,"RT":-1,"Accuracy":1,"Sham":0,"Outcome":"+0","Keys":[],"TotalKeys":0,"Block":1,"Trial":32,"Valence":"Lose","Action":"No-Go","Robot":4,"trial_type":"pit-trial","trial_index":44,"time_elapsed":222290,"internal_node_id":"0.0-44.0"},{"Rune":"04","Correct":-1,"Choice":-1,"RT":-1,"Accuracy":1,"Sham":0,"Outcome":"+0","Keys":[],"TotalKeys":0,"Block":1,"Trial":33,"Valence":"Lose","Action":"No-Go","Robot":4,"trial_type":"pit-trial","trial_index":45,"time_elapsed":226297,"internal_node_id":"0.0-45.0"},{"Rune":"05","Correct":-1,"Choice":-1,"RT":-1,"Accuracy":1,"Sham":0,"Outcome":"+10","Keys":[],"TotalKeys":0,"Block":1,"Trial":34,"Valence":"Win","Action":"No-Go","Robot":2,"trial_type":"pit-trial","trial_index":46,"time_elapsed":230304,"internal_node_id":"0.0-46.0"},{"Rune":"03","Correct":32,"Choice":-1,"RT":-1,"Accuracy":0,"Sham":0,"Outcome":"+0","Keys":[],"TotalKeys":0,"Block":1,"Trial":35,"Valence":"Win","Action":"Go","Robot":1,"trial_type":"pit-trial","trial_index":47,"time_elapsed":234310,"internal_node_id":"0.0-47.0"},{"Rune":"06","Correct":32,"Choice":-1,"RT":-1,"Accuracy":0,"Sham":1,"Outcome":"+0","Keys":[],"TotalKeys":0,"Block":1,"Trial":36,"Valence":"Lose","Action":"Go","Robot":3,"trial_type":"pit-trial","trial_index":48,"time_elapsed":238319,"internal_node_id":"0.0-48.0"},{"Rune":"04","Correct":-1,"Choice":-1,"RT":-1,"Accuracy":1,"Sham":1,"Outcome":"-10","Keys":[],"TotalKeys":0,"Block":1,"Trial":37,"Valence":"Lose","Action":"No-Go","Robot":4,"trial_type":"pit-trial","trial_index":49,"time_elapsed":242333,"internal_node_id":"0.0-49.0"},{"Rune":"06","Correct":32,"Choice":-1,"RT":-1,"Accuracy":0,"Sham":0,"Outcome":"-10","Keys":[],"TotalKeys":0,"Block":1,"Trial":38,"Valence":"Lose","Action":"Go","Robot":3,"trial_type":"pit-trial","trial_index":50,"time_elapsed":246341,"internal_node_id":"0.0-50.0"},{"Rune":"03","Correct":32,"Choice":-1,"RT":-1,"Accuracy":0,"Sham":0,"Outcome":"+0","Keys":[],"TotalKeys":0,"Block":1,"Trial":39,"Valence":"Win","Action":"Go","Robot":1,"trial_type":"pit-trial","trial_index":51,"time_elapsed":250351,"internal_node_id":"0.0-51.0"},{"Rune":"05","Correct":-1,"Choice":-1,"RT":-1,"Accuracy":1,"Sham":0,"Outcome":"+10","Keys":[],"TotalKeys":0,"Block":1,"Trial":40,"Valence":"Win","Action":"No-Go","Robot":2,"trial_type":"pit-trial","trial_index":52,"time_elapsed":254360,"internal_node_id":"0.0-52.0"},{"Rune":"06","Correct":32,"Choice":-1,"RT":-1,"Accuracy":0,"Sham":1,"Outcome":"+0","Keys":[],"TotalKeys":0,"Block":1,"Trial":41,"Valence":"Lose","Action":"Go","Robot":3,"trial_type":"pit-trial","trial_index":53,"time_elapsed":258367,"internal_node_id":"0.0-53.0"},{"Rune":"05","Correct":-1,"Choice":32,"RT":649.6449999976903,"Accuracy":0,"Sham":0,"Outcome":"+0","Keys":[2150.599999993574],"TotalKeys":1,"Block":1,"Trial":42,"Valence":"Win","Action":"No-Go","Robot":2,"trial_type":"pit-trial","trial_index":54,"time_elapsed":261527,"internal_node_id":"0.0-54.0"},{"Rune":"04","Correct":-1,"Choice":32,"RT":576.230000006035,"Accuracy":0,"Sham":0,"Outcome":"-10","Keys":[1168.825000000652,2076.7200000118464,3075.574999966193],"TotalKeys":3,"Block":1,"Trial":43,"Valence":"Lose","Action":"No-Go","Robot":4,"trial_type":"pit-trial","trial_index":55,"time_elapsed":264609,"internal_node_id":"0.0-55.0"},{"Rune":"03","Correct":32,"Choice":32,"RT":578.9300000178628,"Accuracy":1,"Sham":0,"Outcome":"+10","Keys":[2080.0150000141],"TotalKeys":1,"Block":1,"Trial":44,"Valence":"Win","Action":"Go","Robot":1,"trial_type":"pit-trial","trial_index":56,"time_elapsed":267695,"internal_node_id":"0.0-56.0"},{"Rune":"04","Correct":-1,"Choice":-1,"RT":-1,"Accuracy":1,"Sham":0,"Outcome":"+0","Keys":[],"TotalKeys":0,"Block":1,"Trial":45,"Valence":"Lose","Action":"No-Go","Robot":4,"trial_type":"pit-trial","trial_index":57,"time_elapsed":271701,"internal_node_id":"0.0-57.0"},{"Rune":"05","Correct":-1,"Choice":32,"RT":247.4299999885261,"Accuracy":0,"Sham":1,"Outcome":"+10","Keys":[1749.869999999646],"TotalKeys":1,"Block":1,"Trial":46,"Valence":"Win","Action":"No-Go","Robot":2,"trial_type":"pit-trial","trial_index":58,"time_elapsed":274456,"internal_node_id":"0.0-58.0"},{"Rune":"06","Correct":32,"Choice":-1,"RT":-1,"Accuracy":0,"Sham":0,"Outcome":"-10","Keys":[241.9699999736622],"TotalKeys":1,"Block":1,"Trial":47,"Valence":"Lose","Action":"Go","Robot":3,"trial_type":"pit-trial","trial_index":59,"time_elapsed":278464,"internal_node_id":"0.0-59.0"},{"Rune":"03","Correct":32,"Choice":-1,"RT":-1,"Accuracy":0,"Sham":0,"Outcome":"+0","Keys":[],"TotalKeys":0,"Block":1,"Trial":48,"Valence":"Win","Action":"Go","Robot":1,"trial_type":"pit-trial","trial_index":60,"time_elapsed":282470,"internal_node_id":"0.0-60.0"},{"Rune":"04","Correct":-1,"Choice":-1,"RT":-1,"Accuracy":1,"Sham":0,"Outcome":"+0","Keys":[],"TotalKeys":0,"Block":1,"Trial":49,"Valence":"Lose","Action":"No-Go","Robot":4,"trial_type":"pit-trial","trial_index":61,"time_elapsed":286476,"internal_node_id":"0.0-61.0"},{"Rune":"03","Correct":32,"Choice":-1,"RT":-1,"Accuracy":0,"Sham":0,"Outcome":"+0","Keys":[3631.1649999697693],"TotalKeys":1,"Block":1,"Trial":50,"Valence":"Win","Action":"Go","Robot":1,"trial_type":"pit-trial","trial_index":62,"time_elapsed":290482,"internal_node_id":"0.0-62.0"},{"Rune":"05","Correct":-1,"Choice":-1,"RT":-1,"Accuracy":1,"Sham":0,"Outcome":"+10","Keys":[1181.2299999874085,3956.2699999660254],"TotalKeys":2,"Block":1,"Trial":51,"Valence":"Win","Action":"No-Go","Robot":2,"trial_type":"pit-trial","trial_index":63,"time_elapsed":294491,"internal_node_id":"0.0-63.0"},{"Rune":"06","Correct":32,"Choice":-1,"RT":-1,"Accuracy":0,"Sham":0,"Outcome":"-10","Keys":[1146.8500000191852,3735.900000028778],"TotalKeys":2,"Block":1,"Trial":52,"Valence":"Lose","Action":"Go","Robot":3,"trial_type":"pit-trial","trial_index":64,"time_elapsed":298497,"internal_node_id":"0.0-64.0"},{"Rune":"05","Correct":-1,"Choice":-1,"RT":-1,"Accuracy":1,"Sham":0,"Outcome":"+10","Keys":[957.7200000057928],"TotalKeys":1,"Block":1,"Trial":53,"Valence":"Win","Action":"No-Go","Robot":2,"trial_type":"pit-trial","trial_index":65,"time_elapsed":302510,"internal_node_id":"0.0-65.0"},{"Rune":"06","Correct":32,"Choice":-1,"RT":-1,"Accuracy":0,"Sham":0,"Outcome":"-10","Keys":[1284.845000016503,3765.5500000109896],"TotalKeys":2,"Block":1,"Trial":54,"Valence":"Lose","Action":"Go","Robot":3,"trial_type":"pit-trial","trial_index":66,"time_elapsed":306518,"internal_node_id":"0.0-66.0"},{"Rune":"04","Correct":-1,"Choice":32,"RT":910.9299999545328,"Accuracy":0,"Sham":0,"Outcome":"-10","Keys":[2411.275000020396],"TotalKeys":1,"Block":1,"Trial":55,"Valence":"Lose","Action":"No-Go","Robot":4,"trial_type":"pit-trial","trial_index":67,"time_elapsed":309939,"internal_node_id":"0.0-67.0"},{"Rune":"03","Correct":32,"Choice":32,"RT":1159.1999999945983,"Accuracy":1,"Sham":0,"Outcome":"+10","Keys":[2660.1750000263564],"TotalKeys":1,"Block":1,"Trial":56,"Valence":"Win","Action":"Go","Robot":1,"trial_type":"pit-trial","trial_index":68,"time_elapsed":313606,"internal_node_id":"0.0-68.0"},{"Rune":"03","Correct":32,"Choice":-1,"RT":-1,"Accuracy":0,"Sham":1,"Outcome":"+10","Keys":[1183.8049999787472,3999.4600000209175],"TotalKeys":2,"Block":1,"Trial":57,"Valence":"Win","Action":"Go","Robot":1,"trial_type":"pit-trial","trial_index":69,"time_elapsed":317613,"internal_node_id":"0.0-69.0"},{"Rune":"06","Correct":32,"Choice":-1,"RT":-1,"Accuracy":0,"Sham":0,"Outcome":"-10","Keys":[],"TotalKeys":0,"Block":1,"Trial":58,"Valence":"Lose","Action":"Go","Robot":3,"trial_type":"pit-trial","trial_index":70,"time_elapsed":321619,"internal_node_id":"0.0-70.0"},{"Rune":"04","Correct":-1,"Choice":32,"RT":26.800000050570816,"Accuracy":0,"Sham":1,"Outcome":"+0","Keys":[1527.8099999995902,2170.769999967888],"TotalKeys":2,"Block":1,"Trial":59,"Valence":"Lose","Action":"No-Go","Robot":4,"trial_type":"pit-trial","trial_index":71,"time_elapsed":324153,"internal_node_id":"0.0-71.0"},{"Rune":"05","Correct":-1,"Choice":-1,"RT":-1,"Accuracy":1,"Sham":0,"Outcome":"+10","Keys":[221.39000002061948],"TotalKeys":1,"Block":1,"Trial":60,"Valence":"Win","Action":"No-Go","Robot":2,"trial_type":"pit-trial","trial_index":72,"time_elapsed":328161,"internal_node_id":"0.0-72.0"},{"Rune":"05","Correct":-1,"Choice":-1,"RT":-1,"Accuracy":1,"Sham":0,"Outcome":"+10","Keys":[],"TotalKeys":0,"Block":1,"Trial":61,"Valence":"Win","Action":"No-Go","Robot":2,"trial_type":"pit-trial","trial_index":73,"time_elapsed":332168,"internal_node_id":"0.0-73.0"},{"Rune":"06","Correct":32,"Choice":-1,"RT":-1,"Accuracy":0,"Sham":0,"Outcome":"-10","Keys":[],"TotalKeys":0,"Block":1,"Trial":62,"Valence":"Lose","Action":"Go","Robot":3,"trial_type":"pit-trial","trial_index":74,"time_elapsed":336199,"internal_node_id":"0.0-74.0"},{"Rune":"04","Correct":-1,"Choice":-1,"RT":-1,"Accuracy":1,"Sham":0,"Outcome":"+0","Keys":[],"TotalKeys":0,"Block":1,"Trial":63,"Valence":"Lose","Action":"No-Go","Robot":4,"trial_type":"pit-trial","trial_index":75,"time_elapsed":340207,"internal_node_id":"0.0-75.0"},{"Rune":"03","Correct":32,"Choice":-1,"RT":-1,"Accuracy":0,"Sham":0,"Outcome":"+0","Keys":[],"TotalKeys":0,"Block":1,"Trial":64,"Valence":"Win","Action":"Go","Robot":1,"trial_type":"pit-trial","trial_index":76,"time_elapsed":344215,"internal_node_id":"0.0-76.0"},{"Rune":"05","Correct":-1,"Choice":-1,"RT":-1,"Accuracy":1,"Sham":0,"Outcome":"+10","Keys":[],"TotalKeys":0,"Block":1,"Trial":65,"Valence":"Win","Action":"No-Go","Robot":2,"trial_type":"pit-trial","trial_index":77,"time_elapsed":348221,"internal_node_id":"0.0-77.0"},{"Rune":"04","Correct":-1,"Choice":-1,"RT":-1,"Accuracy":1,"Sham":0,"Outcome":"+0","Keys":[],"TotalKeys":0,"Block":1,"Trial":66,"Valence":"Lose","Action":"No-Go","Robot":4,"trial_type":"pit-trial","trial_index":78,"time_elapsed":352237,"internal_node_id":"0.0-78.0"},{"Rune":"03","Correct":32,"Choice":-1,"RT":-1,"Accuracy":0,"Sham":1,"Outcome":"+10","Keys":[],"TotalKeys":0,"Block":1,"Trial":67,"Valence":"Win","Action":"Go","Robot":1,"trial_type":"pit-trial","trial_index":79,"time_elapsed":356244,"internal_node_id":"0.0-79.0"},{"Rune":"06","Correct":32,"Choice":-1,"RT":-1,"Accuracy":0,"Sham":0,"Outcome":"-10","Keys":[],"TotalKeys":0,"Block":1,"Trial":68,"Valence":"Lose","Action":"Go","Robot":3,"trial_type":"pit-trial","trial_index":80,"time_elapsed":360250,"internal_node_id":"0.0-80.0"},{"Rune":"04","Correct":-1,"Choice":-1,"RT":-1,"Accuracy":1,"Sham":1,"Outcome":"-10","Keys":[],"TotalKeys":0,"Block":1,"Trial":69,"Valence":"Lose","Action":"No-Go","Robot":4,"trial_type":"pit-trial","trial_index":81,"time_elapsed":364257,"internal_node_id":"0.0-81.0"},{"Rune":"06","Correct":32,"Choice":-1,"RT":-1,"Accuracy":0,"Sham":0,"Outcome":"-10","Keys":[],"TotalKeys":0,"Block":1,"Trial":70,"Valence":"Lose","Action":"Go","Robot":3,"trial_type":"pit-trial","trial_index":82,"time_elapsed":368263,"internal_node_id":"0.0-82.0"},{"Rune":"03","Correct":32,"Choice":-1,"RT":-1,"Accuracy":0,"Sham":0,"Outcome":"+0","Keys":[],"TotalKeys":0,"Block":1,"Trial":71,"Valence":"Win","Action":"Go","Robot":1,"trial_type":"pit-trial","trial_index":83,"time_elapsed":372269,"internal_node_id":"0.0-83.0"},{"Rune":"05","Correct":-1,"Choice":-1,"RT":-1,"Accuracy":1,"Sham":0,"Outcome":"+10","Keys":[],"TotalKeys":0,"Block":1,"Trial":72,"Valence":"Win","Action":"No-Go","Robot":2,"trial_type":"pit-trial","trial_index":84,"time_elapsed":376275,"internal_node_id":"0.0-84.0"},{"Rune":"05","Correct":-1,"Choice":-1,"RT":-1,"Accuracy":1,"Sham":0,"Outcome":"+10","Keys":[],"TotalKeys":0,"Block":1,"Trial":73,"Valence":"Win","Action":"No-Go","Robot":2,"trial_type":"pit-trial","trial_index":85,"time_elapsed":380281,"internal_node_id":"0.0-85.0"},{"Rune":"06","Correct":32,"Choice":-1,"RT":-1,"Accuracy":0,"Sham":1,"Outcome":"+0","Keys":[3904.404999979306],"TotalKeys":1,"Block":1,"Trial":74,"Valence":"Lose","Action":"Go","Robot":3,"trial_type":"pit-trial","trial_index":86,"time_elapsed":384288,"internal_node_id":"0.0-86.0"},{"Rune":"03","Correct":32,"Choice":32,"RT":219.939999980852,"Accuracy":1,"Sham":0,"Outcome":"+10","Keys":[1720.5050000338815],"TotalKeys":1,"Block":1,"Trial":75,"Valence":"Win","Action":"Go","Robot":1,"trial_type":"pit-trial","trial_index":87,"time_elapsed":387016,"internal_node_id":"0.0-87.0"},{"Rune":"04","Correct":-1,"Choice":32,"RT":599.5250000269152,"Accuracy":0,"Sham":0,"Outcome":"-10","Keys":[2099.815000023227],"TotalKeys":1,"Block":1,"Trial":76,"Valence":"Lose","Action":"No-Go","Robot":4,"trial_type":"pit-trial","trial_index":88,"time_elapsed":390122,"internal_node_id":"0.0-88.0"},{"Rune":"05","Correct":-1,"Choice":32,"RT":259.8299999954179,"Accuracy":0,"Sham":1,"Outcome":"+10","Keys":[1761.3699999637902],"TotalKeys":1,"Block":1,"Trial":77,"Valence":"Win","Action":"No-Go","Robot":2,"trial_type":"pit-trial","trial_index":89,"time_elapsed":392890,"internal_node_id":"0.0-89.0"},{"Rune":"03","Correct":32,"Choice":32,"RT":1204.1500000050291,"Accuracy":1,"Sham":0,"Outcome":"+10","Keys":[14.42500000121072,1092.9999999934807,2704.2050000163727],"TotalKeys":3,"Block":1,"Trial":78,"Valence":"Win","Action":"Go","Robot":1,"trial_type":"pit-trial","trial_index":90,"time_elapsed":396600,"internal_node_id":"0.0-90.0"},{"Rune":"04","Correct":-1,"Choice":32,"RT":1045.3550000092946,"Accuracy":0,"Sham":0,"Outcome":"-10","Keys":[2545.4700000118464],"TotalKeys":1,"Block":1,"Trial":79,"Valence":"Lose","Action":"No-Go","Robot":4,"trial_type":"pit-trial","trial_index":91,"time_elapsed":400152,"internal_node_id":"0.0-91.0"},{"Rune":"06","Correct":32,"Choice":-1,"RT":-1,"Accuracy":0,"Sham":0,"Outcome":"-10","Keys":[],"TotalKeys":0,"Block":1,"Trial":80,"Valence":"Lose","Action":"Go","Robot":3,"trial_type":"pit-trial","trial_index":92,"time_elapsed":404159,"internal_node_id":"0.0-92.0"},{"value":false,"trial_type":"call-function","trial_index":93,"time_elapsed":404164,"internal_node_id":"0.0-93.0"},{"RT":1907.294999982696,"trial_type":"pit-pause","trial_index":94,"time_elapsed":408388,"internal_node_id":"0.0-94.0"},{"Rune":"03","Correct":32,"Choice":32,"RT":818.0399999837391,"Accuracy":1,"Sham":0,"Outcome":"+10","Keys":[2320.609999995213],"TotalKeys":1,"Block":2,"Trial":81,"Valence":"Win","Action":"Go","Robot":1,"trial_type":"pit-trial","trial_index":95,"time_elapsed":411716,"internal_node_id":"0.0-95.0"},{"Rune":"05","Correct":-1,"Choice":32,"RT":509.9799999734387,"Accuracy":0,"Sham":0,"Outcome":"+0","Keys":[464.05499998945743,2010.500000033062],"TotalKeys":2,"Block":2,"Trial":82,"Valence":"Win","Action":"No-Go","Robot":2,"trial_type":"pit-trial","trial_index":96,"time_elapsed":414733,"internal_node_id":"0.0-96.0"},{"Rune":"04","Correct":-1,"Choice":32,"RT":1464.1450000344776,"Accuracy":0,"Sham":0,"Outcome":"-10","Keys":[136.90500002121553,2964.749999984633],"TotalKeys":2,"Block":2,"Trial":83,"Valence":"Lose","Action":"No-Go","Robot":4,"trial_type":"pit-trial","trial_index":97,"time_elapsed":418704,"internal_node_id":"0.0-97.0"},{"Rune":"06","Correct":32,"Choice":-1,"RT":-1,"Accuracy":0,"Sham":0,"Outcome":"-10","Keys":[453.6699999589473],"TotalKeys":1,"Block":2,"Trial":84,"Valence":"Lose","Action":"Go","Robot":3,"trial_type":"pit-trial","trial_index":98,"time_elapsed":422711,"internal_node_id":"0.0-98.0"},{"Rune":"03","Correct":32,"Choice":-1,"RT":-1,"Accuracy":0,"Sham":0,"Outcome":"+0","Keys":[3772.5500000524335],"TotalKeys":1,"Block":2,"Trial":85,"Valence":"Win","Action":"Go","Robot":1,"trial_type":"pit-trial","trial_index":99,"time_elapsed":426716,"internal_node_id":"0.0-99.0"},{"Rune":"05","Correct":-1,"Choice":32,"RT":14.819999982137233,"Accuracy":0,"Sham":0,"Outcome":"+0","Keys":[1516.7299999739043],"TotalKeys":1,"Block":2,"Trial":86,"Valence":"Win","Action":"No-Go","Robot":2,"trial_type":"pit-trial","trial_index":100,"time_elapsed":429239,"internal_node_id":"0.0-100.0"},{"Rune":"06","Correct":32,"Choice":32,"RT":682.4699999997392,"Accuracy":1,"Sham":0,"Outcome":"+0","Keys":[2183.465000009164],"TotalKeys":1,"Block":2,"Trial":87,"Valence":"Lose","Action":"Go","Robot":3,"trial_type":"pit-trial","trial_index":101,"time_elapsed":432428,"internal_node_id":"0.0-101.0"},{"Rune":"04","Correct":-1,"Choice":-1,"RT":-1,"Accuracy":1,"Sham":0,"Outcome":"+0","Keys":[],"TotalKeys":0,"Block":2,"Trial":88,"Valence":"Lose","Action":"No-Go","Robot":4,"trial_type":"pit-trial","trial_index":102,"time_elapsed":436437,"internal_node_id":"0.0-102.0"},{"Rune":"06","Correct":32,"Choice":-1,"RT":-1,"Accuracy":0,"Sham":1,"Outcome":"+0","Keys":[],"TotalKeys":0,"Block":2,"Trial":89,"Valence":"Lose","Action":"Go","Robot":3,"trial_type":"pit-trial","trial_index":103,"time_elapsed":440446,"internal_node_id":"0.0-103.0"},{"Rune":"03","Correct":32,"Choice":32,"RT":502.4299999931827,"Accuracy":1,"Sham":1,"Outcome":"+0","Keys":[745.5450000124983,2002.840000030119],"TotalKeys":2,"Block":2,"Trial":90,"Valence":"Win","Action":"Go","Robot":1,"trial_type":"pit-trial","trial_index":104,"time_elapsed":443462,"internal_node_id":"0.0-104.0"},{"Rune":"05","Correct":-1,"Choice":-1,"RT":-1,"Accuracy":1,"Sham":0,"Outcome":"+10","Keys":[],"TotalKeys":0,"Block":2,"Trial":91,"Valence":"Win","Action":"No-Go","Robot":2,"trial_type":"pit-trial","trial_index":105,"time_elapsed":447487,"internal_node_id":"0.0-105.0"},{"Rune":"04","Correct":-1,"Choice":32,"RT":964.574999990873,"Accuracy":0,"Sham":0,"Outcome":"-10","Keys":[2465.4149999842048],"TotalKeys":1,"Block":2,"Trial":92,"Valence":"Lose","Action":"No-Go","Robot":4,"trial_type":"pit-trial","trial_index":106,"time_elapsed":450963,"internal_node_id":"0.0-106.0"},{"Rune":"04","Correct":-1,"Choice":-1,"RT":-1,"Accuracy":1,"Sham":0,"Outcome":"+0","Keys":[],"TotalKeys":0,"Block":2,"Trial":93,"Valence":"Lose","Action":"No-Go","Robot":4,"trial_type":"pit-trial","trial_index":107,"time_elapsed":454971,"internal_node_id":"0.0-107.0"},{"Rune":"03","Correct":32,"Choice":-1,"RT":-1,"Accuracy":0,"Sham":0,"Outcome":"+0","Keys":[847.8650000179186],"TotalKeys":1,"Block":2,"Trial":94,"Valence":"Win","Action":"Go","Robot":1,"trial_type":"pit-trial","trial_index":108,"time_elapsed":458977,"internal_node_id":"0.0-108.0"},{"Rune":"06","Correct":32,"Choice":-1,"RT":-1,"Accuracy":0,"Sham":0,"Outcome":"-10","Keys":[1111.4250000100583],"TotalKeys":1,"Block":2,"Trial":95,"Valence":"Lose","Action":"Go","Robot":3,"trial_type":"pit-trial","trial_index":109,"time_elapsed":462983,"internal_node_id":"0.0-109.0"},{"Rune":"05","Correct":-1,"Choice":32,"RT":127.06500000786036,"Accuracy":0,"Sham":1,"Outcome":"+10","Keys":[1627.779999980703],"TotalKeys":1,"Block":2,"Trial":96,"Valence":"Win","Action":"No-Go","Robot":2,"trial_type":"pit-trial","trial_index":110,"time_elapsed":465617,"internal_node_id":"0.0-110.0"},{"Rune":"04","Correct":-1,"Choice":32,"RT":835.4750000289641,"Accuracy":0,"Sham":1,"Outcome":"+0","Keys":[460.28499997919425,2339.884999964852],"TotalKeys":2,"Block":2,"Trial":97,"Valence":"Lose","Action":"No-Go","Robot":4,"trial_type":"pit-trial","trial_index":111,"time_elapsed":468965,"internal_node_id":"0.0-111.0"},{"Rune":"03","Correct":32,"Choice":32,"RT":656.4749999670312,"Accuracy":1,"Sham":0,"Outcome":"+10","Keys":[2157.004999986384],"TotalKeys":1,"Block":2,"Trial":98,"Valence":"Win","Action":"Go","Robot":1,"trial_type":"pit-trial","trial_index":112,"time_elapsed":472129,"internal_node_id":"0.0-112.0"},{"Rune":"06","Correct":32,"Choice":-1,"RT":-1,"Accuracy":0,"Sham":0,"Outcome":"-10","Keys":[],"TotalKeys":0,"Block":2,"Trial":99,"Valence":"Lose","Action":"Go","Robot":3,"trial_type":"pit-trial","trial_index":113,"time_elapsed":476140,"internal_node_id":"0.0-113.0"},{"Rune":"05","Correct":-1,"Choice":-1,"RT":-1,"Accuracy":1,"Sham":0,"Outcome":"+10","Keys":[769.4200000260025],"TotalKeys":1,"Block":2,"Trial":100,"Valence":"Win","Action":"No-Go","Robot":2,"trial_type":"pit-trial","trial_index":114,"time_elapsed":480149,"internal_node_id":"0.0-114.0"},{"Rune":"04","Correct":-1,"Choice":-1,"RT":-1,"Accuracy":1,"Sham":0,"Outcome":"+0","Keys":[],"TotalKeys":0,"Block":2,"Trial":101,"Valence":"Lose","Action":"No-Go","Robot":4,"trial_type":"pit-trial","trial_index":115,"time_elapsed":484160,"internal_node_id":"0.0-115.0"},{"Rune":"06","Correct":32,"Choice":32,"RT":110.61500001233071,"Accuracy":1,"Sham":0,"Outcome":"+0","Keys":[1611.124999995809],"TotalKeys":1,"Block":2,"Trial":102,"Valence":"Lose","Action":"Go","Robot":3,"trial_type":"pit-trial","trial_index":116,"time_elapsed":486783,"internal_node_id":"0.0-116.0"},{"Rune":"03","Correct":32,"Choice":-1,"RT":-1,"Accuracy":0,"Sham":1,"Outcome":"+10","Keys":[],"TotalKeys":0,"Block":2,"Trial":103,"Valence":"Win","Action":"Go","Robot":1,"trial_type":"pit-trial","trial_index":117,"time_elapsed":490791,"internal_node_id":"0.0-117.0"},{"Rune":"05","Correct":-1,"Choice":-1,"RT":-1,"Accuracy":1,"Sham":1,"Outcome":"+0","Keys":[],"TotalKeys":0,"Block":2,"Trial":104,"Valence":"Win","Action":"No-Go","Robot":2,"trial_type":"pit-trial","trial_index":118,"time_elapsed":494796,"internal_node_id":"0.0-118.0"},{"Rune":"06","Correct":32,"Choice":-1,"RT":-1,"Accuracy":0,"Sham":0,"Outcome":"-10","Keys":[96.58999997191131],"TotalKeys":1,"Block":2,"Trial":105,"Valence":"Lose","Action":"Go","Robot":3,"trial_type":"pit-trial","trial_index":119,"time_elapsed":498802,"internal_node_id":"0.0-119.0"},{"Rune":"03","Correct":32,"Choice":32,"RT":1049.9750000308268,"Accuracy":1,"Sham":0,"Outcome":"+10","Keys":[2550.7199999992736],"TotalKeys":1,"Block":2,"Trial":106,"Valence":"Win","Action":"Go","Robot":1,"trial_type":"pit-trial","trial_index":120,"time_elapsed":502358,"internal_node_id":"0.0-120.0"},{"Rune":"05","Correct":-1,"Choice":-1,"RT":-1,"Accuracy":1,"Sham":0,"Outcome":"+10","Keys":[250.99500000942498,3591.2349999998696],"TotalKeys":2,"Block":2,"Trial":107,"Valence":"Win","Action":"No-Go","Robot":2,"trial_type":"pit-trial","trial_index":121,"time_elapsed":506368,"internal_node_id":"0.0-121.0"},{"Rune":"04","Correct":-1,"Choice":-1,"RT":-1,"Accuracy":1,"Sham":0,"Outcome":"+0","Keys":[],"TotalKeys":0,"Block":2,"Trial":108,"Valence":"Lose","Action":"No-Go","Robot":4,"trial_type":"pit-trial","trial_index":122,"time_elapsed":510377,"internal_node_id":"0.0-122.0"},{"Rune":"05","Correct":-1,"Choice":32,"RT":313.65000002551824,"Accuracy":0,"Sham":0,"Outcome":"+0","Keys":[1479.680000047665,1813.7050000368617],"TotalKeys":2,"Block":2,"Trial":109,"Valence":"Win","Action":"No-Go","Robot":2,"trial_type":"pit-trial","trial_index":123,"time_elapsed":513196,"internal_node_id":"0.0-123.0"},{"Rune":"04","Correct":-1,"Choice":-1,"RT":-1,"Accuracy":1,"Sham":0,"Outcome":"+0","Keys":[1491.6949999751523],"TotalKeys":1,"Block":2,"Trial":110,"Valence":"Lose","Action":"No-Go","Robot":4,"trial_type":"pit-trial","trial_index":124,"time_elapsed":517203,"internal_node_id":"0.0-124.0"},{"Rune":"03","Correct":32,"Choice":-1,"RT":-1,"Accuracy":0,"Sham":0,"Outcome":"+0","Keys":[],"TotalKeys":0,"Block":2,"Trial":111,"Valence":"Win","Action":"Go","Robot":1,"trial_type":"pit-trial","trial_index":125,"time_elapsed":521210,"internal_node_id":"0.0-125.0"},{"Rune":"06","Correct":32,"Choice":-1,"RT":-1,"Accuracy":0,"Sham":0,"Outcome":"-10","Keys":[1022.1350000356324],"TotalKeys":1,"Block":2,"Trial":112,"Valence":"Lose","Action":"Go","Robot":3,"trial_type":"pit-trial","trial_index":126,"time_elapsed":525218,"internal_node_id":"0.0-126.0"},{"Rune":"05","Correct":-1,"Choice":32,"RT":243.04000003030524,"Accuracy":0,"Sham":0,"Outcome":"+0","Keys":[245.48000004142523,1743.7400000053458],"TotalKeys":2,"Block":2,"Trial":113,"Valence":"Win","Action":"No-Go","Robot":2,"trial_type":"pit-trial","trial_index":127,"time_elapsed":527969,"internal_node_id":"0.0-127.0"},{"Rune":"04","Correct":-1,"Choice":32,"RT":625.1650000340305,"Accuracy":0,"Sham":0,"Outcome":"-10","Keys":[2125.560000014957],"TotalKeys":1,"Block":2,"Trial":114,"Valence":"Lose","Action":"No-Go","Robot":4,"trial_type":"pit-trial","trial_index":128,"time_elapsed":531102,"internal_node_id":"0.0-128.0"},{"Rune":"06","Correct":32,"Choice":-1,"RT":-1,"Accuracy":0,"Sham":1,"Outcome":"+0","Keys":[1020.0599999516271],"TotalKeys":1,"Block":2,"Trial":115,"Valence":"Lose","Action":"Go","Robot":3,"trial_type":"pit-trial","trial_index":129,"time_elapsed":535109,"internal_node_id":"0.0-129.0"},{"Rune":"03","Correct":32,"Choice":32,"RT":612.0299999602139,"Accuracy":1,"Sham":0,"Outcome":"+10","Keys":[53.8500000257045,2113.3499999996275],"TotalKeys":2,"Block":2,"Trial":116,"Valence":"Win","Action":"Go","Robot":1,"trial_type":"pit-trial","trial_index":130,"time_elapsed":538230,"internal_node_id":"0.0-130.0"},{"Rune":"04","Correct":-1,"Choice":-1,"RT":-1,"Accuracy":1,"Sham":1,"Outcome":"-10","Keys":[1169.9749999679625],"TotalKeys":1,"Block":2,"Trial":117,"Valence":"Lose","Action":"No-Go","Robot":4,"trial_type":"pit-trial","trial_index":131,"time_elapsed":542237,"internal_node_id":"0.0-131.0"},{"Rune":"06","Correct":32,"Choice":-1,"RT":-1,"Accuracy":0,"Sham":0,"Outcome":"-10","Keys":[],"TotalKeys":0,"Block":2,"Trial":118,"Valence":"Lose","Action":"Go","Robot":3,"trial_type":"pit-trial","trial_index":132,"time_elapsed":546244,"internal_node_id":"0.0-132.0"},{"Rune":"05","Correct":-1,"Choice":32,"RT":883.9549999684095,"Accuracy":0,"Sham":0,"Outcome":"+0","Keys":[277.48999994946644,2384.9049999844283],"TotalKeys":2,"Block":2,"Trial":119,"Valence":"Win","Action":"No-Go","Robot":2,"trial_type":"pit-trial","trial_index":133,"time_elapsed":549635,"internal_node_id":"0.0-133.0"},{"Rune":"03","Correct":32,"Choice":32,"RT":402.1649999776855,"Accuracy":1,"Sham":0,"Outcome":"+10","Keys":[1902.8099999995902],"TotalKeys":1,"Block":2,"Trial":120,"Valence":"Win","Action":"Go","Robot":1,"trial_type":"pit-trial","trial_index":134,"time_elapsed":552544,"internal_node_id":"0.0-134.0"},{"Rune":"05","Correct":-1,"Choice":32,"RT":23.41499994508922,"Accuracy":0,"Sham":0,"Outcome":"+0","Keys":[1524.344999983441],"TotalKeys":1,"Block":2,"Trial":121,"Valence":"Win","Action":"No-Go","Robot":2,"trial_type":"pit-trial","trial_index":135,"time_elapsed":555074,"internal_node_id":"0.0-135.0"},{"Rune":"04","Correct":-1,"Choice":32,"RT":1047.5849999929778,"Accuracy":0,"Sham":0,"Outcome":"-10","Keys":[2548.4299999661744],"TotalKeys":1,"Block":2,"Trial":122,"Valence":"Lose","Action":"No-Go","Robot":4,"trial_type":"pit-trial","trial_index":136,"time_elapsed":558634,"internal_node_id":"0.0-136.0"},{"Rune":"06","Correct":32,"Choice":-1,"RT":-1,"Accuracy":0,"Sham":0,"Outcome":"-10","Keys":[],"TotalKeys":0,"Block":2,"Trial":123,"Valence":"Lose","Action":"Go","Robot":3,"trial_type":"pit-trial","trial_index":137,"time_elapsed":562640,"internal_node_id":"0.0-137.0"},{"Rune":"03","Correct":32,"Choice":-1,"RT":-1,"Accuracy":0,"Sham":1,"Outcome":"+10","Keys":[3971.3099999935366],"TotalKeys":1,"Block":2,"Trial":124,"Valence":"Win","Action":"Go","Robot":1,"trial_type":"pit-trial","trial_index":138,"time_elapsed":566646,"internal_node_id":"0.0-138.0"},{"Rune":"06","Correct":32,"Choice":-1,"RT":-1,"Accuracy":0,"Sham":1,"Outcome":"+0","Keys":[],"TotalKeys":0,"Block":2,"Trial":125,"Valence":"Lose","Action":"Go","Robot":3,"trial_type":"pit-trial","trial_index":139,"time_elapsed":570652,"internal_node_id":"0.0-139.0"},{"Rune":"04","Correct":-1,"Choice":-1,"RT":-1,"Accuracy":1,"Sham":0,"Outcome":"+0","Keys":[],"TotalKeys":0,"Block":2,"Trial":126,"Valence":"Lose","Action":"No-Go","Robot":4,"trial_type":"pit-trial","trial_index":140,"time_elapsed":574658,"internal_node_id":"0.0-140.0"},{"Rune":"05","Correct":-1,"Choice":-1,"RT":-1,"Accuracy":1,"Sham":0,"Outcome":"+10","Keys":[3189.8400000063702],"TotalKeys":1,"Block":2,"Trial":127,"Valence":"Win","Action":"No-Go","Robot":2,"trial_type":"pit-trial","trial_index":141,"time_elapsed":578663,"internal_node_id":"0.0-141.0"},{"Rune":"03","Correct":32,"Choice":32,"RT":88.89499999349937,"Accuracy":1,"Sham":0,"Outcome":"+10","Keys":[400.3900000243448,1590.6400000094436],"TotalKeys":2,"Block":2,"Trial":128,"Valence":"Win","Action":"Go","Robot":1,"trial_type":"pit-trial","trial_index":142,"time_elapsed":581259,"internal_node_id":"0.0-142.0"},{"Rune":"04","Correct":-1,"Choice":-1,"RT":-1,"Accuracy":1,"Sham":0,"Outcome":"+0","Keys":[],"TotalKeys":0,"Block":2,"Trial":129,"Valence":"Lose","Action":"No-Go","Robot":4,"trial_type":"pit-trial","trial_index":143,"time_elapsed":585265,"internal_node_id":"0.0-143.0"},{"Rune":"03","Correct":32,"Choice":32,"RT":1302.8400000184774,"Accuracy":1,"Sham":0,"Outcome":"+10","Keys":[2803.3249999862164],"TotalKeys":1,"Block":2,"Trial":130,"Valence":"Win","Action":"Go","Robot":1,"trial_type":"pit-trial","trial_index":144,"time_elapsed":589075,"internal_node_id":"0.0-144.0"},{"Rune":"06","Correct":32,"Choice":32,"RT":501.9899999606423,"Accuracy":1,"Sham":0,"Outcome":"+0","Keys":[2002.3499999660999],"TotalKeys":1,"Block":2,"Trial":131,"Valence":"Lose","Action":"Go","Robot":3,"trial_type":"pit-trial","trial_index":145,"time_elapsed":592083,"internal_node_id":"0.0-145.0"},{"Rune":"05","Correct":-1,"Choice":32,"RT":717.1649999800138,"Accuracy":0,"Sham":0,"Outcome":"+0","Keys":[122.77000001631677,2217.880000011064],"TotalKeys":2,"Block":2,"Trial":132,"Valence":"Win","Action":"No-Go","Robot":2,"trial_type":"pit-trial","trial_index":146,"time_elapsed":595306,"internal_node_id":"0.0-146.0"},{"Rune":"04","Correct":-1,"Choice":32,"RT":1412.415000027977,"Accuracy":0,"Sham":0,"Outcome":"-10","Keys":[1127.2449999814853,2912.624999997206],"TotalKeys":2,"Block":2,"Trial":133,"Valence":"Lose","Action":"No-Go","Robot":4,"trial_type":"pit-trial","trial_index":147,"time_elapsed":599224,"internal_node_id":"0.0-147.0"},{"Rune":"03","Correct":32,"Choice":32,"RT":29.8099999781698,"Accuracy":1,"Sham":0,"Outcome":"+10","Keys":[1529.9399999785237,1832.6599999563769,2053.7749999784864],"TotalKeys":3,"Block":2,"Trial":134,"Valence":"Win","Action":"Go","Robot":1,"trial_type":"pit-trial","trial_index":148,"time_elapsed":601759,"internal_node_id":"0.0-148.0"},{"Rune":"06","Correct":32,"Choice":-1,"RT":-1,"Accuracy":0,"Sham":0,"Outcome":"-10","Keys":[292.5999999861233],"TotalKeys":1,"Block":2,"Trial":135,"Valence":"Lose","Action":"Go","Robot":3,"trial_type":"pit-trial","trial_index":149,"time_elapsed":605769,"internal_node_id":"0.0-149.0"},{"Rune":"05","Correct":-1,"Choice":32,"RT":549.2400000221096,"Accuracy":0,"Sham":0,"Outcome":"+0","Keys":[2049.6299999649636],"TotalKeys":1,"Block":2,"Trial":136,"Valence":"Win","Action":"No-Go","Robot":2,"trial_type":"pit-trial","trial_index":150,"time_elapsed":608826,"internal_node_id":"0.0-150.0"},{"Rune":"04","Correct":-1,"Choice":-1,"RT":-1,"Accuracy":1,"Sham":1,"Outcome":"-10","Keys":[3794.7000000276603],"TotalKeys":1,"Block":2,"Trial":137,"Valence":"Lose","Action":"No-Go","Robot":4,"trial_type":"pit-trial","trial_index":151,"time_elapsed":612932,"internal_node_id":"0.0-151.0"},{"Rune":"03","Correct":32,"Choice":-1,"RT":-1,"Accuracy":0,"Sham":0,"Outcome":"+0","Keys":[],"TotalKeys":0,"Block":2,"Trial":138,"Valence":"Win","Action":"Go","Robot":1,"trial_type":"pit-trial","trial_index":152,"time_elapsed":616939,"internal_node_id":"0.0-152.0"},{"Rune":"06","Correct":32,"Choice":-1,"RT":-1,"Accuracy":0,"Sham":0,"Outcome":"-10","Keys":[130.52999996580184],"TotalKeys":1,"Block":2,"Trial":139,"Valence":"Lose","Action":"Go","Robot":3,"trial_type":"pit-trial","trial_index":153,"time_elapsed":620949,"internal_node_id":"0.0-153.0"},{"Rune":"05","Correct":-1,"Choice":-1,"RT":-1,"Accuracy":1,"Sham":1,"Outcome":"+0","Keys":[],"TotalKeys":0,"Block":2,"Trial":140,"Valence":"Win","Action":"No-Go","Robot":2,"trial_type":"pit-trial","trial_index":154,"time_elapsed":624954,"internal_node_id":"0.0-154.0"},{"Rune":"05","Correct":-1,"Choice":-1,"RT":-1,"Accuracy":1,"Sham":1,"Outcome":"+0","Keys":[],"TotalKeys":0,"Block":2,"Trial":141,"Valence":"Win","Action":"No-Go","Robot":2,"trial_type":"pit-trial","trial_index":155,"time_elapsed":628962,"internal_node_id":"0.0-155.0"},{"Rune":"06","Correct":32,"Choice":-1,"RT":-1,"Accuracy":0,"Sham":0,"Outcome":"-10","Keys":[282.3999999673106,3753.9249999681488],"TotalKeys":2,"Block":2,"Trial":142,"Valence":"Lose","Action":"Go","Robot":3,"trial_type":"pit-trial","trial_index":156,"time_elapsed":632967,"internal_node_id":"0.0-156.0"},{"Rune":"03","Correct":32,"Choice":-1,"RT":-1,"Accuracy":0,"Sham":0,"Outcome":"+0","Keys":[],"TotalKeys":0,"Block":2,"Trial":143,"Valence":"Win","Action":"Go","Robot":1,"trial_type":"pit-trial","trial_index":157,"time_elapsed":636975,"internal_node_id":"0.0-157.0"},{"Rune":"04","Correct":-1,"Choice":-1,"RT":-1,"Accuracy":1,"Sham":0,"Outcome":"+0","Keys":[651.2750000110827,3441.1800000234507],"TotalKeys":2,"Block":2,"Trial":144,"Valence":"Lose","Action":"No-Go","Robot":4,"trial_type":"pit-trial","trial_index":158,"time_elapsed":640981,"internal_node_id":"0.0-158.0"},{"Rune":"04","Correct":-1,"Choice":-1,"RT":-1,"Accuracy":1,"Sham":0,"Outcome":"+0","Keys":[],"TotalKeys":0,"Block":2,"Trial":145,"Valence":"Lose","Action":"No-Go","Robot":4,"trial_type":"pit-trial","trial_index":159,"time_elapsed":644989,"internal_node_id":"0.0-159.0"},{"Rune":"03","Correct":32,"Choice":-1,"RT":-1,"Accuracy":0,"Sham":0,"Outcome":"+0","Keys":[167.17500000959262],"TotalKeys":1,"Block":2,"Trial":146,"Valence":"Win","Action":"Go","Robot":1,"trial_type":"pit-trial","trial_index":160,"time_elapsed":648995,"internal_node_id":"0.0-160.0"},{"Rune":"06","Correct":32,"Choice":-1,"RT":-1,"Accuracy":0,"Sham":0,"Outcome":"-10","Keys":[],"TotalKeys":0,"Block":2,"Trial":147,"Valence":"Lose","Action":"Go","Robot":3,"trial_type":"pit-trial","trial_index":161,"time_elapsed":653002,"internal_node_id":"0.0-161.0"},{"Rune":"05","Correct":-1,"Choice":-1,"RT":-1,"Accuracy":1,"Sham":0,"Outcome":"+10","Keys":[4.365000000689179],"TotalKeys":1,"Block":2,"Trial":148,"Valence":"Win","Action":"No-Go","Robot":2,"trial_type":"pit-trial","trial_index":162,"time_elapsed":657013,"internal_node_id":"0.0-162.0"},{"Rune":"05","Correct":-1,"Choice":-1,"RT":-1,"Accuracy":1,"Sham":0,"Outcome":"+10","Keys":[],"TotalKeys":0,"Block":2,"Trial":149,"Valence":"Win","Action":"No-Go","Robot":2,"trial_type":"pit-trial","trial_index":163,"time_elapsed":661021,"internal_node_id":"0.0-163.0"},{"Rune":"04","Correct":-1,"Choice":-1,"RT":-1,"Accuracy":1,"Sham":0,"Outcome":"+0","Keys":[362.2700000414625,3725.52000003634],"TotalKeys":2,"Block":2,"Trial":150,"Valence":"Lose","Action":"No-Go","Robot":4,"trial_type":"pit-trial","trial_index":164,"time_elapsed":665028,"internal_node_id":"0.0-164.0"},{"Rune":"06","Correct":32,"Choice":-1,"RT":-1,"Accuracy":0,"Sham":0,"Outcome":"-10","Keys":[3478.545000019949],"TotalKeys":1,"Block":2,"Trial":151,"Valence":"Lose","Action":"Go","Robot":3,"trial_type":"pit-trial","trial_index":165,"time_elapsed":669035,"internal_node_id":"0.0-165.0"},{"Rune":"03","Correct":32,"Choice":-1,"RT":-1,"Accuracy":0,"Sham":0,"Outcome":"+0","Keys":[],"TotalKeys":0,"Block":2,"Trial":152,"Valence":"Win","Action":"Go","Robot":1,"trial_type":"pit-trial","trial_index":166,"time_elapsed":673040,"internal_node_id":"0.0-166.0"},{"Rune":"03","Correct":32,"Choice":32,"RT":1320.5099999904633,"Accuracy":1,"Sham":0,"Outcome":"+10","Keys":[2822.010000003502],"TotalKeys":1,"Block":2,"Trial":153,"Valence":"Win","Action":"Go","Robot":1,"trial_type":"pit-trial","trial_index":167,"time_elapsed":676868,"internal_node_id":"0.0-167.0"},{"Rune":"04","Correct":-1,"Choice":32,"RT":566.5849999641068,"Accuracy":0,"Sham":0,"Outcome":"-10","Keys":[2083.775000006426],"TotalKeys":1,"Block":2,"Trial":154,"Valence":"Lose","Action":"No-Go","Robot":4,"trial_type":"pit-trial","trial_index":168,"time_elapsed":679958,"internal_node_id":"0.0-168.0"},{"Rune":"06","Correct":32,"Choice":-1,"RT":-1,"Accuracy":0,"Sham":0,"Outcome":"-10","Keys":[3089.975000009872],"TotalKeys":1,"Block":2,"Trial":155,"Valence":"Lose","Action":"Go","Robot":3,"trial_type":"pit-trial","trial_index":169,"time_elapsed":683964,"internal_node_id":"0.0-169.0"},{"Rune":"05","Correct":-1,"Choice":-1,"RT":-1,"Accuracy":1,"Sham":0,"Outcome":"+10","Keys":[],"TotalKeys":0,"Block":2,"Trial":156,"Valence":"Win","Action":"No-Go","Robot":2,"trial_type":"pit-trial","trial_index":170,"time_elapsed":687970,"internal_node_id":"0.0-170.0"},{"Rune":"06","Correct":32,"Choice":32,"RT":672.309999994468,"Accuracy":1,"Sham":1,"Outcome":"-10","Keys":[2174.2150000063702],"TotalKeys":1,"Block":2,"Trial":157,"Valence":"Lose","Action":"Go","Robot":3,"trial_type":"pit-trial","trial_index":171,"time_elapsed":691151,"internal_node_id":"0.0-171.0"},{"Rune":"04","Correct":-1,"Choice":-1,"RT":-1,"Accuracy":1,"Sham":1,"Outcome":"-10","Keys":[],"TotalKeys":0,"Block":2,"Trial":158,"Valence":"Lose","Action":"No-Go","Robot":4,"trial_type":"pit-trial","trial_index":172,"time_elapsed":695163,"internal_node_id":"0.0-172.0"},{"Rune":"05","Correct":-1,"Choice":32,"RT":483.23499999241903,"Accuracy":0,"Sham":0,"Outcome":"+0","Keys":[817.5949999713339,1983.5299999685958],"TotalKeys":2,"Block":2,"Trial":159,"Valence":"Win","Action":"No-Go","Robot":2,"trial_type":"pit-trial","trial_index":173,"time_elapsed":698153,"internal_node_id":"0.0-173.0"},{"Rune":"03","Correct":32,"Choice":-1,"RT":-1,"Accuracy":0,"Sham":1,"Outcome":"+10","Keys":[],"TotalKeys":0,"Block":2,"Trial":160,"Valence":"Win","Action":"Go","Robot":1,"trial_type":"pit-trial","trial_index":174,"time_elapsed":702161,"internal_node_id":"0.0-174.0"},{"rt":11490.13999995077,"demographics":{"age":"32","gender-categorical":"Female","ethnicity":"Not Hispanic or Latino","race":"White","english":"Yes","fluency":"Very well"},"trial_type":"survey-demo","trial_index":175,"time_elapsed":713661,"internal_node_id":"0.0-175.0"},{"rt":9632.05499999458,"debriefgraphics":{"difficulty":"4","fun":"4","clarity":"4","strategy":"none","feedback":""},"trial_type":"survey-debrief","trial_index":176,"time_elapsed":723303,"internal_node_id":"0.0-176.0","interactions":"[{\"event\":\"blur\",\"trial\":0,\"time\":0},{\"event\":\"focus\",\"trial\":0,\"time\":3579},{\"event\":\"blur\",\"trial\":10,\"time\":43320},{\"event\":\"focus\",\"trial\":10,\"time\":66287},{\"event\":\"blur\",\"trial\":10,\"time\":69131},{\"event\":\"focus\",\"trial\":10,\"time\":69435},{\"event\":\"blur\",\"trial\":10,\"time\":70866},{\"event\":\"focus\",\"trial\":10,\"time\":73522},{\"event\":\"blur\",\"trial\":30,\"time\":164325},{\"event\":\"focus\",\"trial\":31,\"time\":168184},{\"event\":\"blur\",\"trial\":32,\"time\":173251},{\"event\":\"focus\",\"trial\":33,\"time\":174552},{\"event\":\"blur\",\"trial\":33,\"time\":176336},{\"event\":\"focus\",\"trial\":53,\"time\":257539},{\"event\":\"blur\",\"trial\":151,\"time\":608963},{\"event\":\"focus\",\"trial\":151,\"time\":611931},{\"event\":\"blur\",\"trial\":152,\"time\":613549},{\"event\":\"focus\",\"trial\":152,\"time\":614551}]"}]