[{"view_history":"[{\"page_index\":0,\"viewing_time\":2148.8900000113063},{\"page_index\":1,\"viewing_time\":42473.010000016075},{\"page_index\":2,\"viewing_time\":6765.565000008792},{\"page_index\":3,\"viewing_time\":15780.120000010356},{\"page_index\":4,\"viewing_time\":6907.5249999878}]","rt":74075.91000001412,"trial_type":"pit-instructions","trial_index":0,"time_elapsed":74077,"internal_node_id":"0.0-0.0"},{"Rune":"01","Correct":32,"Choice":32,"RT":97.73500001756474,"Accuracy":1,"Sham":0,"Outcome":"+10","Keys":[1598.6400000401773],"TotalKeys":1,"trial_type":"pit-trial","trial_index":1,"time_elapsed":76694,"internal_node_id":"0.0-1.0"},{"Rune":"01","Correct":32,"Choice":32,"RT":540.7899999991059,"Accuracy":1,"Sham":0,"Outcome":"+10","Keys":[2041.1399999866262],"TotalKeys":1,"trial_type":"pit-trial","trial_index":2,"time_elapsed":79755,"internal_node_id":"0.0-2.0"},{"Rune":"01","Correct":32,"Choice":32,"RT":416.6099999565631,"Accuracy":1,"Sham":0,"Outcome":"+10","Keys":[1916.7899999883957],"TotalKeys":1,"trial_type":"pit-trial","trial_index":3,"time_elapsed":82691,"internal_node_id":"0.0-3.0"},{"Rune":"01","Correct":32,"Choice":32,"RT":413.00499998033047,"Accuracy":1,"Sham":0,"Outcome":"+10","Keys":[1914.9199999519624],"TotalKeys":1,"trial_type":"pit-trial","trial_index":4,"time_elapsed":85627,"internal_node_id":"0.0-4.0"},{"view_history":"[{\"page_index\":0,\"viewing_time\":5067.154999997001}]","rt":5067.429999995511,"trial_type":"pit-instructions","trial_index":5,"time_elapsed":90711,"internal_node_id":"0.0-5.0"},{"Rune":"02","Correct":-1,"Choice":-1,"RT":-1,"Accuracy":1,"Sham":0,"Outcome":"+10","Keys":[],"TotalKeys":0,"trial_type":"pit-trial","trial_index":6,"time_elapsed":94735,"internal_node_id":"0.0-6.0"},{"Rune":"02","Correct":-1,"Choice":-1,"RT":-1,"Accuracy":1,"Sham":0,"Outcome":"+10","Keys":[],"TotalKeys":0,"trial_type":"pit-trial","trial_index":7,"time_elapsed":98757,"internal_node_id":"0.0-7.0"},{"Rune":"02","Correct":-1,"Choice":-1,"RT":-1,"Accuracy":1,"Sham":0,"Outcome":"+10","Keys":[],"TotalKeys":0,"trial_type":"pit-trial","trial_index":8,"time_elapsed":102784,"internal_node_id":"0.0-8.0"},{"Rune":"02","Correct":-1,"Choice":-1,"RT":-1,"Accuracy":1,"Sham":0,"Outcome":"+10","Keys":[],"TotalKeys":0,"trial_type":"pit-trial","trial_index":9,"time_elapsed":106802,"internal_node_id":"0.0-9.0"},{"view_history":"[{\"page_index\":0,\"viewing_time\":3964.5149999996647},{\"page_index\":1,\"viewing_time\":4860.699999961071},{\"page_index\":2,\"viewing_time\":3771.3349999976344},{\"page_index\":3,\"viewing_time\":7267.7200000034645},{\"page_index\":4,\"viewing_time\":4148.715000017546},{\"page_index\":5,\"viewing_time\":4687.579999968875},{\"page_index\":6,\"viewing_time\":3742.5200000288896},{\"page_index\":7,\"viewing_time\":30833.259999984875}]","rt":63276.6249999986,"trial_type":"pit-instructions","trial_index":10,"time_elapsed":170094,"internal_node_id":"0.0-10.0"},{"rt":23797.35000000801,"responses":"{\"no-press\":\"Do nothing\",\"context-win\":\"+10\",\"context-lose\":\"+0\",\"feedback\":\"True\"}","errors":0,"trial_type":"pit-comprehension","trial_index":11,"time_elapsed":193909,"internal_node_id":"0.0-11.0"},{"view_history":"[{\"page_index\":0,\"viewing_time\":4914.8999999742955}]","rt":4915.19500000868,"trial_type":"pit-instructions","trial_index":12,"time_elapsed":198842,"internal_node_id":"0.0-12.0"},{"Rune":"06","Correct":-1,"Choice":32,"RT":362.31999995652586,"Accuracy":0,"Sham":0,"Outcome":"+0","Keys":[1862.410000001546],"TotalKeys":1,"Block":1,"Trial":1,"Valence":"Win","Action":"No-Go","Robot":2,"trial_type":"pit-trial","trial_index":13,"time_elapsed":201723,"internal_node_id":"0.0-13.0"},{"Rune":"03","Correct":32,"Choice":-1,"RT":-1,"Accuracy":0,"Sham":0,"Outcome":"-10","Keys":[],"TotalKeys":0,"Block":1,"Trial":2,"Valence":"Lose","Action":"Go","Robot":3,"trial_type":"pit-trial","trial_index":14,"time_elapsed":205747,"internal_node_id":"0.0-14.0"},{"Rune":"04","Correct":-1,"Choice":32,"RT":584.5800000242889,"Accuracy":0,"Sham":0,"Outcome":"-10","Keys":[2085.0700000301003],"TotalKeys":1,"Block":1,"Trial":3,"Valence":"Lose","Action":"No-Go","Robot":4,"trial_type":"pit-trial","trial_index":15,"time_elapsed":208851,"internal_node_id":"0.0-15.0"},{"Rune":"05","Correct":32,"Choice":32,"RT":317.7150000119582,"Accuracy":1,"Sham":0,"Outcome":"+10","Keys":[1820.8350000204518],"TotalKeys":1,"Block":1,"Trial":4,"Valence":"Win","Action":"Go","Robot":1,"trial_type":"pit-trial","trial_index":16,"time_elapsed":211692,"internal_node_id":"0.0-16.0"},{"Rune":"03","Correct":32,"Choice":32,"RT":1400.6550000049174,"Accuracy":1,"Sham":1,"Outcome":"-10","Keys":[2900.7850000052713],"TotalKeys":1,"Block":1,"Trial":5,"Valence":"Lose","Action":"Go","Robot":3,"trial_type":"pit-trial","trial_index":17,"time_elapsed":215614,"internal_node_id":"0.0-17.0"},{"Rune":"04","Correct":-1,"Choice":32,"RT":600.3050000290386,"Accuracy":0,"Sham":0,"Outcome":"-10","Keys":[2100.444999989122],"TotalKeys":1,"Block":1,"Trial":6,"Valence":"Lose","Action":"No-Go","Robot":4,"trial_type":"pit-trial","trial_index":18,"time_elapsed":218735,"internal_node_id":"0.0-18.0"},{"Rune":"05","Correct":32,"Choice":32,"RT":378.4400000004098,"Accuracy":1,"Sham":0,"Outcome":"+10","Keys":[1878.7049999809824],"TotalKeys":1,"Block":1,"Trial":7,"Valence":"Win","Action":"Go","Robot":1,"trial_type":"pit-trial","trial_index":19,"time_elapsed":221634,"internal_node_id":"0.0-19.0"},{"Rune":"06","Correct":-1,"Choice":32,"RT":582.9350000130944,"Accuracy":0,"Sham":0,"Outcome":"+0","Keys":[2083.2350000273436],"TotalKeys":1,"Block":1,"Trial":8,"Valence":"Win","Action":"No-Go","Robot":2,"trial_type":"pit-trial","trial_index":20,"time_elapsed":224738,"internal_node_id":"0.0-20.0"},{"Rune":"05","Correct":32,"Choice":32,"RT":658.5149999591522,"Accuracy":1,"Sham":0,"Outcome":"+10","Keys":[2158.6749999551103],"TotalKeys":1,"Block":1,"Trial":9,"Valence":"Win","Action":"Go","Robot":1,"trial_type":"pit-trial","trial_index":21,"time_elapsed":227915,"internal_node_id":"0.0-21.0"},{"Rune":"03","Correct":32,"Choice":-1,"RT":-1,"Accuracy":0,"Sham":0,"Outcome":"-10","Keys":[],"TotalKeys":0,"Block":1,"Trial":10,"Valence":"Lose","Action":"Go","Robot":3,"trial_type":"pit-trial","trial_index":22,"time_elapsed":231936,"internal_node_id":"0.0-22.0"},{"Rune":"06","Correct":-1,"Choice":32,"RT":618.8700000056997,"Accuracy":0,"Sham":0,"Outcome":"+0","Keys":[2120.0599999865517],"TotalKeys":1,"Block":1,"Trial":11,"Valence":"Win","Action":"No-Go","Robot":2,"trial_type":"pit-trial","trial_index":23,"time_elapsed":235076,"internal_node_id":"0.0-23.0"},{"Rune":"04","Correct":-1,"Choice":-1,"RT":-1,"Accuracy":1,"Sham":0,"Outcome":"+0","Keys":[],"TotalKeys":0,"Block":1,"Trial":12,"Valence":"Lose","Action":"No-Go","Robot":4,"trial_type":"pit-trial","trial_index":24,"time_elapsed":239095,"internal_node_id":"0.0-24.0"},{"Rune":"05","Correct":32,"Choice":32,"RT":538.3399999700487,"Accuracy":1,"Sham":0,"Outcome":"+10","Keys":[2039.264999970328],"TotalKeys":1,"Block":1,"Trial":13,"Valence":"Win","Action":"Go","Robot":1,"trial_type":"pit-trial","trial_index":25,"time_elapsed":242154,"internal_node_id":"0.0-25.0"},{"Rune":"06","Correct":-1,"Choice":32,"RT":487.51000000629574,"Accuracy":0,"Sham":0,"Outcome":"+0","Keys":[1987.5849999953061],"TotalKeys":1,"Block":1,"Trial":14,"Valence":"Win","Action":"No-Go","Robot":2,"trial_type":"pit-trial","trial_index":26,"time_elapsed":245163,"internal_node_id":"0.0-26.0"},{"Rune":"03","Correct":32,"Choice":32,"RT":570.7800000091083,"Accuracy":1,"Sham":0,"Outcome":"+0","Keys":[2072.6599999470636],"TotalKeys":1,"Block":1,"Trial":15,"Valence":"Lose","Action":"Go","Robot":3,"trial_type":"pit-trial","trial_index":27,"time_elapsed":248255,"internal_node_id":"0.0-27.0"},{"Rune":"04","Correct":-1,"Choice":-1,"RT":-1,"Accuracy":1,"Sham":1,"Outcome":"-10","Keys":[],"TotalKeys":0,"Block":1,"Trial":16,"Valence":"Lose","Action":"No-Go","Robot":4,"trial_type":"pit-trial","trial_index":28,"time_elapsed":252279,"internal_node_id":"0.0-28.0"},{"Rune":"05","Correct":32,"Choice":32,"RT":383.81499995011836,"Accuracy":1,"Sham":1,"Outcome":"+0","Keys":[1884.3449999694712],"TotalKeys":1,"Block":1,"Trial":17,"Valence":"Win","Action":"Go","Robot":1,"trial_type":"pit-trial","trial_index":29,"time_elapsed":255186,"internal_node_id":"0.0-29.0"},{"Rune":"03","Correct":32,"Choice":32,"RT":602.8250000090338,"Accuracy":1,"Sham":0,"Outcome":"+0","Keys":[2103.3450000104494],"TotalKeys":1,"Block":1,"Trial":18,"Valence":"Lose","Action":"Go","Robot":3,"trial_type":"pit-trial","trial_index":30,"time_elapsed":258307,"internal_node_id":"0.0-30.0"},{"Rune":"06","Correct":-1,"Choice":32,"RT":376.9650000031106,"Accuracy":0,"Sham":1,"Outcome":"+10","Keys":[1877.9450000147335],"TotalKeys":1,"Block":1,"Trial":19,"Valence":"Win","Action":"No-Go","Robot":2,"trial_type":"pit-trial","trial_index":31,"time_elapsed":261205,"internal_node_id":"0.0-31.0"},{"Rune":"04","Correct":-1,"Choice":32,"RT":654.9349999986589,"Accuracy":0,"Sham":0,"Outcome":"-10","Keys":[2155.0399999832734],"TotalKeys":1,"Block":1,"Trial":20,"Valence":"Lose","Action":"No-Go","Robot":4,"trial_type":"pit-trial","trial_index":32,"time_elapsed":264381,"internal_node_id":"0.0-32.0"},{"Rune":"04","Correct":-1,"Choice":-1,"RT":-1,"Accuracy":1,"Sham":0,"Outcome":"+0","Keys":[],"TotalKeys":0,"Block":1,"Trial":21,"Valence":"Lose","Action":"No-Go","Robot":4,"trial_type":"pit-trial","trial_index":33,"time_elapsed":268400,"internal_node_id":"0.0-33.0"},{"Rune":"06","Correct":-1,"Choice":32,"RT":396.92999998806044,"Accuracy":0,"Sham":0,"Outcome":"+0","Keys":[1897.3600000026636],"TotalKeys":1,"Block":1,"Trial":22,"Valence":"Win","Action":"No-Go","Robot":2,"trial_type":"pit-trial","trial_index":34,"time_elapsed":271319,"internal_node_id":"0.0-34.0"},{"Rune":"05","Correct":32,"Choice":32,"RT":384.25000000279397,"Accuracy":1,"Sham":0,"Outcome":"+10","Keys":[1885.6049999594688],"TotalKeys":1,"Block":1,"Trial":23,"Valence":"Win","Action":"Go","Robot":1,"trial_type":"pit-trial","trial_index":35,"time_elapsed":274226,"internal_node_id":"0.0-35.0"},{"Rune":"03","Correct":32,"Choice":32,"RT":473.969999991823,"Accuracy":1,"Sham":0,"Outcome":"+0","Keys":[1976.425000000745],"TotalKeys":1,"Block":1,"Trial":24,"Valence":"Lose","Action":"Go","Robot":3,"trial_type":"pit-trial","trial_index":36,"time_elapsed":277222,"internal_node_id":"0.0-36.0"},{"Rune":"04","Correct":-1,"Choice":-1,"RT":-1,"Accuracy":1,"Sham":0,"Outcome":"+0","Keys":[],"TotalKeys":0,"Block":1,"Trial":25,"Valence":"Lose","Action":"No-Go","Robot":4,"trial_type":"pit-trial","trial_index":37,"time_elapsed":281243,"internal_node_id":"0.0-37.0"},{"Rune":"05","Correct":32,"Choice":32,"RT":525.9300000034273,"Accuracy":1,"Sham":0,"Outcome":"+10","Keys":[2026.0800000396557],"TotalKeys":1,"Block":1,"Trial":26,"Valence":"Win","Action":"Go","Robot":1,"trial_type":"pit-trial","trial_index":38,"time_elapsed":284287,"internal_node_id":"0.0-38.0"},{"Rune":"03","Correct":32,"Choice":32,"RT":509.5850000507198,"Accuracy":1,"Sham":0,"Outcome":"+0","Keys":[2009.6850000554696],"TotalKeys":1,"Block":1,"Trial":27,"Valence":"Lose","Action":"Go","Robot":3,"trial_type":"pit-trial","trial_index":39,"time_elapsed":287319,"internal_node_id":"0.0-39.0"},{"Rune":"06","Correct":-1,"Choice":32,"RT":455.51500003784895,"Accuracy":0,"Sham":0,"Outcome":"+0","Keys":[1956.3300000154413],"TotalKeys":1,"Block":1,"Trial":28,"Valence":"Win","Action":"No-Go","Robot":2,"trial_type":"pit-trial","trial_index":40,"time_elapsed":290293,"internal_node_id":"0.0-40.0"},{"Rune":"03","Correct":32,"Choice":32,"RT":527.8500000131316,"Accuracy":1,"Sham":0,"Outcome":"+0","Keys":[2028.2650000299327],"TotalKeys":1,"Block":1,"Trial":29,"Valence":"Lose","Action":"Go","Robot":3,"trial_type":"pit-trial","trial_index":41,"time_elapsed":293339,"internal_node_id":"0.0-41.0"},{"Rune":"06","Correct":-1,"Choice":32,"RT":435.9650000114925,"Accuracy":0,"Sham":1,"Outcome":"+10","Keys":[1936.5450000041164],"TotalKeys":1,"Block":1,"Trial":30,"Valence":"Win","Action":"No-Go","Robot":2,"trial_type":"pit-trial","trial_index":42,"time_elapsed":296292,"internal_node_id":"0.0-42.0"},{"Rune":"05","Correct":32,"Choice":32,"RT":419.2100000218488,"Accuracy":1,"Sham":1,"Outcome":"+0","Keys":[1919.6099999826401],"TotalKeys":1,"Block":1,"Trial":31,"Valence":"Win","Action":"Go","Robot":1,"trial_type":"pit-trial","trial_index":43,"time_elapsed":299231,"internal_node_id":"0.0-43.0"},{"Rune":"04","Correct":-1,"Choice":-1,"RT":-1,"Accuracy":1,"Sham":0,"Outcome":"+0","Keys":[],"TotalKeys":0,"Block":1,"Trial":32,"Valence":"Lose","Action":"No-Go","Robot":4,"trial_type":"pit-trial","trial_index":44,"time_elapsed":303255,"internal_node_id":"0.0-44.0"},{"Rune":"04","Correct":-1,"Choice":-1,"RT":-1,"Accuracy":1,"Sham":0,"Outcome":"+0","Keys":[],"TotalKeys":0,"Block":1,"Trial":33,"Valence":"Lose","Action":"No-Go","Robot":4,"trial_type":"pit-trial","trial_index":45,"time_elapsed":307278,"internal_node_id":"0.0-45.0"},{"Rune":"06","Correct":-1,"Choice":32,"RT":416.92999994847924,"Accuracy":0,"Sham":0,"Outcome":"+0","Keys":[1917.1849999693222],"TotalKeys":1,"Block":1,"Trial":34,"Valence":"Win","Action":"No-Go","Robot":2,"trial_type":"pit-trial","trial_index":46,"time_elapsed":310215,"internal_node_id":"0.0-46.0"},{"Rune":"05","Correct":32,"Choice":32,"RT":352.9700000071898,"Accuracy":1,"Sham":0,"Outcome":"+10","Keys":[1853.3400000305846],"TotalKeys":1,"Block":1,"Trial":35,"Valence":"Win","Action":"Go","Robot":1,"trial_type":"pit-trial","trial_index":47,"time_elapsed":313087,"internal_node_id":"0.0-47.0"},{"Rune":"03","Correct":32,"Choice":32,"RT":568.6899999855086,"Accuracy":1,"Sham":1,"Outcome":"-10","Keys":[2068.72999999905],"TotalKeys":1,"Block":1,"Trial":36,"Valence":"Lose","Action":"Go","Robot":3,"trial_type":"pit-trial","trial_index":48,"time_elapsed":316177,"internal_node_id":"0.0-48.0"},{"Rune":"04","Correct":-1,"Choice":-1,"RT":-1,"Accuracy":1,"Sham":1,"Outcome":"-10","Keys":[],"TotalKeys":0,"Block":1,"Trial":37,"Valence":"Lose","Action":"No-Go","Robot":4,"trial_type":"pit-trial","trial_index":49,"time_elapsed":320194,"internal_node_id":"0.0-49.0"},{"Rune":"03","Correct":32,"Choice":32,"RT":504.58499998785555,"Accuracy":1,"Sham":0,"Outcome":"+0","Keys":[2005.094999971334],"TotalKeys":1,"Block":1,"Trial":38,"Valence":"Lose","Action":"Go","Robot":3,"trial_type":"pit-trial","trial_index":50,"time_elapsed":323219,"internal_node_id":"0.0-50.0"},{"Rune":"05","Correct":32,"Choice":32,"RT":434.84499998157844,"Accuracy":1,"Sham":0,"Outcome":"+10","Keys":[1936.4499999792315],"TotalKeys":1,"Block":1,"Trial":39,"Valence":"Win","Action":"Go","Robot":1,"trial_type":"pit-trial","trial_index":51,"time_elapsed":326176,"internal_node_id":"0.0-51.0"},{"Rune":"06","Correct":-1,"Choice":32,"RT":416.4149999851361,"Accuracy":0,"Sham":0,"Outcome":"+0","Keys":[1917.4350000103004],"TotalKeys":1,"Block":1,"Trial":40,"Valence":"Win","Action":"No-Go","Robot":2,"trial_type":"pit-trial","trial_index":52,"time_elapsed":329111,"internal_node_id":"0.0-52.0"},{"Rune":"03","Correct":32,"Choice":32,"RT":780.8949999744073,"Accuracy":1,"Sham":1,"Outcome":"-10","Keys":[2281.985000008717],"TotalKeys":1,"Block":1,"Trial":41,"Valence":"Lose","Action":"Go","Robot":3,"trial_type":"pit-trial","trial_index":53,"time_elapsed":332411,"internal_node_id":"0.0-53.0"},{"Rune":"06","Correct":-1,"Choice":32,"RT":358.26500004623085,"Accuracy":0,"Sham":0,"Outcome":"+0","Keys":[1858.814999985043],"TotalKeys":1,"Block":1,"Trial":42,"Valence":"Win","Action":"No-Go","Robot":2,"trial_type":"pit-trial","trial_index":54,"time_elapsed":335288,"internal_node_id":"0.0-54.0"},{"Rune":"04","Correct":-1,"Choice":-1,"RT":-1,"Accuracy":1,"Sham":0,"Outcome":"+0","Keys":[],"TotalKeys":0,"Block":1,"Trial":43,"Valence":"Lose","Action":"No-Go","Robot":4,"trial_type":"pit-trial","trial_index":55,"time_elapsed":339310,"internal_node_id":"0.0-55.0"},{"Rune":"05","Correct":32,"Choice":32,"RT":404.97999999206513,"Accuracy":1,"Sham":0,"Outcome":"+10","Keys":[1905.0849999766797],"TotalKeys":1,"Block":1,"Trial":44,"Valence":"Win","Action":"Go","Robot":1,"trial_type":"pit-trial","trial_index":56,"time_elapsed":342235,"internal_node_id":"0.0-56.0"},{"Rune":"04","Correct":-1,"Choice":-1,"RT":-1,"Accuracy":1,"Sham":0,"Outcome":"+0","Keys":[],"TotalKeys":0,"Block":1,"Trial":45,"Valence":"Lose","Action":"No-Go","Robot":4,"trial_type":"pit-trial","trial_index":57,"time_elapsed":346260,"internal_node_id":"0.0-57.0"},{"Rune":"06","Correct":-1,"Choice":32,"RT":332.1299999952316,"Accuracy":0,"Sham":1,"Outcome":"+10","Keys":[1832.3799999780022],"TotalKeys":1,"Block":1,"Trial":46,"Valence":"Win","Action":"No-Go","Robot":2,"trial_type":"pit-trial","trial_index":58,"time_elapsed":349111,"internal_node_id":"0.0-58.0"},{"Rune":"03","Correct":32,"Choice":32,"RT":866.0999999847263,"Accuracy":1,"Sham":0,"Outcome":"+0","Keys":[2366.3350000279024],"TotalKeys":1,"Block":1,"Trial":47,"Valence":"Lose","Action":"Go","Robot":3,"trial_type":"pit-trial","trial_index":59,"time_elapsed":352495,"internal_node_id":"0.0-59.0"},{"Rune":"05","Correct":32,"Choice":32,"RT":440.04499999573454,"Accuracy":1,"Sham":0,"Outcome":"+10","Keys":[1940.9049999667332],"TotalKeys":1,"Block":1,"Trial":48,"Valence":"Win","Action":"Go","Robot":1,"trial_type":"pit-trial","trial_index":60,"time_elapsed":355455,"internal_node_id":"0.0-60.0"},{"Rune":"04","Correct":-1,"Choice":-1,"RT":-1,"Accuracy":1,"Sham":0,"Outcome":"+0","Keys":[],"TotalKeys":0,"Block":1,"Trial":49,"Valence":"Lose","Action":"No-Go","Robot":4,"trial_type":"pit-trial","trial_index":61,"time_elapsed":359479,"internal_node_id":"0.0-61.0"},{"Rune":"05","Correct":32,"Choice":32,"RT":377.21499998588115,"Accuracy":1,"Sham":0,"Outcome":"+10","Keys":[1877.3050000309013],"TotalKeys":1,"Block":1,"Trial":50,"Valence":"Win","Action":"Go","Robot":1,"trial_type":"pit-trial","trial_index":62,"time_elapsed":362375,"internal_node_id":"0.0-62.0"},{"Rune":"06","Correct":-1,"Choice":32,"RT":415.9900000086054,"Accuracy":0,"Sham":0,"Outcome":"+0","Keys":[1917.0199999934994],"TotalKeys":1,"Block":1,"Trial":51,"Valence":"Win","Action":"No-Go","Robot":2,"trial_type":"pit-trial","trial_index":63,"time_elapsed":365311,"internal_node_id":"0.0-63.0"},{"Rune":"03","Correct":32,"Choice":32,"RT":490.08000001776963,"Accuracy":1,"Sham":0,"Outcome":"+0","Keys":[1990.2599999913946],"TotalKeys":1,"Block":1,"Trial":52,"Valence":"Lose","Action":"Go","Robot":3,"trial_type":"pit-trial","trial_index":64,"time_elapsed":368323,"internal_node_id":"0.0-64.0"},{"Rune":"06","Correct":-1,"Choice":32,"RT":363.454999984242,"Accuracy":0,"Sham":0,"Outcome":"+0","Keys":[1865.509999974165],"TotalKeys":1,"Block":1,"Trial":53,"Valence":"Win","Action":"No-Go","Robot":2,"trial_type":"pit-trial","trial_index":65,"time_elapsed":371207,"internal_node_id":"0.0-65.0"},{"Rune":"03","Correct":32,"Choice":32,"RT":576.0949999676086,"Accuracy":1,"Sham":0,"Outcome":"+0","Keys":[2076.394999981858],"TotalKeys":1,"Block":1,"Trial":54,"Valence":"Lose","Action":"Go","Robot":3,"trial_type":"pit-trial","trial_index":66,"time_elapsed":374301,"internal_node_id":"0.0-66.0"},{"Rune":"04","Correct":-1,"Choice":-1,"RT":-1,"Accuracy":1,"Sham":0,"Outcome":"+0","Keys":[],"TotalKeys":0,"Block":1,"Trial":55,"Valence":"Lose","Action":"No-Go","Robot":4,"trial_type":"pit-trial","trial_index":67,"time_elapsed":378323,"internal_node_id":"0.0-67.0"},{"Rune":"05","Correct":32,"Choice":32,"RT":343.07499998249114,"Accuracy":1,"Sham":0,"Outcome":"+10","Keys":[1843.590000004042],"TotalKeys":1,"Block":1,"Trial":56,"Valence":"Win","Action":"Go","Robot":1,"trial_type":"pit-trial","trial_index":68,"time_elapsed":381185,"internal_node_id":"0.0-68.0"},{"Rune":"05","Correct":32,"Choice":32,"RT":398.6199999926612,"Accuracy":1,"Sham":1,"Outcome":"+0","Keys":[1898.8349999999627],"TotalKeys":1,"Block":1,"Trial":57,"Valence":"Win","Action":"Go","Robot":1,"trial_type":"pit-trial","trial_index":69,"time_elapsed":384103,"internal_node_id":"0.0-69.0"},{"Rune":"03","Correct":32,"Choice":32,"RT":470.7900000503287,"Accuracy":1,"Sham":0,"Outcome":"+0","Keys":[1972.7750000311062],"TotalKeys":1,"Block":1,"Trial":58,"Valence":"Lose","Action":"Go","Robot":3,"trial_type":"pit-trial","trial_index":70,"time_elapsed":387094,"internal_node_id":"0.0-70.0"},{"Rune":"04","Correct":-1,"Choice":-1,"RT":-1,"Accuracy":1,"Sham":1,"Outcome":"-10","Keys":[],"TotalKeys":0,"Block":1,"Trial":59,"Valence":"Lose","Action":"No-Go","Robot":4,"trial_type":"pit-trial","trial_index":71,"time_elapsed":391119,"internal_node_id":"0.0-71.0"},{"Rune":"06","Correct":-1,"Choice":32,"RT":365.61999999685213,"Accuracy":0,"Sham":0,"Outcome":"+0","Keys":[1865.8200000063516],"TotalKeys":1,"Block":1,"Trial":60,"Valence":"Win","Action":"No-Go","Robot":2,"trial_type":"pit-trial","trial_index":72,"time_elapsed":394003,"internal_node_id":"0.0-72.0"},{"Rune":"06","Correct":-1,"Choice":32,"RT":290.1850000489503,"Accuracy":0,"Sham":0,"Outcome":"+0","Keys":[1790.6699999584816],"TotalKeys":1,"Block":1,"Trial":61,"Valence":"Win","Action":"No-Go","Robot":2,"trial_type":"pit-trial","trial_index":73,"time_elapsed":396811,"internal_node_id":"0.0-73.0"},{"Rune":"03","Correct":32,"Choice":32,"RT":538.5649999952875,"Accuracy":1,"Sham":0,"Outcome":"+0","Keys":[2038.8299999758601],"TotalKeys":1,"Block":1,"Trial":62,"Valence":"Lose","Action":"Go","Robot":3,"trial_type":"pit-trial","trial_index":74,"time_elapsed":399871,"internal_node_id":"0.0-74.0"},{"Rune":"04","Correct":-1,"Choice":-1,"RT":-1,"Accuracy":1,"Sham":0,"Outcome":"+0","Keys":[],"TotalKeys":0,"Block":1,"Trial":63,"Valence":"Lose","Action":"No-Go","Robot":4,"trial_type":"pit-trial","trial_index":75,"time_elapsed":403891,"internal_node_id":"0.0-75.0"},{"Rune":"05","Correct":32,"Choice":32,"RT":423.29999996582046,"Accuracy":1,"Sham":0,"Outcome":"+10","Keys":[1925.3199999802746],"TotalKeys":1,"Block":1,"Trial":64,"Valence":"Win","Action":"Go","Robot":1,"trial_type":"pit-trial","trial_index":76,"time_elapsed":406835,"internal_node_id":"0.0-76.0"},{"Rune":"06","Correct":-1,"Choice":32,"RT":396.4299999643117,"Accuracy":0,"Sham":0,"Outcome":"+0","Keys":[1897.9599999729544],"TotalKeys":1,"Block":1,"Trial":65,"Valence":"Win","Action":"No-Go","Robot":2,"trial_type":"pit-trial","trial_index":77,"time_elapsed":409755,"internal_node_id":"0.0-77.0"},{"Rune":"04","Correct":-1,"Choice":-1,"RT":-1,"Accuracy":1,"Sham":0,"Outcome":"+0","Keys":[],"TotalKeys":0,"Block":1,"Trial":66,"Valence":"Lose","Action":"No-Go","Robot":4,"trial_type":"pit-trial","trial_index":78,"time_elapsed":413780,"internal_node_id":"0.0-78.0"},{"Rune":"05","Correct":32,"Choice":32,"RT":400.1900000148453,"Accuracy":1,"Sham":1,"Outcome":"+0","Keys":[1901.899999997113],"TotalKeys":1,"Block":1,"Trial":67,"Valence":"Win","Action":"Go","Robot":1,"trial_type":"pit-trial","trial_index":79,"time_elapsed":416699,"internal_node_id":"0.0-79.0"},{"Rune":"03","Correct":32,"Choice":32,"RT":565.535000001546,"Accuracy":1,"Sham":0,"Outcome":"+0","Keys":[2067.559999995865],"TotalKeys":1,"Block":1,"Trial":68,"Valence":"Lose","Action":"Go","Robot":3,"trial_type":"pit-trial","trial_index":80,"time_elapsed":419787,"internal_node_id":"0.0-80.0"},{"Rune":"04","Correct":-1,"Choice":-1,"RT":-1,"Accuracy":1,"Sham":1,"Outcome":"-10","Keys":[],"TotalKeys":0,"Block":1,"Trial":69,"Valence":"Lose","Action":"No-Go","Robot":4,"trial_type":"pit-trial","trial_index":81,"time_elapsed":423807,"internal_node_id":"0.0-81.0"},{"Rune":"03","Correct":32,"Choice":32,"RT":426.610000024084,"Accuracy":1,"Sham":0,"Outcome":"+0","Keys":[1926.7000000108965],"TotalKeys":1,"Block":1,"Trial":70,"Valence":"Lose","Action":"Go","Robot":3,"trial_type":"pit-trial","trial_index":82,"time_elapsed":426755,"internal_node_id":"0.0-82.0"},{"Rune":"05","Correct":32,"Choice":32,"RT":354.3150000041351,"Accuracy":1,"Sham":0,"Outcome":"+10","Keys":[1854.4199999887496],"TotalKeys":1,"Block":1,"Trial":71,"Valence":"Win","Action":"Go","Robot":1,"trial_type":"pit-trial","trial_index":83,"time_elapsed":429630,"internal_node_id":"0.0-83.0"},{"Rune":"06","Correct":-1,"Choice":32,"RT":414.3199999816716,"Accuracy":0,"Sham":0,"Outcome":"+0","Keys":[1914.684999966994],"TotalKeys":1,"Block":1,"Trial":72,"Valence":"Win","Action":"No-Go","Robot":2,"trial_type":"pit-trial","trial_index":84,"time_elapsed":432564,"internal_node_id":"0.0-84.0"},{"Rune":"06","Correct":-1,"Choice":32,"RT":479.92000001249835,"Accuracy":0,"Sham":0,"Outcome":"+0","Keys":[1980.3499999688938],"TotalKeys":1,"Block":1,"Trial":73,"Valence":"Win","Action":"No-Go","Robot":2,"trial_type":"pit-trial","trial_index":85,"time_elapsed":435563,"internal_node_id":"0.0-85.0"},{"Rune":"03","Correct":32,"Choice":32,"RT":457.155000010971,"Accuracy":1,"Sham":1,"Outcome":"-10","Keys":[1957.239999959711],"TotalKeys":1,"Block":1,"Trial":74,"Valence":"Lose","Action":"Go","Robot":3,"trial_type":"pit-trial","trial_index":86,"time_elapsed":438539,"internal_node_id":"0.0-86.0"},{"Rune":"05","Correct":32,"Choice":32,"RT":376.9700000411831,"Accuracy":1,"Sham":0,"Outcome":"+10","Keys":[1877.9450000147335],"TotalKeys":1,"Block":1,"Trial":75,"Valence":"Win","Action":"Go","Robot":1,"trial_type":"pit-trial","trial_index":87,"time_elapsed":441435,"internal_node_id":"0.0-87.0"},{"Rune":"04","Correct":-1,"Choice":-1,"RT":-1,"Accuracy":1,"Sham":0,"Outcome":"+0","Keys":[],"TotalKeys":0,"Block":1,"Trial":76,"Valence":"Lose","Action":"No-Go","Robot":4,"trial_type":"pit-trial","trial_index":88,"time_elapsed":445455,"internal_node_id":"0.0-88.0"},{"Rune":"06","Correct":-1,"Choice":32,"RT":476.5250000054948,"Accuracy":0,"Sham":1,"Outcome":"+10","Keys":[1977.130000013858],"TotalKeys":1,"Block":1,"Trial":77,"Valence":"Win","Action":"No-Go","Robot":2,"trial_type":"pit-trial","trial_index":89,"time_elapsed":448451,"internal_node_id":"0.0-89.0"},{"Rune":"05","Correct":32,"Choice":32,"RT":410.84999998565763,"Accuracy":1,"Sham":0,"Outcome":"+10","Keys":[1911.7399999522604],"TotalKeys":1,"Block":1,"Trial":78,"Valence":"Win","Action":"Go","Robot":1,"trial_type":"pit-trial","trial_index":90,"time_elapsed":451382,"internal_node_id":"0.0-90.0"},{"Rune":"04","Correct":-1,"Choice":32,"RT":717.9950000136159,"Accuracy":0,"Sham":0,"Outcome":"-10","Keys":[2218.0999999982305],"TotalKeys":1,"Block":1,"Trial":79,"Valence":"Lose","Action":"No-Go","Robot":4,"trial_type":"pit-trial","trial_index":91,"time_elapsed":454618,"internal_node_id":"0.0-91.0"},{"Rune":"03","Correct":32,"Choice":-1,"RT":-1,"Accuracy":0,"Sham":0,"Outcome":"-10","Keys":[],"TotalKeys":0,"Block":1,"Trial":80,"Valence":"Lose","Action":"Go","Robot":3,"trial_type":"pit-trial","trial_index":92,"time_elapsed":458639,"internal_node_id":"0.0-92.0"},{"value":false,"trial_type":"call-function","trial_index":93,"time_elapsed":458657,"internal_node_id":"0.0-93.0"},{"RT":1955.489999963902,"trial_type":"pit-pause","trial_index":94,"time_elapsed":472645,"internal_node_id":"0.0-94.0"},{"Rune":"05","Correct":32,"Choice":32,"RT":423.1300000101328,"Accuracy":1,"Sham":0,"Outcome":"+10","Keys":[1924.364999984391],"TotalKeys":1,"Block":2,"Trial":81,"Valence":"Win","Action":"Go","Robot":1,"trial_type":"pit-trial","trial_index":95,"time_elapsed":475589,"internal_node_id":"0.0-95.0"},{"Rune":"06","Correct":-1,"Choice":32,"RT":313.205000013113,"Accuracy":0,"Sham":0,"Outcome":"+0","Keys":[1813.9150000060908],"TotalKeys":1,"Block":2,"Trial":82,"Valence":"Win","Action":"No-Go","Robot":2,"trial_type":"pit-trial","trial_index":96,"time_elapsed":478424,"internal_node_id":"0.0-96.0"},{"Rune":"04","Correct":-1,"Choice":-1,"RT":-1,"Accuracy":1,"Sham":0,"Outcome":"+0","Keys":[],"TotalKeys":0,"Block":2,"Trial":83,"Valence":"Lose","Action":"No-Go","Robot":4,"trial_type":"pit-trial","trial_index":97,"time_elapsed":482447,"internal_node_id":"0.0-97.0"},{"Rune":"03","Correct":32,"Choice":32,"RT":367.0900000142865,"Accuracy":1,"Sham":0,"Outcome":"+0","Keys":[1867.1650000032969],"TotalKeys":1,"Block":2,"Trial":84,"Valence":"Lose","Action":"Go","Robot":3,"trial_type":"pit-trial","trial_index":98,"time_elapsed":485331,"internal_node_id":"0.0-98.0"},{"Rune":"05","Correct":32,"Choice":32,"RT":295.8750000107102,"Accuracy":1,"Sham":0,"Outcome":"+10","Keys":[1796.0800000000745],"TotalKeys":1,"Block":2,"Trial":85,"Valence":"Win","Action":"Go","Robot":1,"trial_type":"pit-trial","trial_index":99,"time_elapsed":488150,"internal_node_id":"0.0-99.0"},{"Rune":"06","Correct":-1,"Choice":32,"RT":304.3700000271201,"Accuracy":0,"Sham":0,"Outcome":"+0","Keys":[1805.5150000145659],"TotalKeys":1,"Block":2,"Trial":86,"Valence":"Win","Action":"No-Go","Robot":2,"trial_type":"pit-trial","trial_index":100,"time_elapsed":490975,"internal_node_id":"0.0-100.0"},{"Rune":"03","Correct":32,"Choice":32,"RT":605.5049999849871,"Accuracy":1,"Sham":0,"Outcome":"+0","Keys":[2106.8349999841303],"TotalKeys":1,"Block":2,"Trial":87,"Valence":"Lose","Action":"Go","Robot":3,"trial_type":"pit-trial","trial_index":101,"time_elapsed":494099,"internal_node_id":"0.0-101.0"},{"Rune":"04","Correct":-1,"Choice":-1,"RT":-1,"Accuracy":1,"Sham":0,"Outcome":"+0","Keys":[],"TotalKeys":0,"Block":2,"Trial":88,"Valence":"Lose","Action":"No-Go","Robot":4,"trial_type":"pit-trial","trial_index":102,"time_elapsed":498123,"internal_node_id":"0.0-102.0"},{"Rune":"03","Correct":32,"Choice":32,"RT":495.23999996017665,"Accuracy":1,"Sham":1,"Outcome":"-10","Keys":[1995.4499999876134],"TotalKeys":1,"Block":2,"Trial":89,"Valence":"Lose","Action":"Go","Robot":3,"trial_type":"pit-trial","trial_index":103,"time_elapsed":501139,"internal_node_id":"0.0-103.0"},{"Rune":"05","Correct":32,"Choice":32,"RT":289.2200000351295,"Accuracy":1,"Sham":1,"Outcome":"+0","Keys":[1789.4100000266917],"TotalKeys":1,"Block":2,"Trial":90,"Valence":"Win","Action":"Go","Robot":1,"trial_type":"pit-trial","trial_index":104,"time_elapsed":503947,"internal_node_id":"0.0-104.0"},{"Rune":"06","Correct":-1,"Choice":32,"RT":364.53000002074987,"Accuracy":0,"Sham":0,"Outcome":"+0","Keys":[1864.7000000346452],"TotalKeys":1,"Block":2,"Trial":91,"Valence":"Win","Action":"No-Go","Robot":2,"trial_type":"pit-trial","trial_index":105,"time_elapsed":506830,"internal_node_id":"0.0-105.0"},{"Rune":"04","Correct":-1,"Choice":-1,"RT":-1,"Accuracy":1,"Sham":0,"Outcome":"+0","Keys":[],"TotalKeys":0,"Block":2,"Trial":92,"Valence":"Lose","Action":"No-Go","Robot":4,"trial_type":"pit-trial","trial_index":106,"time_elapsed":510851,"internal_node_id":"0.0-106.0"},{"Rune":"04","Correct":-1,"Choice":32,"RT":664.394999970682,"Accuracy":0,"Sham":0,"Outcome":"-10","Keys":[2164.809999987483],"TotalKeys":1,"Block":2,"Trial":93,"Valence":"Lose","Action":"No-Go","Robot":4,"trial_type":"pit-trial","trial_index":107,"time_elapsed":514035,"internal_node_id":"0.0-107.0"},{"Rune":"05","Correct":32,"Choice":32,"RT":419.53000001376495,"Accuracy":1,"Sham":0,"Outcome":"+10","Keys":[1919.6450000163168],"TotalKeys":1,"Block":2,"Trial":94,"Valence":"Win","Action":"Go","Robot":1,"trial_type":"pit-trial","trial_index":108,"time_elapsed":516975,"internal_node_id":"0.0-108.0"},{"Rune":"03","Correct":32,"Choice":32,"RT":589.5349999773316,"Accuracy":1,"Sham":0,"Outcome":"+0","Keys":[2090.1099999900907],"TotalKeys":1,"Block":2,"Trial":95,"Valence":"Lose","Action":"Go","Robot":3,"trial_type":"pit-trial","trial_index":109,"time_elapsed":520086,"internal_node_id":"0.0-109.0"},{"Rune":"06","Correct":-1,"Choice":32,"RT":409.96000001905486,"Accuracy":0,"Sham":1,"Outcome":"+10","Keys":[1911.2500000046566],"TotalKeys":1,"Block":2,"Trial":96,"Valence":"Win","Action":"No-Go","Robot":2,"trial_type":"pit-trial","trial_index":110,"time_elapsed":523020,"internal_node_id":"0.0-110.0"},{"Rune":"04","Correct":-1,"Choice":-1,"RT":-1,"Accuracy":1,"Sham":1,"Outcome":"-10","Keys":[],"TotalKeys":0,"Block":2,"Trial":97,"Valence":"Lose","Action":"No-Go","Robot":4,"trial_type":"pit-trial","trial_index":111,"time_elapsed":527046,"internal_node_id":"0.0-111.0"},{"Rune":"05","Correct":32,"Choice":32,"RT":304.3949999846518,"Accuracy":1,"Sham":0,"Outcome":"+10","Keys":[1805.1899999845773],"TotalKeys":1,"Block":2,"Trial":98,"Valence":"Win","Action":"Go","Robot":1,"trial_type":"pit-trial","trial_index":112,"time_elapsed":529870,"internal_node_id":"0.0-112.0"},{"Rune":"03","Correct":32,"Choice":32,"RT":554.1499999817461,"Accuracy":1,"Sham":0,"Outcome":"+0","Keys":[2055.3499999805354],"TotalKeys":1,"Block":2,"Trial":99,"Valence":"Lose","Action":"Go","Robot":3,"trial_type":"pit-trial","trial_index":113,"time_elapsed":532944,"internal_node_id":"0.0-113.0"},{"Rune":"06","Correct":-1,"Choice":32,"RT":306.12500000279397,"Accuracy":0,"Sham":0,"Outcome":"+0","Keys":[1807.295000005979],"TotalKeys":1,"Block":2,"Trial":100,"Valence":"Win","Action":"No-Go","Robot":2,"trial_type":"pit-trial","trial_index":114,"time_elapsed":535771,"internal_node_id":"0.0-114.0"},{"Rune":"04","Correct":-1,"Choice":-1,"RT":-1,"Accuracy":1,"Sham":0,"Outcome":"+0","Keys":[],"TotalKeys":0,"Block":2,"Trial":101,"Valence":"Lose","Action":"No-Go","Robot":4,"trial_type":"pit-trial","trial_index":115,"time_elapsed":539791,"internal_node_id":"0.0-115.0"},{"Rune":"03","Correct":32,"Choice":32,"RT":570.3850000281818,"Accuracy":1,"Sham":0,"Outcome":"+0","Keys":[2071.9450000324287],"TotalKeys":1,"Block":2,"Trial":102,"Valence":"Lose","Action":"Go","Robot":3,"trial_type":"pit-trial","trial_index":116,"time_elapsed":542883,"internal_node_id":"0.0-116.0"},{"Rune":"05","Correct":32,"Choice":32,"RT":445.5150000285357,"Accuracy":1,"Sham":1,"Outcome":"+0","Keys":[1946.6950000496581],"TotalKeys":1,"Block":2,"Trial":103,"Valence":"Win","Action":"Go","Robot":1,"trial_type":"pit-trial","trial_index":117,"time_elapsed":545847,"internal_node_id":"0.0-117.0"},{"Rune":"06","Correct":-1,"Choice":32,"RT":386.8450000300072,"Accuracy":0,"Sham":1,"Outcome":"+10","Keys":[1887.1649999637157],"TotalKeys":1,"Block":2,"Trial":104,"Valence":"Win","Action":"No-Go","Robot":2,"trial_type":"pit-trial","trial_index":118,"time_elapsed":548756,"internal_node_id":"0.0-118.0"},{"Rune":"03","Correct":32,"Choice":32,"RT":612.8199999802746,"Accuracy":1,"Sham":0,"Outcome":"+0","Keys":[2113.260000012815],"TotalKeys":1,"Block":2,"Trial":105,"Valence":"Lose","Action":"Go","Robot":3,"trial_type":"pit-trial","trial_index":119,"time_elapsed":551892,"internal_node_id":"0.0-119.0"},{"Rune":"05","Correct":32,"Choice":32,"RT":333.4699999541044,"Accuracy":1,"Sham":0,"Outcome":"+10","Keys":[1833.954999980051],"TotalKeys":1,"Block":2,"Trial":106,"Valence":"Win","Action":"Go","Robot":1,"trial_type":"pit-trial","trial_index":120,"time_elapsed":554747,"internal_node_id":"0.0-120.0"},{"Rune":"06","Correct":-1,"Choice":32,"RT":524.2500000167638,"Accuracy":0,"Sham":0,"Outcome":"+0","Keys":[2026.0449999477714],"TotalKeys":1,"Block":2,"Trial":107,"Valence":"Win","Action":"No-Go","Robot":2,"trial_type":"pit-trial","trial_index":121,"time_elapsed":557791,"internal_node_id":"0.0-121.0"},{"Rune":"04","Correct":-1,"Choice":-1,"RT":-1,"Accuracy":1,"Sham":0,"Outcome":"+0","Keys":[],"TotalKeys":0,"Block":2,"Trial":108,"Valence":"Lose","Action":"No-Go","Robot":4,"trial_type":"pit-trial","trial_index":122,"time_elapsed":561815,"internal_node_id":"0.0-122.0"},{"Rune":"06","Correct":-1,"Choice":32,"RT":505.3800000459887,"Accuracy":0,"Sham":0,"Outcome":"+0","Keys":[2005.6449999683537],"TotalKeys":1,"Block":2,"Trial":109,"Valence":"Win","Action":"No-Go","Robot":2,"trial_type":"pit-trial","trial_index":123,"time_elapsed":564839,"internal_node_id":"0.0-123.0"},{"Rune":"04","Correct":-1,"Choice":-1,"RT":-1,"Accuracy":1,"Sham":0,"Outcome":"+0","Keys":[],"TotalKeys":0,"Block":2,"Trial":110,"Valence":"Lose","Action":"No-Go","Robot":4,"trial_type":"pit-trial","trial_index":124,"time_elapsed":568863,"internal_node_id":"0.0-124.0"},{"Rune":"05","Correct":32,"Choice":32,"RT":441.08499999856576,"Accuracy":1,"Sham":0,"Outcome":"+10","Keys":[1941.225000016857],"TotalKeys":1,"Block":2,"Trial":111,"Valence":"Win","Action":"Go","Robot":1,"trial_type":"pit-trial","trial_index":125,"time_elapsed":571826,"internal_node_id":"0.0-125.0"},{"Rune":"03","Correct":32,"Choice":32,"RT":529.7650000429712,"Accuracy":1,"Sham":0,"Outcome":"+0","Keys":[2032.709999999497],"TotalKeys":1,"Block":2,"Trial":112,"Valence":"Lose","Action":"Go","Robot":3,"trial_type":"pit-trial","trial_index":126,"time_elapsed":574880,"internal_node_id":"0.0-126.0"},{"Rune":"06","Correct":-1,"Choice":32,"RT":393.24999996460974,"Accuracy":0,"Sham":0,"Outcome":"+0","Keys":[1893.709999974817],"TotalKeys":1,"Block":2,"Trial":113,"Valence":"Win","Action":"No-Go","Robot":2,"trial_type":"pit-trial","trial_index":127,"time_elapsed":577792,"internal_node_id":"0.0-127.0"},{"Rune":"04","Correct":-1,"Choice":-1,"RT":-1,"Accuracy":1,"Sham":0,"Outcome":"+0","Keys":[],"TotalKeys":0,"Block":2,"Trial":114,"Valence":"Lose","Action":"No-Go","Robot":4,"trial_type":"pit-trial","trial_index":128,"time_elapsed":581815,"internal_node_id":"0.0-128.0"},{"Rune":"03","Correct":32,"Choice":32,"RT":518.7250000308268,"Accuracy":1,"Sham":1,"Outcome":"-10","Keys":[2019.1350000095554],"TotalKeys":1,"Block":2,"Trial":115,"Valence":"Lose","Action":"Go","Robot":3,"trial_type":"pit-trial","trial_index":129,"time_elapsed":584853,"internal_node_id":"0.0-129.0"},{"Rune":"05","Correct":32,"Choice":32,"RT":383.6050000390969,"Accuracy":1,"Sham":0,"Outcome":"+10","Keys":[1883.7850000127219],"TotalKeys":1,"Block":2,"Trial":116,"Valence":"Win","Action":"Go","Robot":1,"trial_type":"pit-trial","trial_index":130,"time_elapsed":587759,"internal_node_id":"0.0-130.0"},{"Rune":"04","Correct":-1,"Choice":-1,"RT":-1,"Accuracy":1,"Sham":1,"Outcome":"-10","Keys":[],"TotalKeys":0,"Block":2,"Trial":117,"Valence":"Lose","Action":"No-Go","Robot":4,"trial_type":"pit-trial","trial_index":131,"time_elapsed":591777,"internal_node_id":"0.0-131.0"},{"Rune":"03","Correct":32,"Choice":32,"RT":872.7799999760464,"Accuracy":1,"Sham":0,"Outcome":"+0","Keys":[2373.2099999906495],"TotalKeys":1,"Block":2,"Trial":118,"Valence":"Lose","Action":"Go","Robot":3,"trial_type":"pit-trial","trial_index":132,"time_elapsed":595172,"internal_node_id":"0.0-132.0"},{"Rune":"06","Correct":-1,"Choice":32,"RT":354.26500003086403,"Accuracy":0,"Sham":0,"Outcome":"+0","Keys":[1854.5600000070408],"TotalKeys":1,"Block":2,"Trial":119,"Valence":"Win","Action":"No-Go","Robot":2,"trial_type":"pit-trial","trial_index":133,"time_elapsed":598047,"internal_node_id":"0.0-133.0"},{"Rune":"05","Correct":32,"Choice":32,"RT":494.03999996138737,"Accuracy":1,"Sham":0,"Outcome":"+10","Keys":[1994.0700000151992],"TotalKeys":1,"Block":2,"Trial":120,"Valence":"Win","Action":"Go","Robot":1,"trial_type":"pit-trial","trial_index":134,"time_elapsed":601063,"internal_node_id":"0.0-134.0"},{"Rune":"06","Correct":-1,"Choice":32,"RT":318.6399999540299,"Accuracy":0,"Sham":0,"Outcome":"+0","Keys":[1818.9549999660812],"TotalKeys":1,"Block":2,"Trial":121,"Valence":"Win","Action":"No-Go","Robot":2,"trial_type":"pit-trial","trial_index":135,"time_elapsed":603902,"internal_node_id":"0.0-135.0"},{"Rune":"04","Correct":-1,"Choice":-1,"RT":-1,"Accuracy":1,"Sham":0,"Outcome":"+0","Keys":[],"TotalKeys":0,"Block":2,"Trial":122,"Valence":"Lose","Action":"No-Go","Robot":4,"trial_type":"pit-trial","trial_index":136,"time_elapsed":607923,"internal_node_id":"0.0-136.0"},{"Rune":"03","Correct":32,"Choice":32,"RT":450.4449999658391,"Accuracy":1,"Sham":0,"Outcome":"+0","Keys":[1950.6300000357442],"TotalKeys":1,"Block":2,"Trial":123,"Valence":"Lose","Action":"Go","Robot":3,"trial_type":"pit-trial","trial_index":137,"time_elapsed":610891,"internal_node_id":"0.0-137.0"},{"Rune":"05","Correct":32,"Choice":32,"RT":498.34499997086823,"Accuracy":1,"Sham":1,"Outcome":"+0","Keys":[1998.5849999939092],"TotalKeys":1,"Block":2,"Trial":124,"Valence":"Win","Action":"Go","Robot":1,"trial_type":"pit-trial","trial_index":138,"time_elapsed":613911,"internal_node_id":"0.0-138.0"},{"Rune":"03","Correct":32,"Choice":32,"RT":425.3000000026077,"Accuracy":1,"Sham":1,"Outcome":"-10","Keys":[1925.9400000446476],"TotalKeys":1,"Block":2,"Trial":125,"Valence":"Lose","Action":"Go","Robot":3,"trial_type":"pit-trial","trial_index":139,"time_elapsed":616858,"internal_node_id":"0.0-139.0"},{"Rune":"04","Correct":-1,"Choice":-1,"RT":-1,"Accuracy":1,"Sham":0,"Outcome":"+0","Keys":[],"TotalKeys":0,"Block":2,"Trial":126,"Valence":"Lose","Action":"No-Go","Robot":4,"trial_type":"pit-trial","trial_index":140,"time_elapsed":620882,"internal_node_id":"0.0-140.0"},{"Rune":"06","Correct":-1,"Choice":32,"RT":452.02999998582527,"Accuracy":0,"Sham":0,"Outcome":"+0","Keys":[1952.2299999953248],"TotalKeys":1,"Block":2,"Trial":127,"Valence":"Win","Action":"No-Go","Robot":2,"trial_type":"pit-trial","trial_index":141,"time_elapsed":623855,"internal_node_id":"0.0-141.0"},{"Rune":"05","Correct":32,"Choice":32,"RT":369.0999999525957,"Accuracy":1,"Sham":0,"Outcome":"+10","Keys":[1869.1949999774806],"TotalKeys":1,"Block":2,"Trial":128,"Valence":"Win","Action":"Go","Robot":1,"trial_type":"pit-trial","trial_index":142,"time_elapsed":626742,"internal_node_id":"0.0-142.0"},{"Rune":"04","Correct":-1,"Choice":-1,"RT":-1,"Accuracy":1,"Sham":0,"Outcome":"+0","Keys":[],"TotalKeys":0,"Block":2,"Trial":129,"Valence":"Lose","Action":"No-Go","Robot":4,"trial_type":"pit-trial","trial_index":143,"time_elapsed":630763,"internal_node_id":"0.0-143.0"},{"Rune":"05","Correct":32,"Choice":32,"RT":352.5750000262633,"Accuracy":1,"Sham":0,"Outcome":"+10","Keys":[1853.8549999939278],"TotalKeys":1,"Block":2,"Trial":130,"Valence":"Win","Action":"Go","Robot":1,"trial_type":"pit-trial","trial_index":144,"time_elapsed":633636,"internal_node_id":"0.0-144.0"},{"Rune":"03","Correct":32,"Choice":32,"RT":524.7049999888986,"Accuracy":1,"Sham":0,"Outcome":"+0","Keys":[2025.049999996554],"TotalKeys":1,"Block":2,"Trial":131,"Valence":"Lose","Action":"Go","Robot":3,"trial_type":"pit-trial","trial_index":145,"time_elapsed":636679,"internal_node_id":"0.0-145.0"},{"Rune":"06","Correct":-1,"Choice":32,"RT":319.24000004073605,"Accuracy":0,"Sham":0,"Outcome":"+0","Keys":[1819.45499998983],"TotalKeys":1,"Block":2,"Trial":132,"Valence":"Win","Action":"No-Go","Robot":2,"trial_type":"pit-trial","trial_index":146,"time_elapsed":639519,"internal_node_id":"0.0-146.0"},{"Rune":"04","Correct":-1,"Choice":-1,"RT":-1,"Accuracy":1,"Sham":0,"Outcome":"+0","Keys":[],"TotalKeys":0,"Block":2,"Trial":133,"Valence":"Lose","Action":"No-Go","Robot":4,"trial_type":"pit-trial","trial_index":147,"time_elapsed":643543,"internal_node_id":"0.0-147.0"},{"Rune":"05","Correct":32,"Choice":32,"RT":314.0150000108406,"Accuracy":1,"Sham":0,"Outcome":"+10","Keys":[1814.2600000137463],"TotalKeys":1,"Block":2,"Trial":134,"Valence":"Win","Action":"Go","Robot":1,"trial_type":"pit-trial","trial_index":148,"time_elapsed":646379,"internal_node_id":"0.0-148.0"},{"Rune":"03","Correct":32,"Choice":32,"RT":610.8499999972992,"Accuracy":1,"Sham":0,"Outcome":"+0","Keys":[2111.5700000082143],"TotalKeys":1,"Block":2,"Trial":135,"Valence":"Lose","Action":"Go","Robot":3,"trial_type":"pit-trial","trial_index":149,"time_elapsed":649511,"internal_node_id":"0.0-149.0"},{"Rune":"06","Correct":-1,"Choice":32,"RT":375.1800000318326,"Accuracy":0,"Sham":0,"Outcome":"+0","Keys":[1875.270000018645],"TotalKeys":1,"Block":2,"Trial":136,"Valence":"Win","Action":"No-Go","Robot":2,"trial_type":"pit-trial","trial_index":150,"time_elapsed":652406,"internal_node_id":"0.0-150.0"},{"Rune":"04","Correct":-1,"Choice":-1,"RT":-1,"Accuracy":1,"Sham":1,"Outcome":"-10","Keys":[],"TotalKeys":0,"Block":2,"Trial":137,"Valence":"Lose","Action":"No-Go","Robot":4,"trial_type":"pit-trial","trial_index":151,"time_elapsed":656431,"internal_node_id":"0.0-151.0"},{"Rune":"05","Correct":32,"Choice":32,"RT":398.2749999850057,"Accuracy":1,"Sham":0,"Outcome":"+10","Keys":[1898.9249999867752],"TotalKeys":1,"Block":2,"Trial":138,"Valence":"Win","Action":"Go","Robot":1,"trial_type":"pit-trial","trial_index":152,"time_elapsed":659351,"internal_node_id":"0.0-152.0"},{"Rune":"03","Correct":32,"Choice":32,"RT":437.5149999978021,"Accuracy":1,"Sham":0,"Outcome":"+0","Keys":[1937.7749999985099],"TotalKeys":1,"Block":2,"Trial":139,"Valence":"Lose","Action":"Go","Robot":3,"trial_type":"pit-trial","trial_index":153,"time_elapsed":662307,"internal_node_id":"0.0-153.0"},{"Rune":"06","Correct":-1,"Choice":32,"RT":541.8899999931455,"Accuracy":0,"Sham":1,"Outcome":"+10","Keys":[2042.3099999898113],"TotalKeys":1,"Block":2,"Trial":140,"Valence":"Win","Action":"No-Go","Robot":2,"trial_type":"pit-trial","trial_index":154,"time_elapsed":665367,"internal_node_id":"0.0-154.0"},{"Rune":"06","Correct":-1,"Choice":32,"RT":410.9200000530109,"Accuracy":0,"Sham":1,"Outcome":"+10","Keys":[1911.1499999999069],"TotalKeys":1,"Block":2,"Trial":141,"Valence":"Win","Action":"No-Go","Robot":2,"trial_type":"pit-trial","trial_index":155,"time_elapsed":668295,"internal_node_id":"0.0-155.0"},{"Rune":"03","Correct":32,"Choice":32,"RT":687.6700000138953,"Accuracy":1,"Sham":0,"Outcome":"+0","Keys":[2189.5250000525266],"TotalKeys":1,"Block":2,"Trial":142,"Valence":"Lose","Action":"Go","Robot":3,"trial_type":"pit-trial","trial_index":156,"time_elapsed":671503,"internal_node_id":"0.0-156.0"},{"Rune":"05","Correct":32,"Choice":32,"RT":334.03999998699874,"Accuracy":1,"Sham":0,"Outcome":"+10","Keys":[1835.289999959059],"TotalKeys":1,"Block":2,"Trial":143,"Valence":"Win","Action":"Go","Robot":1,"trial_type":"pit-trial","trial_index":157,"time_elapsed":674359,"internal_node_id":"0.0-157.0"},{"Rune":"04","Correct":-1,"Choice":-1,"RT":-1,"Accuracy":1,"Sham":0,"Outcome":"+0","Keys":[],"TotalKeys":0,"Block":2,"Trial":144,"Valence":"Lose","Action":"No-Go","Robot":4,"trial_type":"pit-trial","trial_index":158,"time_elapsed":678379,"internal_node_id":"0.0-158.0"},{"Rune":"04","Correct":-1,"Choice":32,"RT":365.0900000357069,"Accuracy":0,"Sham":0,"Outcome":"-10","Keys":[1865.7600000151433],"TotalKeys":1,"Block":2,"Trial":145,"Valence":"Lose","Action":"No-Go","Robot":4,"trial_type":"pit-trial","trial_index":159,"time_elapsed":681265,"internal_node_id":"0.0-159.0"},{"Rune":"05","Correct":32,"Choice":32,"RT":479.72000000299886,"Accuracy":1,"Sham":0,"Outcome":"+10","Keys":[1980.3899999824353],"TotalKeys":1,"Block":2,"Trial":146,"Valence":"Win","Action":"Go","Robot":1,"trial_type":"pit-trial","trial_index":160,"time_elapsed":684266,"internal_node_id":"0.0-160.0"},{"Rune":"03","Correct":32,"Choice":32,"RT":620.5900000059046,"Accuracy":1,"Sham":0,"Outcome":"+0","Keys":[2121.1999999941327],"TotalKeys":1,"Block":2,"Trial":147,"Valence":"Lose","Action":"Go","Robot":3,"trial_type":"pit-trial","trial_index":161,"time_elapsed":687407,"internal_node_id":"0.0-161.0"},{"Rune":"06","Correct":-1,"Choice":32,"RT":534.3899999861605,"Accuracy":0,"Sham":0,"Outcome":"+0","Keys":[2035.03999998793],"TotalKeys":1,"Block":2,"Trial":148,"Valence":"Win","Action":"No-Go","Robot":2,"trial_type":"pit-trial","trial_index":162,"time_elapsed":690459,"internal_node_id":"0.0-162.0"},{"Rune":"06","Correct":-1,"Choice":32,"RT":536.2099999911152,"Accuracy":0,"Sham":0,"Outcome":"+0","Keys":[2037.0549999643117],"TotalKeys":1,"Block":2,"Trial":149,"Valence":"Win","Action":"No-Go","Robot":2,"trial_type":"pit-trial","trial_index":163,"time_elapsed":693515,"internal_node_id":"0.0-163.0"},{"Rune":"04","Correct":-1,"Choice":-1,"RT":-1,"Accuracy":1,"Sham":0,"Outcome":"+0","Keys":[],"TotalKeys":0,"Block":2,"Trial":150,"Valence":"Lose","Action":"No-Go","Robot":4,"trial_type":"pit-trial","trial_index":164,"time_elapsed":697535,"internal_node_id":"0.0-164.0"},{"Rune":"03","Correct":32,"Choice":32,"RT":522.2000000067055,"Accuracy":1,"Sham":0,"Outcome":"+0","Keys":[2024.2849999922328],"TotalKeys":1,"Block":2,"Trial":151,"Valence":"Lose","Action":"Go","Robot":3,"trial_type":"pit-trial","trial_index":165,"time_elapsed":700581,"internal_node_id":"0.0-165.0"},{"Rune":"05","Correct":32,"Choice":32,"RT":1176.7199999885634,"Accuracy":1,"Sham":0,"Outcome":"+10","Keys":[2677.2499999497086],"TotalKeys":1,"Block":2,"Trial":152,"Valence":"Win","Action":"Go","Robot":1,"trial_type":"pit-trial","trial_index":166,"time_elapsed":704276,"internal_node_id":"0.0-166.0"},{"Rune":"05","Correct":32,"Choice":32,"RT":1183.4449999732897,"Accuracy":1,"Sham":0,"Outcome":"+10","Keys":[2684.60999999661],"TotalKeys":1,"Block":2,"Trial":153,"Valence":"Win","Action":"Go","Robot":1,"trial_type":"pit-trial","trial_index":167,"time_elapsed":707983,"internal_node_id":"0.0-167.0"},{"Rune":"04","Correct":-1,"Choice":-1,"RT":-1,"Accuracy":1,"Sham":0,"Outcome":"+0","Keys":[],"TotalKeys":0,"Block":2,"Trial":154,"Valence":"Lose","Action":"No-Go","Robot":4,"trial_type":"pit-trial","trial_index":168,"time_elapsed":712004,"internal_node_id":"0.0-168.0"},{"Rune":"03","Correct":32,"Choice":32,"RT":616.4299999945797,"Accuracy":1,"Sham":0,"Outcome":"+0","Keys":[2116.7049999930896],"TotalKeys":1,"Block":2,"Trial":155,"Valence":"Lose","Action":"Go","Robot":3,"trial_type":"pit-trial","trial_index":169,"time_elapsed":715138,"internal_node_id":"0.0-169.0"},{"Rune":"06","Correct":-1,"Choice":32,"RT":277.9650000156835,"Accuracy":0,"Sham":0,"Outcome":"+0","Keys":[1778.1100000138395],"TotalKeys":1,"Block":2,"Trial":156,"Valence":"Win","Action":"No-Go","Robot":2,"trial_type":"pit-trial","trial_index":170,"time_elapsed":717935,"internal_node_id":"0.0-170.0"},{"Rune":"03","Correct":32,"Choice":32,"RT":677.4650000152178,"Accuracy":1,"Sham":1,"Outcome":"-10","Keys":[2177.780000027269],"TotalKeys":1,"Block":2,"Trial":157,"Valence":"Lose","Action":"Go","Robot":3,"trial_type":"pit-trial","trial_index":171,"time_elapsed":721131,"internal_node_id":"0.0-171.0"},{"Rune":"04","Correct":-1,"Choice":-1,"RT":-1,"Accuracy":1,"Sham":1,"Outcome":"-10","Keys":[],"TotalKeys":0,"Block":2,"Trial":158,"Valence":"Lose","Action":"No-Go","Robot":4,"trial_type":"pit-trial","trial_index":172,"time_elapsed":725151,"internal_node_id":"0.0-172.0"},{"Rune":"06","Correct":-1,"Choice":32,"RT":374.05499996384606,"Accuracy":0,"Sham":0,"Outcome":"+0","Keys":[1874.2099999799393],"TotalKeys":1,"Block":2,"Trial":159,"Valence":"Win","Action":"No-Go","Robot":2,"trial_type":"pit-trial","trial_index":173,"time_elapsed":728046,"internal_node_id":"0.0-173.0"},{"Rune":"05","Correct":32,"Choice":32,"RT":302.10999998962507,"Accuracy":1,"Sham":1,"Outcome":"+0","Keys":[1803.7650000187568],"TotalKeys":1,"Block":2,"Trial":160,"Valence":"Win","Action":"Go","Robot":1,"trial_type":"pit-trial","trial_index":174,"time_elapsed":730872,"internal_node_id":"0.0-174.0"},{"rt":13855.465000029653,"demographics":{"age":"49","gender-categorical":"Female","ethnicity":"Not Hispanic or Latino","race":"White","english":"Yes","fluency":"Very well"},"trial_type":"survey-demo","trial_index":175,"time_elapsed":744745,"internal_node_id":"0.0-175.0"},{"rt":29243.77000000095,"debriefgraphics":{"difficulty":"4","fun":"4","clarity":"5","strategy":"no, I did pay attention to the -10 and decided the risk","feedback":""},"trial_type":"survey-debrief","trial_index":176,"time_elapsed":774005,"internal_node_id":"0.0-176.0","interactions":"[{\"event\":\"blur\",\"trial\":94,\"time\":464184},{\"event\":\"focus\",\"trial\":94,\"time\":471620}]"}]