[{"view_history":"[{\"page_index\":0,\"viewing_time\":2274.665000000823},{\"page_index\":1,\"viewing_time\":3934.7099999995407},{\"page_index\":2,\"viewing_time\":9885.965000000397},{\"page_index\":3,\"viewing_time\":6497.894999999517},{\"page_index\":4,\"viewing_time\":9073.030000000472}]","rt":31666.93000000032,"trial_type":"pit-instructions","trial_index":0,"time_elapsed":31669,"internal_node_id":"0.0-0.0"},{"Rune":"01","Correct":32,"Choice":-1,"RT":-1,"Accuracy":0,"Sham":0,"Outcome":"+0","Keys":[],"TotalKeys":0,"trial_type":"pit-trial","trial_index":1,"time_elapsed":35673,"internal_node_id":"0.0-1.0"},{"Rune":"01","Correct":32,"Choice":32,"RT":944.8250000004919,"Accuracy":1,"Sham":0,"Outcome":"+10","Keys":[2444.8999999995067],"TotalKeys":1,"trial_type":"pit-trial","trial_index":2,"time_elapsed":39121,"internal_node_id":"0.0-2.0"},{"Rune":"01","Correct":32,"Choice":32,"RT":476.43500000049244,"Accuracy":1,"Sham":0,"Outcome":"+10","Keys":[1977.020000000266],"TotalKeys":1,"trial_type":"pit-trial","trial_index":3,"time_elapsed":42103,"internal_node_id":"0.0-3.0"},{"Rune":"01","Correct":32,"Choice":32,"RT":390.29000000027736,"Accuracy":1,"Sham":0,"Outcome":"+10","Keys":[1891.7300000002797],"TotalKeys":1,"trial_type":"pit-trial","trial_index":4,"time_elapsed":45000,"internal_node_id":"0.0-4.0"},{"view_history":"[{\"page_index\":0,\"viewing_time\":10893.289999999979}]","rt":10893.64999999998,"trial_type":"pit-instructions","trial_index":5,"time_elapsed":55896,"internal_node_id":"0.0-5.0"},{"Rune":"02","Correct":-1,"Choice":-1,"RT":-1,"Accuracy":1,"Sham":0,"Outcome":"+10","Keys":[],"TotalKeys":0,"trial_type":"pit-trial","trial_index":6,"time_elapsed":59899,"internal_node_id":"0.0-6.0"},{"Rune":"02","Correct":-1,"Choice":-1,"RT":-1,"Accuracy":1,"Sham":0,"Outcome":"+10","Keys":[],"TotalKeys":0,"trial_type":"pit-trial","trial_index":7,"time_elapsed":63903,"internal_node_id":"0.0-7.0"},{"Rune":"02","Correct":-1,"Choice":-1,"RT":-1,"Accuracy":1,"Sham":0,"Outcome":"+10","Keys":[],"TotalKeys":0,"trial_type":"pit-trial","trial_index":8,"time_elapsed":67907,"internal_node_id":"0.0-8.0"},{"Rune":"02","Correct":-1,"Choice":-1,"RT":-1,"Accuracy":1,"Sham":0,"Outcome":"+10","Keys":[],"TotalKeys":0,"trial_type":"pit-trial","trial_index":9,"time_elapsed":71913,"internal_node_id":"0.0-9.0"},{"view_history":"[{\"page_index\":0,\"viewing_time\":5701.384999999384},{\"page_index\":1,\"viewing_time\":7028.100000000457},{\"page_index\":2,\"viewing_time\":6390.945000000109},{\"page_index\":3,\"viewing_time\":14696.939999999799},{\"page_index\":4,\"viewing_time\":6481.0349999998},{\"page_index\":5,\"viewing_time\":8224.11499999999},{\"page_index\":6,\"viewing_time\":5278.914999999863},{\"page_index\":7,\"viewing_time\":1505.9500000006665}]","rt":55307.629999999335,"trial_type":"pit-instructions","trial_index":10,"time_elapsed":127222,"internal_node_id":"0.0-10.0"},{"rt":19354.349999999627,"responses":"{\"no-press\":\"Do nothing\",\"context-win\":\"+10\",\"context-lose\":\"+0\",\"feedback\":\"True\"}","errors":0,"trial_type":"pit-comprehension","trial_index":11,"time_elapsed":146579,"internal_node_id":"0.0-11.0"},{"view_history":"[{\"page_index\":0,\"viewing_time\":3834.6049999999814}]","rt":3834.910000000469,"trial_type":"pit-instructions","trial_index":12,"time_elapsed":150416,"internal_node_id":"0.0-12.0"},{"Rune":"03","Correct":-1,"Choice":-1,"RT":-1,"Accuracy":1,"Sham":0,"Outcome":"+10","Keys":[],"TotalKeys":0,"Block":1,"Trial":1,"Valence":"Win","Action":"No-Go","Robot":2,"trial_type":"pit-trial","trial_index":13,"time_elapsed":154420,"internal_node_id":"0.0-13.0"},{"Rune":"05","Correct":32,"Choice":32,"RT":771.8449999992736,"Accuracy":1,"Sham":0,"Outcome":"+0","Keys":[2272.295000000682],"TotalKeys":1,"Block":1,"Trial":2,"Valence":"Lose","Action":"Go","Robot":3,"trial_type":"pit-trial","trial_index":14,"time_elapsed":157700,"internal_node_id":"0.0-14.0"},{"Rune":"06","Correct":-1,"Choice":-1,"RT":-1,"Accuracy":1,"Sham":0,"Outcome":"+0","Keys":[],"TotalKeys":0,"Block":1,"Trial":3,"Valence":"Lose","Action":"No-Go","Robot":4,"trial_type":"pit-trial","trial_index":15,"time_elapsed":161706,"internal_node_id":"0.0-15.0"},{"Rune":"04","Correct":32,"Choice":32,"RT":864.5399999995716,"Accuracy":1,"Sham":0,"Outcome":"+10","Keys":[2364.859999999666],"TotalKeys":1,"Block":1,"Trial":4,"Valence":"Win","Action":"Go","Robot":1,"trial_type":"pit-trial","trial_index":16,"time_elapsed":165075,"internal_node_id":"0.0-16.0"},{"Rune":"05","Correct":32,"Choice":-1,"RT":-1,"Accuracy":0,"Sham":1,"Outcome":"+0","Keys":[],"TotalKeys":0,"Block":1,"Trial":5,"Valence":"Lose","Action":"Go","Robot":3,"trial_type":"pit-trial","trial_index":17,"time_elapsed":169081,"internal_node_id":"0.0-17.0"},{"Rune":"06","Correct":-1,"Choice":32,"RT":706.7849999993923,"Accuracy":0,"Sham":0,"Outcome":"-10","Keys":[2207.674999999668],"TotalKeys":1,"Block":1,"Trial":6,"Valence":"Lose","Action":"No-Go","Robot":4,"trial_type":"pit-trial","trial_index":18,"time_elapsed":172293,"internal_node_id":"0.0-18.0"},{"Rune":"04","Correct":32,"Choice":32,"RT":684.3749999998254,"Accuracy":1,"Sham":0,"Outcome":"+10","Keys":[2185.0999999996857],"TotalKeys":1,"Block":1,"Trial":7,"Valence":"Win","Action":"Go","Robot":1,"trial_type":"pit-trial","trial_index":19,"time_elapsed":175483,"internal_node_id":"0.0-19.0"},{"Rune":"03","Correct":-1,"Choice":-1,"RT":-1,"Accuracy":1,"Sham":0,"Outcome":"+10","Keys":[],"TotalKeys":0,"Block":1,"Trial":8,"Valence":"Win","Action":"No-Go","Robot":2,"trial_type":"pit-trial","trial_index":20,"time_elapsed":179488,"internal_node_id":"0.0-20.0"},{"Rune":"04","Correct":32,"Choice":32,"RT":508.92000000021653,"Accuracy":1,"Sham":0,"Outcome":"+10","Keys":[2009.6849999999977],"TotalKeys":1,"Block":1,"Trial":9,"Valence":"Win","Action":"Go","Robot":1,"trial_type":"pit-trial","trial_index":21,"time_elapsed":182500,"internal_node_id":"0.0-21.0"},{"Rune":"05","Correct":32,"Choice":-1,"RT":-1,"Accuracy":0,"Sham":0,"Outcome":"-10","Keys":[],"TotalKeys":0,"Block":1,"Trial":10,"Valence":"Lose","Action":"Go","Robot":3,"trial_type":"pit-trial","trial_index":22,"time_elapsed":186504,"internal_node_id":"0.0-22.0"},{"Rune":"03","Correct":-1,"Choice":-1,"RT":-1,"Accuracy":1,"Sham":0,"Outcome":"+10","Keys":[],"TotalKeys":0,"Block":1,"Trial":11,"Valence":"Win","Action":"No-Go","Robot":2,"trial_type":"pit-trial","trial_index":23,"time_elapsed":190510,"internal_node_id":"0.0-23.0"},{"Rune":"06","Correct":-1,"Choice":32,"RT":768.7149999992689,"Accuracy":0,"Sham":0,"Outcome":"-10","Keys":[2269.584999999992],"TotalKeys":1,"Block":1,"Trial":12,"Valence":"Lose","Action":"No-Go","Robot":4,"trial_type":"pit-trial","trial_index":24,"time_elapsed":193784,"internal_node_id":"0.0-24.0"},{"Rune":"04","Correct":32,"Choice":32,"RT":516.0399999995134,"Accuracy":1,"Sham":0,"Outcome":"+10","Keys":[2016.9000000005472],"TotalKeys":1,"Block":1,"Trial":13,"Valence":"Win","Action":"Go","Robot":1,"trial_type":"pit-trial","trial_index":25,"time_elapsed":196805,"internal_node_id":"0.0-25.0"},{"Rune":"03","Correct":-1,"Choice":-1,"RT":-1,"Accuracy":1,"Sham":0,"Outcome":"+10","Keys":[],"TotalKeys":0,"Block":1,"Trial":14,"Valence":"Win","Action":"No-Go","Robot":2,"trial_type":"pit-trial","trial_index":26,"time_elapsed":200808,"internal_node_id":"0.0-26.0"},{"Rune":"05","Correct":32,"Choice":32,"RT":885.0950000005541,"Accuracy":1,"Sham":0,"Outcome":"+0","Keys":[2385.4700000001467],"TotalKeys":1,"Block":1,"Trial":15,"Valence":"Lose","Action":"Go","Robot":3,"trial_type":"pit-trial","trial_index":27,"time_elapsed":204197,"internal_node_id":"0.0-27.0"},{"Rune":"06","Correct":-1,"Choice":32,"RT":782.860000000248,"Accuracy":0,"Sham":1,"Outcome":"+0","Keys":[2283.4599999996426],"TotalKeys":1,"Block":1,"Trial":16,"Valence":"Lose","Action":"No-Go","Robot":4,"trial_type":"pit-trial","trial_index":28,"time_elapsed":207486,"internal_node_id":"0.0-28.0"},{"Rune":"04","Correct":32,"Choice":32,"RT":580.9750000007625,"Accuracy":1,"Sham":1,"Outcome":"+0","Keys":[2081.7199999992154],"TotalKeys":1,"Block":1,"Trial":17,"Valence":"Win","Action":"Go","Robot":1,"trial_type":"pit-trial","trial_index":29,"time_elapsed":210572,"internal_node_id":"0.0-29.0"},{"Rune":"05","Correct":32,"Choice":-1,"RT":-1,"Accuracy":0,"Sham":0,"Outcome":"-10","Keys":[],"TotalKeys":0,"Block":1,"Trial":18,"Valence":"Lose","Action":"Go","Robot":3,"trial_type":"pit-trial","trial_index":30,"time_elapsed":214578,"internal_node_id":"0.0-30.0"},{"Rune":"03","Correct":-1,"Choice":-1,"RT":-1,"Accuracy":1,"Sham":1,"Outcome":"+0","Keys":[],"TotalKeys":0,"Block":1,"Trial":19,"Valence":"Win","Action":"No-Go","Robot":2,"trial_type":"pit-trial","trial_index":31,"time_elapsed":218583,"internal_node_id":"0.0-31.0"},{"Rune":"06","Correct":-1,"Choice":-1,"RT":-1,"Accuracy":1,"Sham":0,"Outcome":"+0","Keys":[],"TotalKeys":0,"Block":1,"Trial":20,"Valence":"Lose","Action":"No-Go","Robot":4,"trial_type":"pit-trial","trial_index":32,"time_elapsed":222590,"internal_node_id":"0.0-32.0"},{"Rune":"06","Correct":-1,"Choice":-1,"RT":-1,"Accuracy":1,"Sham":0,"Outcome":"+0","Keys":[],"TotalKeys":0,"Block":1,"Trial":21,"Valence":"Lose","Action":"No-Go","Robot":4,"trial_type":"pit-trial","trial_index":33,"time_elapsed":226597,"internal_node_id":"0.0-33.0"},{"Rune":"03","Correct":-1,"Choice":-1,"RT":-1,"Accuracy":1,"Sham":0,"Outcome":"+10","Keys":[],"TotalKeys":0,"Block":1,"Trial":22,"Valence":"Win","Action":"No-Go","Robot":2,"trial_type":"pit-trial","trial_index":34,"time_elapsed":230602,"internal_node_id":"0.0-34.0"},{"Rune":"04","Correct":32,"Choice":32,"RT":599.4300000002258,"Accuracy":1,"Sham":0,"Outcome":"+10","Keys":[2099.6999999997497],"TotalKeys":1,"Block":1,"Trial":23,"Valence":"Win","Action":"Go","Robot":1,"trial_type":"pit-trial","trial_index":35,"time_elapsed":233707,"internal_node_id":"0.0-35.0"},{"Rune":"05","Correct":32,"Choice":32,"RT":722.8649999997288,"Accuracy":1,"Sham":0,"Outcome":"+0","Keys":[2223.630000000412],"TotalKeys":1,"Block":1,"Trial":24,"Valence":"Lose","Action":"Go","Robot":3,"trial_type":"pit-trial","trial_index":36,"time_elapsed":236935,"internal_node_id":"0.0-36.0"},{"Rune":"06","Correct":-1,"Choice":-1,"RT":-1,"Accuracy":1,"Sham":0,"Outcome":"+0","Keys":[],"TotalKeys":0,"Block":1,"Trial":25,"Valence":"Lose","Action":"No-Go","Robot":4,"trial_type":"pit-trial","trial_index":37,"time_elapsed":240941,"internal_node_id":"0.0-37.0"},{"Rune":"04","Correct":32,"Choice":32,"RT":460.1300000004121,"Accuracy":1,"Sham":0,"Outcome":"+10","Keys":[1961.1799999993527],"TotalKeys":1,"Block":1,"Trial":26,"Valence":"Win","Action":"Go","Robot":1,"trial_type":"pit-trial","trial_index":38,"time_elapsed":243907,"internal_node_id":"0.0-38.0"},{"Rune":"05","Correct":32,"Choice":32,"RT":817.670000000362,"Accuracy":1,"Sham":0,"Outcome":"+0","Keys":[2318.814999999624],"TotalKeys":1,"Block":1,"Trial":27,"Valence":"Lose","Action":"Go","Robot":3,"trial_type":"pit-trial","trial_index":39,"time_elapsed":247232,"internal_node_id":"0.0-39.0"},{"Rune":"03","Correct":-1,"Choice":-1,"RT":-1,"Accuracy":1,"Sham":0,"Outcome":"+10","Keys":[],"TotalKeys":0,"Block":1,"Trial":28,"Valence":"Win","Action":"No-Go","Robot":2,"trial_type":"pit-trial","trial_index":40,"time_elapsed":251238,"internal_node_id":"0.0-40.0"},{"Rune":"05","Correct":32,"Choice":32,"RT":858.6799999993527,"Accuracy":1,"Sham":0,"Outcome":"+0","Keys":[2358.774999999703],"TotalKeys":1,"Block":1,"Trial":29,"Valence":"Lose","Action":"Go","Robot":3,"trial_type":"pit-trial","trial_index":41,"time_elapsed":254602,"internal_node_id":"0.0-41.0"},{"Rune":"03","Correct":-1,"Choice":-1,"RT":-1,"Accuracy":1,"Sham":1,"Outcome":"+0","Keys":[],"TotalKeys":0,"Block":1,"Trial":30,"Valence":"Win","Action":"No-Go","Robot":2,"trial_type":"pit-trial","trial_index":42,"time_elapsed":258607,"internal_node_id":"0.0-42.0"},{"Rune":"04","Correct":32,"Choice":32,"RT":561.3300000004529,"Accuracy":1,"Sham":1,"Outcome":"+0","Keys":[2062.340000000433],"TotalKeys":1,"Block":1,"Trial":31,"Valence":"Win","Action":"Go","Robot":1,"trial_type":"pit-trial","trial_index":43,"time_elapsed":261673,"internal_node_id":"0.0-43.0"},{"Rune":"06","Correct":-1,"Choice":-1,"RT":-1,"Accuracy":1,"Sham":0,"Outcome":"+0","Keys":[],"TotalKeys":0,"Block":1,"Trial":32,"Valence":"Lose","Action":"No-Go","Robot":4,"trial_type":"pit-trial","trial_index":44,"time_elapsed":265677,"internal_node_id":"0.0-44.0"},{"Rune":"06","Correct":-1,"Choice":-1,"RT":-1,"Accuracy":1,"Sham":0,"Outcome":"+0","Keys":[],"TotalKeys":0,"Block":1,"Trial":33,"Valence":"Lose","Action":"No-Go","Robot":4,"trial_type":"pit-trial","trial_index":45,"time_elapsed":269680,"internal_node_id":"0.0-45.0"},{"Rune":"03","Correct":-1,"Choice":-1,"RT":-1,"Accuracy":1,"Sham":0,"Outcome":"+10","Keys":[],"TotalKeys":0,"Block":1,"Trial":34,"Valence":"Win","Action":"No-Go","Robot":2,"trial_type":"pit-trial","trial_index":46,"time_elapsed":273686,"internal_node_id":"0.0-46.0"},{"Rune":"04","Correct":32,"Choice":32,"RT":464.6199999997625,"Accuracy":1,"Sham":0,"Outcome":"+10","Keys":[1965.215000000142],"TotalKeys":1,"Block":1,"Trial":35,"Valence":"Win","Action":"Go","Robot":1,"trial_type":"pit-trial","trial_index":47,"time_elapsed":276654,"internal_node_id":"0.0-47.0"},{"Rune":"05","Correct":32,"Choice":32,"RT":692.4600000001956,"Accuracy":1,"Sham":1,"Outcome":"-10","Keys":[2193.6949999998906],"TotalKeys":1,"Block":1,"Trial":36,"Valence":"Lose","Action":"Go","Robot":3,"trial_type":"pit-trial","trial_index":48,"time_elapsed":279852,"internal_node_id":"0.0-48.0"},{"Rune":"06","Correct":-1,"Choice":-1,"RT":-1,"Accuracy":1,"Sham":1,"Outcome":"-10","Keys":[],"TotalKeys":0,"Block":1,"Trial":37,"Valence":"Lose","Action":"No-Go","Robot":4,"trial_type":"pit-trial","trial_index":49,"time_elapsed":283856,"internal_node_id":"0.0-49.0"},{"Rune":"05","Correct":32,"Choice":32,"RT":767.3950000007753,"Accuracy":1,"Sham":0,"Outcome":"+0","Keys":[2268.2599999998347],"TotalKeys":1,"Block":1,"Trial":38,"Valence":"Lose","Action":"Go","Robot":3,"trial_type":"pit-trial","trial_index":50,"time_elapsed":287128,"internal_node_id":"0.0-50.0"},{"Rune":"04","Correct":32,"Choice":32,"RT":503.11999999935506,"Accuracy":1,"Sham":0,"Outcome":"+10","Keys":[2004.1349999991944],"TotalKeys":1,"Block":1,"Trial":39,"Valence":"Win","Action":"Go","Robot":1,"trial_type":"pit-trial","trial_index":51,"time_elapsed":290137,"internal_node_id":"0.0-51.0"},{"Rune":"03","Correct":-1,"Choice":-1,"RT":-1,"Accuracy":1,"Sham":0,"Outcome":"+10","Keys":[],"TotalKeys":0,"Block":1,"Trial":40,"Valence":"Win","Action":"No-Go","Robot":2,"trial_type":"pit-trial","trial_index":52,"time_elapsed":294144,"internal_node_id":"0.0-52.0"},{"Rune":"05","Correct":32,"Choice":32,"RT":598.6400000001304,"Accuracy":1,"Sham":1,"Outcome":"-10","Keys":[2099.9849999998696],"TotalKeys":1,"Block":1,"Trial":41,"Valence":"Lose","Action":"Go","Robot":3,"trial_type":"pit-trial","trial_index":53,"time_elapsed":297248,"internal_node_id":"0.0-53.0"},{"Rune":"03","Correct":-1,"Choice":-1,"RT":-1,"Accuracy":1,"Sham":0,"Outcome":"+10","Keys":[],"TotalKeys":0,"Block":1,"Trial":42,"Valence":"Win","Action":"No-Go","Robot":2,"trial_type":"pit-trial","trial_index":54,"time_elapsed":301253,"internal_node_id":"0.0-54.0"},{"Rune":"06","Correct":-1,"Choice":32,"RT":832.2950000001583,"Accuracy":0,"Sham":0,"Outcome":"-10","Keys":[2332.7949999993434],"TotalKeys":1,"Block":1,"Trial":43,"Valence":"Lose","Action":"No-Go","Robot":4,"trial_type":"pit-trial","trial_index":55,"time_elapsed":304590,"internal_node_id":"0.0-55.0"},{"Rune":"04","Correct":32,"Choice":32,"RT":452.59499999973923,"Accuracy":1,"Sham":0,"Outcome":"+10","Keys":[1952.7799999996787],"TotalKeys":1,"Block":1,"Trial":44,"Valence":"Win","Action":"Go","Robot":1,"trial_type":"pit-trial","trial_index":56,"time_elapsed":307547,"internal_node_id":"0.0-56.0"},{"Rune":"06","Correct":-1,"Choice":32,"RT":817.384999999369,"Accuracy":0,"Sham":0,"Outcome":"-10","Keys":[2319.1349999997183],"TotalKeys":1,"Block":1,"Trial":45,"Valence":"Lose","Action":"No-Go","Robot":4,"trial_type":"pit-trial","trial_index":57,"time_elapsed":310871,"internal_node_id":"0.0-57.0"},{"Rune":"03","Correct":-1,"Choice":-1,"RT":-1,"Accuracy":1,"Sham":1,"Outcome":"+0","Keys":[],"TotalKeys":0,"Block":1,"Trial":46,"Valence":"Win","Action":"No-Go","Robot":2,"trial_type":"pit-trial","trial_index":58,"time_elapsed":314877,"internal_node_id":"0.0-58.0"},{"Rune":"05","Correct":32,"Choice":-1,"RT":-1,"Accuracy":0,"Sham":0,"Outcome":"-10","Keys":[],"TotalKeys":0,"Block":1,"Trial":47,"Valence":"Lose","Action":"Go","Robot":3,"trial_type":"pit-trial","trial_index":59,"time_elapsed":318880,"internal_node_id":"0.0-59.0"},{"Rune":"04","Correct":32,"Choice":32,"RT":522.2699999994948,"Accuracy":1,"Sham":0,"Outcome":"+10","Keys":[2023.189999999886],"TotalKeys":1,"Block":1,"Trial":48,"Valence":"Win","Action":"Go","Robot":1,"trial_type":"pit-trial","trial_index":60,"time_elapsed":321907,"internal_node_id":"0.0-60.0"},{"Rune":"06","Correct":-1,"Choice":-1,"RT":-1,"Accuracy":1,"Sham":0,"Outcome":"+0","Keys":[],"TotalKeys":0,"Block":1,"Trial":49,"Valence":"Lose","Action":"No-Go","Robot":4,"trial_type":"pit-trial","trial_index":61,"time_elapsed":325912,"internal_node_id":"0.0-61.0"},{"Rune":"04","Correct":32,"Choice":32,"RT":470.54999999998836,"Accuracy":1,"Sham":0,"Outcome":"+10","Keys":[1972.0900000002002],"TotalKeys":1,"Block":1,"Trial":50,"Valence":"Win","Action":"Go","Robot":1,"trial_type":"pit-trial","trial_index":62,"time_elapsed":328889,"internal_node_id":"0.0-62.0"},{"Rune":"03","Correct":-1,"Choice":-1,"RT":-1,"Accuracy":1,"Sham":0,"Outcome":"+10","Keys":[],"TotalKeys":0,"Block":1,"Trial":51,"Valence":"Win","Action":"No-Go","Robot":2,"trial_type":"pit-trial","trial_index":63,"time_elapsed":332892,"internal_node_id":"0.0-63.0"},{"Rune":"05","Correct":32,"Choice":-1,"RT":-1,"Accuracy":0,"Sham":0,"Outcome":"-10","Keys":[],"TotalKeys":0,"Block":1,"Trial":52,"Valence":"Lose","Action":"Go","Robot":3,"trial_type":"pit-trial","trial_index":64,"time_elapsed":336901,"internal_node_id":"0.0-64.0"},{"Rune":"03","Correct":-1,"Choice":-1,"RT":-1,"Accuracy":1,"Sham":0,"Outcome":"+10","Keys":[],"TotalKeys":0,"Block":1,"Trial":53,"Valence":"Win","Action":"No-Go","Robot":2,"trial_type":"pit-trial","trial_index":65,"time_elapsed":340905,"internal_node_id":"0.0-65.0"},{"Rune":"05","Correct":32,"Choice":32,"RT":520.2099999997299,"Accuracy":1,"Sham":0,"Outcome":"+0","Keys":[2021.0349999997416],"TotalKeys":1,"Block":1,"Trial":54,"Valence":"Lose","Action":"Go","Robot":3,"trial_type":"pit-trial","trial_index":66,"time_elapsed":343929,"internal_node_id":"0.0-66.0"},{"Rune":"06","Correct":-1,"Choice":-1,"RT":-1,"Accuracy":1,"Sham":0,"Outcome":"+0","Keys":[],"TotalKeys":0,"Block":1,"Trial":55,"Valence":"Lose","Action":"No-Go","Robot":4,"trial_type":"pit-trial","trial_index":67,"time_elapsed":347934,"internal_node_id":"0.0-67.0"},{"Rune":"04","Correct":32,"Choice":32,"RT":486.80499999958556,"Accuracy":1,"Sham":0,"Outcome":"+10","Keys":[1987.399999999965],"TotalKeys":1,"Block":1,"Trial":56,"Valence":"Win","Action":"Go","Robot":1,"trial_type":"pit-trial","trial_index":68,"time_elapsed":350925,"internal_node_id":"0.0-68.0"},{"Rune":"04","Correct":32,"Choice":32,"RT":479.9000000002561,"Accuracy":1,"Sham":1,"Outcome":"+0","Keys":[1980.2749999998487],"TotalKeys":1,"Block":1,"Trial":57,"Valence":"Win","Action":"Go","Robot":1,"trial_type":"pit-trial","trial_index":69,"time_elapsed":353909,"internal_node_id":"0.0-69.0"},{"Rune":"05","Correct":32,"Choice":32,"RT":843.3750000004075,"Accuracy":1,"Sham":0,"Outcome":"+0","Keys":[2344.3600000001024],"TotalKeys":1,"Block":1,"Trial":58,"Valence":"Lose","Action":"Go","Robot":3,"trial_type":"pit-trial","trial_index":70,"time_elapsed":357257,"internal_node_id":"0.0-70.0"},{"Rune":"06","Correct":-1,"Choice":-1,"RT":-1,"Accuracy":1,"Sham":1,"Outcome":"-10","Keys":[],"TotalKeys":0,"Block":1,"Trial":59,"Valence":"Lose","Action":"No-Go","Robot":4,"trial_type":"pit-trial","trial_index":71,"time_elapsed":361261,"internal_node_id":"0.0-71.0"},{"Rune":"03","Correct":-1,"Choice":-1,"RT":-1,"Accuracy":1,"Sham":0,"Outcome":"+10","Keys":[],"TotalKeys":0,"Block":1,"Trial":60,"Valence":"Win","Action":"No-Go","Robot":2,"trial_type":"pit-trial","trial_index":72,"time_elapsed":365267,"internal_node_id":"0.0-72.0"},{"Rune":"03","Correct":-1,"Choice":-1,"RT":-1,"Accuracy":1,"Sham":0,"Outcome":"+10","Keys":[],"TotalKeys":0,"Block":1,"Trial":61,"Valence":"Win","Action":"No-Go","Robot":2,"trial_type":"pit-trial","trial_index":73,"time_elapsed":369272,"internal_node_id":"0.0-73.0"},{"Rune":"05","Correct":32,"Choice":32,"RT":805.0800000001327,"Accuracy":1,"Sham":0,"Outcome":"+0","Keys":[2306.4999999996508],"TotalKeys":1,"Block":1,"Trial":62,"Valence":"Lose","Action":"Go","Robot":3,"trial_type":"pit-trial","trial_index":74,"time_elapsed":372583,"internal_node_id":"0.0-74.0"},{"Rune":"06","Correct":-1,"Choice":-1,"RT":-1,"Accuracy":1,"Sham":0,"Outcome":"+0","Keys":[],"TotalKeys":0,"Block":1,"Trial":63,"Valence":"Lose","Action":"No-Go","Robot":4,"trial_type":"pit-trial","trial_index":75,"time_elapsed":376587,"internal_node_id":"0.0-75.0"},{"Rune":"04","Correct":32,"Choice":32,"RT":507.84000000020023,"Accuracy":1,"Sham":0,"Outcome":"+10","Keys":[2008.1350000000093],"TotalKeys":1,"Block":1,"Trial":64,"Valence":"Win","Action":"Go","Robot":1,"trial_type":"pit-trial","trial_index":76,"time_elapsed":379599,"internal_node_id":"0.0-76.0"},{"Rune":"03","Correct":-1,"Choice":-1,"RT":-1,"Accuracy":1,"Sham":0,"Outcome":"+10","Keys":[],"TotalKeys":0,"Block":1,"Trial":65,"Valence":"Win","Action":"No-Go","Robot":2,"trial_type":"pit-trial","trial_index":77,"time_elapsed":383603,"internal_node_id":"0.0-77.0"},{"Rune":"06","Correct":-1,"Choice":-1,"RT":-1,"Accuracy":1,"Sham":0,"Outcome":"+0","Keys":[],"TotalKeys":0,"Block":1,"Trial":66,"Valence":"Lose","Action":"No-Go","Robot":4,"trial_type":"pit-trial","trial_index":78,"time_elapsed":387608,"internal_node_id":"0.0-78.0"},{"Rune":"04","Correct":32,"Choice":32,"RT":457.0100000000675,"Accuracy":1,"Sham":1,"Outcome":"+0","Keys":[1958.2049999998999],"TotalKeys":1,"Block":1,"Trial":67,"Valence":"Win","Action":"Go","Robot":1,"trial_type":"pit-trial","trial_index":79,"time_elapsed":390570,"internal_node_id":"0.0-79.0"},{"Rune":"05","Correct":32,"Choice":32,"RT":1040.5950000004377,"Accuracy":1,"Sham":0,"Outcome":"+0","Keys":[2540.8699999998207],"TotalKeys":1,"Block":1,"Trial":68,"Valence":"Lose","Action":"Go","Robot":3,"trial_type":"pit-trial","trial_index":80,"time_elapsed":394114,"internal_node_id":"0.0-80.0"},{"Rune":"06","Correct":-1,"Choice":-1,"RT":-1,"Accuracy":1,"Sham":1,"Outcome":"-10","Keys":[],"TotalKeys":0,"Block":1,"Trial":69,"Valence":"Lose","Action":"No-Go","Robot":4,"trial_type":"pit-trial","trial_index":81,"time_elapsed":398119,"internal_node_id":"0.0-81.0"},{"Rune":"05","Correct":32,"Choice":-1,"RT":-1,"Accuracy":0,"Sham":0,"Outcome":"-10","Keys":[],"TotalKeys":0,"Block":1,"Trial":70,"Valence":"Lose","Action":"Go","Robot":3,"trial_type":"pit-trial","trial_index":82,"time_elapsed":402125,"internal_node_id":"0.0-82.0"},{"Rune":"04","Correct":32,"Choice":32,"RT":411.03999999997905,"Accuracy":1,"Sham":0,"Outcome":"+10","Keys":[1911.3950000000768],"TotalKeys":1,"Block":1,"Trial":71,"Valence":"Win","Action":"Go","Robot":1,"trial_type":"pit-trial","trial_index":83,"time_elapsed":405041,"internal_node_id":"0.0-83.0"},{"Rune":"03","Correct":-1,"Choice":-1,"RT":-1,"Accuracy":1,"Sham":0,"Outcome":"+10","Keys":[],"TotalKeys":0,"Block":1,"Trial":72,"Valence":"Win","Action":"No-Go","Robot":2,"trial_type":"pit-trial","trial_index":84,"time_elapsed":409044,"internal_node_id":"0.0-84.0"},{"Rune":"03","Correct":-1,"Choice":-1,"RT":-1,"Accuracy":1,"Sham":0,"Outcome":"+10","Keys":[],"TotalKeys":0,"Block":1,"Trial":73,"Valence":"Win","Action":"No-Go","Robot":2,"trial_type":"pit-trial","trial_index":85,"time_elapsed":413050,"internal_node_id":"0.0-85.0"},{"Rune":"05","Correct":32,"Choice":32,"RT":576.6499999999651,"Accuracy":1,"Sham":1,"Outcome":"-10","Keys":[2076.8649999999907],"TotalKeys":1,"Block":1,"Trial":74,"Valence":"Lose","Action":"Go","Robot":3,"trial_type":"pit-trial","trial_index":86,"time_elapsed":416131,"internal_node_id":"0.0-86.0"},{"Rune":"04","Correct":32,"Choice":32,"RT":437.8200000001234,"Accuracy":1,"Sham":0,"Outcome":"+10","Keys":[1938.6600000006729],"TotalKeys":1,"Block":1,"Trial":75,"Valence":"Win","Action":"Go","Robot":1,"trial_type":"pit-trial","trial_index":87,"time_elapsed":419073,"internal_node_id":"0.0-87.0"},{"Rune":"06","Correct":-1,"Choice":-1,"RT":-1,"Accuracy":1,"Sham":0,"Outcome":"+0","Keys":[],"TotalKeys":0,"Block":1,"Trial":76,"Valence":"Lose","Action":"No-Go","Robot":4,"trial_type":"pit-trial","trial_index":88,"time_elapsed":423078,"internal_node_id":"0.0-88.0"},{"Rune":"03","Correct":-1,"Choice":-1,"RT":-1,"Accuracy":1,"Sham":1,"Outcome":"+0","Keys":[],"TotalKeys":0,"Block":1,"Trial":77,"Valence":"Win","Action":"No-Go","Robot":2,"trial_type":"pit-trial","trial_index":89,"time_elapsed":427082,"internal_node_id":"0.0-89.0"},{"Rune":"04","Correct":32,"Choice":32,"RT":537.2550000001793,"Accuracy":1,"Sham":0,"Outcome":"+10","Keys":[2037.360000000277],"TotalKeys":1,"Block":1,"Trial":78,"Valence":"Win","Action":"Go","Robot":1,"trial_type":"pit-trial","trial_index":90,"time_elapsed":430123,"internal_node_id":"0.0-90.0"},{"Rune":"06","Correct":-1,"Choice":-1,"RT":-1,"Accuracy":1,"Sham":0,"Outcome":"+0","Keys":[],"TotalKeys":0,"Block":1,"Trial":79,"Valence":"Lose","Action":"No-Go","Robot":4,"trial_type":"pit-trial","trial_index":91,"time_elapsed":434128,"internal_node_id":"0.0-91.0"},{"Rune":"05","Correct":32,"Choice":32,"RT":697.309999999532,"Accuracy":1,"Sham":0,"Outcome":"+0","Keys":[2198.339999999909],"TotalKeys":1,"Block":1,"Trial":80,"Valence":"Lose","Action":"Go","Robot":3,"trial_type":"pit-trial","trial_index":92,"time_elapsed":437331,"internal_node_id":"0.0-92.0"},{"value":false,"trial_type":"call-function","trial_index":93,"time_elapsed":437336,"internal_node_id":"0.0-93.0"},{"RT":2008.6750000000466,"trial_type":"pit-pause","trial_index":94,"time_elapsed":442294,"internal_node_id":"0.0-94.0"},{"Rune":"04","Correct":32,"Choice":32,"RT":404.3600000004517,"Accuracy":1,"Sham":0,"Outcome":"+10","Keys":[1905.2449999999371],"TotalKeys":1,"Block":2,"Trial":81,"Valence":"Win","Action":"Go","Robot":1,"trial_type":"pit-trial","trial_index":95,"time_elapsed":445204,"internal_node_id":"0.0-95.0"},{"Rune":"03","Correct":-1,"Choice":-1,"RT":-1,"Accuracy":1,"Sham":0,"Outcome":"+10","Keys":[],"TotalKeys":0,"Block":2,"Trial":82,"Valence":"Win","Action":"No-Go","Robot":2,"trial_type":"pit-trial","trial_index":96,"time_elapsed":449210,"internal_node_id":"0.0-96.0"},{"Rune":"06","Correct":-1,"Choice":-1,"RT":-1,"Accuracy":1,"Sham":0,"Outcome":"+0","Keys":[],"TotalKeys":0,"Block":2,"Trial":83,"Valence":"Lose","Action":"No-Go","Robot":4,"trial_type":"pit-trial","trial_index":97,"time_elapsed":453213,"internal_node_id":"0.0-97.0"},{"Rune":"05","Correct":32,"Choice":32,"RT":660.7800000001444,"Accuracy":1,"Sham":0,"Outcome":"+0","Keys":[2160.9150000003865],"TotalKeys":1,"Block":2,"Trial":84,"Valence":"Lose","Action":"Go","Robot":3,"trial_type":"pit-trial","trial_index":98,"time_elapsed":456378,"internal_node_id":"0.0-98.0"},{"Rune":"04","Correct":32,"Choice":32,"RT":379.6649999995134,"Accuracy":1,"Sham":0,"Outcome":"+10","Keys":[1880.1200000006938],"TotalKeys":1,"Block":2,"Trial":85,"Valence":"Win","Action":"Go","Robot":1,"trial_type":"pit-trial","trial_index":99,"time_elapsed":459264,"internal_node_id":"0.0-99.0"},{"Rune":"03","Correct":-1,"Choice":-1,"RT":-1,"Accuracy":1,"Sham":0,"Outcome":"+10","Keys":[],"TotalKeys":0,"Block":2,"Trial":86,"Valence":"Win","Action":"No-Go","Robot":2,"trial_type":"pit-trial","trial_index":100,"time_elapsed":463269,"internal_node_id":"0.0-100.0"},{"Rune":"05","Correct":32,"Choice":32,"RT":666.234999999695,"Accuracy":1,"Sham":0,"Outcome":"+0","Keys":[2166.900000000198],"TotalKeys":1,"Block":2,"Trial":87,"Valence":"Lose","Action":"Go","Robot":3,"trial_type":"pit-trial","trial_index":101,"time_elapsed":466442,"internal_node_id":"0.0-101.0"},{"Rune":"06","Correct":-1,"Choice":-1,"RT":-1,"Accuracy":1,"Sham":0,"Outcome":"+0","Keys":[],"TotalKeys":0,"Block":2,"Trial":88,"Valence":"Lose","Action":"No-Go","Robot":4,"trial_type":"pit-trial","trial_index":102,"time_elapsed":470449,"internal_node_id":"0.0-102.0"},{"Rune":"05","Correct":32,"Choice":32,"RT":684.2550000001211,"Accuracy":1,"Sham":1,"Outcome":"-10","Keys":[2184.6450000003097],"TotalKeys":1,"Block":2,"Trial":89,"Valence":"Lose","Action":"Go","Robot":3,"trial_type":"pit-trial","trial_index":103,"time_elapsed":473640,"internal_node_id":"0.0-103.0"},{"Rune":"04","Correct":32,"Choice":32,"RT":313.7600000000093,"Accuracy":1,"Sham":1,"Outcome":"+0","Keys":[1814.9750000002678],"TotalKeys":1,"Block":2,"Trial":90,"Valence":"Win","Action":"Go","Robot":1,"trial_type":"pit-trial","trial_index":104,"time_elapsed":476460,"internal_node_id":"0.0-104.0"},{"Rune":"03","Correct":-1,"Choice":-1,"RT":-1,"Accuracy":1,"Sham":0,"Outcome":"+10","Keys":[],"TotalKeys":0,"Block":2,"Trial":91,"Valence":"Win","Action":"No-Go","Robot":2,"trial_type":"pit-trial","trial_index":105,"time_elapsed":480466,"internal_node_id":"0.0-105.0"},{"Rune":"06","Correct":-1,"Choice":-1,"RT":-1,"Accuracy":1,"Sham":0,"Outcome":"+0","Keys":[],"TotalKeys":0,"Block":2,"Trial":92,"Valence":"Lose","Action":"No-Go","Robot":4,"trial_type":"pit-trial","trial_index":106,"time_elapsed":484471,"internal_node_id":"0.0-106.0"},{"Rune":"06","Correct":-1,"Choice":-1,"RT":-1,"Accuracy":1,"Sham":0,"Outcome":"+0","Keys":[],"TotalKeys":0,"Block":2,"Trial":93,"Valence":"Lose","Action":"No-Go","Robot":4,"trial_type":"pit-trial","trial_index":107,"time_elapsed":488476,"internal_node_id":"0.0-107.0"},{"Rune":"04","Correct":32,"Choice":32,"RT":505.0200000004843,"Accuracy":1,"Sham":0,"Outcome":"+10","Keys":[2005.5700000002398],"TotalKeys":1,"Block":2,"Trial":94,"Valence":"Win","Action":"Go","Robot":1,"trial_type":"pit-trial","trial_index":108,"time_elapsed":491485,"internal_node_id":"0.0-108.0"},{"Rune":"05","Correct":32,"Choice":32,"RT":738.4299999994109,"Accuracy":1,"Sham":0,"Outcome":"+0","Keys":[2238.7149999995017],"TotalKeys":1,"Block":2,"Trial":95,"Valence":"Lose","Action":"Go","Robot":3,"trial_type":"pit-trial","trial_index":109,"time_elapsed":494729,"internal_node_id":"0.0-109.0"},{"Rune":"03","Correct":-1,"Choice":-1,"RT":-1,"Accuracy":1,"Sham":1,"Outcome":"+0","Keys":[],"TotalKeys":0,"Block":2,"Trial":96,"Valence":"Win","Action":"No-Go","Robot":2,"trial_type":"pit-trial","trial_index":110,"time_elapsed":498734,"internal_node_id":"0.0-110.0"},{"Rune":"06","Correct":-1,"Choice":-1,"RT":-1,"Accuracy":1,"Sham":1,"Outcome":"-10","Keys":[],"TotalKeys":0,"Block":2,"Trial":97,"Valence":"Lose","Action":"No-Go","Robot":4,"trial_type":"pit-trial","trial_index":111,"time_elapsed":502743,"internal_node_id":"0.0-111.0"},{"Rune":"04","Correct":32,"Choice":32,"RT":641.3149999998859,"Accuracy":1,"Sham":0,"Outcome":"+10","Keys":[2141.450000000128],"TotalKeys":1,"Block":2,"Trial":98,"Valence":"Win","Action":"Go","Robot":1,"trial_type":"pit-trial","trial_index":112,"time_elapsed":505889,"internal_node_id":"0.0-112.0"},{"Rune":"05","Correct":32,"Choice":32,"RT":654.745000000752,"Accuracy":1,"Sham":0,"Outcome":"+0","Keys":[2155.3150000000023],"TotalKeys":1,"Block":2,"Trial":99,"Valence":"Lose","Action":"Go","Robot":3,"trial_type":"pit-trial","trial_index":113,"time_elapsed":509048,"internal_node_id":"0.0-113.0"},{"Rune":"03","Correct":-1,"Choice":-1,"RT":-1,"Accuracy":1,"Sham":0,"Outcome":"+10","Keys":[],"TotalKeys":0,"Block":2,"Trial":100,"Valence":"Win","Action":"No-Go","Robot":2,"trial_type":"pit-trial","trial_index":114,"time_elapsed":513056,"internal_node_id":"0.0-114.0"},{"Rune":"06","Correct":-1,"Choice":-1,"RT":-1,"Accuracy":1,"Sham":0,"Outcome":"+0","Keys":[],"TotalKeys":0,"Block":2,"Trial":101,"Valence":"Lose","Action":"No-Go","Robot":4,"trial_type":"pit-trial","trial_index":115,"time_elapsed":517060,"internal_node_id":"0.0-115.0"},{"Rune":"05","Correct":32,"Choice":32,"RT":584.1449999997858,"Accuracy":1,"Sham":0,"Outcome":"+0","Keys":[2085.1700000002747],"TotalKeys":1,"Block":2,"Trial":102,"Valence":"Lose","Action":"Go","Robot":3,"trial_type":"pit-trial","trial_index":116,"time_elapsed":520147,"internal_node_id":"0.0-116.0"},{"Rune":"04","Correct":32,"Choice":32,"RT":493.7199999995064,"Accuracy":1,"Sham":1,"Outcome":"+0","Keys":[1993.8350000001956],"TotalKeys":1,"Block":2,"Trial":103,"Valence":"Win","Action":"Go","Robot":1,"trial_type":"pit-trial","trial_index":117,"time_elapsed":523144,"internal_node_id":"0.0-117.0"},{"Rune":"03","Correct":-1,"Choice":-1,"RT":-1,"Accuracy":1,"Sham":1,"Outcome":"+0","Keys":[],"TotalKeys":0,"Block":2,"Trial":104,"Valence":"Win","Action":"No-Go","Robot":2,"trial_type":"pit-trial","trial_index":118,"time_elapsed":527150,"internal_node_id":"0.0-118.0"},{"Rune":"05","Correct":32,"Choice":32,"RT":682.0549999993527,"Accuracy":1,"Sham":0,"Outcome":"+0","Keys":[2182.254999999772],"TotalKeys":1,"Block":2,"Trial":105,"Valence":"Lose","Action":"Go","Robot":3,"trial_type":"pit-trial","trial_index":119,"time_elapsed":530337,"internal_node_id":"0.0-119.0"},{"Rune":"04","Correct":32,"Choice":32,"RT":517.6500000007218,"Accuracy":1,"Sham":0,"Outcome":"+10","Keys":[2017.9699999998556],"TotalKeys":1,"Block":2,"Trial":106,"Valence":"Win","Action":"Go","Robot":1,"trial_type":"pit-trial","trial_index":120,"time_elapsed":533360,"internal_node_id":"0.0-120.0"},{"Rune":"03","Correct":-1,"Choice":-1,"RT":-1,"Accuracy":1,"Sham":0,"Outcome":"+10","Keys":[],"TotalKeys":0,"Block":2,"Trial":107,"Valence":"Win","Action":"No-Go","Robot":2,"trial_type":"pit-trial","trial_index":121,"time_elapsed":537364,"internal_node_id":"0.0-121.0"},{"Rune":"06","Correct":-1,"Choice":-1,"RT":-1,"Accuracy":1,"Sham":0,"Outcome":"+0","Keys":[],"TotalKeys":0,"Block":2,"Trial":108,"Valence":"Lose","Action":"No-Go","Robot":4,"trial_type":"pit-trial","trial_index":122,"time_elapsed":541368,"internal_node_id":"0.0-122.0"},{"Rune":"03","Correct":-1,"Choice":-1,"RT":-1,"Accuracy":1,"Sham":0,"Outcome":"+10","Keys":[],"TotalKeys":0,"Block":2,"Trial":109,"Valence":"Win","Action":"No-Go","Robot":2,"trial_type":"pit-trial","trial_index":123,"time_elapsed":545373,"internal_node_id":"0.0-123.0"},{"Rune":"06","Correct":-1,"Choice":-1,"RT":-1,"Accuracy":1,"Sham":0,"Outcome":"+0","Keys":[],"TotalKeys":0,"Block":2,"Trial":110,"Valence":"Lose","Action":"No-Go","Robot":4,"trial_type":"pit-trial","trial_index":124,"time_elapsed":549377,"internal_node_id":"0.0-124.0"},{"Rune":"04","Correct":32,"Choice":32,"RT":497.3549999995157,"Accuracy":1,"Sham":0,"Outcome":"+10","Keys":[1997.8499999997439],"TotalKeys":1,"Block":2,"Trial":111,"Valence":"Win","Action":"Go","Robot":1,"trial_type":"pit-trial","trial_index":125,"time_elapsed":552380,"internal_node_id":"0.0-125.0"},{"Rune":"05","Correct":32,"Choice":32,"RT":772.7549999998882,"Accuracy":1,"Sham":0,"Outcome":"+0","Keys":[2273.31500000041],"TotalKeys":1,"Block":2,"Trial":112,"Valence":"Lose","Action":"Go","Robot":3,"trial_type":"pit-trial","trial_index":126,"time_elapsed":555656,"internal_node_id":"0.0-126.0"},{"Rune":"03","Correct":-1,"Choice":-1,"RT":-1,"Accuracy":1,"Sham":0,"Outcome":"+10","Keys":[],"TotalKeys":0,"Block":2,"Trial":113,"Valence":"Win","Action":"No-Go","Robot":2,"trial_type":"pit-trial","trial_index":127,"time_elapsed":559661,"internal_node_id":"0.0-127.0"},{"Rune":"06","Correct":-1,"Choice":-1,"RT":-1,"Accuracy":1,"Sham":0,"Outcome":"+0","Keys":[],"TotalKeys":0,"Block":2,"Trial":114,"Valence":"Lose","Action":"No-Go","Robot":4,"trial_type":"pit-trial","trial_index":128,"time_elapsed":563666,"internal_node_id":"0.0-128.0"},{"Rune":"05","Correct":32,"Choice":32,"RT":612.664999999688,"Accuracy":1,"Sham":1,"Outcome":"-10","Keys":[2113.9350000002887],"TotalKeys":1,"Block":2,"Trial":115,"Valence":"Lose","Action":"Go","Robot":3,"trial_type":"pit-trial","trial_index":129,"time_elapsed":566784,"internal_node_id":"0.0-129.0"},{"Rune":"04","Correct":32,"Choice":32,"RT":501.875,"Accuracy":1,"Sham":0,"Outcome":"+10","Keys":[2002.9350000004051],"TotalKeys":1,"Block":2,"Trial":116,"Valence":"Win","Action":"Go","Robot":1,"trial_type":"pit-trial","trial_index":130,"time_elapsed":569792,"internal_node_id":"0.0-130.0"},{"Rune":"06","Correct":-1,"Choice":-1,"RT":-1,"Accuracy":1,"Sham":1,"Outcome":"-10","Keys":[],"TotalKeys":0,"Block":2,"Trial":117,"Valence":"Lose","Action":"No-Go","Robot":4,"trial_type":"pit-trial","trial_index":131,"time_elapsed":573795,"internal_node_id":"0.0-131.0"},{"Rune":"05","Correct":32,"Choice":32,"RT":638.2100000000792,"Accuracy":1,"Sham":0,"Outcome":"+0","Keys":[2138.914999999455],"TotalKeys":1,"Block":2,"Trial":118,"Valence":"Lose","Action":"Go","Robot":3,"trial_type":"pit-trial","trial_index":132,"time_elapsed":576938,"internal_node_id":"0.0-132.0"},{"Rune":"03","Correct":-1,"Choice":-1,"RT":-1,"Accuracy":1,"Sham":0,"Outcome":"+10","Keys":[],"TotalKeys":0,"Block":2,"Trial":119,"Valence":"Win","Action":"No-Go","Robot":2,"trial_type":"pit-trial","trial_index":133,"time_elapsed":580943,"internal_node_id":"0.0-133.0"},{"Rune":"04","Correct":32,"Choice":32,"RT":501.8299999992596,"Accuracy":1,"Sham":0,"Outcome":"+10","Keys":[2002.0500000000466],"TotalKeys":1,"Block":2,"Trial":120,"Valence":"Win","Action":"Go","Robot":1,"trial_type":"pit-trial","trial_index":134,"time_elapsed":583950,"internal_node_id":"0.0-134.0"},{"Rune":"03","Correct":-1,"Choice":-1,"RT":-1,"Accuracy":1,"Sham":0,"Outcome":"+10","Keys":[],"TotalKeys":0,"Block":2,"Trial":121,"Valence":"Win","Action":"No-Go","Robot":2,"trial_type":"pit-trial","trial_index":135,"time_elapsed":587953,"internal_node_id":"0.0-135.0"},{"Rune":"06","Correct":-1,"Choice":-1,"RT":-1,"Accuracy":1,"Sham":0,"Outcome":"+0","Keys":[],"TotalKeys":0,"Block":2,"Trial":122,"Valence":"Lose","Action":"No-Go","Robot":4,"trial_type":"pit-trial","trial_index":136,"time_elapsed":591960,"internal_node_id":"0.0-136.0"},{"Rune":"05","Correct":32,"Choice":32,"RT":646.2799999999115,"Accuracy":1,"Sham":0,"Outcome":"+0","Keys":[2146.8349999996135],"TotalKeys":1,"Block":2,"Trial":123,"Valence":"Lose","Action":"Go","Robot":3,"trial_type":"pit-trial","trial_index":137,"time_elapsed":595112,"internal_node_id":"0.0-137.0"},{"Rune":"04","Correct":32,"Choice":32,"RT":505.56499999947846,"Accuracy":1,"Sham":1,"Outcome":"+0","Keys":[2006.2050000006566],"TotalKeys":1,"Block":2,"Trial":124,"Valence":"Win","Action":"Go","Robot":1,"trial_type":"pit-trial","trial_index":138,"time_elapsed":598124,"internal_node_id":"0.0-138.0"},{"Rune":"05","Correct":32,"Choice":32,"RT":621.2649999997811,"Accuracy":1,"Sham":1,"Outcome":"-10","Keys":[2122.045000000042],"TotalKeys":1,"Block":2,"Trial":125,"Valence":"Lose","Action":"Go","Robot":3,"trial_type":"pit-trial","trial_index":139,"time_elapsed":601250,"internal_node_id":"0.0-139.0"},{"Rune":"06","Correct":-1,"Choice":-1,"RT":-1,"Accuracy":1,"Sham":0,"Outcome":"+0","Keys":[],"TotalKeys":0,"Block":2,"Trial":126,"Valence":"Lose","Action":"No-Go","Robot":4,"trial_type":"pit-trial","trial_index":140,"time_elapsed":605254,"internal_node_id":"0.0-140.0"},{"Rune":"03","Correct":-1,"Choice":-1,"RT":-1,"Accuracy":1,"Sham":0,"Outcome":"+10","Keys":[],"TotalKeys":0,"Block":2,"Trial":127,"Valence":"Win","Action":"No-Go","Robot":2,"trial_type":"pit-trial","trial_index":141,"time_elapsed":609259,"internal_node_id":"0.0-141.0"},{"Rune":"04","Correct":32,"Choice":32,"RT":458.5350000007311,"Accuracy":1,"Sham":0,"Outcome":"+10","Keys":[1958.8999999995576],"TotalKeys":1,"Block":2,"Trial":128,"Valence":"Win","Action":"Go","Robot":1,"trial_type":"pit-trial","trial_index":142,"time_elapsed":612221,"internal_node_id":"0.0-142.0"},{"Rune":"06","Correct":-1,"Choice":-1,"RT":-1,"Accuracy":1,"Sham":0,"Outcome":"+0","Keys":[],"TotalKeys":0,"Block":2,"Trial":129,"Valence":"Lose","Action":"No-Go","Robot":4,"trial_type":"pit-trial","trial_index":143,"time_elapsed":616226,"internal_node_id":"0.0-143.0"},{"Rune":"04","Correct":32,"Choice":32,"RT":474.0900000006659,"Accuracy":1,"Sham":0,"Outcome":"+10","Keys":[1974.7350000006845],"TotalKeys":1,"Block":2,"Trial":130,"Valence":"Win","Action":"Go","Robot":1,"trial_type":"pit-trial","trial_index":144,"time_elapsed":619203,"internal_node_id":"0.0-144.0"},{"Rune":"05","Correct":32,"Choice":32,"RT":578.1299999998882,"Accuracy":1,"Sham":0,"Outcome":"+0","Keys":[2078.4549999998417],"TotalKeys":1,"Block":2,"Trial":131,"Valence":"Lose","Action":"Go","Robot":3,"trial_type":"pit-trial","trial_index":145,"time_elapsed":622285,"internal_node_id":"0.0-145.0"},{"Rune":"03","Correct":-1,"Choice":-1,"RT":-1,"Accuracy":1,"Sham":0,"Outcome":"+10","Keys":[],"TotalKeys":0,"Block":2,"Trial":132,"Valence":"Win","Action":"No-Go","Robot":2,"trial_type":"pit-trial","trial_index":146,"time_elapsed":626294,"internal_node_id":"0.0-146.0"},{"Rune":"06","Correct":-1,"Choice":-1,"RT":-1,"Accuracy":1,"Sham":0,"Outcome":"+0","Keys":[],"TotalKeys":0,"Block":2,"Trial":133,"Valence":"Lose","Action":"No-Go","Robot":4,"trial_type":"pit-trial","trial_index":147,"time_elapsed":630298,"internal_node_id":"0.0-147.0"},{"Rune":"04","Correct":32,"Choice":32,"RT":444.5550000000512,"Accuracy":1,"Sham":0,"Outcome":"+10","Keys":[1944.8350000001956],"TotalKeys":1,"Block":2,"Trial":134,"Valence":"Win","Action":"Go","Robot":1,"trial_type":"pit-trial","trial_index":148,"time_elapsed":633247,"internal_node_id":"0.0-148.0"},{"Rune":"05","Correct":32,"Choice":32,"RT":556.3449999999721,"Accuracy":1,"Sham":0,"Outcome":"+0","Keys":[2057.314999999944],"TotalKeys":1,"Block":2,"Trial":135,"Valence":"Lose","Action":"Go","Robot":3,"trial_type":"pit-trial","trial_index":149,"time_elapsed":636308,"internal_node_id":"0.0-149.0"},{"Rune":"03","Correct":-1,"Choice":-1,"RT":-1,"Accuracy":1,"Sham":0,"Outcome":"+10","Keys":[],"TotalKeys":0,"Block":2,"Trial":136,"Valence":"Win","Action":"No-Go","Robot":2,"trial_type":"pit-trial","trial_index":150,"time_elapsed":640312,"internal_node_id":"0.0-150.0"},{"Rune":"06","Correct":-1,"Choice":-1,"RT":-1,"Accuracy":1,"Sham":1,"Outcome":"-10","Keys":[],"TotalKeys":0,"Block":2,"Trial":137,"Valence":"Lose","Action":"No-Go","Robot":4,"trial_type":"pit-trial","trial_index":151,"time_elapsed":644317,"internal_node_id":"0.0-151.0"},{"Rune":"04","Correct":32,"Choice":32,"RT":383.73000000044703,"Accuracy":1,"Sham":0,"Outcome":"+10","Keys":[1885.1249999998836],"TotalKeys":1,"Block":2,"Trial":138,"Valence":"Win","Action":"Go","Robot":1,"trial_type":"pit-trial","trial_index":152,"time_elapsed":647204,"internal_node_id":"0.0-152.0"},{"Rune":"05","Correct":32,"Choice":32,"RT":412.8250000003027,"Accuracy":1,"Sham":0,"Outcome":"+0","Keys":[1913.7249999993946],"TotalKeys":1,"Block":2,"Trial":139,"Valence":"Lose","Action":"Go","Robot":3,"trial_type":"pit-trial","trial_index":153,"time_elapsed":650121,"internal_node_id":"0.0-153.0"},{"Rune":"03","Correct":-1,"Choice":-1,"RT":-1,"Accuracy":1,"Sham":1,"Outcome":"+0","Keys":[],"TotalKeys":0,"Block":2,"Trial":140,"Valence":"Win","Action":"No-Go","Robot":2,"trial_type":"pit-trial","trial_index":154,"time_elapsed":654126,"internal_node_id":"0.0-154.0"},{"Rune":"03","Correct":-1,"Choice":-1,"RT":-1,"Accuracy":1,"Sham":1,"Outcome":"+0","Keys":[],"TotalKeys":0,"Block":2,"Trial":141,"Valence":"Win","Action":"No-Go","Robot":2,"trial_type":"pit-trial","trial_index":155,"time_elapsed":658129,"internal_node_id":"0.0-155.0"},{"Rune":"05","Correct":32,"Choice":32,"RT":559.3150000004098,"Accuracy":1,"Sham":0,"Outcome":"+0","Keys":[2059.900000000256],"TotalKeys":1,"Block":2,"Trial":142,"Valence":"Lose","Action":"Go","Robot":3,"trial_type":"pit-trial","trial_index":156,"time_elapsed":661194,"internal_node_id":"0.0-156.0"},{"Rune":"04","Correct":32,"Choice":32,"RT":485.3999999995576,"Accuracy":1,"Sham":0,"Outcome":"+10","Keys":[1985.704999999958],"TotalKeys":1,"Block":2,"Trial":143,"Valence":"Win","Action":"Go","Robot":1,"trial_type":"pit-trial","trial_index":157,"time_elapsed":664183,"internal_node_id":"0.0-157.0"},{"Rune":"06","Correct":-1,"Choice":-1,"RT":-1,"Accuracy":1,"Sham":0,"Outcome":"+0","Keys":[],"TotalKeys":0,"Block":2,"Trial":144,"Valence":"Lose","Action":"No-Go","Robot":4,"trial_type":"pit-trial","trial_index":158,"time_elapsed":668188,"internal_node_id":"0.0-158.0"},{"Rune":"06","Correct":-1,"Choice":-1,"RT":-1,"Accuracy":1,"Sham":0,"Outcome":"+0","Keys":[],"TotalKeys":0,"Block":2,"Trial":145,"Valence":"Lose","Action":"No-Go","Robot":4,"trial_type":"pit-trial","trial_index":159,"time_elapsed":672194,"internal_node_id":"0.0-159.0"},{"Rune":"04","Correct":32,"Choice":32,"RT":726.9050000003772,"Accuracy":1,"Sham":0,"Outcome":"+10","Keys":[2228.039999999921],"TotalKeys":1,"Block":2,"Trial":146,"Valence":"Win","Action":"Go","Robot":1,"trial_type":"pit-trial","trial_index":160,"time_elapsed":675426,"internal_node_id":"0.0-160.0"},{"Rune":"05","Correct":32,"Choice":32,"RT":649.2299999999814,"Accuracy":1,"Sham":0,"Outcome":"+0","Keys":[2149.3699999991804],"TotalKeys":1,"Block":2,"Trial":147,"Valence":"Lose","Action":"Go","Robot":3,"trial_type":"pit-trial","trial_index":161,"time_elapsed":678580,"internal_node_id":"0.0-161.0"},{"Rune":"03","Correct":-1,"Choice":-1,"RT":-1,"Accuracy":1,"Sham":0,"Outcome":"+10","Keys":[],"TotalKeys":0,"Block":2,"Trial":148,"Valence":"Win","Action":"No-Go","Robot":2,"trial_type":"pit-trial","trial_index":162,"time_elapsed":682585,"internal_node_id":"0.0-162.0"},{"Rune":"03","Correct":-1,"Choice":-1,"RT":-1,"Accuracy":1,"Sham":0,"Outcome":"+10","Keys":[],"TotalKeys":0,"Block":2,"Trial":149,"Valence":"Win","Action":"No-Go","Robot":2,"trial_type":"pit-trial","trial_index":163,"time_elapsed":686591,"internal_node_id":"0.0-163.0"},{"Rune":"06","Correct":-1,"Choice":-1,"RT":-1,"Accuracy":1,"Sham":0,"Outcome":"+0","Keys":[],"TotalKeys":0,"Block":2,"Trial":150,"Valence":"Lose","Action":"No-Go","Robot":4,"trial_type":"pit-trial","trial_index":164,"time_elapsed":690597,"internal_node_id":"0.0-164.0"},{"Rune":"05","Correct":32,"Choice":32,"RT":557.010000000475,"Accuracy":1,"Sham":0,"Outcome":"+0","Keys":[2057.954999999376],"TotalKeys":1,"Block":2,"Trial":151,"Valence":"Lose","Action":"Go","Robot":3,"trial_type":"pit-trial","trial_index":165,"time_elapsed":693659,"internal_node_id":"0.0-165.0"},{"Rune":"04","Correct":32,"Choice":32,"RT":338.87500000034925,"Accuracy":1,"Sham":0,"Outcome":"+10","Keys":[1839.7800000002608],"TotalKeys":1,"Block":2,"Trial":152,"Valence":"Win","Action":"Go","Robot":1,"trial_type":"pit-trial","trial_index":166,"time_elapsed":696502,"internal_node_id":"0.0-166.0"},{"Rune":"04","Correct":32,"Choice":32,"RT":669.9300000000512,"Accuracy":1,"Sham":0,"Outcome":"+10","Keys":[2169.9849999995204],"TotalKeys":1,"Block":2,"Trial":153,"Valence":"Win","Action":"Go","Robot":1,"trial_type":"pit-trial","trial_index":167,"time_elapsed":699675,"internal_node_id":"0.0-167.0"},{"Rune":"06","Correct":-1,"Choice":-1,"RT":-1,"Accuracy":1,"Sham":0,"Outcome":"+0","Keys":[],"TotalKeys":0,"Block":2,"Trial":154,"Valence":"Lose","Action":"No-Go","Robot":4,"trial_type":"pit-trial","trial_index":168,"time_elapsed":703679,"internal_node_id":"0.0-168.0"},{"Rune":"05","Correct":32,"Choice":32,"RT":628.1150000004563,"Accuracy":1,"Sham":0,"Outcome":"+0","Keys":[2129.1499999997905],"TotalKeys":1,"Block":2,"Trial":155,"Valence":"Lose","Action":"Go","Robot":3,"trial_type":"pit-trial","trial_index":169,"time_elapsed":706812,"internal_node_id":"0.0-169.0"},{"Rune":"03","Correct":-1,"Choice":-1,"RT":-1,"Accuracy":1,"Sham":0,"Outcome":"+10","Keys":[],"TotalKeys":0,"Block":2,"Trial":156,"Valence":"Win","Action":"No-Go","Robot":2,"trial_type":"pit-trial","trial_index":170,"time_elapsed":710817,"internal_node_id":"0.0-170.0"},{"Rune":"05","Correct":32,"Choice":32,"RT":507.7750000000233,"Accuracy":1,"Sham":1,"Outcome":"-10","Keys":[2008.1250000002328],"TotalKeys":1,"Block":2,"Trial":157,"Valence":"Lose","Action":"Go","Robot":3,"trial_type":"pit-trial","trial_index":171,"time_elapsed":713828,"internal_node_id":"0.0-171.0"},{"Rune":"06","Correct":-1,"Choice":-1,"RT":-1,"Accuracy":1,"Sham":1,"Outcome":"-10","Keys":[],"TotalKeys":0,"Block":2,"Trial":158,"Valence":"Lose","Action":"No-Go","Robot":4,"trial_type":"pit-trial","trial_index":172,"time_elapsed":717832,"internal_node_id":"0.0-172.0"},{"Rune":"03","Correct":-1,"Choice":32,"RT":390.80999999982305,"Accuracy":0,"Sham":0,"Outcome":"+0","Keys":[1891.4700000004377],"TotalKeys":1,"Block":2,"Trial":159,"Valence":"Win","Action":"No-Go","Robot":2,"trial_type":"pit-trial","trial_index":173,"time_elapsed":720726,"internal_node_id":"0.0-173.0"},{"Rune":"04","Correct":32,"Choice":32,"RT":413.1399999996647,"Accuracy":1,"Sham":1,"Outcome":"+0","Keys":[1913.45999999973],"TotalKeys":1,"Block":2,"Trial":160,"Valence":"Win","Action":"Go","Robot":1,"trial_type":"pit-trial","trial_index":174,"time_elapsed":723641,"internal_node_id":"0.0-174.0"},{"rt":14155.404999999562,"demographics":{"age":"36","gender-categorical":"Male","ethnicity":"Not Hispanic or Latino","race":"Black or African American","english":"Yes","fluency":"Very well"},"trial_type":"survey-demo","trial_index":175,"time_elapsed":737800,"internal_node_id":"0.0-175.0"},{"rt":37399.18500000017,"debriefgraphics":{"difficulty":"3","fun":"4","clarity":"5","strategy":"I just memorized the most consistent responses and stuck with them the whole time","feedback":"Good luck"},"trial_type":"survey-debrief","trial_index":176,"time_elapsed":775201,"internal_node_id":"0.0-176.0","interactions":"[{\"event\":\"blur\",\"trial\":10,\"time\":92941},{\"event\":\"focus\",\"trial\":10,\"time\":98591}]"}]