[{"view_history":"[{\"page_index\":0,\"viewing_time\":3375.220000045374},{\"page_index\":1,\"viewing_time\":3119.5450000232086},{\"page_index\":2,\"viewing_time\":2627.5149999419227},{\"page_index\":3,\"viewing_time\":4253.460000036284},{\"page_index\":4,\"viewing_time\":3899.1499999538064},{\"page_index\":5,\"viewing_time\":1987.290000077337},{\"page_index\":6,\"viewing_time\":3719.92499998305},{\"page_index\":7,\"viewing_time\":5859.674999956042},{\"page_index\":8,\"viewing_time\":8995.289999991655},{\"page_index\":9,\"viewing_time\":2753.235000069253}]","rt":40591.49999998044,"trial_type":"pit-instructions","trial_index":0,"time_elapsed":40668,"internal_node_id":"0.0-0.0-0.0","task_version":"battery-v0.2"},{"rune":"1","rune_set":"elianto","hex":"#3366ff99","correct":32,"choice":32,"rt":1059.929999988526,"accuracy":1,"outcome":"+10","keys":[2561.32500001695],"total_keys":1,"block":0,"practice":1,"trial_type":"pit-trial","trial_index":1,"time_elapsed":44436,"internal_node_id":"0.0-0.0-1.0-0.0","task_version":"battery-v0.2"},{"rune":"1","rune_set":"elianto","hex":"#3366ff99","correct":32,"choice":32,"rt":1116.1599999759346,"accuracy":1,"outcome":"+10","keys":[2618.224999983795],"total_keys":1,"block":0,"practice":1,"trial_type":"pit-trial","trial_index":2,"time_elapsed":48257,"internal_node_id":"0.0-0.0-1.1-0.1","task_version":"battery-v0.2"},{"rune":"1","rune_set":"elianto","hex":"#3366ff99","correct":32,"choice":32,"rt":907.3199999984354,"accuracy":1,"outcome":"+10","keys":[2408.090000040829],"total_keys":1,"block":0,"practice":1,"trial_type":"pit-trial","trial_index":3,"time_elapsed":51868,"internal_node_id":"0.0-0.0-1.2-0.2","task_version":"battery-v0.2"},{"rune":"1","rune_set":"elianto","hex":"#3366ff99","correct":32,"choice":32,"rt":704.8100000247359,"accuracy":1,"outcome":"+10","keys":[2205.55999991484],"total_keys":1,"block":0,"practice":1,"trial_type":"pit-trial","trial_index":4,"time_elapsed":55277,"internal_node_id":"0.0-0.0-1.3-0.3","task_version":"battery-v0.2"},{"view_history":"[{\"page_index\":0,\"viewing_time\":1917.5149999791756},{\"page_index\":1,\"viewing_time\":2735.2650000248104}]","rt":4653.155000065453,"trial_type":"pit-instructions","trial_index":5,"time_elapsed":59932,"internal_node_id":"0.0-0.0-2.0","task_version":"battery-v0.2"},{"rune":"2","rune_set":"elianto","hex":"#3366ff99","correct":-1,"choice":32,"rt":740.07000005804,"accuracy":0,"outcome":"+1","keys":[2240.5799999833107],"total_keys":1,"block":0,"practice":2,"trial_type":"pit-trial","trial_index":6,"time_elapsed":63379,"internal_node_id":"0.0-0.0-3.0-0.0","task_version":"battery-v0.2"},{"rune":"2","rune_set":"elianto","hex":"#3366ff99","correct":-1,"choice":32,"rt":105.30499997548759,"accuracy":0,"outcome":"+1","keys":[1606.1400000471622],"total_keys":1,"block":0,"practice":2,"trial_type":"pit-trial","trial_index":7,"time_elapsed":66189,"internal_node_id":"0.0-0.0-3.1-0.1","task_version":"battery-v0.2"},{"rune":"2","rune_set":"elianto","hex":"#3366ff99","correct":-1,"choice":-1,"rt":-1,"accuracy":1,"outcome":"+10","keys":[1374.0750000579283],"total_keys":1,"block":0,"practice":2,"trial_type":"pit-trial","trial_index":8,"time_elapsed":70196,"internal_node_id":"0.0-0.0-3.2-0.2","task_version":"battery-v0.2"},{"rune":"2","rune_set":"elianto","hex":"#3366ff99","correct":-1,"choice":32,"rt":48.35499997716397,"accuracy":0,"outcome":"+1","keys":[1550.0750000355765],"total_keys":1,"block":0,"practice":2,"trial_type":"pit-trial","trial_index":9,"time_elapsed":72951,"internal_node_id":"0.0-0.0-3.3-0.3","task_version":"battery-v0.2"},{"rune":"2","rune_set":"elianto","hex":"#3366ff99","correct":-1,"choice":32,"rt":590.5349999666214,"accuracy":0,"outcome":"+1","keys":[2091.740000061691],"total_keys":1,"block":0,"practice":2,"trial_type":"pit-trial","trial_index":10,"time_elapsed":76246,"internal_node_id":"0.0-0.0-3.4-0.4","task_version":"battery-v0.2"},{"rune":"2","rune_set":"elianto","hex":"#3366ff99","correct":-1,"choice":32,"rt":603.5449999617413,"accuracy":0,"outcome":"+1","keys":[2103.8100000005215],"total_keys":1,"block":0,"practice":2,"trial_type":"pit-trial","trial_index":11,"time_elapsed":79554,"internal_node_id":"0.0-0.0-3.5-0.5","task_version":"battery-v0.2"},{"rune":"2","rune_set":"elianto","hex":"#3366ff99","correct":-1,"choice":32,"rt":352.6950000086799,"accuracy":0,"outcome":"+1","keys":[1855.2899999776855],"total_keys":1,"block":0,"practice":2,"trial_type":"pit-trial","trial_index":12,"time_elapsed":82616,"internal_node_id":"0.0-0.0-3.6-0.6","task_version":"battery-v0.2"},{"rune":"2","rune_set":"elianto","hex":"#3366ff99","correct":-1,"choice":32,"rt":409.1950000729412,"accuracy":0,"outcome":"+1","keys":[1909.845000016503],"total_keys":1,"block":0,"practice":2,"trial_type":"pit-trial","trial_index":13,"time_elapsed":85730,"internal_node_id":"0.0-0.0-3.7-0.7","task_version":"battery-v0.2"},{"rune":"2","rune_set":"elianto","hex":"#3366ff99","correct":-1,"choice":32,"rt":557.0000000298023,"accuracy":0,"outcome":"+1","keys":[2057.7749999938533],"total_keys":1,"block":0,"practice":2,"trial_type":"pit-trial","trial_index":14,"time_elapsed":88994,"internal_node_id":"0.0-0.0-3.8-0.8","task_version":"battery-v0.2"},{"rune":"2","rune_set":"elianto","hex":"#3366ff99","correct":-1,"choice":32,"rt":904.8100000945851,"accuracy":0,"outcome":"+1","keys":[2405.1699999254197],"total_keys":1,"block":0,"practice":2,"trial_type":"pit-trial","trial_index":15,"time_elapsed":92604,"internal_node_id":"0.0-0.0-3.9-0.9","task_version":"battery-v0.2"},{"rune":"2","rune_set":"elianto","hex":"#3366ff99","correct":-1,"choice":32,"rt":646.8549999408424,"accuracy":0,"outcome":"+1","keys":[2147.7500000037253],"total_keys":1,"block":0,"practice":2,"trial_type":"pit-trial","trial_index":16,"time_elapsed":95954,"internal_node_id":"0.0-0.0-3.10-0.10","task_version":"battery-v0.2"},{"rune":"2","rune_set":"elianto","hex":"#3366ff99","correct":-1,"choice":32,"rt":557.7000000048429,"accuracy":0,"outcome":"+1","keys":[2059.045000001788],"total_keys":1,"block":0,"practice":2,"trial_type":"pit-trial","trial_index":17,"time_elapsed":99217,"internal_node_id":"0.0-0.0-3.11-0.11","task_version":"battery-v0.2"},{"rune":"2","rune_set":"elianto","hex":"#3366ff99","correct":-1,"choice":32,"rt":682.1399999316782,"accuracy":0,"outcome":"+1","keys":[2182.649999973364],"total_keys":1,"block":0,"practice":2,"trial_type":"pit-trial","trial_index":18,"time_elapsed":102605,"internal_node_id":"0.0-0.0-3.12-0.12","task_version":"battery-v0.2"},{"rune":"2","rune_set":"elianto","hex":"#3366ff99","correct":-1,"choice":32,"rt":891.7750000255182,"accuracy":0,"outcome":"+1","keys":[2393.5650000348687],"total_keys":1,"block":0,"practice":2,"trial_type":"pit-trial","trial_index":19,"time_elapsed":106205,"internal_node_id":"0.0-0.0-3.13-0.13","task_version":"battery-v0.2"},{"rune":"2","rune_set":"elianto","hex":"#3366ff99","correct":-1,"choice":-1,"rt":-1,"accuracy":1,"outcome":"+10","keys":[],"total_keys":0,"block":0,"practice":2,"trial_type":"pit-trial","trial_index":20,"time_elapsed":110213,"internal_node_id":"0.0-0.0-3.14-0.14","task_version":"battery-v0.2"},{"rune":"2","rune_set":"elianto","hex":"#3366ff99","correct":-1,"choice":-1,"rt":-1,"accuracy":1,"outcome":"+10","keys":[],"total_keys":0,"block":0,"practice":2,"trial_type":"pit-trial","trial_index":21,"time_elapsed":114221,"internal_node_id":"0.0-0.0-3.15-0.15","task_version":"battery-v0.2"},{"rune":"2","rune_set":"elianto","hex":"#3366ff99","correct":-1,"choice":-1,"rt":-1,"accuracy":1,"outcome":"+10","keys":[],"total_keys":0,"block":0,"practice":2,"trial_type":"pit-trial","trial_index":22,"time_elapsed":118225,"internal_node_id":"0.0-0.0-3.16-0.16","task_version":"battery-v0.2"},{"view_history":"[{\"page_index\":0,\"viewing_time\":11523.700000019744},{\"page_index\":1,\"viewing_time\":7533.98000006564}]","rt":19058.165000053123,"trial_type":"pit-instructions","trial_index":23,"time_elapsed":137284,"internal_node_id":"0.0-0.0-4.0","task_version":"battery-v0.2"},{"rune":"3","rune_set":"elianto","hex":"#f73b6a7A","correct":-1,"choice":32,"rt":942.6550000207499,"accuracy":0,"outcome":"-10","keys":[1487.0349999982864,2442.9999999701977],"total_keys":2,"block":0,"practice":3,"trial_type":"pit-trial","trial_index":24,"time_elapsed":140932,"internal_node_id":"0.0-0.0-5.0-0.0","task_version":"battery-v0.2"},{"rune":"3","rune_set":"elianto","hex":"#f73b6a7A","correct":-1,"choice":-1,"rt":-1,"accuracy":1,"outcome":"-1","keys":[],"total_keys":0,"block":0,"practice":3,"trial_type":"pit-trial","trial_index":25,"time_elapsed":144936,"internal_node_id":"0.0-0.0-5.1-0.1","task_version":"battery-v0.2"},{"rune":"3","rune_set":"elianto","hex":"#f73b6a7A","correct":-1,"choice":-1,"rt":-1,"accuracy":1,"outcome":"-1","keys":[],"total_keys":0,"block":0,"practice":3,"trial_type":"pit-trial","trial_index":26,"time_elapsed":148944,"internal_node_id":"0.0-0.0-5.2-0.2","task_version":"battery-v0.2"},{"rune":"3","rune_set":"elianto","hex":"#f73b6a7A","correct":-1,"choice":32,"rt":239.09499996807426,"accuracy":0,"outcome":"-10","keys":[1739.434999995865],"total_keys":1,"block":0,"practice":3,"trial_type":"pit-trial","trial_index":27,"time_elapsed":151886,"internal_node_id":"0.0-0.0-5.3-0.3","task_version":"battery-v0.2"},{"rune":"3","rune_set":"elianto","hex":"#f73b6a7A","correct":-1,"choice":32,"rt":422.6049999706447,"accuracy":0,"outcome":"-10","keys":[1923.4999999171123],"total_keys":1,"block":0,"practice":3,"trial_type":"pit-trial","trial_index":28,"time_elapsed":155013,"internal_node_id":"0.0-0.0-5.4-0.4","task_version":"battery-v0.2"},{"rune":"3","rune_set":"elianto","hex":"#f73b6a7A","correct":-1,"choice":32,"rt":715.3149999212474,"accuracy":0,"outcome":"-10","keys":[2215.650000027381],"total_keys":1,"block":0,"practice":3,"trial_type":"pit-trial","trial_index":29,"time_elapsed":158431,"internal_node_id":"0.0-0.0-5.5-0.5","task_version":"battery-v0.2"},{"rune":"3","rune_set":"elianto","hex":"#f73b6a7A","correct":-1,"choice":-1,"rt":-1,"accuracy":1,"outcome":"-1","keys":[],"total_keys":0,"block":0,"practice":3,"trial_type":"pit-trial","trial_index":30,"time_elapsed":162438,"internal_node_id":"0.0-0.0-5.6-0.6","task_version":"battery-v0.2"},{"rune":"3","rune_set":"elianto","hex":"#f73b6a7A","correct":-1,"choice":-1,"rt":-1,"accuracy":1,"outcome":"-1","keys":[],"total_keys":0,"block":0,"practice":3,"trial_type":"pit-trial","trial_index":31,"time_elapsed":166443,"internal_node_id":"0.0-0.0-5.7-0.7","task_version":"battery-v0.2"},{"rune":"3","rune_set":"elianto","hex":"#f73b6a7A","correct":-1,"choice":-1,"rt":-1,"accuracy":1,"outcome":"-1","keys":[],"total_keys":0,"block":0,"practice":3,"trial_type":"pit-trial","trial_index":32,"time_elapsed":170449,"internal_node_id":"0.0-0.0-5.8-0.8","task_version":"battery-v0.2"},{"view_history":"[{\"page_index\":0,\"viewing_time\":1265.9249999560416},{\"page_index\":1,\"viewing_time\":3865.15500000678}]","rt":5131.569999968633,"trial_type":"pit-instructions","trial_index":33,"time_elapsed":175582,"internal_node_id":"0.0-0.0-6.0","task_version":"battery-v0.2"},{"rune":"4","rune_set":"elianto","hex":"#f73b6a7A","correct":32,"choice":32,"rt":631.3099999679253,"accuracy":1,"outcome":"-1","keys":[2132.6650000410154],"total_keys":1,"block":0,"practice":4,"trial_type":"pit-trial","trial_index":34,"time_elapsed":178918,"internal_node_id":"0.0-0.0-7.0-0.0","task_version":"battery-v0.2"},{"rune":"4","rune_set":"elianto","hex":"#f73b6a7A","correct":32,"choice":-1,"rt":-1,"accuracy":0,"outcome":"-10","keys":[],"total_keys":0,"block":0,"practice":4,"trial_type":"pit-trial","trial_index":35,"time_elapsed":182924,"internal_node_id":"0.0-0.0-7.1-0.1","task_version":"battery-v0.2"},{"rune":"4","rune_set":"elianto","hex":"#f73b6a7A","correct":32,"choice":-1,"rt":-1,"accuracy":0,"outcome":"-10","keys":[],"total_keys":0,"block":0,"practice":4,"trial_type":"pit-trial","trial_index":36,"time_elapsed":186934,"internal_node_id":"0.0-0.0-7.2-0.2","task_version":"battery-v0.2"},{"rune":"4","rune_set":"elianto","hex":"#f73b6a7A","correct":32,"choice":32,"rt":348.52500003762543,"accuracy":1,"outcome":"-1","keys":[1849.7349999379367],"total_keys":1,"block":0,"practice":4,"trial_type":"pit-trial","trial_index":37,"time_elapsed":189988,"internal_node_id":"0.0-0.0-7.3-0.3","task_version":"battery-v0.2"},{"rune":"4","rune_set":"elianto","hex":"#f73b6a7A","correct":32,"choice":32,"rt":264.7899999283254,"accuracy":1,"outcome":"-1","keys":[1765.2800000505522],"total_keys":1,"block":0,"practice":4,"trial_type":"pit-trial","trial_index":38,"time_elapsed":192958,"internal_node_id":"0.0-0.0-7.4-0.4","task_version":"battery-v0.2"},{"rune":"4","rune_set":"elianto","hex":"#f73b6a7A","correct":32,"choice":32,"rt":534.8799999337643,"accuracy":1,"outcome":"-1","keys":[1486.0149999149144,2035.2649999549612],"total_keys":2,"block":0,"practice":4,"trial_type":"pit-trial","trial_index":39,"time_elapsed":196196,"internal_node_id":"0.0-0.0-7.5-0.5","task_version":"battery-v0.2"},{"view_history":"[{\"page_index\":0,\"viewing_time\":1441.2350000347942},{\"page_index\":1,\"viewing_time\":3784.1499999631196},{\"page_index\":2,\"viewing_time\":4459.750000038184},{\"page_index\":3,\"viewing_time\":1472.0850000157952},{\"page_index\":4,\"viewing_time\":2212.294999975711},{\"page_index\":5,\"viewing_time\":1600.0650000059977}]","rt":14969.920000061393,"trial_type":"pit-instructions","trial_index":40,"time_elapsed":211167,"internal_node_id":"0.0-0.0-8.0","task_version":"battery-v0.2"},{"responses":["Press SPACE","+10","-1","True","True"],"num_errors":0,"rt":17476.864999975078,"trial_type":"pit-comprehension","trial_index":41,"time_elapsed":228647,"internal_node_id":"0.0-0.0-9.0","task_version":"battery-v0.2"},{"view_history":"[{\"page_index\":0,\"viewing_time\":1628.9600000018254},{\"page_index\":1,\"viewing_time\":2090.9499999834225}]","rt":3720.420000026934,"trial_type":"pit-instructions","trial_index":42,"time_elapsed":232371,"internal_node_id":"0.0-1.0","task_version":"battery-v0.2"},{"rune":"N","rune_set":"bacs1","hex":"#3366ff99","correct":-1,"choice":32,"rt":526.3999999733642,"accuracy":0,"outcome":"+1","keys":[2027.2700000787154],"total_keys":1,"block":1,"trial":1,"stimulus":0,"robot":2,"valence":"win","action":"no-go","sham":0,"trial_type":"pit-trial","trial_index":43,"time_elapsed":235604,"internal_node_id":"0.0-2.0","task_version":"battery-v0.2"},{"rune":"I","rune_set":"bacs1","hex":"#f73b6a7A","correct":-1,"choice":-1,"rt":-1,"accuracy":1,"outcome":"-1","keys":[],"total_keys":0,"block":1,"trial":2,"stimulus":2,"robot":4,"valence":"lose","action":"no-go","sham":0,"trial_type":"pit-trial","trial_index":44,"time_elapsed":239611,"internal_node_id":"0.0-3.0","task_version":"battery-v0.2"},{"rune":"O","rune_set":"bacs1","hex":"#3366ff99","correct":32,"choice":32,"rt":656.0250000329688,"accuracy":1,"outcome":"+10","keys":[2156.444999971427],"total_keys":1,"block":1,"trial":3,"stimulus":3,"robot":1,"valence":"win","action":"go","sham":0,"trial_type":"pit-trial","trial_index":45,"time_elapsed":242972,"internal_node_id":"0.0-4.0","task_version":"battery-v0.2"},{"rune":"G","rune_set":"bacs1","hex":"#3366ff99","correct":32,"choice":32,"rt":512.4050000449643,"accuracy":1,"outcome":"+10","keys":[2012.749999994412],"total_keys":1,"block":1,"trial":4,"stimulus":1,"robot":1,"valence":"win","action":"go","sham":0,"trial_type":"pit-trial","trial_index":46,"time_elapsed":246187,"internal_node_id":"0.0-5.0","task_version":"battery-v0.2"},{"rune":"G","rune_set":"bacs1","hex":"#3366ff99","correct":32,"choice":32,"rt":424.9749999726191,"accuracy":1,"outcome":"+10","keys":[1925.429999944754],"total_keys":1,"block":1,"trial":5,"stimulus":1,"robot":1,"valence":"win","action":"go","sham":0,"trial_type":"pit-trial","trial_index":47,"time_elapsed":249315,"internal_node_id":"0.0-6.0","task_version":"battery-v0.2"},{"rune":"N","rune_set":"bacs1","hex":"#3366ff99","correct":-1,"choice":32,"rt":558.335000067018,"accuracy":0,"outcome":"+1","keys":[2059.2250000918284],"total_keys":1,"block":1,"trial":6,"stimulus":0,"robot":2,"valence":"win","action":"no-go","sham":0,"trial_type":"pit-trial","trial_index":48,"time_elapsed":252579,"internal_node_id":"0.0-7.0","task_version":"battery-v0.2"},{"rune":"O","rune_set":"bacs1","hex":"#3366ff99","correct":32,"choice":32,"rt":512.3499999754131,"accuracy":1,"outcome":"+10","keys":[2012.929999968037],"total_keys":1,"block":1,"trial":7,"stimulus":3,"robot":1,"valence":"win","action":"go","sham":0,"trial_type":"pit-trial","trial_index":49,"time_elapsed":255795,"internal_node_id":"0.0-8.0","task_version":"battery-v0.2"},{"rune":"I","rune_set":"bacs1","hex":"#f73b6a7A","correct":-1,"choice":32,"rt":795.2150000492111,"accuracy":0,"outcome":"-10","keys":[2295.479999971576],"total_keys":1,"block":1,"trial":8,"stimulus":2,"robot":4,"valence":"lose","action":"no-go","sham":0,"trial_type":"pit-trial","trial_index":50,"time_elapsed":259295,"internal_node_id":"0.0-9.0","task_version":"battery-v0.2"},{"rune":"N","rune_set":"bacs1","hex":"#3366ff99","correct":-1,"choice":32,"rt":529.4149999972433,"accuracy":0,"outcome":"+1","keys":[2035.4349999688566],"total_keys":1,"block":1,"trial":9,"stimulus":0,"robot":2,"valence":"win","action":"no-go","sham":0,"trial_type":"pit-trial","trial_index":51,"time_elapsed":262535,"internal_node_id":"0.0-10.0","task_version":"battery-v0.2"},{"rune":"G","rune_set":"bacs1","hex":"#3366ff99","correct":32,"choice":32,"rt":624.0699999034405,"accuracy":1,"outcome":"+10","keys":[2124.9649999663234],"total_keys":1,"block":1,"trial":10,"stimulus":1,"robot":1,"valence":"win","action":"go","sham":0,"trial_type":"pit-trial","trial_index":52,"time_elapsed":265863,"internal_node_id":"0.0-11.0","task_version":"battery-v0.2"},{"rune":"I","rune_set":"bacs1","hex":"#f73b6a7A","correct":-1,"choice":-1,"rt":-1,"accuracy":1,"outcome":"-10","keys":[],"total_keys":0,"block":1,"trial":11,"stimulus":2,"robot":4,"valence":"lose","action":"no-go","sham":1,"trial_type":"pit-trial","trial_index":53,"time_elapsed":269868,"internal_node_id":"0.0-12.0","task_version":"battery-v0.2"},{"rune":"O","rune_set":"bacs1","hex":"#3366ff99","correct":32,"choice":32,"rt":545.8949999883771,"accuracy":1,"outcome":"+10","keys":[2048.0550000211224],"total_keys":1,"block":1,"trial":12,"stimulus":3,"robot":1,"valence":"win","action":"go","sham":0,"trial_type":"pit-trial","trial_index":54,"time_elapsed":273121,"internal_node_id":"0.0-13.0","task_version":"battery-v0.2"},{"rune":"O","rune_set":"bacs1","hex":"#3366ff99","correct":32,"choice":32,"rt":647.3349999869242,"accuracy":1,"outcome":"+10","keys":[2147.624999983236],"total_keys":1,"block":1,"trial":13,"stimulus":3,"robot":1,"valence":"win","action":"go","sham":0,"trial_type":"pit-trial","trial_index":55,"time_elapsed":276474,"internal_node_id":"0.0-14.0","task_version":"battery-v0.2"},{"rune":"G","rune_set":"bacs1","hex":"#3366ff99","correct":32,"choice":32,"rt":747.5750000448897,"accuracy":1,"outcome":"+10","keys":[2247.8099999716505],"total_keys":1,"block":1,"trial":14,"stimulus":1,"robot":1,"valence":"win","action":"go","sham":0,"trial_type":"pit-trial","trial_index":56,"time_elapsed":279926,"internal_node_id":"0.0-15.0","task_version":"battery-v0.2"},{"rune":"N","rune_set":"bacs1","hex":"#3366ff99","correct":-1,"choice":-1,"rt":-1,"accuracy":1,"outcome":"+10","keys":[],"total_keys":0,"block":1,"trial":15,"stimulus":0,"robot":2,"valence":"win","action":"no-go","sham":0,"trial_type":"pit-trial","trial_index":57,"time_elapsed":283937,"internal_node_id":"0.0-16.0","task_version":"battery-v0.2"},{"rune":"I","rune_set":"bacs1","hex":"#f73b6a7A","correct":-1,"choice":32,"rt":923.4200000064448,"accuracy":0,"outcome":"-10","keys":[2423.769999993965],"total_keys":1,"block":1,"trial":16,"stimulus":2,"robot":4,"valence":"lose","action":"no-go","sham":0,"trial_type":"pit-trial","trial_index":58,"time_elapsed":287566,"internal_node_id":"0.0-17.0","task_version":"battery-v0.2"},{"rune":"O","rune_set":"bacs1","hex":"#3366ff99","correct":32,"choice":32,"rt":533.0149999354035,"accuracy":1,"outcome":"+10","keys":[2033.350000041537],"total_keys":1,"block":1,"trial":17,"stimulus":3,"robot":1,"valence":"win","action":"go","sham":0,"trial_type":"pit-trial","trial_index":59,"time_elapsed":290804,"internal_node_id":"0.0-18.0","task_version":"battery-v0.2"},{"rune":"I","rune_set":"bacs1","hex":"#f73b6a7A","correct":-1,"choice":-1,"rt":-1,"accuracy":1,"outcome":"-1","keys":[],"total_keys":0,"block":1,"trial":18,"stimulus":2,"robot":4,"valence":"lose","action":"no-go","sham":0,"trial_type":"pit-trial","trial_index":60,"time_elapsed":294811,"internal_node_id":"0.0-19.0","task_version":"battery-v0.2"},{"rune":"G","rune_set":"bacs1","hex":"#3366ff99","correct":32,"choice":32,"rt":532.8800000716001,"accuracy":1,"outcome":"+10","keys":[2034.209999954328],"total_keys":1,"block":1,"trial":19,"stimulus":1,"robot":1,"valence":"win","action":"go","sham":0,"trial_type":"pit-trial","trial_index":61,"time_elapsed":298048,"internal_node_id":"0.0-20.0","task_version":"battery-v0.2"},{"rune":"N","rune_set":"bacs1","hex":"#3366ff99","correct":-1,"choice":-1,"rt":-1,"accuracy":1,"outcome":"+1","keys":[],"total_keys":0,"block":1,"trial":20,"stimulus":0,"robot":2,"valence":"win","action":"no-go","sham":1,"trial_type":"pit-trial","trial_index":62,"time_elapsed":302057,"internal_node_id":"0.0-21.0","task_version":"battery-v0.2"},{"rune":"O","rune_set":"bacs1","hex":"#3366ff99","correct":32,"choice":32,"rt":508.0900000175461,"accuracy":1,"outcome":"+10","keys":[2009.2250000452623],"total_keys":1,"block":1,"trial":21,"stimulus":3,"robot":1,"valence":"win","action":"go","sham":0,"trial_type":"pit-trial","trial_index":63,"time_elapsed":305269,"internal_node_id":"0.0-22.0","task_version":"battery-v0.2"},{"rune":"I","rune_set":"bacs1","hex":"#f73b6a7A","correct":-1,"choice":-1,"rt":-1,"accuracy":1,"outcome":"-10","keys":[],"total_keys":0,"block":1,"trial":22,"stimulus":2,"robot":4,"valence":"lose","action":"no-go","sham":1,"trial_type":"pit-trial","trial_index":64,"time_elapsed":309276,"internal_node_id":"0.0-23.0","task_version":"battery-v0.2"},{"rune":"G","rune_set":"bacs1","hex":"#3366ff99","correct":32,"choice":32,"rt":523.0849999934435,"accuracy":1,"outcome":"+10","keys":[2023.9149999106303,3012.9549999255687],"total_keys":2,"block":1,"trial":23,"stimulus":1,"robot":1,"valence":"win","action":"go","sham":0,"trial_type":"pit-trial","trial_index":65,"time_elapsed":312504,"internal_node_id":"0.0-24.0","task_version":"battery-v0.2"},{"rune":"N","rune_set":"bacs1","hex":"#3366ff99","correct":-1,"choice":32,"rt":939.2949999310076,"accuracy":0,"outcome":"+1","keys":[2439.9149999953806],"total_keys":1,"block":1,"trial":24,"stimulus":0,"robot":2,"valence":"win","action":"no-go","sham":0,"trial_type":"pit-trial","trial_index":66,"time_elapsed":316149,"internal_node_id":"0.0-25.0","task_version":"battery-v0.2"},{"rune":"G","rune_set":"bacs1","hex":"#3366ff99","correct":32,"choice":32,"rt":578.7600000621751,"accuracy":1,"outcome":"+10","keys":[2079.950000043027],"total_keys":1,"block":1,"trial":25,"stimulus":1,"robot":1,"valence":"win","action":"go","sham":0,"trial_type":"pit-trial","trial_index":67,"time_elapsed":319432,"internal_node_id":"0.0-26.0","task_version":"battery-v0.2"},{"rune":"I","rune_set":"bacs1","hex":"#f73b6a7A","correct":-1,"choice":32,"rt":603.8549999939278,"accuracy":0,"outcome":"-10","keys":[2105.8000000193715],"total_keys":1,"block":1,"trial":26,"stimulus":2,"robot":4,"valence":"lose","action":"no-go","sham":0,"trial_type":"pit-trial","trial_index":68,"time_elapsed":322744,"internal_node_id":"0.0-27.0","task_version":"battery-v0.2"},{"rune":"O","rune_set":"bacs1","hex":"#3366ff99","correct":32,"choice":32,"rt":441.5850000223145,"accuracy":1,"outcome":"+10","keys":[1942.5300000002608],"total_keys":1,"block":1,"trial":27,"stimulus":3,"robot":1,"valence":"win","action":"go","sham":0,"trial_type":"pit-trial","trial_index":69,"time_elapsed":325890,"internal_node_id":"0.0-28.0","task_version":"battery-v0.2"},{"rune":"N","rune_set":"bacs1","hex":"#3366ff99","correct":-1,"choice":-1,"rt":-1,"accuracy":1,"outcome":"+10","keys":[],"total_keys":0,"block":1,"trial":28,"stimulus":0,"robot":2,"valence":"win","action":"no-go","sham":0,"trial_type":"pit-trial","trial_index":70,"time_elapsed":329897,"internal_node_id":"0.0-29.0","task_version":"battery-v0.2"},{"rune":"O","rune_set":"bacs1","hex":"#3366ff99","correct":32,"choice":32,"rt":465.35499999299645,"accuracy":1,"outcome":"+10","keys":[1966.3749999599531],"total_keys":1,"block":1,"trial":29,"stimulus":3,"robot":1,"valence":"win","action":"go","sham":0,"trial_type":"pit-trial","trial_index":71,"time_elapsed":333068,"internal_node_id":"0.0-30.0","task_version":"battery-v0.2"},{"rune":"I","rune_set":"bacs1","hex":"#f73b6a7A","correct":-1,"choice":32,"rt":679.0599999949336,"accuracy":0,"outcome":"-10","keys":[2180.794999934733],"total_keys":1,"block":1,"trial":30,"stimulus":2,"robot":4,"valence":"lose","action":"no-go","sham":0,"trial_type":"pit-trial","trial_index":72,"time_elapsed":336451,"internal_node_id":"0.0-31.0","task_version":"battery-v0.2"},{"rune":"G","rune_set":"bacs1","hex":"#3366ff99","correct":32,"choice":32,"rt":469.51500000432134,"accuracy":1,"outcome":"+10","keys":[1970.255000051111],"total_keys":1,"block":1,"trial":31,"stimulus":1,"robot":1,"valence":"win","action":"go","sham":0,"trial_type":"pit-trial","trial_index":73,"time_elapsed":339628,"internal_node_id":"0.0-32.0","task_version":"battery-v0.2"},{"rune":"N","rune_set":"bacs1","hex":"#3366ff99","correct":-1,"choice":-1,"rt":-1,"accuracy":1,"outcome":"+10","keys":[],"total_keys":0,"block":1,"trial":32,"stimulus":0,"robot":2,"valence":"win","action":"no-go","sham":0,"trial_type":"pit-trial","trial_index":74,"time_elapsed":343634,"internal_node_id":"0.0-33.0","task_version":"battery-v0.2"},{"rune":"O","rune_set":"bacs1","hex":"#3366ff99","correct":32,"choice":32,"rt":464.0200000721961,"accuracy":1,"outcome":"+1","keys":[1964.254999998957],"total_keys":1,"block":1,"trial":33,"stimulus":3,"robot":1,"valence":"win","action":"go","sham":1,"trial_type":"pit-trial","trial_index":75,"time_elapsed":346803,"internal_node_id":"0.0-34.0","task_version":"battery-v0.2"},{"rune":"I","rune_set":"bacs1","hex":"#f73b6a7A","correct":-1,"choice":-1,"rt":-1,"accuracy":1,"outcome":"-1","keys":[],"total_keys":0,"block":1,"trial":34,"stimulus":2,"robot":4,"valence":"lose","action":"no-go","sham":0,"trial_type":"pit-trial","trial_index":76,"time_elapsed":350810,"internal_node_id":"0.0-35.0","task_version":"battery-v0.2"},{"rune":"N","rune_set":"bacs1","hex":"#3366ff99","correct":-1,"choice":-1,"rt":-1,"accuracy":1,"outcome":"+10","keys":[2811.504999990575],"total_keys":1,"block":1,"trial":35,"stimulus":0,"robot":2,"valence":"win","action":"no-go","sham":0,"trial_type":"pit-trial","trial_index":77,"time_elapsed":354819,"internal_node_id":"0.0-36.0","task_version":"battery-v0.2"},{"rune":"D","rune_set":"bacs1","hex":"#3366ff99","correct":32,"choice":32,"rt":900.1250000437722,"accuracy":1,"outcome":"+10","keys":[2400.2549999859184],"total_keys":1,"block":1,"trial":36,"stimulus":4,"robot":1,"valence":"win","action":"go","sham":0,"trial_type":"pit-trial","trial_index":78,"time_elapsed":358423,"internal_node_id":"0.0-37.0","task_version":"battery-v0.2"},{"rune":"O","rune_set":"bacs1","hex":"#3366ff99","correct":32,"choice":32,"rt":457.1950000245124,"accuracy":1,"outcome":"+1","keys":[1958.0149999819696],"total_keys":1,"block":1,"trial":37,"stimulus":3,"robot":1,"valence":"win","action":"go","sham":1,"trial_type":"pit-trial","trial_index":79,"time_elapsed":361588,"internal_node_id":"0.0-38.0","task_version":"battery-v0.2"},{"rune":"D","rune_set":"bacs1","hex":"#3366ff99","correct":32,"choice":32,"rt":801.6549999592826,"accuracy":1,"outcome":"+10","keys":[2301.7450000625104],"total_keys":1,"block":1,"trial":38,"stimulus":4,"robot":1,"valence":"win","action":"go","sham":0,"trial_type":"pit-trial","trial_index":80,"time_elapsed":365094,"internal_node_id":"0.0-39.0","task_version":"battery-v0.2"},{"rune":"N","rune_set":"bacs1","hex":"#3366ff99","correct":-1,"choice":32,"rt":782.5749999610707,"accuracy":0,"outcome":"+1","keys":[2283.1549999536946],"total_keys":1,"block":1,"trial":39,"stimulus":0,"robot":2,"valence":"win","action":"no-go","sham":0,"trial_type":"pit-trial","trial_index":81,"time_elapsed":368583,"internal_node_id":"0.0-40.0","task_version":"battery-v0.2"},{"rune":"I","rune_set":"bacs1","hex":"#f73b6a7A","correct":-1,"choice":-1,"rt":-1,"accuracy":1,"outcome":"-1","keys":[],"total_keys":0,"block":1,"trial":40,"stimulus":2,"robot":4,"valence":"lose","action":"no-go","sham":0,"trial_type":"pit-trial","trial_index":82,"time_elapsed":372594,"internal_node_id":"0.0-41.0","task_version":"battery-v0.2"},{"rune":"S","rune_set":"bacs1","hex":"#f73b6a7A","correct":-1,"choice":-1,"rt":-1,"accuracy":1,"outcome":"-1","keys":[],"total_keys":0,"block":1,"trial":41,"stimulus":6,"robot":4,"valence":"lose","action":"no-go","sham":0,"trial_type":"pit-trial","trial_index":83,"time_elapsed":376602,"internal_node_id":"0.0-42.0","task_version":"battery-v0.2"},{"rune":"N","rune_set":"bacs1","hex":"#3366ff99","correct":-1,"choice":32,"rt":939.7399999434128,"accuracy":0,"outcome":"+1","keys":[2441.3349999813363],"total_keys":1,"block":1,"trial":42,"stimulus":0,"robot":2,"valence":"win","action":"no-go","sham":0,"trial_type":"pit-trial","trial_index":84,"time_elapsed":380250,"internal_node_id":"0.0-43.0","task_version":"battery-v0.2"},{"rune":"D","rune_set":"bacs1","hex":"#3366ff99","correct":32,"choice":32,"rt":633.0749999033287,"accuracy":1,"outcome":"+10","keys":[2133.280000067316],"total_keys":1,"block":1,"trial":43,"stimulus":4,"robot":1,"valence":"win","action":"go","sham":0,"trial_type":"pit-trial","trial_index":85,"time_elapsed":383591,"internal_node_id":"0.0-44.0","task_version":"battery-v0.2"},{"rune":"K","rune_set":"bacs1","hex":"#f73b6a7A","correct":32,"choice":-1,"rt":-1,"accuracy":0,"outcome":"-10","keys":[],"total_keys":0,"block":1,"trial":44,"stimulus":5,"robot":3,"valence":"lose","action":"go","sham":0,"trial_type":"pit-trial","trial_index":86,"time_elapsed":387597,"internal_node_id":"0.0-45.0","task_version":"battery-v0.2"},{"rune":"S","rune_set":"bacs1","hex":"#f73b6a7A","correct":-1,"choice":32,"rt":698.24499997776,"accuracy":0,"outcome":"-10","keys":[2200.650000013411],"total_keys":1,"block":1,"trial":45,"stimulus":6,"robot":4,"valence":"lose","action":"no-go","sham":0,"trial_type":"pit-trial","trial_index":87,"time_elapsed":391001,"internal_node_id":"0.0-46.0","task_version":"battery-v0.2"},{"rune":"D","rune_set":"bacs1","hex":"#3366ff99","correct":32,"choice":32,"rt":1052.2949999431148,"accuracy":1,"outcome":"+1","keys":[2552.7700000675395],"total_keys":1,"block":1,"trial":46,"stimulus":4,"robot":1,"valence":"win","action":"go","sham":1,"trial_type":"pit-trial","trial_index":88,"time_elapsed":394757,"internal_node_id":"0.0-47.0","task_version":"battery-v0.2"},{"rune":"N","rune_set":"bacs1","hex":"#3366ff99","correct":-1,"choice":-1,"rt":-1,"accuracy":1,"outcome":"+10","keys":[],"total_keys":0,"block":1,"trial":47,"stimulus":0,"robot":2,"valence":"win","action":"no-go","sham":0,"trial_type":"pit-trial","trial_index":89,"time_elapsed":398762,"internal_node_id":"0.0-48.0","task_version":"battery-v0.2"},{"rune":"K","rune_set":"bacs1","hex":"#f73b6a7A","correct":32,"choice":-1,"rt":-1,"accuracy":0,"outcome":"-10","keys":[],"total_keys":0,"block":1,"trial":48,"stimulus":5,"robot":3,"valence":"lose","action":"go","sham":0,"trial_type":"pit-trial","trial_index":90,"time_elapsed":402768,"internal_node_id":"0.0-49.0","task_version":"battery-v0.2"},{"rune":"D","rune_set":"bacs1","hex":"#3366ff99","correct":32,"choice":32,"rt":907.3849999113008,"accuracy":1,"outcome":"+10","keys":[2407.96500002034],"total_keys":1,"block":1,"trial":49,"stimulus":4,"robot":1,"valence":"win","action":"go","sham":0,"trial_type":"pit-trial","trial_index":91,"time_elapsed":406380,"internal_node_id":"0.0-50.0","task_version":"battery-v0.2"},{"rune":"K","rune_set":"bacs1","hex":"#f73b6a7A","correct":32,"choice":-1,"rt":-1,"accuracy":0,"outcome":"-10","keys":[],"total_keys":0,"block":1,"trial":50,"stimulus":5,"robot":3,"valence":"lose","action":"go","sham":0,"trial_type":"pit-trial","trial_index":92,"time_elapsed":410388,"internal_node_id":"0.0-51.0","task_version":"battery-v0.2"},{"rune":"U","rune_set":"bacs1","hex":"#3366ff99","correct":-1,"choice":32,"rt":697.275000042282,"accuracy":0,"outcome":"+10","keys":[2200.855000060983],"total_keys":1,"block":1,"trial":51,"stimulus":7,"robot":2,"valence":"win","action":"no-go","sham":1,"trial_type":"pit-trial","trial_index":93,"time_elapsed":413792,"internal_node_id":"0.0-52.0","task_version":"battery-v0.2"},{"rune":"S","rune_set":"bacs1","hex":"#f73b6a7A","correct":-1,"choice":32,"rt":1075.3050000639632,"accuracy":0,"outcome":"-10","keys":[2576.1599999386817],"total_keys":1,"block":1,"trial":52,"stimulus":6,"robot":4,"valence":"lose","action":"no-go","sham":0,"trial_type":"pit-trial","trial_index":94,"time_elapsed":417571,"internal_node_id":"0.0-53.0","task_version":"battery-v0.2"},{"rune":"D","rune_set":"bacs1","hex":"#3366ff99","correct":32,"choice":32,"rt":648.7750000087544,"accuracy":1,"outcome":"+1","keys":[2149.3400000035763],"total_keys":1,"block":1,"trial":53,"stimulus":4,"robot":1,"valence":"win","action":"go","sham":1,"trial_type":"pit-trial","trial_index":95,"time_elapsed":420924,"internal_node_id":"0.0-54.0","task_version":"battery-v0.2"},{"rune":"S","rune_set":"bacs1","hex":"#f73b6a7A","correct":-1,"choice":32,"rt":1098.2800000347197,"accuracy":0,"outcome":"-10","keys":[2599.0699999965727],"total_keys":1,"block":1,"trial":54,"stimulus":6,"robot":4,"valence":"lose","action":"no-go","sham":0,"trial_type":"pit-trial","trial_index":96,"time_elapsed":424726,"internal_node_id":"0.0-55.0","task_version":"battery-v0.2"},{"rune":"K","rune_set":"bacs1","hex":"#f73b6a7A","correct":32,"choice":-1,"rt":-1,"accuracy":0,"outcome":"-1","keys":[],"total_keys":0,"block":1,"trial":55,"stimulus":5,"robot":3,"valence":"lose","action":"go","sham":1,"trial_type":"pit-trial","trial_index":97,"time_elapsed":428734,"internal_node_id":"0.0-56.0","task_version":"battery-v0.2"},{"rune":"U","rune_set":"bacs1","hex":"#3366ff99","correct":-1,"choice":32,"rt":712.9450000356883,"accuracy":0,"outcome":"+10","keys":[2213.3949999697506],"total_keys":1,"block":1,"trial":56,"stimulus":7,"robot":2,"valence":"win","action":"no-go","sham":1,"trial_type":"pit-trial","trial_index":98,"time_elapsed":432151,"internal_node_id":"0.0-57.0","task_version":"battery-v0.2"},{"rune":"K","rune_set":"bacs1","hex":"#f73b6a7A","correct":32,"choice":-1,"rt":-1,"accuracy":0,"outcome":"-10","keys":[],"total_keys":0,"block":1,"trial":57,"stimulus":5,"robot":3,"valence":"lose","action":"go","sham":0,"trial_type":"pit-trial","trial_index":99,"time_elapsed":436159,"internal_node_id":"0.0-58.0","task_version":"battery-v0.2"},{"rune":"S","rune_set":"bacs1","hex":"#f73b6a7A","correct":-1,"choice":-1,"rt":-1,"accuracy":1,"outcome":"-1","keys":[],"total_keys":0,"block":1,"trial":58,"stimulus":6,"robot":4,"valence":"lose","action":"no-go","sham":0,"trial_type":"pit-trial","trial_index":100,"time_elapsed":440163,"internal_node_id":"0.0-59.0","task_version":"battery-v0.2"},{"rune":"U","rune_set":"bacs1","hex":"#3366ff99","correct":-1,"choice":32,"rt":610.2500000270084,"accuracy":0,"outcome":"+10","keys":[2112.4350000172853],"total_keys":1,"block":1,"trial":59,"stimulus":7,"robot":2,"valence":"win","action":"no-go","sham":1,"trial_type":"pit-trial","trial_index":101,"time_elapsed":443479,"internal_node_id":"0.0-60.0","task_version":"battery-v0.2"},{"rune":"D","rune_set":"bacs1","hex":"#3366ff99","correct":32,"choice":32,"rt":558.6699999403208,"accuracy":1,"outcome":"+10","keys":[2059.205000055954],"total_keys":1,"block":1,"trial":60,"stimulus":4,"robot":1,"valence":"win","action":"go","sham":0,"trial_type":"pit-trial","trial_index":102,"time_elapsed":446743,"internal_node_id":"0.0-61.0","task_version":"battery-v0.2"},{"rune":"U","rune_set":"bacs1","hex":"#3366ff99","correct":-1,"choice":32,"rt":724.4150000624359,"accuracy":0,"outcome":"+1","keys":[2225.6549999583513],"total_keys":1,"block":1,"trial":61,"stimulus":7,"robot":2,"valence":"win","action":"no-go","sham":0,"trial_type":"pit-trial","trial_index":103,"time_elapsed":450174,"internal_node_id":"0.0-62.0","task_version":"battery-v0.2"},{"rune":"S","rune_set":"bacs1","hex":"#f73b6a7A","correct":-1,"choice":-1,"rt":-1,"accuracy":1,"outcome":"-10","keys":[],"total_keys":0,"block":1,"trial":62,"stimulus":6,"robot":4,"valence":"lose","action":"no-go","sham":1,"trial_type":"pit-trial","trial_index":104,"time_elapsed":454180,"internal_node_id":"0.0-63.0","task_version":"battery-v0.2"},{"rune":"D","rune_set":"bacs1","hex":"#3366ff99","correct":32,"choice":32,"rt":678.539999993518,"accuracy":1,"outcome":"+10","keys":[2178.620000020601],"total_keys":1,"block":1,"trial":63,"stimulus":4,"robot":1,"valence":"win","action":"go","sham":0,"trial_type":"pit-trial","trial_index":105,"time_elapsed":457562,"internal_node_id":"0.0-64.0","task_version":"battery-v0.2"},{"rune":"K","rune_set":"bacs1","hex":"#f73b6a7A","correct":32,"choice":-1,"rt":-1,"accuracy":0,"outcome":"-10","keys":[],"total_keys":0,"block":1,"trial":64,"stimulus":5,"robot":3,"valence":"lose","action":"go","sham":0,"trial_type":"pit-trial","trial_index":106,"time_elapsed":461574,"internal_node_id":"0.0-65.0","task_version":"battery-v0.2"},{"rune":"D","rune_set":"bacs1","hex":"#3366ff99","correct":32,"choice":32,"rt":685.0850000046194,"accuracy":1,"outcome":"+1","keys":[2186.0999999335036],"total_keys":1,"block":1,"trial":65,"stimulus":4,"robot":1,"valence":"win","action":"go","sham":1,"trial_type":"pit-trial","trial_index":107,"time_elapsed":464965,"internal_node_id":"0.0-66.0","task_version":"battery-v0.2"},{"rune":"S","rune_set":"bacs1","hex":"#f73b6a7A","correct":-1,"choice":-1,"rt":-1,"accuracy":1,"outcome":"-1","keys":[],"total_keys":0,"block":1,"trial":66,"stimulus":6,"robot":4,"valence":"lose","action":"no-go","sham":0,"trial_type":"pit-trial","trial_index":108,"time_elapsed":468972,"internal_node_id":"0.0-67.0","task_version":"battery-v0.2"},{"rune":"U","rune_set":"bacs1","hex":"#3366ff99","correct":-1,"choice":32,"rt":679.465000052005,"accuracy":0,"outcome":"+1","keys":[2180.865000002086],"total_keys":1,"block":1,"trial":67,"stimulus":7,"robot":2,"valence":"win","action":"no-go","sham":0,"trial_type":"pit-trial","trial_index":109,"time_elapsed":472358,"internal_node_id":"0.0-68.0","task_version":"battery-v0.2"},{"rune":"K","rune_set":"bacs1","hex":"#f73b6a7A","correct":32,"choice":32,"rt":713.2699999492615,"accuracy":1,"outcome":"-1","keys":[2213.935000007041],"total_keys":1,"block":1,"trial":68,"stimulus":5,"robot":3,"valence":"lose","action":"go","sham":0,"trial_type":"pit-trial","trial_index":110,"time_elapsed":475777,"internal_node_id":"0.0-69.0","task_version":"battery-v0.2"},{"rune":"U","rune_set":"bacs1","hex":"#3366ff99","correct":-1,"choice":32,"rt":612.859999993816,"accuracy":0,"outcome":"+1","keys":[2113.920000032522],"total_keys":1,"block":1,"trial":69,"stimulus":7,"robot":2,"valence":"win","action":"no-go","sham":0,"trial_type":"pit-trial","trial_index":111,"time_elapsed":479093,"internal_node_id":"0.0-70.0","task_version":"battery-v0.2"},{"rune":"S","rune_set":"bacs1","hex":"#f73b6a7A","correct":-1,"choice":-1,"rt":-1,"accuracy":1,"outcome":"-1","keys":[],"total_keys":0,"block":1,"trial":70,"stimulus":6,"robot":4,"valence":"lose","action":"no-go","sham":0,"trial_type":"pit-trial","trial_index":112,"time_elapsed":483098,"internal_node_id":"0.0-71.0","task_version":"battery-v0.2"},{"rune":"K","rune_set":"bacs1","hex":"#f73b6a7A","correct":32,"choice":32,"rt":703.5199999809265,"accuracy":1,"outcome":"-1","keys":[2206.1749999411404],"total_keys":1,"block":1,"trial":71,"stimulus":5,"robot":3,"valence":"lose","action":"go","sham":0,"trial_type":"pit-trial","trial_index":113,"time_elapsed":486508,"internal_node_id":"0.0-72.0","task_version":"battery-v0.2"},{"rune":"D","rune_set":"bacs1","hex":"#3366ff99","correct":32,"choice":32,"rt":613.5899999644607,"accuracy":1,"outcome":"+10","keys":[2113.7249999446794],"total_keys":1,"block":1,"trial":72,"stimulus":4,"robot":1,"valence":"win","action":"go","sham":0,"trial_type":"pit-trial","trial_index":114,"time_elapsed":489825,"internal_node_id":"0.0-73.0","task_version":"battery-v0.2"},{"rune":"S","rune_set":"bacs1","hex":"#f73b6a7A","correct":-1,"choice":-1,"rt":-1,"accuracy":1,"outcome":"-1","keys":[],"total_keys":0,"block":1,"trial":73,"stimulus":6,"robot":4,"valence":"lose","action":"no-go","sham":0,"trial_type":"pit-trial","trial_index":115,"time_elapsed":493829,"internal_node_id":"0.0-74.0","task_version":"battery-v0.2"},{"rune":"D","rune_set":"bacs1","hex":"#3366ff99","correct":32,"choice":32,"rt":705.9949999675155,"accuracy":1,"outcome":"+1","keys":[2206.7449999740347],"total_keys":1,"block":1,"trial":74,"stimulus":4,"robot":1,"valence":"win","action":"go","sham":1,"trial_type":"pit-trial","trial_index":116,"time_elapsed":497241,"internal_node_id":"0.0-75.0","task_version":"battery-v0.2"},{"rune":"U","rune_set":"bacs1","hex":"#3366ff99","correct":-1,"choice":-1,"rt":-1,"accuracy":1,"outcome":"+10","keys":[],"total_keys":0,"block":1,"trial":75,"stimulus":7,"robot":2,"valence":"win","action":"no-go","sham":0,"trial_type":"pit-trial","trial_index":117,"time_elapsed":501247,"internal_node_id":"0.0-76.0","task_version":"battery-v0.2"},{"rune":"M","rune_set":"bacs1","hex":"#f73b6a7A","correct":32,"choice":32,"rt":1151.7400000011548,"accuracy":1,"outcome":"-1","keys":[2651.905000093393],"total_keys":1,"block":1,"trial":76,"stimulus":8,"robot":3,"valence":"lose","action":"go","sham":0,"trial_type":"pit-trial","trial_index":118,"time_elapsed":505104,"internal_node_id":"0.0-77.0","task_version":"battery-v0.2"},{"rune":"S","rune_set":"bacs1","hex":"#f73b6a7A","correct":-1,"choice":-1,"rt":-1,"accuracy":1,"outcome":"-1","keys":[],"total_keys":0,"block":1,"trial":77,"stimulus":6,"robot":4,"valence":"lose","action":"no-go","sham":0,"trial_type":"pit-trial","trial_index":119,"time_elapsed":509112,"internal_node_id":"0.0-78.0","task_version":"battery-v0.2"},{"rune":"U","rune_set":"bacs1","hex":"#3366ff99","correct":-1,"choice":-1,"rt":-1,"accuracy":1,"outcome":"+1","keys":[],"total_keys":0,"block":1,"trial":78,"stimulus":7,"robot":2,"valence":"win","action":"no-go","sham":1,"trial_type":"pit-trial","trial_index":120,"time_elapsed":513118,"internal_node_id":"0.0-79.0","task_version":"battery-v0.2"},{"rune":"D","rune_set":"bacs1","hex":"#3366ff99","correct":32,"choice":-1,"rt":-1,"accuracy":0,"outcome":"+1","keys":[],"total_keys":0,"block":1,"trial":79,"stimulus":4,"robot":1,"valence":"win","action":"go","sham":0,"trial_type":"pit-trial","trial_index":121,"time_elapsed":517123,"internal_node_id":"0.0-80.0","task_version":"battery-v0.2"},{"rune":"M","rune_set":"bacs1","hex":"#f73b6a7A","correct":32,"choice":32,"rt":933.8550000684336,"accuracy":1,"outcome":"-1","keys":[2435.040000011213],"total_keys":1,"block":1,"trial":80,"stimulus":8,"robot":3,"valence":"lose","action":"go","sham":0,"trial_type":"pit-trial","trial_index":122,"time_elapsed":520762,"internal_node_id":"0.0-81.0","task_version":"battery-v0.2"},{"rune":"P","rune_set":"bacs1","hex":"#f73b6a7A","correct":32,"choice":-1,"rt":-1,"accuracy":0,"outcome":"-1","keys":[],"total_keys":0,"block":1,"trial":81,"stimulus":9,"robot":3,"valence":"lose","action":"go","sham":1,"trial_type":"pit-trial","trial_index":123,"time_elapsed":524770,"internal_node_id":"0.0-82.0","task_version":"battery-v0.2"},{"rune":"M","rune_set":"bacs1","hex":"#f73b6a7A","correct":32,"choice":32,"rt":868.9200000371784,"accuracy":1,"outcome":"-1","keys":[2370.1250000158325],"total_keys":1,"block":1,"trial":82,"stimulus":8,"robot":3,"valence":"lose","action":"go","sham":0,"trial_type":"pit-trial","trial_index":124,"time_elapsed":528343,"internal_node_id":"0.0-83.0","task_version":"battery-v0.2"},{"rune":"U","rune_set":"bacs1","hex":"#3366ff99","correct":-1,"choice":32,"rt":817.9900000104681,"accuracy":0,"outcome":"+1","keys":[2318.6400000704452],"total_keys":1,"block":1,"trial":83,"stimulus":7,"robot":2,"valence":"win","action":"no-go","sham":0,"trial_type":"pit-trial","trial_index":125,"time_elapsed":531868,"internal_node_id":"0.0-84.0","task_version":"battery-v0.2"},{"rune":"S","rune_set":"bacs1","hex":"#f73b6a7A","correct":-1,"choice":-1,"rt":-1,"accuracy":1,"outcome":"-1","keys":[],"total_keys":0,"block":1,"trial":84,"stimulus":6,"robot":4,"valence":"lose","action":"no-go","sham":0,"trial_type":"pit-trial","trial_index":126,"time_elapsed":535871,"internal_node_id":"0.0-85.0","task_version":"battery-v0.2"},{"rune":"U","rune_set":"bacs1","hex":"#3366ff99","correct":-1,"choice":32,"rt":780.2150000352412,"accuracy":0,"outcome":"+10","keys":[2280.8700000168756],"total_keys":1,"block":1,"trial":85,"stimulus":7,"robot":2,"valence":"win","action":"no-go","sham":1,"trial_type":"pit-trial","trial_index":127,"time_elapsed":539357,"internal_node_id":"0.0-86.0","task_version":"battery-v0.2"},{"rune":"M","rune_set":"bacs1","hex":"#f73b6a7A","correct":32,"choice":32,"rt":782.0800000336021,"accuracy":1,"outcome":"-1","keys":[2283.019999973476],"total_keys":1,"block":1,"trial":86,"stimulus":8,"robot":3,"valence":"lose","action":"go","sham":0,"trial_type":"pit-trial","trial_index":128,"time_elapsed":542847,"internal_node_id":"0.0-87.0","task_version":"battery-v0.2"},{"rune":"S","rune_set":"bacs1","hex":"#f73b6a7A","correct":-1,"choice":-1,"rt":-1,"accuracy":1,"outcome":"-1","keys":[],"total_keys":0,"block":1,"trial":87,"stimulus":6,"robot":4,"valence":"lose","action":"no-go","sham":0,"trial_type":"pit-trial","trial_index":129,"time_elapsed":546854,"internal_node_id":"0.0-88.0","task_version":"battery-v0.2"},{"rune":"P","rune_set":"bacs1","hex":"#f73b6a7A","correct":32,"choice":-1,"rt":-1,"accuracy":0,"outcome":"-10","keys":[],"total_keys":0,"block":1,"trial":88,"stimulus":9,"robot":3,"valence":"lose","action":"go","sham":0,"trial_type":"pit-trial","trial_index":130,"time_elapsed":550859,"internal_node_id":"0.0-89.0","task_version":"battery-v0.2"},{"rune":"M","rune_set":"bacs1","hex":"#f73b6a7A","correct":32,"choice":32,"rt":698.355000000447,"accuracy":1,"outcome":"-1","keys":[2199.4699999922886],"total_keys":1,"block":1,"trial":89,"stimulus":8,"robot":3,"valence":"lose","action":"go","sham":0,"trial_type":"pit-trial","trial_index":131,"time_elapsed":554265,"internal_node_id":"0.0-90.0","task_version":"battery-v0.2"},{"rune":"P","rune_set":"bacs1","hex":"#f73b6a7A","correct":32,"choice":32,"rt":1160.4550000047311,"accuracy":1,"outcome":"-10","keys":[2662.19999990426],"total_keys":1,"block":1,"trial":90,"stimulus":9,"robot":3,"valence":"lose","action":"go","sham":1,"trial_type":"pit-trial","trial_index":132,"time_elapsed":558134,"internal_node_id":"0.0-91.0","task_version":"battery-v0.2"},{"rune":"Y","rune_set":"bacs1","hex":"#3366ff99","correct":-1,"choice":32,"rt":690.984999993816,"accuracy":0,"outcome":"+1","keys":[2191.09999993816],"total_keys":1,"block":1,"trial":91,"stimulus":11,"robot":2,"valence":"win","action":"no-go","sham":0,"trial_type":"pit-trial","trial_index":133,"time_elapsed":561530,"internal_node_id":"0.0-92.0","task_version":"battery-v0.2"},{"rune":"H","rune_set":"bacs1","hex":"#f73b6a7A","correct":-1,"choice":-1,"rt":-1,"accuracy":1,"outcome":"-1","keys":[],"total_keys":0,"block":1,"trial":92,"stimulus":10,"robot":4,"valence":"lose","action":"no-go","sham":0,"trial_type":"pit-trial","trial_index":134,"time_elapsed":565536,"internal_node_id":"0.0-93.0","task_version":"battery-v0.2"},{"rune":"Y","rune_set":"bacs1","hex":"#3366ff99","correct":-1,"choice":32,"rt":836.9549999479204,"accuracy":0,"outcome":"+1","keys":[2337.4149999581277],"total_keys":1,"block":1,"trial":93,"stimulus":11,"robot":2,"valence":"win","action":"no-go","sham":0,"trial_type":"pit-trial","trial_index":135,"time_elapsed":569077,"internal_node_id":"0.0-94.0","task_version":"battery-v0.2"},{"rune":"H","rune_set":"bacs1","hex":"#f73b6a7A","correct":-1,"choice":-1,"rt":-1,"accuracy":1,"outcome":"-1","keys":[],"total_keys":0,"block":1,"trial":94,"stimulus":10,"robot":4,"valence":"lose","action":"no-go","sham":0,"trial_type":"pit-trial","trial_index":136,"time_elapsed":573081,"internal_node_id":"0.0-95.0","task_version":"battery-v0.2"},{"rune":"P","rune_set":"bacs1","hex":"#f73b6a7A","correct":32,"choice":-1,"rt":-1,"accuracy":0,"outcome":"-10","keys":[],"total_keys":0,"block":1,"trial":95,"stimulus":9,"robot":3,"valence":"lose","action":"go","sham":0,"trial_type":"pit-trial","trial_index":137,"time_elapsed":577088,"internal_node_id":"0.0-96.0","task_version":"battery-v0.2"},{"rune":"M","rune_set":"bacs1","hex":"#f73b6a7A","correct":32,"choice":32,"rt":596.1750000715256,"accuracy":1,"outcome":"-1","keys":[2103.1000000657514],"total_keys":1,"block":1,"trial":96,"stimulus":8,"robot":3,"valence":"lose","action":"go","sham":0,"trial_type":"pit-trial","trial_index":138,"time_elapsed":580396,"internal_node_id":"0.0-97.0","task_version":"battery-v0.2"},{"rune":"H","rune_set":"bacs1","hex":"#f73b6a7A","correct":-1,"choice":-1,"rt":-1,"accuracy":1,"outcome":"-1","keys":[],"total_keys":0,"block":1,"trial":97,"stimulus":10,"robot":4,"valence":"lose","action":"no-go","sham":0,"trial_type":"pit-trial","trial_index":139,"time_elapsed":584405,"internal_node_id":"0.0-98.0","task_version":"battery-v0.2"},{"rune":"Y","rune_set":"bacs1","hex":"#3366ff99","correct":-1,"choice":32,"rt":776.8449999857694,"accuracy":0,"outcome":"+10","keys":[2277.2699999623],"total_keys":1,"block":1,"trial":98,"stimulus":11,"robot":2,"valence":"win","action":"no-go","sham":1,"trial_type":"pit-trial","trial_index":140,"time_elapsed":587884,"internal_node_id":"0.0-99.0","task_version":"battery-v0.2"},{"rune":"M","rune_set":"bacs1","hex":"#f73b6a7A","correct":32,"choice":32,"rt":628.1599999638274,"accuracy":1,"outcome":"-1","keys":[2128.2049999572337],"total_keys":1,"block":1,"trial":99,"stimulus":8,"robot":3,"valence":"lose","action":"go","sham":0,"trial_type":"pit-trial","trial_index":141,"time_elapsed":591215,"internal_node_id":"0.0-100.0","task_version":"battery-v0.2"},{"rune":"P","rune_set":"bacs1","hex":"#f73b6a7A","correct":32,"choice":32,"rt":997.8050000499934,"accuracy":1,"outcome":"-10","keys":[2498.105000006035],"total_keys":1,"block":1,"trial":100,"stimulus":9,"robot":3,"valence":"lose","action":"go","sham":1,"trial_type":"pit-trial","trial_index":142,"time_elapsed":594915,"internal_node_id":"0.0-101.0","task_version":"battery-v0.2"},{"rune":"M","rune_set":"bacs1","hex":"#f73b6a7A","correct":32,"choice":32,"rt":547.7500000270084,"accuracy":1,"outcome":"-1","keys":[2047.9150000028312],"total_keys":1,"block":1,"trial":101,"stimulus":8,"robot":3,"valence":"lose","action":"go","sham":0,"trial_type":"pit-trial","trial_index":143,"time_elapsed":598168,"internal_node_id":"0.0-102.0","task_version":"battery-v0.2"},{"rune":"H","rune_set":"bacs1","hex":"#f73b6a7A","correct":-1,"choice":-1,"rt":-1,"accuracy":1,"outcome":"-1","keys":[],"total_keys":0,"block":1,"trial":102,"stimulus":10,"robot":4,"valence":"lose","action":"no-go","sham":0,"trial_type":"pit-trial","trial_index":144,"time_elapsed":602176,"internal_node_id":"0.0-103.0","task_version":"battery-v0.2"},{"rune":"P","rune_set":"bacs1","hex":"#f73b6a7A","correct":32,"choice":-1,"rt":-1,"accuracy":0,"outcome":"-10","keys":[],"total_keys":0,"block":1,"trial":103,"stimulus":9,"robot":3,"valence":"lose","action":"go","sham":0,"trial_type":"pit-trial","trial_index":145,"time_elapsed":606180,"internal_node_id":"0.0-104.0","task_version":"battery-v0.2"},{"rune":"Y","rune_set":"bacs1","hex":"#3366ff99","correct":-1,"choice":32,"rt":713.5749999433756,"accuracy":0,"outcome":"+1","keys":[2213.824999984354],"total_keys":1,"block":1,"trial":104,"stimulus":11,"robot":2,"valence":"win","action":"no-go","sham":0,"trial_type":"pit-trial","trial_index":146,"time_elapsed":609598,"internal_node_id":"0.0-105.0","task_version":"battery-v0.2"},{"rune":"Y","rune_set":"bacs1","hex":"#3366ff99","correct":-1,"choice":-1,"rt":-1,"accuracy":1,"outcome":"+10","keys":[],"total_keys":0,"block":1,"trial":105,"stimulus":11,"robot":2,"valence":"win","action":"no-go","sham":0,"trial_type":"pit-trial","trial_index":147,"time_elapsed":613604,"internal_node_id":"0.0-106.0","task_version":"battery-v0.2"},{"rune":"M","rune_set":"bacs1","hex":"#f73b6a7A","correct":32,"choice":32,"rt":769.1150000318885,"accuracy":1,"outcome":"-1","keys":[2270.545000093989],"total_keys":1,"block":1,"trial":106,"stimulus":8,"robot":3,"valence":"lose","action":"go","sham":0,"trial_type":"pit-trial","trial_index":148,"time_elapsed":617080,"internal_node_id":"0.0-107.0","task_version":"battery-v0.2"},{"rune":"H","rune_set":"bacs1","hex":"#f73b6a7A","correct":-1,"choice":-1,"rt":-1,"accuracy":1,"outcome":"-1","keys":[],"total_keys":0,"block":1,"trial":107,"stimulus":10,"robot":4,"valence":"lose","action":"no-go","sham":0,"trial_type":"pit-trial","trial_index":149,"time_elapsed":621088,"internal_node_id":"0.0-108.0","task_version":"battery-v0.2"},{"rune":"P","rune_set":"bacs1","hex":"#f73b6a7A","correct":32,"choice":32,"rt":1081.8650000728667,"accuracy":1,"outcome":"-1","keys":[2582.0499999681488],"total_keys":1,"block":1,"trial":108,"stimulus":9,"robot":3,"valence":"lose","action":"go","sham":0,"trial_type":"pit-trial","trial_index":150,"time_elapsed":624875,"internal_node_id":"0.0-109.0","task_version":"battery-v0.2"},{"rune":"Y","rune_set":"bacs1","hex":"#3366ff99","correct":-1,"choice":-1,"rt":-1,"accuracy":1,"outcome":"+10","keys":[],"total_keys":0,"block":1,"trial":109,"stimulus":11,"robot":2,"valence":"win","action":"no-go","sham":0,"trial_type":"pit-trial","trial_index":151,"time_elapsed":628881,"internal_node_id":"0.0-110.0","task_version":"battery-v0.2"},{"rune":"H","rune_set":"bacs1","hex":"#f73b6a7A","correct":-1,"choice":-1,"rt":-1,"accuracy":1,"outcome":"-1","keys":[],"total_keys":0,"block":1,"trial":110,"stimulus":10,"robot":4,"valence":"lose","action":"no-go","sham":0,"trial_type":"pit-trial","trial_index":152,"time_elapsed":632891,"internal_node_id":"0.0-111.0","task_version":"battery-v0.2"},{"rune":"P","rune_set":"bacs1","hex":"#f73b6a7A","correct":32,"choice":-1,"rt":-1,"accuracy":0,"outcome":"-10","keys":[],"total_keys":0,"block":1,"trial":111,"stimulus":9,"robot":3,"valence":"lose","action":"go","sham":0,"trial_type":"pit-trial","trial_index":153,"time_elapsed":636899,"internal_node_id":"0.0-112.0","task_version":"battery-v0.2"},{"rune":"M","rune_set":"bacs1","hex":"#f73b6a7A","correct":32,"choice":32,"rt":546.6249999590218,"accuracy":1,"outcome":"-1","keys":[2047.6699999999255],"total_keys":1,"block":1,"trial":112,"stimulus":8,"robot":3,"valence":"lose","action":"go","sham":0,"trial_type":"pit-trial","trial_index":154,"time_elapsed":640149,"internal_node_id":"0.0-113.0","task_version":"battery-v0.2"},{"rune":"Y","rune_set":"bacs1","hex":"#3366ff99","correct":-1,"choice":-1,"rt":-1,"accuracy":1,"outcome":"+10","keys":[],"total_keys":0,"block":1,"trial":113,"stimulus":11,"robot":2,"valence":"win","action":"no-go","sham":0,"trial_type":"pit-trial","trial_index":155,"time_elapsed":644155,"internal_node_id":"0.0-114.0","task_version":"battery-v0.2"},{"rune":"H","rune_set":"bacs1","hex":"#f73b6a7A","correct":-1,"choice":-1,"rt":-1,"accuracy":1,"outcome":"-1","keys":[],"total_keys":0,"block":1,"trial":114,"stimulus":10,"robot":4,"valence":"lose","action":"no-go","sham":0,"trial_type":"pit-trial","trial_index":156,"time_elapsed":648159,"internal_node_id":"0.0-115.0","task_version":"battery-v0.2"},{"rune":"M","rune_set":"bacs1","hex":"#f73b6a7A","correct":32,"choice":32,"rt":570.9600000409409,"accuracy":1,"outcome":"-1","keys":[2071.2449999991804],"total_keys":1,"block":1,"trial":115,"stimulus":8,"robot":3,"valence":"lose","action":"go","sham":0,"trial_type":"pit-trial","trial_index":157,"time_elapsed":651434,"internal_node_id":"0.0-116.0","task_version":"battery-v0.2"},{"rune":"P","rune_set":"bacs1","hex":"#f73b6a7A","correct":32,"choice":-1,"rt":-1,"accuracy":0,"outcome":"-10","keys":[],"total_keys":0,"block":1,"trial":116,"stimulus":9,"robot":3,"valence":"lose","action":"go","sham":0,"trial_type":"pit-trial","trial_index":158,"time_elapsed":655442,"internal_node_id":"0.0-117.0","task_version":"battery-v0.2"},{"rune":"H","rune_set":"bacs1","hex":"#f73b6a7A","correct":-1,"choice":-1,"rt":-1,"accuracy":1,"outcome":"-1","keys":[],"total_keys":0,"block":1,"trial":117,"stimulus":10,"robot":4,"valence":"lose","action":"no-go","sham":0,"trial_type":"pit-trial","trial_index":159,"time_elapsed":659448,"internal_node_id":"0.0-118.0","task_version":"battery-v0.2"},{"rune":"Y","rune_set":"bacs1","hex":"#3366ff99","correct":-1,"choice":-1,"rt":-1,"accuracy":1,"outcome":"+1","keys":[],"total_keys":0,"block":1,"trial":118,"stimulus":11,"robot":2,"valence":"win","action":"no-go","sham":1,"trial_type":"pit-trial","trial_index":160,"time_elapsed":663458,"internal_node_id":"0.0-119.0","task_version":"battery-v0.2"},{"rune":"M","rune_set":"bacs1","hex":"#f73b6a7A","correct":32,"choice":32,"rt":559.6000000368804,"accuracy":1,"outcome":"-1","keys":[2059.6550001064315],"total_keys":1,"block":1,"trial":119,"stimulus":8,"robot":3,"valence":"lose","action":"go","sham":0,"trial_type":"pit-trial","trial_index":161,"time_elapsed":666724,"internal_node_id":"0.0-120.0","task_version":"battery-v0.2"},{"rune":"P","rune_set":"bacs1","hex":"#f73b6a7A","correct":32,"choice":32,"rt":892.1749999281019,"accuracy":1,"outcome":"-10","keys":[2392.645000014454],"total_keys":1,"block":1,"trial":120,"stimulus":9,"robot":3,"valence":"lose","action":"go","sham":1,"trial_type":"pit-trial","trial_index":162,"time_elapsed":670321,"internal_node_id":"0.0-121.0","task_version":"battery-v0.2"},{"view_history":"[{\"page_index\":0,\"viewing_time\":6031.625000061467},{\"page_index\":1,\"viewing_time\":2028.6299999570474}]","rt":8060.724999988452,"trial_type":"pit-instructions","trial_index":163,"time_elapsed":678384,"internal_node_id":"0.0-122.0","task_version":"battery-v0.2"},{"rune":"B","rune_set":"bacs1","hex":"#f73b6a7A","correct":-1,"choice":32,"rt":896.5299999108538,"accuracy":0,"outcome":"-10","keys":[2397.2150000045076],"total_keys":1,"block":2,"trial":121,"stimulus":0,"robot":4,"valence":"lose","action":"no-go","sham":0,"trial_type":"pit-trial","trial_index":164,"time_elapsed":681984,"internal_node_id":"0.0-123.0","task_version":"battery-v0.2"},{"rune":"J","rune_set":"bacs1","hex":"#3366ff99","correct":32,"choice":32,"rt":580.8149999938905,"accuracy":1,"outcome":"+10","keys":[2082.810000050813],"total_keys":1,"block":2,"trial":122,"stimulus":2,"robot":1,"valence":"win","action":"go","sham":0,"trial_type":"pit-trial","trial_index":165,"time_elapsed":685272,"internal_node_id":"0.0-124.0","task_version":"battery-v0.2"},{"rune":"Z","rune_set":"bacs1","hex":"#f73b6a7A","correct":-1,"choice":32,"rt":712.8550000488758,"accuracy":0,"outcome":"-1","keys":[2214.7350000450388],"total_keys":1,"block":2,"trial":123,"stimulus":1,"robot":4,"valence":"lose","action":"no-go","sham":1,"trial_type":"pit-trial","trial_index":166,"time_elapsed":688692,"internal_node_id":"0.0-125.0","task_version":"battery-v0.2"},{"rune":"R","rune_set":"bacs1","hex":"#3366ff99","correct":-1,"choice":32,"rt":679.8200000775978,"accuracy":0,"outcome":"+1","keys":[2181.944999960251],"total_keys":1,"block":2,"trial":124,"stimulus":3,"robot":2,"valence":"win","action":"no-go","sham":0,"trial_type":"pit-trial","trial_index":167,"time_elapsed":692075,"internal_node_id":"0.0-126.0","task_version":"battery-v0.2"},{"rune":"B","rune_set":"bacs1","hex":"#f73b6a7A","correct":-1,"choice":-1,"rt":-1,"accuracy":1,"outcome":"-1","keys":[],"total_keys":0,"block":2,"trial":125,"stimulus":0,"robot":4,"valence":"lose","action":"no-go","sham":0,"trial_type":"pit-trial","trial_index":168,"time_elapsed":696084,"internal_node_id":"0.0-127.0","task_version":"battery-v0.2"},{"rune":"R","rune_set":"bacs1","hex":"#3366ff99","correct":-1,"choice":32,"rt":1209.0649999445304,"accuracy":0,"outcome":"+1","keys":[2709.4649999635294],"total_keys":1,"block":2,"trial":126,"stimulus":3,"robot":2,"valence":"win","action":"no-go","sham":0,"trial_type":"pit-trial","trial_index":169,"time_elapsed":699996,"internal_node_id":"0.0-128.0","task_version":"battery-v0.2"},{"rune":"J","rune_set":"bacs1","hex":"#3366ff99","correct":32,"choice":32,"rt":457.29000004939735,"accuracy":1,"outcome":"+10","keys":[1957.3899999959394],"total_keys":1,"block":2,"trial":127,"stimulus":2,"robot":1,"valence":"win","action":"go","sham":0,"trial_type":"pit-trial","trial_index":170,"time_elapsed":703160,"internal_node_id":"0.0-129.0","task_version":"battery-v0.2"},{"rune":"Z","rune_set":"bacs1","hex":"#f73b6a7A","correct":-1,"choice":32,"rt":959.2000000411645,"accuracy":0,"outcome":"-10","keys":[2460.5899999151006],"total_keys":1,"block":2,"trial":128,"stimulus":1,"robot":4,"valence":"lose","action":"no-go","sham":0,"trial_type":"pit-trial","trial_index":171,"time_elapsed":706827,"internal_node_id":"0.0-130.0","task_version":"battery-v0.2"},{"rune":"B","rune_set":"bacs1","hex":"#f73b6a7A","correct":-1,"choice":-1,"rt":-1,"accuracy":1,"outcome":"-1","keys":[],"total_keys":0,"block":2,"trial":129,"stimulus":0,"robot":4,"valence":"lose","action":"no-go","sham":0,"trial_type":"pit-trial","trial_index":172,"time_elapsed":710835,"internal_node_id":"0.0-131.0","task_version":"battery-v0.2"},{"rune":"R","rune_set":"bacs1","hex":"#3366ff99","correct":-1,"choice":-1,"rt":-1,"accuracy":1,"outcome":"+10","keys":[],"total_keys":0,"block":2,"trial":130,"stimulus":3,"robot":2,"valence":"win","action":"no-go","sham":0,"trial_type":"pit-trial","trial_index":173,"time_elapsed":714842,"internal_node_id":"0.0-132.0","task_version":"battery-v0.2"},{"rune":"J","rune_set":"bacs1","hex":"#3366ff99","correct":32,"choice":32,"rt":471.55999997630715,"accuracy":1,"outcome":"+10","keys":[1972.0300000626594],"total_keys":1,"block":2,"trial":131,"stimulus":2,"robot":1,"valence":"win","action":"go","sham":0,"trial_type":"pit-trial","trial_index":174,"time_elapsed":718019,"internal_node_id":"0.0-133.0","task_version":"battery-v0.2"},{"rune":"Z","rune_set":"bacs1","hex":"#f73b6a7A","correct":-1,"choice":-1,"rt":-1,"accuracy":1,"outcome":"-10","keys":[],"total_keys":0,"block":2,"trial":132,"stimulus":1,"robot":4,"valence":"lose","action":"no-go","sham":1,"trial_type":"pit-trial","trial_index":175,"time_elapsed":722027,"internal_node_id":"0.0-134.0","task_version":"battery-v0.2"},{"rune":"Z","rune_set":"bacs1","hex":"#f73b6a7A","correct":-1,"choice":32,"rt":1250.9500000160187,"accuracy":0,"outcome":"-10","keys":[2751.869999920018],"total_keys":1,"block":2,"trial":133,"stimulus":1,"robot":4,"valence":"lose","action":"no-go","sham":0,"trial_type":"pit-trial","trial_index":176,"time_elapsed":725982,"internal_node_id":"0.0-135.0","task_version":"battery-v0.2"},{"rune":"B","rune_set":"bacs1","hex":"#f73b6a7A","correct":-1,"choice":32,"rt":636.0949999652803,"accuracy":0,"outcome":"-1","keys":[2137.029999983497],"total_keys":1,"block":2,"trial":134,"stimulus":0,"robot":4,"valence":"lose","action":"no-go","sham":1,"trial_type":"pit-trial","trial_index":177,"time_elapsed":729325,"internal_node_id":"0.0-136.0","task_version":"battery-v0.2"},{"rune":"R","rune_set":"bacs1","hex":"#3366ff99","correct":-1,"choice":-1,"rt":-1,"accuracy":1,"outcome":"+10","keys":[],"total_keys":0,"block":2,"trial":135,"stimulus":3,"robot":2,"valence":"win","action":"no-go","sham":0,"trial_type":"pit-trial","trial_index":178,"time_elapsed":733330,"internal_node_id":"0.0-137.0","task_version":"battery-v0.2"},{"rune":"J","rune_set":"bacs1","hex":"#3366ff99","correct":32,"choice":32,"rt":522.7000000886619,"accuracy":1,"outcome":"+1","keys":[2022.8649999480695],"total_keys":1,"block":2,"trial":136,"stimulus":2,"robot":1,"valence":"win","action":"go","sham":1,"trial_type":"pit-trial","trial_index":179,"time_elapsed":736558,"internal_node_id":"0.0-138.0","task_version":"battery-v0.2"},{"rune":"Z","rune_set":"bacs1","hex":"#f73b6a7A","correct":-1,"choice":-1,"rt":-1,"accuracy":1,"outcome":"-1","keys":[],"total_keys":0,"block":2,"trial":137,"stimulus":1,"robot":4,"valence":"lose","action":"no-go","sham":0,"trial_type":"pit-trial","trial_index":180,"time_elapsed":740566,"internal_node_id":"0.0-139.0","task_version":"battery-v0.2"},{"rune":"R","rune_set":"bacs1","hex":"#3366ff99","correct":-1,"choice":-1,"rt":-1,"accuracy":1,"outcome":"+10","keys":[],"total_keys":0,"block":2,"trial":138,"stimulus":3,"robot":2,"valence":"win","action":"no-go","sham":0,"trial_type":"pit-trial","trial_index":181,"time_elapsed":744570,"internal_node_id":"0.0-140.0","task_version":"battery-v0.2"},{"rune":"B","rune_set":"bacs1","hex":"#f73b6a7A","correct":-1,"choice":-1,"rt":-1,"accuracy":1,"outcome":"-1","keys":[],"total_keys":0,"block":2,"trial":139,"stimulus":0,"robot":4,"valence":"lose","action":"no-go","sham":0,"trial_type":"pit-trial","trial_index":182,"time_elapsed":748578,"internal_node_id":"0.0-141.0","task_version":"battery-v0.2"},{"rune":"J","rune_set":"bacs1","hex":"#3366ff99","correct":32,"choice":32,"rt":1283.530000015162,"accuracy":1,"outcome":"+10","keys":[2783.919999958016],"total_keys":1,"block":2,"trial":140,"stimulus":2,"robot":1,"valence":"win","action":"go","sham":0,"trial_type":"pit-trial","trial_index":183,"time_elapsed":752566,"internal_node_id":"0.0-142.0","task_version":"battery-v0.2"},{"rune":"J","rune_set":"bacs1","hex":"#3366ff99","correct":32,"choice":32,"rt":972.0099999103695,"accuracy":1,"outcome":"+10","keys":[2472.5150000303984],"total_keys":1,"block":2,"trial":141,"stimulus":2,"robot":1,"valence":"win","action":"go","sham":0,"trial_type":"pit-trial","trial_index":184,"time_elapsed":756246,"internal_node_id":"0.0-143.0","task_version":"battery-v0.2"},{"rune":"B","rune_set":"bacs1","hex":"#f73b6a7A","correct":-1,"choice":-1,"rt":-1,"accuracy":1,"outcome":"-10","keys":[],"total_keys":0,"block":2,"trial":142,"stimulus":0,"robot":4,"valence":"lose","action":"no-go","sham":1,"trial_type":"pit-trial","trial_index":185,"time_elapsed":760252,"internal_node_id":"0.0-144.0","task_version":"battery-v0.2"},{"rune":"R","rune_set":"bacs1","hex":"#3366ff99","correct":-1,"choice":-1,"rt":-1,"accuracy":1,"outcome":"+10","keys":[],"total_keys":0,"block":2,"trial":143,"stimulus":3,"robot":2,"valence":"win","action":"no-go","sham":0,"trial_type":"pit-trial","trial_index":186,"time_elapsed":764260,"internal_node_id":"0.0-145.0","task_version":"battery-v0.2"},{"rune":"Z","rune_set":"bacs1","hex":"#f73b6a7A","correct":-1,"choice":-1,"rt":-1,"accuracy":1,"outcome":"-1","keys":[],"total_keys":0,"block":2,"trial":144,"stimulus":1,"robot":4,"valence":"lose","action":"no-go","sham":0,"trial_type":"pit-trial","trial_index":187,"time_elapsed":768265,"internal_node_id":"0.0-146.0","task_version":"battery-v0.2"},{"rune":"J","rune_set":"bacs1","hex":"#3366ff99","correct":32,"choice":32,"rt":741.6049999883398,"accuracy":1,"outcome":"+10","keys":[2242.045000079088],"total_keys":1,"block":2,"trial":145,"stimulus":2,"robot":1,"valence":"win","action":"go","sham":0,"trial_type":"pit-trial","trial_index":188,"time_elapsed":771711,"internal_node_id":"0.0-147.0","task_version":"battery-v0.2"},{"rune":"Z","rune_set":"bacs1","hex":"#f73b6a7A","correct":-1,"choice":-1,"rt":-1,"accuracy":1,"outcome":"-1","keys":[],"total_keys":0,"block":2,"trial":146,"stimulus":1,"robot":4,"valence":"lose","action":"no-go","sham":0,"trial_type":"pit-trial","trial_index":189,"time_elapsed":775716,"internal_node_id":"0.0-148.0","task_version":"battery-v0.2"},{"rune":"B","rune_set":"bacs1","hex":"#f73b6a7A","correct":-1,"choice":-1,"rt":-1,"accuracy":1,"outcome":"-1","keys":[],"total_keys":0,"block":2,"trial":147,"stimulus":0,"robot":4,"valence":"lose","action":"no-go","sham":0,"trial_type":"pit-trial","trial_index":190,"time_elapsed":779720,"internal_node_id":"0.0-149.0","task_version":"battery-v0.2"},{"rune":"R","rune_set":"bacs1","hex":"#3366ff99","correct":-1,"choice":-1,"rt":-1,"accuracy":1,"outcome":"+10","keys":[],"total_keys":0,"block":2,"trial":148,"stimulus":3,"robot":2,"valence":"win","action":"no-go","sham":0,"trial_type":"pit-trial","trial_index":191,"time_elapsed":783724,"internal_node_id":"0.0-150.0","task_version":"battery-v0.2"},{"rune":"B","rune_set":"bacs1","hex":"#f73b6a7A","correct":-1,"choice":-1,"rt":-1,"accuracy":1,"outcome":"-1","keys":[],"total_keys":0,"block":2,"trial":149,"stimulus":0,"robot":4,"valence":"lose","action":"no-go","sham":0,"trial_type":"pit-trial","trial_index":192,"time_elapsed":787730,"internal_node_id":"0.0-151.0","task_version":"battery-v0.2"},{"rune":"R","rune_set":"bacs1","hex":"#3366ff99","correct":-1,"choice":-1,"rt":-1,"accuracy":1,"outcome":"+10","keys":[],"total_keys":0,"block":2,"trial":150,"stimulus":3,"robot":2,"valence":"win","action":"no-go","sham":0,"trial_type":"pit-trial","trial_index":193,"time_elapsed":791733,"internal_node_id":"0.0-152.0","task_version":"battery-v0.2"},{"rune":"J","rune_set":"bacs1","hex":"#3366ff99","correct":32,"choice":32,"rt":469.3849999457598,"accuracy":1,"outcome":"+10","keys":[1970.0850000372157],"total_keys":1,"block":2,"trial":151,"stimulus":2,"robot":1,"valence":"win","action":"go","sham":0,"trial_type":"pit-trial","trial_index":194,"time_elapsed":794907,"internal_node_id":"0.0-153.0","task_version":"battery-v0.2"},{"rune":"Z","rune_set":"bacs1","hex":"#f73b6a7A","correct":-1,"choice":-1,"rt":-1,"accuracy":1,"outcome":"-1","keys":[],"total_keys":0,"block":2,"trial":152,"stimulus":1,"robot":4,"valence":"lose","action":"no-go","sham":0,"trial_type":"pit-trial","trial_index":195,"time_elapsed":798912,"internal_node_id":"0.0-154.0","task_version":"battery-v0.2"},{"rune":"B","rune_set":"bacs1","hex":"#f73b6a7A","correct":-1,"choice":-1,"rt":-1,"accuracy":1,"outcome":"-1","keys":[],"total_keys":0,"block":2,"trial":153,"stimulus":0,"robot":4,"valence":"lose","action":"no-go","sham":0,"trial_type":"pit-trial","trial_index":196,"time_elapsed":802915,"internal_node_id":"0.0-155.0","task_version":"battery-v0.2"},{"rune":"J","rune_set":"bacs1","hex":"#3366ff99","correct":32,"choice":32,"rt":1254.7499999636784,"accuracy":1,"outcome":"+10","keys":[2756.169999949634],"total_keys":1,"block":2,"trial":154,"stimulus":2,"robot":1,"valence":"win","action":"go","sham":0,"trial_type":"pit-trial","trial_index":197,"time_elapsed":806876,"internal_node_id":"0.0-156.0","task_version":"battery-v0.2"},{"rune":"R","rune_set":"bacs1","hex":"#3366ff99","correct":-1,"choice":-1,"rt":-1,"accuracy":1,"outcome":"+10","keys":[],"total_keys":0,"block":2,"trial":155,"stimulus":3,"robot":2,"valence":"win","action":"no-go","sham":0,"trial_type":"pit-trial","trial_index":198,"time_elapsed":810879,"internal_node_id":"0.0-157.0","task_version":"battery-v0.2"},{"rune":"V","rune_set":"bacs1","hex":"#f73b6a7A","correct":32,"choice":32,"rt":1155.7400000747293,"accuracy":1,"outcome":"-1","keys":[2656.315000029281],"total_keys":1,"block":2,"trial":156,"stimulus":4,"robot":3,"valence":"lose","action":"go","sham":0,"trial_type":"pit-trial","trial_index":199,"time_elapsed":814739,"internal_node_id":"0.0-158.0","task_version":"battery-v0.2"},{"rune":"R","rune_set":"bacs1","hex":"#3366ff99","correct":-1,"choice":-1,"rt":-1,"accuracy":1,"outcome":"+10","keys":[],"total_keys":0,"block":2,"trial":157,"stimulus":3,"robot":2,"valence":"win","action":"no-go","sham":0,"trial_type":"pit-trial","trial_index":200,"time_elapsed":818747,"internal_node_id":"0.0-159.0","task_version":"battery-v0.2"},{"rune":"J","rune_set":"bacs1","hex":"#3366ff99","correct":32,"choice":32,"rt":745.0500000268221,"accuracy":1,"outcome":"+10","keys":[2245.770000037737],"total_keys":1,"block":2,"trial":158,"stimulus":2,"robot":1,"valence":"win","action":"go","sham":0,"trial_type":"pit-trial","trial_index":201,"time_elapsed":822195,"internal_node_id":"0.0-160.0","task_version":"battery-v0.2"},{"rune":"B","rune_set":"bacs1","hex":"#f73b6a7A","correct":-1,"choice":-1,"rt":-1,"accuracy":1,"outcome":"-10","keys":[],"total_keys":0,"block":2,"trial":159,"stimulus":0,"robot":4,"valence":"lose","action":"no-go","sham":1,"trial_type":"pit-trial","trial_index":202,"time_elapsed":826200,"internal_node_id":"0.0-161.0","task_version":"battery-v0.2"},{"rune":"V","rune_set":"bacs1","hex":"#f73b6a7A","correct":32,"choice":32,"rt":774.4549999479204,"accuracy":1,"outcome":"-1","keys":[2274.8699999647215],"total_keys":1,"block":2,"trial":160,"stimulus":4,"robot":3,"valence":"lose","action":"go","sham":0,"trial_type":"pit-trial","trial_index":203,"time_elapsed":829678,"internal_node_id":"0.0-162.0","task_version":"battery-v0.2"},{"rune":"V","rune_set":"bacs1","hex":"#f73b6a7A","correct":32,"choice":32,"rt":748.8800000865012,"accuracy":1,"outcome":"-1","keys":[2250.854999991134],"total_keys":1,"block":2,"trial":161,"stimulus":4,"robot":3,"valence":"lose","action":"go","sham":0,"trial_type":"pit-trial","trial_index":204,"time_elapsed":833134,"internal_node_id":"0.0-163.0","task_version":"battery-v0.2"},{"rune":"B","rune_set":"bacs1","hex":"#f73b6a7A","correct":-1,"choice":32,"rt":847.0000000670552,"accuracy":0,"outcome":"-10","keys":[2347.870000055991],"total_keys":1,"block":2,"trial":162,"stimulus":0,"robot":4,"valence":"lose","action":"no-go","sham":0,"trial_type":"pit-trial","trial_index":205,"time_elapsed":836686,"internal_node_id":"0.0-164.0","task_version":"battery-v0.2"},{"rune":"E","rune_set":"bacs1","hex":"#3366ff99","correct":-1,"choice":32,"rt":1008.1799998879433,"accuracy":0,"outcome":"+10","keys":[2509.124999982305],"total_keys":1,"block":2,"trial":163,"stimulus":5,"robot":2,"valence":"win","action":"no-go","sham":1,"trial_type":"pit-trial","trial_index":206,"time_elapsed":840402,"internal_node_id":"0.0-165.0","task_version":"battery-v0.2"},{"rune":"T","rune_set":"bacs1","hex":"#3366ff99","correct":32,"choice":32,"rt":848.6849999753758,"accuracy":1,"outcome":"+10","keys":[2348.7650000024587],"total_keys":1,"block":2,"trial":164,"stimulus":6,"robot":1,"valence":"win","action":"go","sham":0,"trial_type":"pit-trial","trial_index":207,"time_elapsed":843957,"internal_node_id":"0.0-166.0","task_version":"battery-v0.2"},{"rune":"E","rune_set":"bacs1","hex":"#3366ff99","correct":-1,"choice":32,"rt":576.3049999950454,"accuracy":0,"outcome":"+1","keys":[2078.0500000109896],"total_keys":1,"block":2,"trial":165,"stimulus":5,"robot":2,"valence":"win","action":"no-go","sham":0,"trial_type":"pit-trial","trial_index":208,"time_elapsed":847238,"internal_node_id":"0.0-167.0","task_version":"battery-v0.2"},{"rune":"T","rune_set":"bacs1","hex":"#3366ff99","correct":32,"choice":32,"rt":795.4199999803677,"accuracy":1,"outcome":"+10","keys":[2295.589999994263],"total_keys":1,"block":2,"trial":166,"stimulus":6,"robot":1,"valence":"win","action":"go","sham":0,"trial_type":"pit-trial","trial_index":209,"time_elapsed":850736,"internal_node_id":"0.0-168.0","task_version":"battery-v0.2"},{"rune":"B","rune_set":"bacs1","hex":"#f73b6a7A","correct":-1,"choice":-1,"rt":-1,"accuracy":1,"outcome":"-1","keys":[],"total_keys":0,"block":2,"trial":167,"stimulus":0,"robot":4,"valence":"lose","action":"no-go","sham":0,"trial_type":"pit-trial","trial_index":210,"time_elapsed":854745,"internal_node_id":"0.0-169.0","task_version":"battery-v0.2"},{"rune":"V","rune_set":"bacs1","hex":"#f73b6a7A","correct":32,"choice":32,"rt":1157.9150001052767,"accuracy":1,"outcome":"-10","keys":[2661.744999932125],"total_keys":1,"block":2,"trial":168,"stimulus":4,"robot":3,"valence":"lose","action":"go","sham":1,"trial_type":"pit-trial","trial_index":211,"time_elapsed":858612,"internal_node_id":"0.0-170.0","task_version":"battery-v0.2"},{"rune":"E","rune_set":"bacs1","hex":"#3366ff99","correct":-1,"choice":32,"rt":501.700000022538,"accuracy":0,"outcome":"+10","keys":[2002.059999969788],"total_keys":1,"block":2,"trial":169,"stimulus":5,"robot":2,"valence":"win","action":"no-go","sham":1,"trial_type":"pit-trial","trial_index":212,"time_elapsed":861820,"internal_node_id":"0.0-171.0","task_version":"battery-v0.2"},{"rune":"T","rune_set":"bacs1","hex":"#3366ff99","correct":32,"choice":-1,"rt":-1,"accuracy":0,"outcome":"+1","keys":[],"total_keys":0,"block":2,"trial":170,"stimulus":6,"robot":1,"valence":"win","action":"go","sham":0,"trial_type":"pit-trial","trial_index":213,"time_elapsed":865828,"internal_node_id":"0.0-172.0","task_version":"battery-v0.2"},{"rune":"V","rune_set":"bacs1","hex":"#f73b6a7A","correct":32,"choice":-1,"rt":-1,"accuracy":0,"outcome":"-1","keys":[],"total_keys":0,"block":2,"trial":171,"stimulus":4,"robot":3,"valence":"lose","action":"go","sham":1,"trial_type":"pit-trial","trial_index":214,"time_elapsed":869833,"internal_node_id":"0.0-173.0","task_version":"battery-v0.2"},{"rune":"F","rune_set":"bacs1","hex":"#f73b6a7A","correct":-1,"choice":-1,"rt":-1,"accuracy":1,"outcome":"-1","keys":[],"total_keys":0,"block":2,"trial":172,"stimulus":7,"robot":4,"valence":"lose","action":"no-go","sham":0,"trial_type":"pit-trial","trial_index":215,"time_elapsed":873840,"internal_node_id":"0.0-174.0","task_version":"battery-v0.2"},{"rune":"V","rune_set":"bacs1","hex":"#f73b6a7A","correct":32,"choice":32,"rt":1056.4899999881163,"accuracy":1,"outcome":"-1","keys":[2557.5299999909475],"total_keys":1,"block":2,"trial":173,"stimulus":4,"robot":3,"valence":"lose","action":"go","sham":0,"trial_type":"pit-trial","trial_index":216,"time_elapsed":877600,"internal_node_id":"0.0-175.0","task_version":"battery-v0.2"},{"rune":"F","rune_set":"bacs1","hex":"#f73b6a7A","correct":-1,"choice":-1,"rt":-1,"accuracy":1,"outcome":"-10","keys":[],"total_keys":0,"block":2,"trial":174,"stimulus":7,"robot":4,"valence":"lose","action":"no-go","sham":1,"trial_type":"pit-trial","trial_index":217,"time_elapsed":881604,"internal_node_id":"0.0-176.0","task_version":"battery-v0.2"},{"rune":"T","rune_set":"bacs1","hex":"#3366ff99","correct":32,"choice":32,"rt":704.604999977164,"accuracy":1,"outcome":"+10","keys":[2204.6550000086427],"total_keys":1,"block":2,"trial":175,"stimulus":6,"robot":1,"valence":"win","action":"go","sham":0,"trial_type":"pit-trial","trial_index":218,"time_elapsed":885015,"internal_node_id":"0.0-177.0","task_version":"battery-v0.2"},{"rune":"E","rune_set":"bacs1","hex":"#3366ff99","correct":-1,"choice":32,"rt":589.2400000011548,"accuracy":0,"outcome":"+1","keys":[2090.0250000413507],"total_keys":1,"block":2,"trial":176,"stimulus":5,"robot":2,"valence":"win","action":"no-go","sham":0,"trial_type":"pit-trial","trial_index":219,"time_elapsed":888312,"internal_node_id":"0.0-178.0","task_version":"battery-v0.2"},{"rune":"V","rune_set":"bacs1","hex":"#f73b6a7A","correct":32,"choice":32,"rt":733.3050000015646,"accuracy":1,"outcome":"-1","keys":[2235.6950000394136],"total_keys":1,"block":2,"trial":177,"stimulus":4,"robot":3,"valence":"lose","action":"go","sham":0,"trial_type":"pit-trial","trial_index":220,"time_elapsed":891752,"internal_node_id":"0.0-179.0","task_version":"battery-v0.2"},{"rune":"T","rune_set":"bacs1","hex":"#3366ff99","correct":32,"choice":32,"rt":771.9299999298528,"accuracy":1,"outcome":"+10","keys":[2272.1349999774247],"total_keys":1,"block":2,"trial":178,"stimulus":6,"robot":1,"valence":"win","action":"go","sham":0,"trial_type":"pit-trial","trial_index":221,"time_elapsed":895227,"internal_node_id":"0.0-180.0","task_version":"battery-v0.2"},{"rune":"E","rune_set":"bacs1","hex":"#3366ff99","correct":-1,"choice":32,"rt":793.8650000141934,"accuracy":0,"outcome":"+1","keys":[2294.579999987036],"total_keys":1,"block":2,"trial":179,"stimulus":5,"robot":2,"valence":"win","action":"no-go","sham":0,"trial_type":"pit-trial","trial_index":222,"time_elapsed":898727,"internal_node_id":"0.0-181.0","task_version":"battery-v0.2"},{"rune":"F","rune_set":"bacs1","hex":"#f73b6a7A","correct":-1,"choice":32,"rt":950.6450000917539,"accuracy":0,"outcome":"-10","keys":[2451.465000049211],"total_keys":1,"block":2,"trial":180,"stimulus":7,"robot":4,"valence":"lose","action":"no-go","sham":0,"trial_type":"pit-trial","trial_index":223,"time_elapsed":902382,"internal_node_id":"0.0-182.0","task_version":"battery-v0.2"},{"rune":"E","rune_set":"bacs1","hex":"#3366ff99","correct":-1,"choice":32,"rt":759.580000070855,"accuracy":0,"outcome":"+1","keys":[2260.5599999660626],"total_keys":1,"block":2,"trial":181,"stimulus":5,"robot":2,"valence":"win","action":"no-go","sham":0,"trial_type":"pit-trial","trial_index":224,"time_elapsed":905846,"internal_node_id":"0.0-183.0","task_version":"battery-v0.2"},{"rune":"T","rune_set":"bacs1","hex":"#3366ff99","correct":32,"choice":32,"rt":637.8350000595674,"accuracy":1,"outcome":"+10","keys":[2138.0750000244007],"total_keys":1,"block":2,"trial":182,"stimulus":6,"robot":1,"valence":"win","action":"go","sham":0,"trial_type":"pit-trial","trial_index":225,"time_elapsed":909187,"internal_node_id":"0.0-184.0","task_version":"battery-v0.2"},{"rune":"F","rune_set":"bacs1","hex":"#f73b6a7A","correct":-1,"choice":-1,"rt":-1,"accuracy":1,"outcome":"-10","keys":[],"total_keys":0,"block":2,"trial":183,"stimulus":7,"robot":4,"valence":"lose","action":"no-go","sham":1,"trial_type":"pit-trial","trial_index":226,"time_elapsed":913195,"internal_node_id":"0.0-185.0","task_version":"battery-v0.2"},{"rune":"V","rune_set":"bacs1","hex":"#f73b6a7A","correct":32,"choice":32,"rt":1023.285000002943,"accuracy":1,"outcome":"-1","keys":[2524.3800000753254],"total_keys":1,"block":2,"trial":184,"stimulus":4,"robot":3,"valence":"lose","action":"go","sham":0,"trial_type":"pit-trial","trial_index":227,"time_elapsed":916927,"internal_node_id":"0.0-186.0","task_version":"battery-v0.2"},{"rune":"F","rune_set":"bacs1","hex":"#f73b6a7A","correct":-1,"choice":-1,"rt":-1,"accuracy":1,"outcome":"-1","keys":[],"total_keys":0,"block":2,"trial":185,"stimulus":7,"robot":4,"valence":"lose","action":"no-go","sham":0,"trial_type":"pit-trial","trial_index":228,"time_elapsed":920934,"internal_node_id":"0.0-187.0","task_version":"battery-v0.2"},{"rune":"E","rune_set":"bacs1","hex":"#3366ff99","correct":-1,"choice":32,"rt":870.9150000941008,"accuracy":0,"outcome":"+1","keys":[2372.6349999196827],"total_keys":1,"block":2,"trial":186,"stimulus":5,"robot":2,"valence":"win","action":"no-go","sham":0,"trial_type":"pit-trial","trial_index":229,"time_elapsed":924510,"internal_node_id":"0.0-188.0","task_version":"battery-v0.2"},{"rune":"T","rune_set":"bacs1","hex":"#3366ff99","correct":32,"choice":32,"rt":602.2649999940768,"accuracy":1,"outcome":"+1","keys":[2102.8800000203773],"total_keys":1,"block":2,"trial":187,"stimulus":6,"robot":1,"valence":"win","action":"go","sham":1,"trial_type":"pit-trial","trial_index":230,"time_elapsed":927816,"internal_node_id":"0.0-189.0","task_version":"battery-v0.2"},{"rune":"V","rune_set":"bacs1","hex":"#f73b6a7A","correct":32,"choice":32,"rt":605.2800000179559,"accuracy":1,"outcome":"-10","keys":[2105.794999981299],"total_keys":1,"block":2,"trial":188,"stimulus":4,"robot":3,"valence":"lose","action":"go","sham":1,"trial_type":"pit-trial","trial_index":231,"time_elapsed":931127,"internal_node_id":"0.0-190.0","task_version":"battery-v0.2"},{"rune":"T","rune_set":"bacs1","hex":"#3366ff99","correct":32,"choice":32,"rt":533.8050000136718,"accuracy":1,"outcome":"+10","keys":[2033.8449999690056],"total_keys":1,"block":2,"trial":189,"stimulus":6,"robot":1,"valence":"win","action":"go","sham":0,"trial_type":"pit-trial","trial_index":232,"time_elapsed":934366,"internal_node_id":"0.0-191.0","task_version":"battery-v0.2"},{"rune":"E","rune_set":"bacs1","hex":"#3366ff99","correct":-1,"choice":-1,"rt":-1,"accuracy":1,"outcome":"+10","keys":[],"total_keys":0,"block":2,"trial":190,"stimulus":5,"robot":2,"valence":"win","action":"no-go","sham":0,"trial_type":"pit-trial","trial_index":233,"time_elapsed":938370,"internal_node_id":"0.0-192.0","task_version":"battery-v0.2"},{"rune":"F","rune_set":"bacs1","hex":"#f73b6a7A","correct":-1,"choice":-1,"rt":-1,"accuracy":1,"outcome":"-1","keys":[],"total_keys":0,"block":2,"trial":191,"stimulus":7,"robot":4,"valence":"lose","action":"no-go","sham":0,"trial_type":"pit-trial","trial_index":234,"time_elapsed":942377,"internal_node_id":"0.0-193.0","task_version":"battery-v0.2"},{"rune":"V","rune_set":"bacs1","hex":"#f73b6a7A","correct":32,"choice":32,"rt":667.4199999542907,"accuracy":1,"outcome":"-1","keys":[2167.8599999286234],"total_keys":1,"block":2,"trial":192,"stimulus":4,"robot":3,"valence":"lose","action":"go","sham":0,"trial_type":"pit-trial","trial_index":235,"time_elapsed":945749,"internal_node_id":"0.0-194.0","task_version":"battery-v0.2"},{"rune":"A","rune_set":"bacs1","hex":"#3366ff99","correct":32,"choice":32,"rt":670.2299999305978,"accuracy":1,"outcome":"+10","keys":[2170.5849999561906],"total_keys":1,"block":2,"trial":193,"stimulus":8,"robot":1,"valence":"win","action":"go","sham":0,"trial_type":"pit-trial","trial_index":236,"time_elapsed":949124,"internal_node_id":"0.0-195.0","task_version":"battery-v0.2"},{"rune":"C","rune_set":"bacs1","hex":"#f73b6a7A","correct":32,"choice":-1,"rt":-1,"accuracy":0,"outcome":"-10","keys":[],"total_keys":0,"block":2,"trial":194,"stimulus":9,"robot":3,"valence":"lose","action":"go","sham":0,"trial_type":"pit-trial","trial_index":237,"time_elapsed":953133,"internal_node_id":"0.0-196.0","task_version":"battery-v0.2"},{"rune":"F","rune_set":"bacs1","hex":"#f73b6a7A","correct":-1,"choice":-1,"rt":-1,"accuracy":1,"outcome":"-1","keys":[],"total_keys":0,"block":2,"trial":195,"stimulus":7,"robot":4,"valence":"lose","action":"no-go","sham":0,"trial_type":"pit-trial","trial_index":238,"time_elapsed":957141,"internal_node_id":"0.0-197.0","task_version":"battery-v0.2"},{"rune":"E","rune_set":"bacs1","hex":"#3366ff99","correct":-1,"choice":-1,"rt":-1,"accuracy":1,"outcome":"+10","keys":[],"total_keys":0,"block":2,"trial":196,"stimulus":5,"robot":2,"valence":"win","action":"no-go","sham":0,"trial_type":"pit-trial","trial_index":239,"time_elapsed":961147,"internal_node_id":"0.0-198.0","task_version":"battery-v0.2"},{"rune":"A","rune_set":"bacs1","hex":"#3366ff99","correct":32,"choice":32,"rt":582.5699999695644,"accuracy":1,"outcome":"+10","keys":[2083.5499999811873],"total_keys":1,"block":2,"trial":197,"stimulus":8,"robot":1,"valence":"win","action":"go","sham":0,"trial_type":"pit-trial","trial_index":240,"time_elapsed":964437,"internal_node_id":"0.0-199.0","task_version":"battery-v0.2"},{"rune":"E","rune_set":"bacs1","hex":"#3366ff99","correct":-1,"choice":-1,"rt":-1,"accuracy":1,"outcome":"+10","keys":[],"total_keys":0,"block":2,"trial":198,"stimulus":5,"robot":2,"valence":"win","action":"no-go","sham":0,"trial_type":"pit-trial","trial_index":241,"time_elapsed":968441,"internal_node_id":"0.0-200.0","task_version":"battery-v0.2"},{"rune":"C","rune_set":"bacs1","hex":"#f73b6a7A","correct":32,"choice":-1,"rt":-1,"accuracy":0,"outcome":"-10","keys":[],"total_keys":0,"block":2,"trial":199,"stimulus":9,"robot":3,"valence":"lose","action":"go","sham":0,"trial_type":"pit-trial","trial_index":242,"time_elapsed":972448,"internal_node_id":"0.0-201.0","task_version":"battery-v0.2"},{"rune":"F","rune_set":"bacs1","hex":"#f73b6a7A","correct":-1,"choice":-1,"rt":-1,"accuracy":1,"outcome":"-10","keys":[],"total_keys":0,"block":2,"trial":200,"stimulus":7,"robot":4,"valence":"lose","action":"no-go","sham":1,"trial_type":"pit-trial","trial_index":243,"time_elapsed":976451,"internal_node_id":"0.0-202.0","task_version":"battery-v0.2"},{"rune":"A","rune_set":"bacs1","hex":"#3366ff99","correct":32,"choice":32,"rt":453.78999994136393,"accuracy":1,"outcome":"+10","keys":[1954.0499999420717],"total_keys":1,"block":2,"trial":201,"stimulus":8,"robot":1,"valence":"win","action":"go","sham":0,"trial_type":"pit-trial","trial_index":244,"time_elapsed":979608,"internal_node_id":"0.0-203.0","task_version":"battery-v0.2"},{"rune":"F","rune_set":"bacs1","hex":"#f73b6a7A","correct":-1,"choice":-1,"rt":-1,"accuracy":1,"outcome":"-1","keys":[],"total_keys":0,"block":2,"trial":202,"stimulus":7,"robot":4,"valence":"lose","action":"no-go","sham":0,"trial_type":"pit-trial","trial_index":245,"time_elapsed":983615,"internal_node_id":"0.0-204.0","task_version":"battery-v0.2"},{"rune":"C","rune_set":"bacs1","hex":"#f73b6a7A","correct":32,"choice":32,"rt":724.4149999460205,"accuracy":1,"outcome":"-10","keys":[2226.159999961965],"total_keys":1,"block":2,"trial":203,"stimulus":9,"robot":3,"valence":"lose","action":"go","sham":1,"trial_type":"pit-trial","trial_index":246,"time_elapsed":987048,"internal_node_id":"0.0-205.0","task_version":"battery-v0.2"},{"rune":"E","rune_set":"bacs1","hex":"#3366ff99","correct":-1,"choice":-1,"rt":-1,"accuracy":1,"outcome":"+10","keys":[],"total_keys":0,"block":2,"trial":204,"stimulus":5,"robot":2,"valence":"win","action":"no-go","sham":0,"trial_type":"pit-trial","trial_index":247,"time_elapsed":991053,"internal_node_id":"0.0-206.0","task_version":"battery-v0.2"},{"rune":"C","rune_set":"bacs1","hex":"#f73b6a7A","correct":32,"choice":32,"rt":733.6999999824911,"accuracy":1,"outcome":"-1","keys":[2234.345000004396],"total_keys":1,"block":2,"trial":205,"stimulus":9,"robot":3,"valence":"lose","action":"go","sham":0,"trial_type":"pit-trial","trial_index":248,"time_elapsed":994491,"internal_node_id":"0.0-207.0","task_version":"battery-v0.2"},{"rune":"A","rune_set":"bacs1","hex":"#3366ff99","correct":32,"choice":32,"rt":534.4950000289828,"accuracy":1,"outcome":"+10","keys":[2036.0499999951571],"total_keys":1,"block":2,"trial":206,"stimulus":8,"robot":1,"valence":"win","action":"go","sham":0,"trial_type":"pit-trial","trial_index":249,"time_elapsed":997732,"internal_node_id":"0.0-208.0","task_version":"battery-v0.2"},{"rune":"F","rune_set":"bacs1","hex":"#f73b6a7A","correct":-1,"choice":-1,"rt":-1,"accuracy":1,"outcome":"-1","keys":[],"total_keys":0,"block":2,"trial":207,"stimulus":7,"robot":4,"valence":"lose","action":"no-go","sham":0,"trial_type":"pit-trial","trial_index":250,"time_elapsed":1001735,"internal_node_id":"0.0-209.0","task_version":"battery-v0.2"},{"rune":"E","rune_set":"bacs1","hex":"#3366ff99","correct":-1,"choice":32,"rt":705.9649999719113,"accuracy":0,"outcome":"+1","keys":[2206.1249999096617],"total_keys":1,"block":2,"trial":208,"stimulus":5,"robot":2,"valence":"win","action":"no-go","sham":0,"trial_type":"pit-trial","trial_index":251,"time_elapsed":1005147,"internal_node_id":"0.0-210.0","task_version":"battery-v0.2"},{"rune":"Q","rune_set":"bacs1","hex":"#3366ff99","correct":-1,"choice":32,"rt":892.3700000159442,"accuracy":0,"outcome":"+1","keys":[2394.205000018701],"total_keys":1,"block":2,"trial":209,"stimulus":11,"robot":2,"valence":"win","action":"no-go","sham":0,"trial_type":"pit-trial","trial_index":252,"time_elapsed":1008746,"internal_node_id":"0.0-211.0","task_version":"battery-v0.2"},{"rune":"C","rune_set":"bacs1","hex":"#f73b6a7A","correct":32,"choice":32,"rt":624.7349999612197,"accuracy":1,"outcome":"-1","keys":[2125.415000016801],"total_keys":1,"block":2,"trial":210,"stimulus":9,"robot":3,"valence":"lose","action":"go","sham":0,"trial_type":"pit-trial","trial_index":253,"time_elapsed":1012074,"internal_node_id":"0.0-212.0","task_version":"battery-v0.2"},{"rune":"L","rune_set":"bacs1","hex":"#f73b6a7A","correct":32,"choice":-1,"rt":-1,"accuracy":0,"outcome":"-10","keys":[],"total_keys":0,"block":2,"trial":211,"stimulus":10,"robot":3,"valence":"lose","action":"go","sham":0,"trial_type":"pit-trial","trial_index":254,"time_elapsed":1016082,"internal_node_id":"0.0-213.0","task_version":"battery-v0.2"},{"rune":"A","rune_set":"bacs1","hex":"#3366ff99","correct":32,"choice":32,"rt":543.8999999314547,"accuracy":1,"outcome":"+10","keys":[2043.9600000390783],"total_keys":1,"block":2,"trial":212,"stimulus":8,"robot":1,"valence":"win","action":"go","sham":0,"trial_type":"pit-trial","trial_index":255,"time_elapsed":1019330,"internal_node_id":"0.0-214.0","task_version":"battery-v0.2"},{"rune":"C","rune_set":"bacs1","hex":"#f73b6a7A","correct":32,"choice":32,"rt":726.009999983944,"accuracy":1,"outcome":"-10","keys":[2227.339999983087],"total_keys":1,"block":2,"trial":213,"stimulus":9,"robot":3,"valence":"lose","action":"go","sham":1,"trial_type":"pit-trial","trial_index":256,"time_elapsed":1022762,"internal_node_id":"0.0-215.0","task_version":"battery-v0.2"},{"rune":"A","rune_set":"bacs1","hex":"#3366ff99","correct":32,"choice":32,"rt":522.4500000476837,"accuracy":1,"outcome":"+1","keys":[2023.3149999985471],"total_keys":1,"block":2,"trial":214,"stimulus":8,"robot":1,"valence":"win","action":"go","sham":1,"trial_type":"pit-trial","trial_index":257,"time_elapsed":1025991,"internal_node_id":"0.0-216.0","task_version":"battery-v0.2"},{"rune":"L","rune_set":"bacs1","hex":"#f73b6a7A","correct":32,"choice":-1,"rt":-1,"accuracy":0,"outcome":"-10","keys":[],"total_keys":0,"block":2,"trial":215,"stimulus":10,"robot":3,"valence":"lose","action":"go","sham":0,"trial_type":"pit-trial","trial_index":258,"time_elapsed":1029994,"internal_node_id":"0.0-217.0","task_version":"battery-v0.2"},{"rune":"Q","rune_set":"bacs1","hex":"#3366ff99","correct":-1,"choice":-1,"rt":-1,"accuracy":1,"outcome":"+10","keys":[],"total_keys":0,"block":2,"trial":216,"stimulus":11,"robot":2,"valence":"win","action":"no-go","sham":0,"trial_type":"pit-trial","trial_index":259,"time_elapsed":1034002,"internal_node_id":"0.0-218.0","task_version":"battery-v0.2"},{"rune":"A","rune_set":"bacs1","hex":"#3366ff99","correct":32,"choice":32,"rt":723.5850000288337,"accuracy":1,"outcome":"+1","keys":[2225.095000001602],"total_keys":1,"block":2,"trial":217,"stimulus":8,"robot":1,"valence":"win","action":"go","sham":1,"trial_type":"pit-trial","trial_index":260,"time_elapsed":1037429,"internal_node_id":"0.0-219.0","task_version":"battery-v0.2"},{"rune":"Q","rune_set":"bacs1","hex":"#3366ff99","correct":-1,"choice":32,"rt":602.3550000973046,"accuracy":0,"outcome":"+1","keys":[2104.2250000173226],"total_keys":1,"block":2,"trial":218,"stimulus":11,"robot":2,"valence":"win","action":"no-go","sham":0,"trial_type":"pit-trial","trial_index":261,"time_elapsed":1040737,"internal_node_id":"0.0-220.0","task_version":"battery-v0.2"},{"rune":"C","rune_set":"bacs1","hex":"#f73b6a7A","correct":32,"choice":32,"rt":658.6750000715256,"accuracy":1,"outcome":"-1","keys":[2158.945000031963],"total_keys":1,"block":2,"trial":219,"stimulus":9,"robot":3,"valence":"lose","action":"go","sham":0,"trial_type":"pit-trial","trial_index":262,"time_elapsed":1044101,"internal_node_id":"0.0-221.0","task_version":"battery-v0.2"},{"rune":"L","rune_set":"bacs1","hex":"#f73b6a7A","correct":32,"choice":-1,"rt":-1,"accuracy":0,"outcome":"-10","keys":[],"total_keys":0,"block":2,"trial":220,"stimulus":10,"robot":3,"valence":"lose","action":"go","sham":0,"trial_type":"pit-trial","trial_index":263,"time_elapsed":1048110,"internal_node_id":"0.0-222.0","task_version":"battery-v0.2"},{"rune":"L","rune_set":"bacs1","hex":"#f73b6a7A","correct":32,"choice":32,"rt":656.0599999502301,"accuracy":1,"outcome":"-10","keys":[2157.3699999134988],"total_keys":1,"block":2,"trial":221,"stimulus":10,"robot":3,"valence":"lose","action":"go","sham":1,"trial_type":"pit-trial","trial_index":264,"time_elapsed":1051469,"internal_node_id":"0.0-223.0","task_version":"battery-v0.2"},{"rune":"C","rune_set":"bacs1","hex":"#f73b6a7A","correct":32,"choice":32,"rt":536.0449999570847,"accuracy":1,"outcome":"-1","keys":[2036.115000024438],"total_keys":1,"block":2,"trial":222,"stimulus":9,"robot":3,"valence":"lose","action":"go","sham":0,"trial_type":"pit-trial","trial_index":265,"time_elapsed":1054709,"internal_node_id":"0.0-224.0","task_version":"battery-v0.2"},{"rune":"Q","rune_set":"bacs1","hex":"#3366ff99","correct":-1,"choice":32,"rt":681.7300000693649,"accuracy":0,"outcome":"+10","keys":[2182.9600000055507],"total_keys":1,"block":2,"trial":223,"stimulus":11,"robot":2,"valence":"win","action":"no-go","sham":1,"trial_type":"pit-trial","trial_index":266,"time_elapsed":1058095,"internal_node_id":"0.0-225.0","task_version":"battery-v0.2"},{"rune":"A","rune_set":"bacs1","hex":"#3366ff99","correct":32,"choice":32,"rt":646.8799998983741,"accuracy":1,"outcome":"+1","keys":[2148.47999997437],"total_keys":1,"block":2,"trial":224,"stimulus":8,"robot":1,"valence":"win","action":"go","sham":1,"trial_type":"pit-trial","trial_index":267,"time_elapsed":1061449,"internal_node_id":"0.0-226.0","task_version":"battery-v0.2"},{"rune":"C","rune_set":"bacs1","hex":"#f73b6a7A","correct":32,"choice":32,"rt":625.2150000073016,"accuracy":1,"outcome":"-1","keys":[2126.2400000123307],"total_keys":1,"block":2,"trial":225,"stimulus":9,"robot":3,"valence":"lose","action":"go","sham":0,"trial_type":"pit-trial","trial_index":268,"time_elapsed":1064781,"internal_node_id":"0.0-227.0","task_version":"battery-v0.2"},{"rune":"A","rune_set":"bacs1","hex":"#3366ff99","correct":32,"choice":-1,"rt":-1,"accuracy":0,"outcome":"+1","keys":[],"total_keys":0,"block":2,"trial":226,"stimulus":8,"robot":1,"valence":"win","action":"go","sham":0,"trial_type":"pit-trial","trial_index":269,"time_elapsed":1068788,"internal_node_id":"0.0-228.0","task_version":"battery-v0.2"},{"rune":"Q","rune_set":"bacs1","hex":"#3366ff99","correct":-1,"choice":32,"rt":594.6950000943616,"accuracy":0,"outcome":"+1","keys":[2096.4849999872968],"total_keys":1,"block":2,"trial":227,"stimulus":11,"robot":2,"valence":"win","action":"no-go","sham":0,"trial_type":"pit-trial","trial_index":270,"time_elapsed":1072090,"internal_node_id":"0.0-229.0","task_version":"battery-v0.2"},{"rune":"L","rune_set":"bacs1","hex":"#f73b6a7A","correct":32,"choice":32,"rt":815.9600000362843,"accuracy":1,"outcome":"-1","keys":[2317.0150000369176],"total_keys":1,"block":2,"trial":228,"stimulus":10,"robot":3,"valence":"lose","action":"go","sham":0,"trial_type":"pit-trial","trial_index":271,"time_elapsed":1075612,"internal_node_id":"0.0-230.0","task_version":"battery-v0.2"},{"rune":"L","rune_set":"bacs1","hex":"#f73b6a7A","correct":32,"choice":32,"rt":1051.424999954179,"accuracy":1,"outcome":"-1","keys":[2552.1949999965727],"total_keys":1,"block":2,"trial":229,"stimulus":10,"robot":3,"valence":"lose","action":"go","sham":0,"trial_type":"pit-trial","trial_index":272,"time_elapsed":1079367,"internal_node_id":"0.0-231.0","task_version":"battery-v0.2"},{"rune":"Q","rune_set":"bacs1","hex":"#3366ff99","correct":-1,"choice":-1,"rt":-1,"accuracy":1,"outcome":"+10","keys":[],"total_keys":0,"block":2,"trial":230,"stimulus":11,"robot":2,"valence":"win","action":"no-go","sham":0,"trial_type":"pit-trial","trial_index":273,"time_elapsed":1083372,"internal_node_id":"0.0-232.0","task_version":"battery-v0.2"},{"rune":"C","rune_set":"bacs1","hex":"#f73b6a7A","correct":32,"choice":32,"rt":557.0900000166148,"accuracy":1,"outcome":"-1","keys":[2059.224999975413],"total_keys":1,"block":2,"trial":231,"stimulus":9,"robot":3,"valence":"lose","action":"go","sham":0,"trial_type":"pit-trial","trial_index":274,"time_elapsed":1086634,"internal_node_id":"0.0-233.0","task_version":"battery-v0.2"},{"rune":"A","rune_set":"bacs1","hex":"#3366ff99","correct":32,"choice":-1,"rt":-1,"accuracy":0,"outcome":"+1","keys":[],"total_keys":0,"block":2,"trial":232,"stimulus":8,"robot":1,"valence":"win","action":"go","sham":0,"trial_type":"pit-trial","trial_index":275,"time_elapsed":1090639,"internal_node_id":"0.0-234.0","task_version":"battery-v0.2"},{"rune":"A","rune_set":"bacs1","hex":"#3366ff99","correct":32,"choice":32,"rt":503.17500007804483,"accuracy":1,"outcome":"+10","keys":[2003.2600000267848],"total_keys":1,"block":2,"trial":233,"stimulus":8,"robot":1,"valence":"win","action":"go","sham":0,"trial_type":"pit-trial","trial_index":276,"time_elapsed":1093846,"internal_node_id":"0.0-235.0","task_version":"battery-v0.2"},{"rune":"Q","rune_set":"bacs1","hex":"#3366ff99","correct":-1,"choice":-1,"rt":-1,"accuracy":1,"outcome":"+10","keys":[],"total_keys":0,"block":2,"trial":234,"stimulus":11,"ro