[{"view_history":"[{\"page_index\":0,\"viewing_time\":2693.9500000153203},{\"page_index\":1,\"viewing_time\":3077.610000007553},{\"page_index\":2,\"viewing_time\":3711.8400000035763},{\"page_index\":3,\"viewing_time\":6430.209999991348},{\"page_index\":4,\"viewing_time\":8464.130000007572},{\"page_index\":5,\"viewing_time\":5755.810000002384},{\"page_index\":6,\"viewing_time\":7206.574999989243},{\"page_index\":7,\"viewing_time\":14667.090000002645},{\"page_index\":8,\"viewing_time\":5811.599999986356},{\"page_index\":9,\"viewing_time\":2791.0050000064075}]","rt":60610.52000001655,"trial_type":"pit-instructions","trial_index":0,"time_elapsed":60640,"internal_node_id":"0.0-0.0-0.0","task_version":"battery-v0.2"},{"rune":"1","rune_set":"elianto","hex":"#3366ff99","correct":32,"choice":-1,"rt":-1,"accuracy":0,"outcome":"+1","keys":[1376.0349999938626],"total_keys":1,"block":0,"practice":1,"trial_type":"pit-trial","trial_index":1,"time_elapsed":64648,"internal_node_id":"0.0-0.0-1.0-0.0","task_version":"battery-v0.2"},{"rune":"1","rune_set":"elianto","hex":"#3366ff99","correct":32,"choice":32,"rt":36.419999989448115,"accuracy":1,"outcome":"+10","keys":[1539.199999999255],"total_keys":1,"block":0,"practice":1,"trial_type":"pit-trial","trial_index":2,"time_elapsed":67394,"internal_node_id":"0.0-0.0-1.1-0.1","task_version":"battery-v0.2"},{"rune":"1","rune_set":"elianto","hex":"#3366ff99","correct":32,"choice":-1,"rt":-1,"accuracy":0,"outcome":"+1","keys":[1462.3049999936484],"total_keys":1,"block":0,"practice":1,"trial_type":"pit-trial","trial_index":3,"time_elapsed":71399,"internal_node_id":"0.0-0.0-1.2-0.2","task_version":"battery-v0.2"},{"rune":"1","rune_set":"elianto","hex":"#3366ff99","correct":32,"choice":-1,"rt":-1,"accuracy":0,"outcome":"+1","keys":[],"total_keys":0,"block":0,"practice":1,"trial_type":"pit-trial","trial_index":4,"time_elapsed":75405,"internal_node_id":"0.0-0.0-1.3-0.3","task_version":"battery-v0.2"},{"rune":"1","rune_set":"elianto","hex":"#3366ff99","correct":32,"choice":-1,"rt":-1,"accuracy":0,"outcome":"+1","keys":[],"total_keys":0,"block":0,"practice":1,"trial_type":"pit-trial","trial_index":5,"time_elapsed":79414,"internal_node_id":"0.0-0.0-1.4-0.4","task_version":"battery-v0.2"},{"rune":"1","rune_set":"elianto","hex":"#3366ff99","correct":32,"choice":-1,"rt":-1,"accuracy":0,"outcome":"+1","keys":[],"total_keys":0,"block":0,"practice":1,"trial_type":"pit-trial","trial_index":6,"time_elapsed":83419,"internal_node_id":"0.0-0.0-1.5-0.5","task_version":"battery-v0.2"},{"rune":"1","rune_set":"elianto","hex":"#3366ff99","correct":32,"choice":-1,"rt":-1,"accuracy":0,"outcome":"+1","keys":[],"total_keys":0,"block":0,"practice":1,"trial_type":"pit-trial","trial_index":7,"time_elapsed":87423,"internal_node_id":"0.0-0.0-1.6-0.6","task_version":"battery-v0.2"},{"rune":"1","rune_set":"elianto","hex":"#3366ff99","correct":32,"choice":-1,"rt":-1,"accuracy":0,"outcome":"+1","keys":[],"total_keys":0,"block":0,"practice":1,"trial_type":"pit-trial","trial_index":8,"time_elapsed":91428,"internal_node_id":"0.0-0.0-1.7-0.7","task_version":"battery-v0.2"},{"rune":"1","rune_set":"elianto","hex":"#3366ff99","correct":32,"choice":-1,"rt":-1,"accuracy":0,"outcome":"+1","keys":[],"total_keys":0,"block":0,"practice":1,"trial_type":"pit-trial","trial_index":9,"time_elapsed":95433,"internal_node_id":"0.0-0.0-1.8-0.8","task_version":"battery-v0.2"},{"rune":"1","rune_set":"elianto","hex":"#3366ff99","correct":32,"choice":-1,"rt":-1,"accuracy":0,"outcome":"+1","keys":[],"total_keys":0,"block":0,"practice":1,"trial_type":"pit-trial","trial_index":10,"time_elapsed":99436,"internal_node_id":"0.0-0.0-1.9-0.9","task_version":"battery-v0.2"},{"rune":"1","rune_set":"elianto","hex":"#3366ff99","correct":32,"choice":-1,"rt":-1,"accuracy":0,"outcome":"+1","keys":[],"total_keys":0,"block":0,"practice":1,"trial_type":"pit-trial","trial_index":11,"time_elapsed":103443,"internal_node_id":"0.0-0.0-1.10-0.10","task_version":"battery-v0.2"},{"rune":"1","rune_set":"elianto","hex":"#3366ff99","correct":32,"choice":-1,"rt":-1,"accuracy":0,"outcome":"+1","keys":[],"total_keys":0,"block":0,"practice":1,"trial_type":"pit-trial","trial_index":12,"time_elapsed":107448,"internal_node_id":"0.0-0.0-1.11-0.11","task_version":"battery-v0.2"},{"rune":"1","rune_set":"elianto","hex":"#3366ff99","correct":32,"choice":-1,"rt":-1,"accuracy":0,"outcome":"+1","keys":[],"total_keys":0,"block":0,"practice":1,"trial_type":"pit-trial","trial_index":13,"time_elapsed":111454,"internal_node_id":"0.0-0.0-1.12-0.12","task_version":"battery-v0.2"},{"rune":"1","rune_set":"elianto","hex":"#3366ff99","correct":32,"choice":-1,"rt":-1,"accuracy":0,"outcome":"+1","keys":[],"total_keys":0,"block":0,"practice":1,"trial_type":"pit-trial","trial_index":14,"time_elapsed":115461,"internal_node_id":"0.0-0.0-1.13-0.13","task_version":"battery-v0.2"},{"rune":"1","rune_set":"elianto","hex":"#3366ff99","correct":32,"choice":-1,"rt":-1,"accuracy":0,"outcome":"+1","keys":[],"total_keys":0,"block":0,"practice":1,"trial_type":"pit-trial","trial_index":15,"time_elapsed":119466,"internal_node_id":"0.0-0.0-1.14-0.14","task_version":"battery-v0.2"},{"rune":"1","rune_set":"elianto","hex":"#3366ff99","correct":32,"choice":-1,"rt":-1,"accuracy":0,"outcome":"+1","keys":[],"total_keys":0,"block":0,"practice":1,"trial_type":"pit-trial","trial_index":16,"time_elapsed":123472,"internal_node_id":"0.0-0.0-1.15-0.15","task_version":"battery-v0.2"},{"rune":"1","rune_set":"elianto","hex":"#3366ff99","correct":32,"choice":-1,"rt":-1,"accuracy":0,"outcome":"+1","keys":[],"total_keys":0,"block":0,"practice":1,"trial_type":"pit-trial","trial_index":17,"time_elapsed":127478,"internal_node_id":"0.0-0.0-1.16-0.16","task_version":"battery-v0.2"},{"rune":"1","rune_set":"elianto","hex":"#3366ff99","correct":32,"choice":-1,"rt":-1,"accuracy":0,"outcome":"+1","keys":[],"total_keys":0,"block":0,"practice":1,"trial_type":"pit-trial","trial_index":18,"time_elapsed":131483,"internal_node_id":"0.0-0.0-1.17-0.17","task_version":"battery-v0.2"},{"rune":"1","rune_set":"elianto","hex":"#3366ff99","correct":32,"choice":-1,"rt":-1,"accuracy":0,"outcome":"+1","keys":[],"total_keys":0,"block":0,"practice":1,"trial_type":"pit-trial","trial_index":19,"time_elapsed":135489,"internal_node_id":"0.0-0.0-1.18-0.18","task_version":"battery-v0.2"},{"rune":"1","rune_set":"elianto","hex":"#3366ff99","correct":32,"choice":32,"rt":158.66999997524545,"accuracy":1,"outcome":"+10","keys":[1659.620000020368],"total_keys":1,"block":0,"practice":1,"trial_type":"pit-trial","trial_index":20,"time_elapsed":138352,"internal_node_id":"0.0-0.0-1.19-0.19","task_version":"battery-v0.2"},{"rune":"1","rune_set":"elianto","hex":"#3366ff99","correct":32,"choice":-1,"rt":-1,"accuracy":0,"outcome":"+1","keys":[],"total_keys":0,"block":0,"practice":1,"trial_type":"pit-trial","trial_index":21,"time_elapsed":142357,"internal_node_id":"0.0-0.0-1.20-0.20","task_version":"battery-v0.2"},{"rune":"1","rune_set":"elianto","hex":"#3366ff99","correct":32,"choice":-1,"rt":-1,"accuracy":0,"outcome":"+1","keys":[],"total_keys":0,"block":0,"practice":1,"trial_type":"pit-trial","trial_index":22,"time_elapsed":146363,"internal_node_id":"0.0-0.0-1.21-0.21","task_version":"battery-v0.2"},{"rune":"1","rune_set":"elianto","hex":"#3366ff99","correct":32,"choice":-1,"rt":-1,"accuracy":0,"outcome":"+1","keys":[],"total_keys":0,"block":0,"practice":1,"trial_type":"pit-trial","trial_index":23,"time_elapsed":150368,"internal_node_id":"0.0-0.0-1.22-0.22","task_version":"battery-v0.2"},{"rune":"1","rune_set":"elianto","hex":"#3366ff99","correct":32,"choice":-1,"rt":-1,"accuracy":0,"outcome":"+1","keys":[],"total_keys":0,"block":0,"practice":1,"trial_type":"pit-trial","trial_index":24,"time_elapsed":154373,"internal_node_id":"0.0-0.0-1.23-0.23","task_version":"battery-v0.2"},{"rune":"1","rune_set":"elianto","hex":"#3366ff99","correct":32,"choice":-1,"rt":-1,"accuracy":0,"outcome":"+1","keys":[],"total_keys":0,"block":0,"practice":1,"trial_type":"pit-trial","trial_index":25,"time_elapsed":158376,"internal_node_id":"0.0-0.0-1.24-0.24","task_version":"battery-v0.2"},{"rune":"1","rune_set":"elianto","hex":"#3366ff99","correct":32,"choice":-1,"rt":-1,"accuracy":0,"outcome":"+1","keys":[],"total_keys":0,"block":0,"practice":1,"trial_type":"pit-trial","trial_index":26,"time_elapsed":162381,"internal_node_id":"0.0-0.0-1.25-0.25","task_version":"battery-v0.2"},{"rune":"1","rune_set":"elianto","hex":"#3366ff99","correct":32,"choice":-1,"rt":-1,"accuracy":0,"outcome":"+1","keys":[],"total_keys":0,"block":0,"practice":1,"trial_type":"pit-trial","trial_index":27,"time_elapsed":166386,"internal_node_id":"0.0-0.0-1.26-0.26","task_version":"battery-v0.2"},{"rune":"1","rune_set":"elianto","hex":"#3366ff99","correct":32,"choice":32,"rt":374.08499998855405,"accuracy":1,"outcome":"+10","keys":[1874.6650000102818],"total_keys":1,"block":0,"practice":1,"trial_type":"pit-trial","trial_index":28,"time_elapsed":169466,"internal_node_id":"0.0-0.0-1.27-0.27","task_version":"battery-v0.2"},{"rune":"1","rune_set":"elianto","hex":"#3366ff99","correct":32,"choice":-1,"rt":-1,"accuracy":0,"outcome":"+1","keys":[],"total_keys":0,"block":0,"practice":1,"trial_type":"pit-trial","trial_index":29,"time_elapsed":173473,"internal_node_id":"0.0-0.0-1.28-0.28","task_version":"battery-v0.2"},{"rune":"1","rune_set":"elianto","hex":"#3366ff99","correct":32,"choice":-1,"rt":-1,"accuracy":0,"outcome":"+1","keys":[],"total_keys":0,"block":0,"practice":1,"trial_type":"pit-trial","trial_index":30,"time_elapsed":177479,"internal_node_id":"0.0-0.0-1.29-0.29","task_version":"battery-v0.2"},{"rune":"1","rune_set":"elianto","hex":"#3366ff99","correct":32,"choice":-1,"rt":-1,"accuracy":0,"outcome":"+1","keys":[],"total_keys":0,"block":0,"practice":1,"trial_type":"pit-trial","trial_index":31,"time_elapsed":181482,"internal_node_id":"0.0-0.0-1.30-0.30","task_version":"battery-v0.2"},{"rune":"1","rune_set":"elianto","hex":"#3366ff99","correct":32,"choice":-1,"rt":-1,"accuracy":0,"outcome":"+1","keys":[],"total_keys":0,"block":0,"practice":1,"trial_type":"pit-trial","trial_index":32,"time_elapsed":185486,"internal_node_id":"0.0-0.0-1.31-0.31","task_version":"battery-v0.2"},{"rune":"1","rune_set":"elianto","hex":"#3366ff99","correct":32,"choice":-1,"rt":-1,"accuracy":0,"outcome":"+1","keys":[],"total_keys":0,"block":0,"practice":1,"trial_type":"pit-trial","trial_index":33,"time_elapsed":189489,"internal_node_id":"0.0-0.0-1.32-0.32","task_version":"battery-v0.2"},{"rune":"1","rune_set":"elianto","hex":"#3366ff99","correct":32,"choice":-1,"rt":-1,"accuracy":0,"outcome":"+1","keys":[],"total_keys":0,"block":0,"practice":1,"trial_type":"pit-trial","trial_index":34,"time_elapsed":193494,"internal_node_id":"0.0-0.0-1.33-0.33","task_version":"battery-v0.2"},{"rune":"1","rune_set":"elianto","hex":"#3366ff99","correct":32,"choice":-1,"rt":-1,"accuracy":0,"outcome":"+1","keys":[],"total_keys":0,"block":0,"practice":1,"trial_type":"pit-trial","trial_index":35,"time_elapsed":197500,"internal_node_id":"0.0-0.0-1.34-0.34","task_version":"battery-v0.2"},{"rune":"1","rune_set":"elianto","hex":"#3366ff99","correct":32,"choice":-1,"rt":-1,"accuracy":0,"outcome":"+1","keys":[],"total_keys":0,"block":0,"practice":1,"trial_type":"pit-trial","trial_index":36,"time_elapsed":201505,"internal_node_id":"0.0-0.0-1.35-0.35","task_version":"battery-v0.2"},{"rune":"1","rune_set":"elianto","hex":"#3366ff99","correct":32,"choice":-1,"rt":-1,"accuracy":0,"outcome":"+1","keys":[],"total_keys":0,"block":0,"practice":1,"trial_type":"pit-trial","trial_index":37,"time_elapsed":205511,"internal_node_id":"0.0-0.0-1.36-0.36","task_version":"battery-v0.2"},{"rune":"1","rune_set":"elianto","hex":"#3366ff99","correct":32,"choice":-1,"rt":-1,"accuracy":0,"outcome":"+1","keys":[],"total_keys":0,"block":0,"practice":1,"trial_type":"pit-trial","trial_index":38,"time_elapsed":209516,"internal_node_id":"0.0-0.0-1.37-0.37","task_version":"battery-v0.2"},{"rune":"1","rune_set":"elianto","hex":"#3366ff99","correct":32,"choice":-1,"rt":-1,"accuracy":0,"outcome":"+1","keys":[],"total_keys":0,"block":0,"practice":1,"trial_type":"pit-trial","trial_index":39,"time_elapsed":213521,"internal_node_id":"0.0-0.0-1.38-0.38","task_version":"battery-v0.2"},{"rune":"1","rune_set":"elianto","hex":"#3366ff99","correct":32,"choice":-1,"rt":-1,"accuracy":0,"outcome":"+1","keys":[],"total_keys":0,"block":0,"practice":1,"trial_type":"pit-trial","trial_index":40,"time_elapsed":217526,"internal_node_id":"0.0-0.0-1.39-0.39","task_version":"battery-v0.2"},{"rune":"1","rune_set":"elianto","hex":"#3366ff99","correct":32,"choice":-1,"rt":-1,"accuracy":0,"outcome":"+1","keys":[],"total_keys":0,"block":0,"practice":1,"trial_type":"pit-trial","trial_index":41,"time_elapsed":221533,"internal_node_id":"0.0-0.0-1.40-0.40","task_version":"battery-v0.2"},{"rune":"1","rune_set":"elianto","hex":"#3366ff99","correct":32,"choice":-1,"rt":-1,"accuracy":0,"outcome":"+1","keys":[],"total_keys":0,"block":0,"practice":1,"trial_type":"pit-trial","trial_index":42,"time_elapsed":225538,"internal_node_id":"0.0-0.0-1.41-0.41","task_version":"battery-v0.2"},{"rune":"1","rune_set":"elianto","hex":"#3366ff99","correct":32,"choice":-1,"rt":-1,"accuracy":0,"outcome":"+1","keys":[],"total_keys":0,"block":0,"practice":1,"trial_type":"pit-trial","trial_index":43,"time_elapsed":229544,"internal_node_id":"0.0-0.0-1.42-0.42","task_version":"battery-v0.2"},{"rune":"1","rune_set":"elianto","hex":"#3366ff99","correct":32,"choice":32,"rt":230.23499999544583,"accuracy":1,"outcome":"+10","keys":[1019.3949999811593,1731.7049999837764,2175.3499999758787],"total_keys":3,"block":0,"practice":1,"trial_type":"pit-trial","trial_index":44,"time_elapsed":232480,"internal_node_id":"0.0-0.0-1.43-0.43","task_version":"battery-v0.2"},{"rune":"1","rune_set":"elianto","hex":"#3366ff99","correct":32,"choice":-1,"rt":-1,"accuracy":0,"outcome":"+1","keys":[],"total_keys":0,"block":0,"practice":1,"trial_type":"pit-trial","trial_index":45,"time_elapsed":236484,"internal_node_id":"0.0-0.0-1.44-0.44","task_version":"battery-v0.2"},{"rune":"1","rune_set":"elianto","hex":"#3366ff99","correct":32,"choice":-1,"rt":-1,"accuracy":0,"outcome":"+1","keys":[],"total_keys":0,"block":0,"practice":1,"trial_type":"pit-trial","trial_index":46,"time_elapsed":240488,"internal_node_id":"0.0-0.0-1.45-0.45","task_version":"battery-v0.2"},{"rune":"1","rune_set":"elianto","hex":"#3366ff99","correct":32,"choice":-1,"rt":-1,"accuracy":0,"outcome":"+1","keys":[],"total_keys":0,"block":0,"practice":1,"trial_type":"pit-trial","trial_index":47,"time_elapsed":244492,"internal_node_id":"0.0-0.0-1.46-0.46","task_version":"battery-v0.2"},{"rune":"1","rune_set":"elianto","hex":"#3366ff99","correct":32,"choice":-1,"rt":-1,"accuracy":0,"outcome":"+1","keys":[],"total_keys":0,"block":0,"practice":1,"trial_type":"pit-trial","trial_index":48,"time_elapsed":248502,"internal_node_id":"0.0-0.0-1.47-0.47","task_version":"battery-v0.2"},{"rune":"1","rune_set":"elianto","hex":"#3366ff99","correct":32,"choice":32,"rt":623.0799999902956,"accuracy":1,"outcome":"+10","keys":[2123.2399999862537],"total_keys":1,"block":0,"practice":1,"trial_type":"pit-trial","trial_index":49,"time_elapsed":251830,"internal_node_id":"0.0-0.0-1.48-0.48","task_version":"battery-v0.2"},{"rune":"1","rune_set":"elianto","hex":"#3366ff99","correct":32,"choice":-1,"rt":-1,"accuracy":0,"outcome":"+1","keys":[],"total_keys":0,"block":0,"practice":1,"trial_type":"pit-trial","trial_index":50,"time_elapsed":255837,"internal_node_id":"0.0-0.0-1.49-0.49","task_version":"battery-v0.2"},{"rune":"1","rune_set":"elianto","hex":"#3366ff99","correct":32,"choice":-1,"rt":-1,"accuracy":0,"outcome":"+1","keys":[],"total_keys":0,"block":0,"practice":1,"trial_type":"pit-trial","trial_index":51,"time_elapsed":259842,"internal_node_id":"0.0-0.0-1.50-0.50","task_version":"battery-v0.2"},{"rune":"1","rune_set":"elianto","hex":"#3366ff99","correct":32,"choice":-1,"rt":-1,"accuracy":0,"outcome":"+1","keys":[],"total_keys":0,"block":0,"practice":1,"trial_type":"pit-trial","trial_index":52,"time_elapsed":263847,"internal_node_id":"0.0-0.0-1.51-0.51","task_version":"battery-v0.2"},{"rune":"1","rune_set":"elianto","hex":"#3366ff99","correct":32,"choice":-1,"rt":-1,"accuracy":0,"outcome":"+1","keys":[],"total_keys":0,"block":0,"practice":1,"trial_type":"pit-trial","trial_index":53,"time_elapsed":268917,"internal_node_id":"0.0-0.0-1.52-0.52","task_version":"battery-v0.2"},{"rune":"1","rune_set":"elianto","hex":"#3366ff99","correct":32,"choice":-1,"rt":-1,"accuracy":0,"outcome":"+1","keys":[],"total_keys":0,"block":0,"practice":1,"trial_type":"pit-trial","trial_index":54,"time_elapsed":273283,"internal_node_id":"0.0-0.0-1.53-0.53","task_version":"battery-v0.2"},{"rune":"1","rune_set":"elianto","hex":"#3366ff99","correct":32,"choice":-1,"rt":-1,"accuracy":0,"outcome":"+1","keys":[],"total_keys":0,"block":0,"practice":1,"trial_type":"pit-trial","trial_index":55,"time_elapsed":278119,"internal_node_id":"0.0-0.0-1.54-0.54","task_version":"battery-v0.2"},{"rune":"1","rune_set":"elianto","hex":"#3366ff99","correct":32,"choice":-1,"rt":-1,"accuracy":0,"outcome":"+1","keys":[],"total_keys":0,"block":0,"practice":1,"trial_type":"pit-trial","trial_index":56,"time_elapsed":283918,"internal_node_id":"0.0-0.0-1.55-0.55","task_version":"battery-v0.2"},{"rune":"1","rune_set":"elianto","hex":"#3366ff99","correct":32,"choice":-1,"rt":-1,"accuracy":0,"outcome":"+1","keys":[],"total_keys":0,"block":0,"practice":1,"trial_type":"pit-trial","trial_index":57,"time_elapsed":288916,"internal_node_id":"0.0-0.0-1.56-0.56","task_version":"battery-v0.2"},{"rune":"1","rune_set":"elianto","hex":"#3366ff99","correct":32,"choice":-1,"rt":-1,"accuracy":0,"outcome":"+1","keys":[],"total_keys":0,"block":0,"practice":1,"trial_type":"pit-trial","trial_index":58,"time_elapsed":292921,"internal_node_id":"0.0-0.0-1.57-0.57","task_version":"battery-v0.2"},{"rune":"1","rune_set":"elianto","hex":"#3366ff99","correct":32,"choice":-1,"rt":-1,"accuracy":0,"outcome":"+1","keys":[],"total_keys":0,"block":0,"practice":1,"trial_type":"pit-trial","trial_index":59,"time_elapsed":296927,"internal_node_id":"0.0-0.0-1.58-0.58","task_version":"battery-v0.2"},{"rune":"1","rune_set":"elianto","hex":"#3366ff99","correct":32,"choice":-1,"rt":-1,"accuracy":0,"outcome":"+1","keys":[],"total_keys":0,"block":0,"practice":1,"trial_type":"pit-trial","trial_index":60,"time_elapsed":300930,"internal_node_id":"0.0-0.0-1.59-0.59","task_version":"battery-v0.2"},{"rune":"1","rune_set":"elianto","hex":"#3366ff99","correct":32,"choice":32,"rt":132.61500000953674,"accuracy":1,"outcome":"+10","keys":[1634.3999999808148],"total_keys":1,"block":0,"practice":1,"trial_type":"pit-trial","trial_index":61,"time_elapsed":303768,"internal_node_id":"0.0-0.0-1.60-0.60","task_version":"battery-v0.2"},{"rune":"1","rune_set":"elianto","hex":"#3366ff99","correct":32,"choice":32,"rt":778.9350000093691,"accuracy":1,"outcome":"+10","keys":[841.7049999989104,1284.285000001546,2280.739999987418],"total_keys":3,"block":0,"practice":1,"trial_type":"pit-trial","trial_index":62,"time_elapsed":307252,"internal_node_id":"0.0-0.0-1.61-0.61","task_version":"battery-v0.2"},{"rune":"1","rune_set":"elianto","hex":"#3366ff99","correct":32,"choice":32,"rt":90.5849999981001,"accuracy":1,"outcome":"+10","keys":[1591.3050000090152],"total_keys":1,"block":0,"practice":1,"trial_type":"pit-trial","trial_index":63,"time_elapsed":310047,"internal_node_id":"0.0-0.0-1.62-0.62","task_version":"battery-v0.2"},{"view_history":"[{\"page_index\":0,\"viewing_time\":7160.990000003949},{\"page_index\":1,\"viewing_time\":10290.445000020554}]","rt":17452.00499999919,"trial_type":"pit-instructions","trial_index":64,"time_elapsed":327502,"internal_node_id":"0.0-0.0-2.0","task_version":"battery-v0.2"},{"rune":"2","rune_set":"elianto","hex":"#3366ff99","correct":-1,"choice":32,"rt":719.4200000085402,"accuracy":0,"outcome":"+1","keys":[1263.6099999945145,2220.455000002403],"total_keys":2,"block":0,"practice":2,"trial_type":"pit-trial","trial_index":65,"time_elapsed":330925,"internal_node_id":"0.0-0.0-3.0-0.0","task_version":"battery-v0.2"},{"rune":"2","rune_set":"elianto","hex":"#3366ff99","correct":-1,"choice":32,"rt":275.7299999939278,"accuracy":0,"outcome":"+1","keys":[1283.5049999994226,1777.250000013737],"total_keys":2,"block":0,"practice":2,"trial_type":"pit-trial","trial_index":66,"time_elapsed":333906,"internal_node_id":"0.0-0.0-3.1-0.1","task_version":"battery-v0.2"},{"rune":"2","rune_set":"elianto","hex":"#3366ff99","correct":-1,"choice":-1,"rt":-1,"accuracy":1,"outcome":"+10","keys":[],"total_keys":0,"block":0,"practice":2,"trial_type":"pit-trial","trial_index":67,"time_elapsed":337911,"internal_node_id":"0.0-0.0-3.2-0.2","task_version":"battery-v0.2"},{"rune":"2","rune_set":"elianto","hex":"#3366ff99","correct":-1,"choice":-1,"rt":-1,"accuracy":1,"outcome":"+10","keys":[],"total_keys":0,"block":0,"practice":2,"trial_type":"pit-trial","trial_index":68,"time_elapsed":341916,"internal_node_id":"0.0-0.0-3.3-0.3","task_version":"battery-v0.2"},{"rune":"2","rune_set":"elianto","hex":"#3366ff99","correct":-1,"choice":-1,"rt":-1,"accuracy":1,"outcome":"+10","keys":[],"total_keys":0,"block":0,"practice":2,"trial_type":"pit-trial","trial_index":69,"time_elapsed":345921,"internal_node_id":"0.0-0.0-3.4-0.4","task_version":"battery-v0.2"},{"view_history":"[{\"page_index\":0,\"viewing_time\":6621.069999993779},{\"page_index\":1,\"viewing_time\":7810.640000010608},{\"page_index\":0,\"viewing_time\":2017.0949999883305},{\"page_index\":1,\"viewing_time\":625.3700000233948}]","rt":17074.5300000126,"trial_type":"pit-instructions","trial_index":70,"time_elapsed":362999,"internal_node_id":"0.0-0.0-4.0","task_version":"battery-v0.2"},{"rune":"3","rune_set":"elianto","hex":"#f73b6a7A","correct":-1,"choice":32,"rt":376.3150000013411,"accuracy":0,"outcome":"-10","keys":[1876.9650000031106],"total_keys":1,"block":0,"practice":3,"trial_type":"pit-trial","trial_index":71,"time_elapsed":366081,"internal_node_id":"0.0-0.0-5.0-0.0","task_version":"battery-v0.2"},{"rune":"3","rune_set":"elianto","hex":"#f73b6a7A","correct":-1,"choice":32,"rt":1293.2199999922886,"accuracy":0,"outcome":"-10","keys":[1250.1699999847915,2795.060000004014],"total_keys":2,"block":0,"practice":3,"trial_type":"pit-trial","trial_index":72,"time_elapsed":370080,"internal_node_id":"0.0-0.0-5.1-0.1","task_version":"battery-v0.2"},{"rune":"3","rune_set":"elianto","hex":"#f73b6a7A","correct":-1,"choice":32,"rt":411.66000001248904,"accuracy":0,"outcome":"-10","keys":[1912.9850000026636],"total_keys":1,"block":0,"practice":3,"trial_type":"pit-trial","trial_index":73,"time_elapsed":373196,"internal_node_id":"0.0-0.0-5.2-0.2","task_version":"battery-v0.2"},{"rune":"3","rune_set":"elianto","hex":"#f73b6a7A","correct":-1,"choice":32,"rt":176.16000000271015,"accuracy":0,"outcome":"-10","keys":[1676.26000000746],"total_keys":1,"block":0,"practice":3,"trial_type":"pit-trial","trial_index":74,"time_elapsed":376075,"internal_node_id":"0.0-0.0-5.3-0.3","task_version":"battery-v0.2"},{"rune":"3","rune_set":"elianto","hex":"#f73b6a7A","correct":-1,"choice":32,"rt":113.20500000147149,"accuracy":0,"outcome":"-10","keys":[1614.4750000094064],"total_keys":1,"block":0,"practice":3,"trial_type":"pit-trial","trial_index":75,"time_elapsed":378893,"internal_node_id":"0.0-0.0-5.4-0.4","task_version":"battery-v0.2"},{"rune":"3","rune_set":"elianto","hex":"#f73b6a7A","correct":-1,"choice":32,"rt":88.92000000923872,"accuracy":0,"outcome":"-10","keys":[1198.2450000068638,1589.110000000801],"total_keys":2,"block":0,"practice":3,"trial_type":"pit-trial","trial_index":76,"time_elapsed":381685,"internal_node_id":"0.0-0.0-5.5-0.5","task_version":"battery-v0.2"},{"rune":"3","rune_set":"elianto","hex":"#f73b6a7A","correct":-1,"choice":-1,"rt":-1,"accuracy":1,"outcome":"-1","keys":[],"total_keys":0,"block":0,"practice":3,"trial_type":"pit-trial","trial_index":77,"time_elapsed":385689,"internal_node_id":"0.0-0.0-5.6-0.6","task_version":"battery-v0.2"},{"rune":"3","rune_set":"elianto","hex":"#f73b6a7A","correct":-1,"choice":32,"rt":274.13499998510815,"accuracy":0,"outcome":"-10","keys":[29.66000000014901,1775.5050000268966],"total_keys":2,"block":0,"practice":3,"trial_type":"pit-trial","trial_index":78,"time_elapsed":388667,"internal_node_id":"0.0-0.0-5.7-0.7","task_version":"battery-v0.2"},{"rune":"3","rune_set":"elianto","hex":"#f73b6a7A","correct":-1,"choice":32,"rt":321.23000000137836,"accuracy":0,"outcome":"-10","keys":[1821.3399999949615],"total_keys":1,"block":0,"practice":3,"trial_type":"pit-trial","trial_index":79,"time_elapsed":391691,"internal_node_id":"0.0-0.0-5.8-0.8","task_version":"battery-v0.2"},{"rune":"3","rune_set":"elianto","hex":"#f73b6a7A","correct":-1,"choice":32,"rt":201.65000000270084,"accuracy":0,"outcome":"-10","keys":[1702.3899999912828],"total_keys":1,"block":0,"practice":3,"trial_type":"pit-trial","trial_index":80,"time_elapsed":394598,"internal_node_id":"0.0-0.0-5.9-0.9","task_version":"battery-v0.2"},{"rune":"3","rune_set":"elianto","hex":"#f73b6a7A","correct":-1,"choice":32,"rt":452.2399999841582,"accuracy":0,"outcome":"-10","keys":[1449.4249999988824,1953.5150000010617],"total_keys":2,"block":0,"practice":3,"trial_type":"pit-trial","trial_index":81,"time_elapsed":397757,"internal_node_id":"0.0-0.0-5.10-0.10","task_version":"battery-v0.2"},{"rune":"3","rune_set":"elianto","hex":"#f73b6a7A","correct":-1,"choice":-1,"rt":-1,"accuracy":1,"outcome":"-1","keys":[],"total_keys":0,"block":0,"practice":3,"trial_type":"pit-trial","trial_index":82,"time_elapsed":401762,"internal_node_id":"0.0-0.0-5.11-0.11","task_version":"battery-v0.2"},{"rune":"3","rune_set":"elianto","hex":"#f73b6a7A","correct":-1,"choice":32,"rt":134.48999999673106,"accuracy":0,"outcome":"-10","keys":[1635.0300000049174],"total_keys":1,"block":0,"practice":3,"trial_type":"pit-trial","trial_index":83,"time_elapsed":404601,"internal_node_id":"0.0-0.0-5.12-0.12","task_version":"battery-v0.2"},{"rune":"3","rune_set":"elianto","hex":"#f73b6a7A","correct":-1,"choice":-1,"rt":-1,"accuracy":1,"outcome":"-1","keys":[],"total_keys":0,"block":0,"practice":3,"trial_type":"pit-trial","trial_index":84,"time_elapsed":408607,"internal_node_id":"0.0-0.0-5.13-0.13","task_version":"battery-v0.2"},{"rune":"3","rune_set":"elianto","hex":"#f73b6a7A","correct":-1,"choice":-1,"rt":-1,"accuracy":1,"outcome":"-1","keys":[],"total_keys":0,"block":0,"practice":3,"trial_type":"pit-trial","trial_index":85,"time_elapsed":412612,"internal_node_id":"0.0-0.0-5.14-0.14","task_version":"battery-v0.2"},{"rune":"3","rune_set":"elianto","hex":"#f73b6a7A","correct":-1,"choice":-1,"rt":-1,"accuracy":1,"outcome":"-1","keys":[],"total_keys":0,"block":0,"practice":3,"trial_type":"pit-trial","trial_index":86,"time_elapsed":416618,"internal_node_id":"0.0-0.0-5.15-0.15","task_version":"battery-v0.2"},{"view_history":"[{\"page_index\":0,\"viewing_time\":2624.130000011064},{\"page_index\":1,\"viewing_time\":1482.654999999795}]","rt":4107.4249999946915,"trial_type":"pit-instructions","trial_index":87,"time_elapsed":420728,"internal_node_id":"0.0-0.0-6.0","task_version":"battery-v0.2"},{"rune":"4","rune_set":"elianto","hex":"#f73b6a7A","correct":32,"choice":32,"rt":329.5949999883305,"accuracy":1,"outcome":"-1","keys":[1830.5200000177138],"total_keys":1,"block":0,"practice":4,"trial_type":"pit-trial","trial_index":88,"time_elapsed":423761,"internal_node_id":"0.0-0.0-7.0-0.0","task_version":"battery-v0.2"},{"rune":"4","rune_set":"elianto","hex":"#f73b6a7A","correct":32,"choice":32,"rt":150.06499999435619,"accuracy":1,"outcome":"-1","keys":[1650.3800000064075],"total_keys":1,"block":0,"practice":4,"trial_type":"pit-trial","trial_index":89,"time_elapsed":426615,"internal_node_id":"0.0-0.0-7.1-0.1","task_version":"battery-v0.2"},{"rune":"4","rune_set":"elianto","hex":"#f73b6a7A","correct":32,"choice":32,"rt":46.64499999489635,"accuracy":1,"outcome":"-1","keys":[1547.435000014957],"total_keys":1,"block":0,"practice":4,"trial_type":"pit-trial","trial_index":90,"time_elapsed":429366,"internal_node_id":"0.0-0.0-7.2-0.2","task_version":"battery-v0.2"},{"rune":"4","rune_set":"elianto","hex":"#f73b6a7A","correct":32,"choice":32,"rt":145.74499998707324,"accuracy":1,"outcome":"-1","keys":[1646.5299999981653],"total_keys":1,"block":0,"practice":4,"trial_type":"pit-trial","trial_index":91,"time_elapsed":432217,"internal_node_id":"0.0-0.0-7.3-0.3","task_version":"battery-v0.2"},{"view_history":"[{\"page_index\":0,\"viewing_time\":1451.8000000098255},{\"page_index\":1,\"viewing_time\":4215.85999999661},{\"page_index\":2,\"viewing_time\":4738.779999985127},{\"page_index\":3,\"viewing_time\":3402.2750000003725},{\"page_index\":4,\"viewing_time\":2270.635000022594},{\"page_index\":5,\"viewing_time\":3180.529999983264}]","rt":19260.429999994813,"trial_type":"pit-instructions","trial_index":92,"time_elapsed":451479,"internal_node_id":"0.0-0.0-8.0","task_version":"battery-v0.2"},{"responses":["Press SPACE","+10","-1","True","True"],"num_errors":0,"rt":26587.46000000974,"trial_type":"pit-comprehension","trial_index":93,"time_elapsed":478071,"internal_node_id":"0.0-0.0-9.0","task_version":"battery-v0.2"},{"view_history":"[{\"page_index\":0,\"viewing_time\":1362.3099999967963},{\"page_index\":1,\"viewing_time\":2462.165000004461}]","rt":3824.754999979632,"trial_type":"pit-instructions","trial_index":94,"time_elapsed":481900,"internal_node_id":"0.0-1.0","task_version":"battery-v0.2"},{"rune":"Z","rune_set":"bacs1","hex":"#f73b6a7A","correct":-1,"choice":32,"rt":458.4399999876041,"accuracy":0,"outcome":"-10","keys":[1959.5400000107475],"total_keys":1,"block":1,"trial":1,"stimulus":1,"robot":4,"valence":"lose","action":"no-go","sham":0,"trial_type":"pit-trial","trial_index":95,"time_elapsed":485065,"internal_node_id":"0.0-2.0","task_version":"battery-v0.2"},{"rune":"B","rune_set":"bacs1","hex":"#f73b6a7A","correct":-1,"choice":32,"rt":428.49000002024695,"accuracy":0,"outcome":"-1","keys":[1929.7000000078697],"total_keys":1,"block":1,"trial":2,"stimulus":0,"robot":4,"valence":"lose","action":"no-go","sham":1,"trial_type":"pit-trial","trial_index":96,"time_elapsed":488199,"internal_node_id":"0.0-3.0","task_version":"battery-v0.2"},{"rune":"R","rune_set":"bacs1","hex":"#3366ff99","correct":-1,"choice":32,"rt":310.9450000047218,"accuracy":0,"outcome":"+1","keys":[1812.0099999941885],"total_keys":1,"block":1,"trial":3,"stimulus":3,"robot":2,"valence":"win","action":"no-go","sham":0,"trial_type":"pit-trial","trial_index":97,"time_elapsed":491214,"internal_node_id":"0.0-4.0","task_version":"battery-v0.2"},{"rune":"J","rune_set":"bacs1","hex":"#3366ff99","correct":32,"choice":32,"rt":479.7449999896344,"accuracy":1,"outcome":"+10","keys":[1981.0850000067148],"total_keys":1,"block":1,"trial":4,"stimulus":2,"robot":1,"valence":"win","action":"go","sham":0,"trial_type":"pit-trial","trial_index":98,"time_elapsed":494398,"internal_node_id":"0.0-5.0","task_version":"battery-v0.2"},{"rune":"Z","rune_set":"bacs1","hex":"#f73b6a7A","correct":-1,"choice":-1,"rt":-1,"accuracy":1,"outcome":"-1","keys":[],"total_keys":0,"block":1,"trial":5,"stimulus":1,"robot":4,"valence":"lose","action":"no-go","sham":0,"trial_type":"pit-trial","trial_index":99,"time_elapsed":498403,"internal_node_id":"0.0-6.0","task_version":"battery-v0.2"},{"rune":"B","rune_set":"bacs1","hex":"#f73b6a7A","correct":-1,"choice":32,"rt":449.6649999928195,"accuracy":0,"outcome":"-1","keys":[1950.5000000062864],"total_keys":1,"block":1,"trial":6,"stimulus":0,"robot":4,"valence":"lose","action":"no-go","sham":1,"trial_type":"pit-trial","trial_index":100,"time_elapsed":501557,"internal_node_id":"0.0-7.0","task_version":"battery-v0.2"},{"rune":"R","rune_set":"bacs1","hex":"#3366ff99","correct":-1,"choice":32,"rt":305.2600000228267,"accuracy":0,"outcome":"+1","keys":[1805.610000010347],"total_keys":1,"block":1,"trial":7,"stimulus":3,"robot":2,"valence":"win","action":"no-go","sham":0,"trial_type":"pit-trial","trial_index":101,"time_elapsed":504566,"internal_node_id":"0.0-8.0","task_version":"battery-v0.2"},{"rune":"J","rune_set":"bacs1","hex":"#3366ff99","correct":32,"choice":32,"rt":273.0499999888707,"accuracy":1,"outcome":"+10","keys":[1773.2149999937974],"total_keys":1,"block":1,"trial":8,"stimulus":2,"robot":1,"valence":"win","action":"go","sham":0,"trial_type":"pit-trial","trial_index":102,"time_elapsed":507543,"internal_node_id":"0.0-9.0","task_version":"battery-v0.2"},{"rune":"Z","rune_set":"bacs1","hex":"#f73b6a7A","correct":-1,"choice":-1,"rt":-1,"accuracy":1,"outcome":"-1","keys":[],"total_keys":0,"block":1,"trial":9,"stimulus":1,"robot":4,"valence":"lose","action":"no-go","sham":0,"trial_type":"pit-trial","trial_index":103,"time_elapsed":511547,"internal_node_id":"0.0-10.0","task_version":"battery-v0.2"},{"rune":"B","rune_set":"bacs1","hex":"#f73b6a7A","correct":-1,"choice":32,"rt":255.44500001706183,"accuracy":0,"outcome":"-1","keys":[1755.4800000216346],"total_keys":1,"block":1,"trial":10,"stimulus":0,"robot":4,"valence":"lose","action":"no-go","sham":1,"trial_type":"pit-trial","trial_index":104,"time_elapsed":514506,"internal_node_id":"0.0-11.0","task_version":"battery-v0.2"},{"rune":"J","rune_set":"bacs1","hex":"#3366ff99","correct":32,"choice":32,"rt":188.23999998858199,"accuracy":1,"outcome":"+1","keys":[1689.155000000028],"total_keys":1,"block":1,"trial":11,"stimulus":2,"robot":1,"valence":"win","action":"go","sham":1,"trial_type":"pit-trial","trial_index":105,"time_elapsed":517400,"internal_node_id":"0.0-12.0","task_version":"battery-v0.2"},{"rune":"R","rune_set":"bacs1","hex":"#3366ff99","correct":-1,"choice":32,"rt":426.95500000263564,"accuracy":0,"outcome":"+1","keys":[1927.2550000168849],"total_keys":1,"block":1,"trial":12,"stimulus":3,"robot":2,"valence":"win","action":"no-go","sham":0,"trial_type":"pit-trial","trial_index":106,"time_elapsed":520530,"internal_node_id":"0.0-13.0","task_version":"battery-v0.2"},{"rune":"Z","rune_set":"bacs1","hex":"#f73b6a7A","correct":-1,"choice":-1,"rt":-1,"accuracy":1,"outcome":"-1","keys":[],"total_keys":0,"block":1,"trial":13,"stimulus":1,"robot":4,"valence":"lose","action":"no-go","sham":0,"trial_type":"pit-trial","trial_index":107,"time_elapsed":524535,"internal_node_id":"0.0-14.0","task_version":"battery-v0.2"},{"rune":"J","rune_set":"bacs1","hex":"#3366ff99","correct":32,"choice":32,"rt":328.9550000044983,"accuracy":1,"outcome":"+10","keys":[1830.0750000053085],"total_keys":1,"block":1,"trial":14,"stimulus":2,"robot":1,"valence":"win","action":"go","sham":0,"trial_type":"pit-trial","trial_index":108,"time_elapsed":527569,"internal_node_id":"0.0-15.0","task_version":"battery-v0.2"},{"rune":"R","rune_set":"bacs1","hex":"#3366ff99","correct":-1,"choice":32,"rt":358.8449999806471,"accuracy":0,"outcome":"+1","keys":[1859.4349999912083],"total_keys":1,"block":1,"trial":15,"stimulus":3,"robot":2,"valence":"win","action":"no-go","sham":0,"trial_type":"pit-trial","trial_index":109,"time_elapsed":530632,"internal_node_id":"0.0-16.0","task_version":"battery-v0.2"},{"rune":"B","rune_set":"bacs1","hex":"#f73b6a7A","correct":-1,"choice":32,"rt":575.7049999956507,"accuracy":0,"outcome":"-10","keys":[2076.869999989867],"total_keys":1,"block":1,"trial":16,"stimulus":0,"robot":4,"valence":"lose","action":"no-go","sham":0,"trial_type":"pit-trial","trial_index":110,"time_elapsed":533913,"internal_node_id":"0.0-17.0","task_version":"battery-v0.2"},{"rune":"R","rune_set":"bacs1","hex":"#3366ff99","correct":-1,"choice":32,"rt":484.34999998426065,"accuracy":0,"outcome":"+1","keys":[1984.375],"total_keys":1,"block":1,"trial":17,"stimulus":3,"robot":2,"valence":"win","action":"no-go","sham":0,"trial_type":"pit-trial","trial_index":111,"time_elapsed":537102,"internal_node_id":"0.0-18.0","task_version":"battery-v0.2"},{"rune":"J","rune_set":"bacs1","hex":"#3366ff99","correct":32,"choice":32,"rt":289.6400000026915,"accuracy":1,"outcome":"+10","keys":[1791.4350000210106],"total_keys":1,"block":1,"trial":18,"stimulus":2,"robot":1,"valence":"win","action":"go","sham":0,"trial_type":"pit-trial","trial_index":112,"time_elapsed":540097,"internal_node_id":"0.0-19.0","task_version":"battery-v0.2"},{"rune":"B","rune_set":"bacs1","hex":"#f73b6a7A","correct":-1,"choice":32,"rt":368.64000000059605,"accuracy":0,"outcome":"-1","keys":[1869.0449999994598],"total_keys":1,"block":1,"trial":19,"stimulus":0,"robot":4,"valence":"lose","action":"no-go","sham":1,"trial_type":"pit-trial","trial_index":113,"time_elapsed":543170,"internal_node_id":"0.0-20.0","task_version":"battery-v0.2"},{"rune":"Z","rune_set":"bacs1","hex":"#f73b6a7A","correct":-1,"choice":32,"rt":537.1900000027381,"accuracy":0,"outcome":"-10","keys":[2038.1950000009965],"total_keys":1,"block":1,"trial":20,"stimulus":1,"robot":4,"valence":"lose","action":"no-go","sham":0,"trial_type":"pit-trial","trial_index":114,"time_elapsed":546412,"internal_node_id":"0.0-21.0","task_version":"battery-v0.2"},{"rune":"R","rune_set":"bacs1","hex":"#3366ff99","correct":-1,"choice":-1,"rt":-1,"accuracy":1,"outcome":"+10","keys":[],"total_keys":0,"block":1,"trial":21,"stimulus":3,"robot":2,"valence":"win","action":"no-go","sham":0,"trial_type":"pit-trial","trial_index":115,"time_elapsed":550416,"internal_node_id":"0.0-22.0","task_version":"battery-v0.2"},{"rune":"Z","rune_set":"bacs1","hex":"#f73b6a7A","correct":-1,"choice":-1,"rt":-1,"accuracy":1,"outcome":"-1","keys":[],"total_keys":0,"block":1,"trial":22,"stimulus":1,"robot":4,"valence":"lose","action":"no-go","sham":0,"trial_type":"pit-trial","trial_index":116,"time_elapsed":554423,"internal_node_id":"0.0-23.0","task_version":"battery-v0.2"},{"rune":"B","rune_set":"bacs1","hex":"#f73b6a7A","correct":-1,"choice":32,"rt":308.5900000005495,"accuracy":0,"outcome":"-10","keys":[1809.850000019651],"total_keys":1,"block":1,"trial":23,"stimulus":0,"robot":4,"valence":"lose","action":"no-go","sham":0,"trial_type":"pit-trial","trial_index":117,"time_elapsed":557437,"internal_node_id":"0.0-24.0","task_version":"battery-v0.2"},{"rune":"J","rune_set":"bacs1","hex":"#3366ff99","correct":32,"choice":32,"rt":490.4850000166334,"accuracy":1,"outcome":"+10","keys":[1991.6450000018813],"total_keys":1,"block":1,"trial":24,"stimulus":2,"robot":1,"valence":"win","action":"go","sham":0,"trial_type":"pit-trial","trial_index":118,"time_elapsed":560631,"internal_node_id":"0.0-25.0","task_version":"battery-v0.2"},{"rune":"J","rune_set":"bacs1","hex":"#3366ff99","correct":32,"choice":32,"rt":404.90000002318993,"accuracy":1,"outcome":"+10","keys":[1906.0300000128336],"total_keys":1,"block":1,"trial":25,"stimulus":2,"robot":1,"valence":"win","action":"go","sham":0,"trial_type":"pit-trial","trial_index":119,"time_elapsed":563741,"internal_node_id":"0.0-26.0","task_version":"battery-v0.2"},{"rune":"Z","rune_set":"bacs1","hex":"#f73b6a7A","correct":-1,"choice":-1,"rt":-1,"accuracy":1,"outcome":"-10","keys":[],"total_keys":0,"block":1,"trial":26,"stimulus":1,"robot":4,"valence":"lose","action":"no-go","sham":1,"trial_type":"pit-trial","trial_index":120,"time_elapsed":567748,"internal_node_id":"0.0-27.0","task_version":"battery-v0.2"},{"rune":"B","rune_set":"bacs1","hex":"#f73b6a7A","correct":-1,"choice":32,"rt":306.6899999976158,"accuracy":0,"outcome":"-10","keys":[1807.5699999753851],"total_keys":1,"block":1,"trial":27,"stimulus":0,"robot":4,"valence":"lose","action":"no-go","sham":0,"trial_type":"pit-trial","trial_index":121,"time_elapsed":570760,"internal_node_id":"0.0-28.0","task_version":"battery-v0.2"},{"rune":"R","rune_set":"bacs1","hex":"#3366ff99","correct":-1,"choice":-1,"rt":-1,"accuracy":1,"outcome":"+10","keys":[],"total_keys":0,"block":1,"trial":28,"stimulus":3,"robot":2,"valence":"win","action":"no-go","sham":0,"trial_type":"pit-trial","trial_index":122,"time_elapsed":574763,"internal_node_id":"0.0-29.0","task_version":"battery-v0.2"},{"rune":"R","rune_set":"bacs1","hex":"#3366ff99","correct":-1,"choice":-1,"rt":-1,"accuracy":1,"outcome":"+10","keys":[],"total_keys":0,"block":1,"trial":29,"stimulus":3,"robot":2,"valence":"win","action":"no-go","sham":0,"trial_type":"pit-trial","trial_index":123,"time_elapsed":578771,"internal_node_id":"0.0-30.0","task_version":"battery-v0.2"},{"rune":"B","rune_set":"bacs1","hex":"#f73b6a7A","correct":-1,"choice":32,"rt":558.7000000232365,"accuracy":0,"outcome":"-10","keys":[2060.490000003483],"total_keys":1,"block":1,"trial":30,"stimulus":0,"robot":4,"valence":"lose","action":"no-go","sham":0,"trial_type":"pit-trial","trial_index":124,"time_elapsed":582036,"internal_node_id":"0.0-31.0","task_version":"battery-v0.2"},{"rune":"J","rune_set":"bacs1","hex":"#3366ff99","correct":32,"choice":32,"rt":683.5699999937788,"accuracy":1,"outcome":"+10","keys":[2184.530000027735],"total_keys":1,"block":1,"trial":31,"stimulus":2,"robot":1,"valence":"win","action":"go","sham":0,"trial_type":"pit-trial","trial_index":125,"time_elapsed":585424,"internal_node_id":"0.0-32.0","task_version":"battery-v0.2"},{"rune":"Z","rune_set":"bacs1","hex":"#f73b6a7A","correct":-1,"choice":-1,"rt":-1,"accuracy":1,"outcome":"-1","keys":[],"total_keys":0,"block":1,"trial":32,"stimulus":1,"robot":4,"valence":"lose","action":"no-go","sham":0,"trial_type":"pit-trial","trial_index":126,"time_elapsed":589428,"internal_node_id":"0.0-33.0","task_version":"battery-v0.2"},{"rune":"J","rune_set":"bacs1","hex":"#3366ff99","correct":32,"choice":32,"rt":483.97500001010485,"accuracy":1,"outcome":"+10","keys":[1984.0100000146776],"total_keys":1,"block":1,"trial":33,"stimulus":2,"robot":1,"valence":"win","action":"go","sham":0,"trial_type":"pit-trial","trial_index":127,"time_elapsed":592617,"internal_node_id":"0.0-34.0","task_version":"battery-v0.2"},{"rune":"R","rune_set":"bacs1","hex":"#3366ff99","correct":-1,"choice":-1,"rt":-1,"accuracy":1,"outcome":"+10","keys":[],"total_keys":0,"block":1,"trial":34,"stimulus":3,"robot":2,"valence":"win","action":"no-go","sham":0,"trial_type":"pit-trial","trial_index":128,"time_elapsed":596622,"internal_node_id":"0.0-35.0","task_version":"battery-v0.2"},{"rune":"V","rune_set":"bacs1","hex":"#f73b6a7A","correct":32,"choice":32,"rt":705.1849999988917,"accuracy":1,"outcome":"-1","keys":[2206.4249999821186],"total_keys":1,"block":1,"trial":35,"stimulus":4,"robot":3,"valence":"lose","action":"go","sham":0,"trial_type":"pit-trial","trial_index":129,"time_elapsed":600031,"internal_node_id":"0.0-36.0","task_version":"battery-v0.2"},{"rune":"B","rune_set":"bacs1","hex":"#f73b6a7A","correct":-1,"choice":32,"rt":550.954999984242,"accuracy":0,"outcome":"-10","keys":[2051.739999995334],"total_keys":1,"block":1,"trial":36,"stimulus":0,"robot":4,"valence":"lose","action":"no-go","sham":0,"trial_type":"pit-trial","trial_index":130,"time_elapsed":603286,"internal_node_id":"0.0-37.0","task_version":"battery-v0.2"},{"rune":"B","rune_set":"bacs1","hex":"#f73b6a7A","correct":-1,"choice":-1,"rt":-1,"accuracy":1,"outcome":"-1","keys":[],"total_keys":0,"block":1,"trial":37,"stimulus":0,"robot":4,"valence":"lose","action":"no-go","sham":0,"trial_type":"pit-trial","trial_index":131,"time_elapsed":607290,"internal_node_id":"0.0-38.0","task_version":"battery-v0.2"},{"rune":"R","rune_set":"bacs1","hex":"#3366ff99","correct":-1,"choice":-1,"rt":-1,"accuracy":1,"outcome":"+1","keys":[],"total_keys":0,"block":1,"trial":38,"stimulus":3,"robot":2,"valence":"win","action":"no-go","sham":1,"trial_type":"pit-trial","trial_index":132,"time_elapsed":611296,"internal_node_id":"0.0-39.0","task_version":"battery-v0.2"},{"rune":"V","rune_set":"bacs1","hex":"#f73b6a7A","correct":32,"choice":-1,"rt":-1,"accuracy":0,"outcome":"-10","keys":[2817.0999999856576],"total_keys":1,"block":1,"trial":39,"stimulus":4,"robot":3,"valence":"lose","action":"go","sham":0,"trial_type":"pit-trial","trial_index":133,"time_elapsed":615301,"internal_node_id":"0.0-40.0","task_version":"battery-v0.2"},{"rune":"J","rune_set":"bacs1","hex":"#3366ff99","correct":32,"choice":32,"rt":688.0499999970198,"accuracy":1,"outcome":"+10","keys":[2188.755000010133],"total_keys":1,"block":1,"trial":40,"stimulus":2,"robot":1,"valence":"win","action":"go","sham":0,"trial_type":"pit-trial","trial_index":134,"time_elapsed":618693,"internal_node_id":"0.0-41.0","task_version":"battery-v0.2"},{"rune":"T","rune_set":"bacs1","hex":"#3366ff99","correct":32,"choice":32,"rt":460.4399999952875,"accuracy":1,"outcome":"+10","keys":[1960.865000000922],"total_keys":1,"block":1,"trial":41,"stimulus":6,"robot":1,"valence":"win","action":"go","sham":0,"trial_type":"pit-trial","trial_index":135,"time_elapsed":621857,"internal_node_id":"0.0-42.0","task_version":"battery-v0.2"},{"rune":"E","rune_set":"bacs1","hex":"#3366ff99","correct":-1,"choice":32,"rt":512.5300000072457,"accuracy":0,"outcome":"+1","keys":[2013.2949999824632],"total_keys":1,"block":1,"trial":42,"stimulus":5,"robot":2,"valence":"win","action":"no-go","sham":0,"trial_type":"pit-trial","trial_index":136,"time_elapsed":625075,"internal_node_id":"0.0-43.0","task_version":"battery-v0.2"},{"rune":"B","rune_set":"bacs1","hex":"#f73b6a7A","correct":-1,"choice":-1,"rt":-1,"accuracy":1,"outcome":"-1","keys":[],"total_keys":0,"block":1,"trial":43,"stimulus":0,"robot":4,"valence":"lose","action":"no-go","sham":0,"trial_type":"pit-trial","trial_index":137,"time_elapsed":629080,"internal_node_id":"0.0-44.0","task_version":"battery-v0.2"},{"rune":"V","rune_set":"bacs1","hex":"#f73b6a7A","correct":32,"choice":32,"rt":640.5400000221562,"accuracy":1,"outcome":"-10","keys":[2141.954999999143],"total_keys":1,"block":1,"trial":44,"stimulus":4,"robot":3,"valence":"lose","action":"go","sham":1,"trial_type":"pit-trial","trial_index":138,"time_elapsed":632427,"internal_node_id":"0.0-45.0","task_version":"battery-v0.2"},{"rune":"T","rune_set":"bacs1","hex":"#3366ff99","correct":32,"choice":32,"rt":662.1000000159256,"accuracy":1,"outcome":"+1","keys":[2162.5699999858625],"total_keys":1,"block":1,"trial":45,"stimulus":6,"robot":1,"valence":"win","action":"go","sham":1,"trial_type":"pit-trial","trial_index":139,"time_elapsed":635794,"internal_node_id":"0.0-46.0","task_version":"battery-v0.2"},{"rune":"E","rune_set":"bacs1","hex":"#3366ff99","correct":-1,"choice":32,"rt":730.8349999948405,"accuracy":0,"outcome":"+10","keys":[2232.0250000047963],"total_keys":1,"block":1,"trial":46,"stimulus":5,"robot":2,"valence":"win","action":"no-go","sham":1,"trial_type":"pit-trial","trial_index":140,"time_elapsed":639228,"internal_node_id":"0.0-47.0","task_version":"battery-v0.2"},{"rune":"B","rune_set":"bacs1","hex":"#f73b6a7A","correct":-1,"choice":-1,"rt":-1,"accuracy":1,"outcome":"-10","keys":[],"total_keys":0,"block":1,"trial":47,"stimulus":0,"robot":4,"valence":"lose","action":"no-go","sham":1,"trial_type":"pit-trial","trial_index":141,"time_elapsed":643232,"internal_node_id":"0.0-48.0","task_version":"battery-v0.2"},{"rune":"V","rune_set":"bacs1","hex":"#f73b6a7A","correct":32,"choice":-1,"rt":-1,"accuracy":0,"outcome":"-10","keys":[],"total_keys":0,"block":1,"trial":48,"stimulus":4,"robot":3,"valence":"lose","action":"go","sham":0,"trial_type":"pit-trial","trial_index":142,"time_elapsed":647235,"internal_node_id":"0.0-49.0","task_version":"battery-v0.2"},{"rune":"F","rune_set":"bacs1","hex":"#f73b6a7A","correct":-1,"choice":-1,"rt":-1,"accuracy":1,"outcome":"-1","keys":[],"total_keys":0,"block":1,"trial":49,"stimulus":7,"robot":4,"valence":"lose","action":"no-go","sham":0,"trial_type":"pit-trial","trial_index":143,"time_elapsed":651238,"internal_node_id":"0.0-50.0","task_version":"battery-v0.2"},{"rune":"E","rune_set":"bacs1","hex":"#3366ff99","correct":-1,"choice":32,"rt":407.51999997883104,"accuracy":0,"outcome":"+1","keys":[1907.7150000084657],"total_keys":1,"block":1,"trial":50,"stimulus":5,"robot":2,"valence":"win","action":"no-go","sham":0,"trial_type":"pit-trial","trial_index":144,"time_elapsed":654349,"internal_node_id":"0.0-51.0","task_version":"battery-v0.2"},{"rune":"V","rune_set":"bacs1","hex":"#f73b6a7A","correct":32,"choice":-1,"rt":-1,"accuracy":0,"outcome":"-10","keys":[],"total_keys":0,"block":1,"trial":51,"stimulus":4,"robot":3,"valence":"lose","action":"go","sham":0,"trial_type":"pit-trial","trial_index":145,"time_elapsed":658354,"internal_node_id":"0.0-52.0","task_version":"battery-v0.2"},{"rune":"T","rune_set":"bacs1","hex":"#3366ff99","correct":32,"choice":32,"rt":761.819999985164,"accuracy":1,"outcome":"+10","keys":[2263.6050000146497],"total_keys":1,"block":1,"trial":52,"stimulus":6,"robot":1,"valence":"win","action":"go","sham":0,"trial_type":"pit-trial","trial_index":146,"time_elapsed":661821,"internal_node_id":"0.0-53.0","task_version":"battery-v0.2"},{"rune":"T","rune_set":"bacs1","hex":"#3366ff99","correct":32,"choice":32,"rt":742.7249999891501,"accuracy":1,"outcome":"+10","keys":[2243.9399999857415],"total_keys":1,"block":1,"trial":53,"stimulus":6,"robot":1,"valence":"win","action":"go","sham":0,"trial_type":"pit-trial","trial_index":147,"time_elapsed":665270,"internal_node_id":"0.0-54.0","task_version":"battery-v0.2"},{"rune":"E","rune_set":"bacs1","hex":"#3366ff99","correct":-1,"choice":-1,"rt":-1,"accuracy":1,"outcome":"+10","keys":[],"total_keys":0,"block":1,"trial":54,"stimulus":5,"robot":2,"valence":"win","action":"no-go","sham":0,"trial_type":"pit-trial","trial_index":148,"time_elapsed":669276,"internal_node_id":"0.0-55.0","task_version":"battery-v0.2"},{"rune":"V","rune_set":"bacs1","hex":"#f73b6a7A","correct":32,"choice":32,"rt":491.81000000680797,"accuracy":1,"outcome":"-10","keys":[1992.660000018077],"total_keys":1,"block":1,"trial":55,"stimulus":4,"robot":3,"valence":"lose","action":"go","sham":1,"trial_type":"pit-trial","trial_index":149,"time_elapsed":672471,"internal_node_id":"0.0-56.0","task_version":"battery-v0.2"},{"rune":"F","rune_set":"bacs1","hex":"#f73b6a7A","correct":-1,"choice":32,"rt":542.6599999773316,"accuracy":0,"outcome":"-10","keys":[2043.5100000177044],"total_keys":1,"block":1,"trial":56,"stimulus":7,"robot":4,"valence":"lose","action":"no-go","sham":0,"trial_type":"pit-trial","trial_index":150,"time_elapsed":675719,"internal_node_id":"0.0-57.0","task_version":"battery-v0.2"},{"rune":"V","rune_set":"bacs1","hex":"#f73b6a7A","correct":32,"choice":32,"rt":528.550000017276,"accuracy":1,"outcome":"-1","keys":[2030.3499999863561],"total_keys":1,"block":1,"trial":57,"stimulus":4,"robot":3,"valence":"lose","action":"go","sham":0,"trial_type":"pit-trial","trial_index":151,"time_elapsed":678954,"internal_node_id":"0.0-58.0","task_version":"battery-v0.2"},{"rune":"E","rune_set":"bacs1","hex":"#3366ff99","correct":-1,"choice":32,"rt":462.20499998889863,"accuracy":0,"outcome":"+10","keys":[1962.4900000053458],"total_keys":1,"block":1,"trial":58,"stimulus":5,"robot":2,"valence":"win","action":"no-go","sham":1,"trial_type":"pit-trial","trial_index":152,"time_elapsed":682118,"internal_node_id":"0.0-59.0","task_version":"battery-v0.2"},{"rune":"T","rune_set":"bacs1","hex":"#3366ff99","correct":32,"choice":32,"rt":516.4299999887589,"accuracy":1,"outcome":"+10","keys":[2017.1099999861326],"total_keys":1,"block":1,"trial":59,"stimulus":6,"robot":1,"valence":"win","action":"go","sham":0,"trial_type":"pit-trial","trial_index":153,"time_elapsed":685337,"internal_node_id":"0.0-60.0","task_version":"battery-v0.2"},{"rune":"F","rune_set":"bacs1","hex":"#f73b6a7A","correct":-1,"choice":-1,"rt":-1,"accuracy":1,"outcome":"-10","keys":[],"total_keys":0,"block":1,"trial":60,"stimulus":7,"robot":4,"valence":"lose","action":"no-go","sham":1,"trial_type":"pit-trial","trial_index":154,"time_elapsed":689341,"internal_node_id":"0.0-61.0","task_version":"battery-v0.2"},{"rune":"E","rune_set":"bacs1","hex":"#3366ff99","correct":-1,"choice":-1,"rt":-1,"accuracy":1,"outcome":"+10","keys":[],"total_keys":0,"block":1,"trial":61,"stimulus":5,"robot":2,"valence":"win","action":"no-go","sham":0,"trial_type":"pit-trial","trial_index":155,"time_elapsed":693344,"internal_node_id":"0.0-62.0","task_version":"battery-v0.2"},{"rune":"T","rune_set":"bacs1","hex":"#3366ff99","correct":32,"choice":32,"rt":444.6699999971315,"accuracy":1,"outcome":"+10","keys":[1944.9749999912456],"total_keys":1,"block":1,"trial":62,"stimulus":6,"robot":1,"valence":"win","action":"go","sham":0,"trial_type":"pit-trial","trial_index":156,"time_elapsed":696493,"internal_node_id":"0.0-63.0","task_version":"battery-v0.2"},{"rune":"F","rune_set":"bacs1","hex":"#f73b6a7A","correct":-1,"choice":32,"rt":747.0899999898393,"accuracy":0,"outcome":"-10","keys":[2247.6150000002235],"total_keys":1,"block":1,"trial":63,"stimulus":7,"robot":4,"valence":"lose","action":"no-go","sham":0,"trial_type":"pit-trial","trial_index":157,"time_elapsed":699945,"internal_node_id":"0.0-64.0","task_version":"battery-v0.2"},{"rune":"V","rune_set":"bacs1","hex":"#f73b6a7A","correct":32,"choice":32,"rt":746.9750000163913,"accuracy":1,"outcome":"-1","keys":[2247.0350000075996],"total_keys":1,"block":1,"trial":64,"stimulus":4,"robot":3,"valence":"lose","action":"go","sham":0,"trial_type":"pit-trial","trial_index":158,"time_elapsed":703396,"internal_node_id":"0.0-65.0","task_version":"battery-v0.2"},{"rune":"V","rune_set":"bacs1","hex":"#f73b6a7A","correct":32,"choice":32,"rt":559.7500000149012,"accuracy":1,"outcome":"-1","keys":[2059.8299999837764],"total_keys":1,"block":1,"trial":65,"stimulus":4,"robot":3,"valence":"lose","action":"go","sham":0,"trial_type":"pit-trial","trial_index":159,"time_elapsed":706660,"internal_node_id":"0.0-66.0","task_version":"battery-v0.2"},{"rune":"T","rune_set":"bacs1","hex":"#3366ff99","correct":32,"choice":32,"rt":436.0000000160653,"accuracy":1,"outcome":"+10","keys":[1936.7649999912828],"total_keys":1,"block":1,"trial":66,"stimulus":6,"robot":1,"valence":"win","action":"go","sham":0,"trial_type":"pit-trial","trial_index":160,"time_elapsed":709800,"internal_node_id":"0.0-67.0","task_version":"battery-v0.2"},{"rune":"F","rune_set":"bacs1","hex":"#f73b6a7A","correct":-1,"choice":32,"rt":886.2450000015087,"accuracy":0,"outcome":"-10","keys":[2388.1750000000466],"total_keys":1,"block":1,"trial":67,"stimulus":7,"robot":4,"valence":"lose","action":"no-go","sham":0,"trial_type":"pit-trial","trial_index":161,"time_elapsed":713392,"internal_node_id":"0.0-68.0","task_version":"battery-v0.2"},{"rune":"E","rune_set":"bacs1","hex":"#3366ff99","correct":-1,"choice":32,"rt":346.51500001200475,"accuracy":0,"outcome":"+10","keys":[1847.154999995837],"total_keys":1,"block":1,"trial":68,"stimulus":5,"robot":2,"valence":"win","action":"no-go","sham":1,"trial_type":"pit-trial","trial_index":162,"time_elapsed":716442,"internal_node_id":"0.0-69.0","task_version":"battery-v0.2"},{"rune":"E","rune_set":"bacs1","hex":"#3366ff99","correct":-1,"choice":32,"rt":505.39500001468696,"accuracy":0,"outcome":"+1","keys":[2006.9650000077672],"total_keys":1,"block":1,"trial":69,"stimulus":5,"robot":2,"valence":"win","action":"no-go","sham":0,"trial_type":"pit-trial","trial_index":163,"time_elapsed":719651,"internal_node_id":"0.0-70.0","task_version":"battery-v0.2"},{"rune":"T","rune_set":"bacs1","hex":"#3366ff99","correct":32,"choice":32,"rt":276.0349999880418,"accuracy":1,"outcome":"+10","keys":[1778.9300000004005],"total_keys":1,"block":1,"trial":70,"stimulus":6,"robot":1,"valence":"win","action":"go","sham":0,"trial_type":"pit-trial","trial_index":164,"time_elapsed":722631,"internal_node_id":"0.0-71.0","task_version":"battery-v0.2"},{"rune":"V","rune_set":"bacs1","hex":"#f73b6a7A","correct":32,"choice":32,"rt":639.950000011595,"accuracy":1,"outcome":"-1","keys":[2141.6949999984354],"total_keys":1,"block":1,"trial":71,"stimulus":4,"robot":3,"valence":"lose","action":"go","sham":0,"trial_type":"pit-trial","trial_index":165,"time_elapsed":725976,"internal_node_id":"0.0-72.0","task_version":"battery-v0.2"},{"rune":"F","rune_set":"bacs1","hex":"#f73b6a7A","correct":-1,"choice":-1,"rt":-1,"accuracy":1,"outcome":"-1","keys":[],"total_keys":0,"block":1,"trial":72,"stimulus":7,"robot":4,"valence":"lose","action":"no-go","sham":0,"trial_type":"pit-trial","trial_index":166,"time_elapsed":729978,"internal_node_id":"0.0-73.0","task_version":"battery-v0.2"},{"rune":"F","rune_set":"bacs1","hex":"#f73b6a7A","correct":-1,"choice":-1,"rt":-1,"accuracy":1,"outcome":"-10","keys":[],"total_keys":0,"block":1,"trial":73,"stimulus":7,"robot":4,"valence":"lose","action":"no-go","sham":1,"trial_type":"pit-trial","trial_index":167,"time_elapsed":733981,"internal_node_id":"0.0-74.0","task_version":"battery-v0.2"},{"rune":"A","rune_set":"bacs1","hex":"#3366ff99","correct":32,"choice":32,"rt":510.68999999552034,"accuracy":1,"outcome":"+1","keys":[2011.4599999797065],"total_keys":1,"block":1,"trial":74,"stimulus":8,"robot":1,"valence":"win","action":"go","sham":1,"trial_type":"pit-trial","trial_index":168,"time_elapsed":737195,"internal_node_id":"0.0-75.0","task_version":"battery-v0.2"},{"rune":"E","rune_set":"bacs1","hex":"#3366ff99","correct":-1,"choice":32,"rt":491.9899999804329,"accuracy":0,"outcome":"+1","keys":[1992.725000018254],"total_keys":1,"block":1,"trial":75,"stimulus":5,"robot":2,"valence":"win","action":"no-go","sham":0,"trial_type":"pit-trial","trial_index":169,"time_elapsed":740390,"internal_node_id":"0.0-76.0","task_version":"battery-v0.2"},{"rune":"C","rune_set":"bacs1","hex":"#f73b6a7A","correct":32,"choice":-1,"rt":-1,"accuracy":0,"outcome":"-10","keys":[],"total_keys":0,"block":1,"trial":76,"stimulus":9,"robot":3,"valence":"lose","action":"go","sham":0,"trial_type":"pit-trial","trial_index":170,"time_elapsed":744396,"internal_node_id":"0.0-77.0","task_version":"battery-v0.2"},{"rune":"F","rune_set":"bacs1","hex":"#f73b6a7A","correct":-1,"choice":-1,"rt":-1,"accuracy":1,"outcome":"-1","keys":[],"total_keys":0,"block":1,"trial":77,"stimulus":7,"robot":4,"valence":"lose","action":"no-go","sham":0,"trial_type":"pit-trial","trial_index":171,"time_elapsed":748401,"internal_node_id":"0.0-78.0","task_version":"battery-v0.2"},{"rune":"E","rune_set":"bacs1","hex":"#3366ff99","correct":-1,"choice":32,"rt":408.85499998694286,"accuracy":0,"outcome":"+1","keys":[1910.8699999924283],"total_keys":1,"block":1,"trial":78,"stimulus":5,"robot":2,"valence":"win","action":"no-go","sham":0,"trial_type":"pit-trial","trial_index":172,"time_elapsed":751516,"internal_node_id":"0.0-79.0","task_version":"battery-v0.2"},{"rune":"C","rune_set":"bacs1","hex":"#f73b6a7A","correct":32,"choice":32,"rt":787.9300000204239,"accuracy":1,"outcome":"-10","keys":[2288.6949999956414],"total_keys":1,"block":1,"trial":79,"stimulus":9,"robot":3,"valence":"lose","action":"go","sham":1,"trial_type":"pit-trial","trial_index":173,"time_elapsed":755008,"internal_node_id":"0.0-80.0","task_version":"battery-v0.2"},{"rune":"A","rune_set":"bacs1","hex":"#3366ff99","correct":32,"choice":32,"rt":325.11999999405816,"accuracy":1,"outcome":"+10","keys":[1825.4450000240467],"total_keys":1,"block":1,"trial":80,"stimulus":8,"robot":1,"valence":"win","action":"go","sham":0,"trial_type":"pit-trial","trial_index":174,"time_elapsed":758035,"internal_node_id":"0.0-81.0","task_version":"battery-v0.2"},{"rune":"F","rune_set":"bacs1","hex":"#f73b6a7A","correct":-1,"choice":-1,"rt":-1,"accuracy":1,"outcome":"-1","keys":[],"total_keys":0,"block":1,"trial":81,"stimulus":7,"robot":4,"valence":"lose","action":"no-go","sham":0,"trial_type":"pit-trial","trial_index":175,"time_elapsed":762039,"internal_node_id":"0.0-82.0","task_version":"battery-v0.2"},{"rune":"A","rune_set":"bacs1","hex":"#3366ff99","correct":32,"choice":32,"rt":714.5999999775086,"accuracy":1,"outcome":"+1","keys":[2214.799999987008],"total_keys":1,"block":1,"trial":82,"stimulus":8,"robot":1,"valence":"win","action":"go","sham":1,"trial_type":"pit-trial","trial_index":176,"time_elapsed":765457,"internal_node_id":"0.0-83.0","task_version":"battery-v0.2"},{"rune":"E","rune_set":"bacs1","hex":"#3366ff99","correct":-1,"choice":32,"rt":475.75000001234,"accuracy":0,"outcome":"+1","keys":[1976.5999999945052],"total_keys":1,"block":1,"trial":83,"stimulus":5,"robot":2,"valence":"win","action":"no-go","sham":0,"trial_type":"pit-trial","trial_index":177,"time_elapsed":768636,"internal_node_id":"0.0-84.0","task_version":"battery-v0.2"},{"rune":"C","rune_set":"bacs1","hex":"#f73b6a7A","correct":32,"choice":-1,"rt":-1,"accuracy":0,"outcome":"-1","keys":[],"total_keys":0,"block":1,"trial":84,"stimulus":9,"robot":3,"valence":"lose","action":"go","sham":1,"trial_type":"pit-trial","trial_index":178,"time_elapsed":772640,"internal_node_id":"0.0-85.0","task_version":"battery-v0.2"},{"rune":"A","rune_set":"bacs1","hex":"#3366ff99","correct":32,"choice":-1,"rt":-1,"accuracy":0,"outcome":"+1","keys":[],"total_keys":0,"block":1,"trial":85,"stimulus":8,"robot":1,"valence":"win","action":"go","sham":0,"trial_type":"pit-trial","trial_index":179,"time_elapsed":776646,"internal_node_id":"0.0-86.0","task_version":"battery-v0.2"},{"rune":"F","rune_set":"bacs1","hex":"#f73b6a7A","correct":-1,"choice":-1,"rt":-1,"accuracy":1,"outcome":"-10","keys":[],"total_keys":0,"block":1,"trial":86,"stimulus":7,"robot":4,"valence":"lose","action":"no-go","sham":1,"trial_type":"pit-trial","trial_index":180,"time_elapsed":780650,"internal_node_id":"0.0-87.0","task_version":"battery-v0.2"},{"rune":"C","rune_set":"bacs1","hex":"#f73b6a7A","correct":32,"choice":32,"rt":997.4299999885261,"accuracy":1,"outcome":"-1","keys":[2498.120000003837],"total_keys":1,"block":1,"trial":87,"stimulus":9,"robot":3,"valence":"lose","action":"go","sham":0,"trial_type":"pit-trial","trial_index":181,"time_elapsed":784354,"internal_node_id":"0.0-88.0","task_version":"battery-v0.2"},{"rune":"E","rune_set":"bacs1","hex":"#3366ff99","correct":-1,"choice":32,"rt":433.5950000095181,"accuracy":0,"outcome":"+1","keys":[1935.3100000007544],"total_keys":1,"block":1,"trial":88,"stimulus":5,"robot":2,"valence":"win","action":"no-go","sham":0,"trial_type":"pit-trial","trial_index":182,"time_elapsed":787494,"internal_node_id":"0.0-89.0","task_version":"battery-v0.2"},{"rune":"A","rune_set":"bacs1","hex":"#3366ff99","correct":32,"choice":-1,"rt":-1,"accuracy":0,"outcome":"+10","keys":[],"total_keys":0,"block":1,"trial":89,"stimulus":8,"robot":1,"valence":"win","action":"go","sham":1,"trial_type":"pit-trial","trial_index":183,"time_elapsed":791499,"internal_node_id":"0.0-90.0","task_version":"battery-v0.2"},{"rune":"L","rune_set":"bacs1","hex":"#f73b6a7A","correct":32,"choice":32,"rt":1242.9100000008475,"accuracy":1,"outcome":"-1","keys":[2743.304999981774],"total_keys":1,"block":1,"trial":90,"stimulus":10,"robot":3,"valence":"lose","action":"go","sham":0,"trial_type":"pit-trial","trial_index":184,"time_elapsed":795447,"internal_node_id":"0.0-91.0","task_version":"battery-v0.2"},{"rune":"C","rune_set":"bacs1","hex":"#f73b6a7A","correct":32,"choice":32,"rt":790.0599999993574,"accuracy":1,"outcome":"-1","keys":[2290.065000008326],"total_keys":1,"block":1,"trial":91,"stimulus":9,"robot":3,"valence":"lose","action":"go","sham":0,"trial_type":"pit-trial","trial_index":185,"time_elapsed":798940,"internal_node_id":"0.0-92.0","task_version":"battery-v0.2"},{"rune":"Q","rune_set":"bacs1","hex":"#3366ff99","correct":-1,"choice":32,"rt":471.58500002115034,"accuracy":0,"outcome":"+1","keys":[1971.7250000103377],"total_keys":1,"block":1,"trial":92,"stimulus":11,"robot":2,"valence":"win","action":"no-go","sham":0,"trial_type":"pit-trial","trial_index":186,"time_elapsed":802114,"internal_node_id":"0.0-93.0","task_version":"battery-v0.2"},{"rune":"L","rune_set":"bacs1","hex":"#f73b6a7A","correct":32,"choice":32,"rt":642.5449999806006,"accuracy":1,"outcome":"-1","keys":[2143.01999998861],"total_keys":1,"block":1,"trial":93,"stimulus":10,"robot":3,"valence":"lose","action":"go","sham":0,"trial_type":"pit-trial","trial_index":187,"time_elapsed":805461,"internal_node_id":"0.0-94.0","task_version":"battery-v0.2"},{"rune":"C","rune_set":"bacs1","hex":"#f73b6a7A","correct":32,"choice":-1,"rt":-1,"accuracy":0,"outcome":"-10","keys":[],"total_keys":0,"block":1,"trial":94,"stimulus":9,"robot":3,"valence":"lose","action":"go","sham":0,"trial_type":"pit-trial","trial_index":188,"time_elapsed":809467,"internal_node_id":"0.0-95.0","task_version":"battery-v0.2"},{"rune":"Q","rune_set":"bacs1","hex":"#3366ff99","correct":-1,"choice":32,"rt":440.1400000206195,"accuracy":0,"outcome":"+10","keys":[1940.230000007432],"total_keys":1,"block":1,"trial":95,"stimulus":11,"robot":2,"valence":"win","action":"no-go","sham":1,"trial_type":"pit-trial","trial_index":189,"time_elapsed":812611,"internal_node_id":"0.0-96.0","task_version":"battery-v0.2"},{"rune":"A","rune_set":"bacs1","hex":"#3366ff99","correct":32,"choice":-1,"rt":-1,"accuracy":0,"outcome":"+1","keys":[],"total_keys":0,"block":1,"trial":96,"stimulus":8,"robot":1,"valence":"win","action":"go","sham":0,"trial_type":"pit-trial","trial_index":190,"time_elapsed":816616,"internal_node_id":"0.0-97.0","task_version":"battery-v0.2"},{"rune":"A","rune_set":"bacs1","hex":"#3366ff99","correct":32,"choice":32,"rt":426.17999998037703,"accuracy":1,"outcome":"+10","keys":[1926.8299999821465],"total_keys":1,"block":1,"trial":97,"stimulus":8,"robot":1,"valence":"win","action":"go","sham":0,"trial_type":"pit-trial","trial_index":191,"time_elapsed":819748,"internal_node_id":"0.0-98.0","task_version":"battery-v0.2"},{"rune":"Q","rune_set":"bacs1","hex":"#3366ff99","correct":-1,"choice":32,"rt":408.85000000707805,"accuracy":0,"outcome":"+10","keys":[1909.2799999925774],"total_keys":1,"block":1,"trial":98,"stimulus":11,"robot":2,"valence":"win","action":"no-go","sham":1,"trial_type":"pit-trial","trial_index":192,"time_elapsed":822863,"internal_node_id":"0.0-99.0","task_version":"battery-v0.2"},{"rune":"C","rune_set":"bacs1","hex":"#f73b6a7A","correct":32,"choice":-1,"rt":-1,"accuracy":0,"outcome":"-1","keys":[],"total_keys":0,"block":1,"trial":99,"stimulus":9,"robot":3,"valence":"lose","action":"go","sham":1,"trial_type":"pit-trial","trial_index":193,"time_elapsed":826868,"internal_node_id":"0.0-100.0","task_version":"battery-v0.2"},{"rune":"L","rune_set":"bacs1","hex":"#f73b6a7A","correct":32,"choice":32,"rt":1163.925000000745,"accuracy":1,"outcome":"-1","keys":[2664.614999986952],"total_keys":1,"block":1,"trial":100,"stimulus":10,"robot":3,"valence":"lose","action":"go","sham":0,"trial_type":"pit-trial","trial_index":194,"time_elapsed":830736,"internal_node_id":"0.0-101.0","task_version":"battery-v0.2"},{"rune":"L","rune_set":"bacs1","hex":"#f73b6a7A","correct":32,"choice":32,"rt":457.8449999971781,"accuracy":1,"outcome":"-1","keys":[1958.2900000095833],"total_keys":1,"block":1,"trial":101,"stimulus":10,"robot":3,"valence":"lose","action":"go","sham":0,"trial_type":"pit-trial","trial_index":195,"time_elapsed":833900,"internal_node_id":"0.0-102.0","task_version":"battery-v0.2"},{"rune":"C","rune_set":"bacs1","hex":"#f73b6a7A","correct":32,"choice":32,"rt":734.3949999776669,"accuracy":1,"outcome":"-1","keys":[2234.714999998687],"total_keys":1,"block":1,"trial":102,"stimulus":9,"robot":3,"valence":"lose","action":"go","sham":0,"trial_type":"pit-trial","trial_index":196,"time_elapsed":837339,"internal_node_id":"0.0-103.0","task_version":"battery-v0.2"},{"rune":"A","rune_set":"bacs1","hex":"#3366ff99","correct":32,"choice":32,"rt":570.5549999838695,"accuracy":1,"outcome":"+10","keys":[2072.054999996908],"total_keys":1,"block":1,"trial":103,"stimulus":8,"robot":1,"valence":"win","action":"go","sham":0,"trial_type":"pit-trial","trial_index":197,"time_elapsed":840613,"internal_node_id":"0.0-104.0","task_version":"battery-v0.2"},{"rune":"Q","rune_set":"bacs1","hex":"#3366ff99","correct":-1,"choice":32,"rt":470.1200000126846,"accuracy":0,"outcome":"+1","keys":[1971.0849999974016],"total_keys":1,"block":1,"trial":104,"stimulus":11,"robot":2,"valence":"win","action":"no-go","sham":0,"trial_type":"pit-trial","trial_index":198,"time_elapsed":843788,"internal_node_id":"0.0-105.0","task_version":"battery-v0.2"},{"rune":"Q","rune_set":"bacs1","hex":"#3366ff99","correct":-1,"choice":32,"rt":389.4449999788776,"accuracy":0,"outcome":"+1","keys":[1891.1500000103842],"total_keys":1,"block":1,"trial":105,"stimulus":11,"robot":2,"valence":"win","action":"no-go","sham":0,"trial_type":"pit-trial","trial_index":199,"time_elapsed":846883,"internal_node_id":"0.0-106.0","task_version":"battery-v0.2"},{"rune":"L","rune_set":"bacs1","hex":"#f73b6a7A","correct":32,"choice":32,"rt":507.5300000025891,"accuracy":1,"outcome":"-1","keys":[2008.834999985993],"total_keys":1,"block":1,"trial":106,"stimulus":10,"robot":3,"valence":"lose","action":"go","sham":0,"trial_type":"pit-trial","trial_index":200,"time_elapsed":850097,"internal_node_id":"0.0-107.0","task_version":"battery-v0.2"},{"rune":"A","rune_set":"bacs1","hex":"#3366ff99","correct":32,"choice":32,"rt":779.5449999975972,"accuracy":1,"outcome":"+1","keys":[2280.8449999720324],"total_keys":1,"block":1,"trial":107,"stimulus":8,"robot":1,"valence":"win","action":"go","sham":1,"trial_type":"pit-trial","trial_index":201,"time_elapsed":853581,"internal_node_id":"0.0-108.0","task_version":"battery-v0.2"},{"rune":"C","rune_set":"bacs1","hex":"#f73b6a7A","correct":32,"choice":32,"rt":617.1100000210572,"accuracy":1,"outcome":"-1","keys":[2117.4100000062026],"total_keys":1,"block":1,"trial":108,"stimulus":9,"robot":3,"valence":"lose","action":"go","sham":0,"trial_type":"pit-trial","trial_index":202,"time_elapsed":856903,"internal_node_id":"0.0-109.0","task_version":"battery-v0.2"},{"rune":"C","rune_set":"bacs1","hex":"#f73b6a7A","correct":32,"choice":32,"rt":483.25499999918975,"accuracy":1,"outcome":"-1","keys":[1984.020000003511],"total_keys":1,"block":1,"trial":109,"stimulus":9,"robot":3,"valence":"lose","action":"go","sham":0,"trial_type":"pit-trial","trial_index":203,"time_elapsed":860092,"internal_node_id":"0.0-110.0","task_version":"battery-v0.2"},{"rune":"L","rune_set":"bacs1","hex":"#f73b6a7A","correct":32,"choice":32,"rt":456.9199999968987,"accuracy":1,"outcome":"-1","keys":[1958.199999993667],"total_keys":1,"block":1,"trial":110,"stimulus":10,"robot":3,"valence":"lose","action":"go","sham":0,"trial_type":"pit-trial","trial_index":204,"time_elapsed":863253,"internal_node_id":"0.0-111.0","task_version":"battery-v0.2"},{"rune":"Q","rune_set":"bacs1","hex":"#3366ff99","correct":-1,"choice":32,"rt":584.9600000074133,"accuracy":0,"outcome":"+1","keys":[2085.0550000031944],"total_keys":1,"block":1,"trial":111,"stimulus":11,"robot":2,"valence":"win","action":"no-go","sham":0,"trial_type":"pit-trial","trial_index":205,"time_elapsed":866543,"internal_node_id":"0.0-112.0","task_version":"battery-v0.2"},{"rune":"A","rune_set":"bacs1","hex":"#3366ff99","correct":32,"choice":32,"rt":346.8900000152644,"accuracy":1,"outcome":"+10","keys":[1846.994999999879],"total_keys":1,"block":1,"trial":112,"stimulus":8,"robot":1,"valence":"win","action":"go","sham":0,"trial_type":"pit-trial","trial_index":206,"time_elapsed":869594,"internal_node_id":"0.0-113.0","task_version":"battery-v0.2"},{"rune":"L","rune_set":"bacs1","hex":"#f73b6a7A","correct":32,"choice":32,"rt":494.2799999844283,"accuracy":1,"outcome":"-1","keys":[1994.6400000189897],"total_keys":1,"block":1,"trial":113,"stimulus":10,"robot":3,"valence":"lose","action":"go","sham":0,"trial_type":"pit-trial","trial_index":207,"time_elapsed":872793,"internal_node_id":"0.0-114.0","task_version":"battery-v0.2"},{"rune":"Q","rune_set":"bacs1","hex":"#3366ff99","correct":-1,"choice":32,"rt":459.5899999840185,"accuracy":0,"outcome":"+1","keys":[1961.0699999902863],"total_keys":1,"block":1,"trial":114,"stimulus":11,"robot":2,"valence":"win","action":"no-go","sham":0,"trial_type":"pit-trial","trial_index":208,"time_elapsed":875957,"internal_node_id":"0.0-115.0","task_version":"battery-v0.2"},{"rune":"C","rune_set":"bacs1","hex":"#f73b6a7A","correct":32,"choice":32,"rt":838.3550000144169,"accuracy":1,"outcome":"-1","keys":[2340.314999979455],"total_keys":1,"block":1,"trial":115,"stimulus":9,"robot":3,"valence":"lose","action":"go","sham":0,"trial_type":"pit-trial","trial_index":209,"time_elapsed":879500,"internal_node_id":"0.0-116.0","task_version":"battery-v0.2"},{"rune":"A","rune_set":"bacs1","hex":"#3366ff99","correct":32,"choice":32,"rt":401.18000001530163,"accuracy":1,"outcome":"+10","keys":[1902.090000017779],"total_keys":1,"block":1,"trial":116,"stimulus":8,"robot":1,"valence":"win","action":"go","sham":0,"trial_type":"pit-trial","trial_index":210,"time_elapsed":882606,"internal_node_id":"0.0-117.0","task_version":"battery-v0.2"},{"rune":"C","rune_set":"bacs1","hex":"#f73b6a7A","correct":32,"choice":32,"rt":587.9899999999907,"accuracy":1,"outcome":"-1","keys":[2088.434999983292],"total_keys":1,"block":1,"trial":117,"stimulus":9,"robot":3,"valence":"lose","action":"go","sham":0,"trial_type":"pit-trial","trial_index":211,"time_elapsed":885899,"internal_node_id":"0.0-118.0","task_version":"battery-v0.2"},{"rune":"Q","rune_set":"bacs1","hex":"#3366ff99","correct":-1,"choice":32,"rt":410.66999998292886,"accuracy":0,"outcome":"+10","keys":[1910.8049999922514],"total_keys":1,"block":1,"trial":118,"stimulus":11,"robot":2,"valence":"win","action":"no-go","sham":1,"trial_type":"pit-trial","trial_index":212,"time_elapsed":889013,"internal_node_id":"0.0-119.0","task_version":"battery-v0.2"},{"rune":"A","rune_set":"bacs1","hex":"#3366ff99","correct":32,"choice":32,"rt":415.980000019772,"accuracy":1,"outcome":"+10","keys":[1916.6200000036042],"total_keys":1,"block":1,"trial":119,"stimulus":8,"robot":1,"valence":"win","action":"go","sham":0,"trial_type":"pit-trial","trial_index":213,"time_elapsed":892132,"internal_node_id":"0.0-120.0","task_version":"battery-v0.2"},{"rune":"L","rune_set":"bacs1","hex":"#f73b6a7A","correct":32,"choice":32,"rt":520.409999997355,"accuracy":1,"outcome":"-1","keys":[2023.4650000056718],"total_keys":1,"block":1,"trial":120,"stimulus":10,"robot":3,"valence":"lose","action":"go","sham":0,"trial_type":"pit-trial","trial_index":214,"time_elapsed":895359,"internal_node_id":"0.0-121.0","task_version":"battery-v0.2"},{"view_history":"[{\"page_index\":0,\"viewing_time\":25165.755000023637},{\"page_index\":1,\"viewing_time\":1794.7549999807961}]","rt":26961.17000002414,"trial_type":"pit-instructions","trial_index":215,"time_elapsed":922321,"internal_node_id":"0.0-122.0","task_version":"battery-v0.2"},{"rune":"G","rune_set":"bacs1","hex":"#3366ff99","correct":32,"choice":32,"rt":332.460000005085,"accuracy":1,"outcome":"+10","keys":[1833.3699999784585],"total_keys":1,"block":2,"trial":121,"stimulus":1,"robot":1,"valence":"win","action":"go","sham":0,"trial_type":"pit-trial","trial_index":216,"time_elapsed":925360,"internal_node_id":"0.0-123.0","task_version":"battery-v0.2"},{"rune":"N","rune_set":"bacs1","hex":"#3366ff99","correct":-1,"choice":32,"rt":363.34999999962747,"accuracy":0,"outcome":"+1","keys":[1863.5249999933876],"total_keys":1,"block":2,"trial":122,"stimulus":0,"robot":2,"valence":"win","action":"no-go","sham":0,"trial_type":"pit-trial","trial_index":217,"time_elapsed":928426,"internal_node_id":"0.0-124.0","task_version":"battery-v0.2"},{"rune":"I","rune_set":"bacs1","hex":"#f73b6a7A","correct":-1,"choice":32,"rt":893.0399999953806,"accuracy":0,"outcome":"-1","keys":[2393.320000002859],"total_keys":1,"block":2,"trial":123,"stimulus":2,"robot":4,"valence":"lose","action":"no-go","sham":1,"trial_type":"pit-trial","trial_index":218,"time_elapsed":932023,"internal_node_id":"0.0-125.0","task_version":"battery-v0.2"},{"rune":"O","rune_set":"bacs1","hex":"#3366ff99","correct":32,"choice":32,"rt":527.1650000067893,"accuracy":1,"outcome":"+1","keys":[2028.5399999993388],"total_keys":1,"block":2,"trial":124,"stimulus":3,"robot":1,"valence":"win","action":"go","sham":1,"trial_type":"pit-trial","trial_index":219,"time_elapsed":935254,"internal_node_id":"0.0-126.0","task_version":"battery-v0.2"},{"rune":"O","rune_set":"bacs1","hex":"#3366ff99","correct":32,"choice":-1,"rt":-1,"accuracy":0,"outcome":"+10","keys":[],"total_keys":0,"block":2,"trial":125,"stimulus":3,"robot":1,"valence":"win","action":"go","sham":1,"trial_type":"pit-trial","trial_index":220,"time_elapsed":939260,"internal_node_id":"0.0-127.0","task_version":"battery-v0.2"},{"rune":"G","rune_set":"bacs1","hex":"#3366ff99","correct":32,"choice":32,"rt":505.17499999841675,"accuracy":1,"outcome":"+1","keys":[2006.1099999875296],"total_keys":1,"block":2,"trial":126,"stimulus":1,"robot":1,"valence":"win","action":"go","sham":1,"trial_type":"pit-trial","trial_index":221,"time_elapsed":942470,"internal_node_id":"0.0-128.0","task_version":"battery-v0.2"},{"rune":"N","rune_set":"bacs1","hex":"#3366ff99","correct":-1,"choice":32,"rt":484.99999998603016,"accuracy":0,"outcome":"+1","keys":[1986.8349999887869],"total_keys":1,"block":2,"trial":127,"stimulus":0,"robot":2,"valence":"win","action":"no-go","sham":0,"trial_type":"pit-trial","trial_index":222,"time_elapsed":945661,"internal_node_id":"0.0-129.0","task_version":"battery-v0.2"},{"rune":"I","rune_set":"bacs1","hex":"#f73b6a7A","correct":-1,"choice":32,"rt":821.4399999997113,"accuracy":0,"outcome":"-10","keys":[2323.0400000174996],"total_keys":1,"block":2,"trial":128,"stimulus":2,"robot":4,"valence":"lose","action":"no-go","sham":0,"trial_type":"pit-trial","trial_index":223,"time_elapsed":949188,"internal_node_id":"0.0-130.0","task_version":"battery-v0.2"},{"rune":"O","rune_set":"bacs1","hex":"#3366ff99","correct":32,"choice":32,"rt":289.7099999827333,"accuracy":1,"outcome":"+10","keys":[1791.6799999948125],"total_keys":1,"block":2,"trial":129,"stimulus":3,"robot":1,"valence":"win","action":"go","sham":0,"trial_type":"pit-trial","trial_index":224,"time_elapsed":952182,"internal_node_id":"0.0-131.0","task_version":"battery-v0.2"},{"rune":"N","rune_set":"bacs1","hex":"#3366ff99","correct":-1,"choice":32,"rt":316.88499997835606,"accuracy":0,"outcome":"+1","keys":[1818.0050000082701],"total_keys":1,"block":2,"trial":130,"stimulus":0,"robot":2,"valence":"win","action":"no-go","sham":0,"trial_type":"pit-trial","trial_index":225,"time_elapsed":955203,"internal_node_id":"0.0-132.0","task_version":"battery-v0.2"},{"rune":"I","rune_set":"bacs1","hex":"#f73b6a7A","correct":-1,"choice":32,"rt":586.6749999986496,"accuracy":0,"outcome":"-10","keys":[2086.8699999991804],"total_keys":1,"block":2,"trial":131,"stimulus":2,"robot":4,"valence":"lose","action":"no-go","sham":0,"trial_type":"pit-trial","trial_index":226,"time_elapsed":958493,"internal_node_id":"0.0-133.0","task_version":"battery-v0.2"},{"rune":"G","rune_set":"bacs1","hex":"#3366ff99","correct":32,"choice":32,"rt":396.9050000014249,"accuracy":1,"outcome":"+10","keys":[1897.1199999796227],"total_keys":1,"block":2,"trial":132,"stimulus":1,"robot":1,"valence":"win","action":"go","sham":0,"trial_type":"pit-trial","trial_index":227,"time_elapsed":961594,"internal_node_id":"0.0-134.0","task_version":"battery-v0.2"},{"rune":"I","rune_set":"bacs1","hex":"#f73b6a7A","correct":-1,"choice":32,"rt":558.4249999956228,"accuracy":0,"outcome":"-1","keys":[2059.529999998631],"total_keys":1,"block":2,"trial":133,"stimulus":2,"robot":4,"valence":"lose","action":"no-go","sham":1,"trial_type":"pit-trial","trial_index":228,"time_elapsed":964858,"internal_node_id":"0.0-135.0","task_version":"battery-v0.2"},{"rune":"O","rune_set":"bacs1","hex":"#3366ff99","correct":32,"choice":32,"rt":504.1800000180956,"accuracy":1,"outcome":"+10","keys":[2004.499999980908],"total_keys":1,"block":2,"trial":134,"stimulus":3,"robot":1,"valence":"win","action":"go","sham":0,"trial_type":"pit-trial","trial_index":229,"time_elapsed":968066,"internal_node_id":"0.0-136.0","task_version":"battery-v0.2"},{"rune":"N","rune_set":"bacs1","hex":"#3366ff99","correct":-1,"choice":32,"rt":433.7949999899138,"accuracy":0,"outcome":"+1","keys":[1935.4650000168476],"total_keys":1,"block":2,"trial":135,"stimulus":0,"robot":2,"valence":"win","action":"no-go","sham":0,"trial_type":"pit-trial","trial_index":230,"time_elapsed":971206,"internal_node_id":"0.0-137.0","task_version":"battery-v0.2"},{"rune":"G","rune_set":"bacs1","hex":"#3366ff99","correct":32,"choice":32,"rt":398.17499998025596,"accuracy":1,"outcome":"+1","keys":[1899.5599999907427],"total_keys":1,"block":2,"trial":136,"stimulus":1,"robot":1,"valence":"win","action":"go","sham":1,"trial_type":"pit-trial","trial_index":231,"time_elapsed":974311,"internal_node_id":"0.0-138.0","task_version":"battery-v0.2"},{"rune":"I","rune_set":"bacs1","hex":"#f73b6a7A","correct":-1,"choice":32,"rt":489.73500001011416,"accuracy":0,"outcome":"-10","keys":[1991.0149999777786],"total_keys":1,"block":2,"trial":137,"stimulus":2,"robot":4,"valence":"lose","action":"no-go","sham":0,"trial_type":"pit-trial","trial_index":232,"time_elapsed":977507,"internal_node_id":"0.0-139.0","task_version":"battery-v0.2"},{"rune":"N","rune_set":"bacs1","hex":"#3366ff99","correct":-1,"choice":32,"rt":379.480000003241,"accuracy":0,"outcome":"+1","keys":[1880.5949999950826],"total_keys":1,"block":2,"trial":138,"stimulus":0,"robot":2,"valence":"win","action":"no-go","sham":0,"trial_type":"pit-trial","trial_index":233,"time_elapsed":980592,"internal_node_id":"0.0-140.0","task_version":"battery-v0.2"},{"rune":"G","rune_set":"bacs1","hex":"#3366ff99","correct":32,"choice":32,"rt":412.9199999733828,"accuracy":1,"outcome":"+1","keys":[1914.0950000146404],"total_keys":1,"block":2,"trial":139,"stimulus":1,"robot":1,"valence":"win","action":"go","sham":1,"trial_type":"pit-trial","trial_index":234,"time_elapsed":983710,"internal_node_id":"0.0-141.0","task_version":"battery-v0.2"},{"rune":"O","rune_set":"bacs1","hex":"#3366ff99","correct":32,"choice":32,"rt":357.42000001482666,"accuracy":1,"outcome":"+10","keys":[1858.2350000215229],"total_keys":1,"block":2,"trial":140,"stimulus":3,"robot":1,"valence":"win","action":"go","sham":0,"trial_type":"pit-trial","trial_index":235,"time_elapsed":986774,"internal_node_id":"0.0-142.0","task_version":"battery-v0.2"},{"rune":"G","rune_set":"bacs1","hex":"#3366ff99","correct":32,"choice":32,"rt":371.6899999999441,"accuracy":1,"outcome":"+10","keys":[1872.9300000122748],"total_keys":1,"block":2,"trial":141,"stimulus":1,"robot":1,"valence":"win","action":"go","sham":0,"trial_type":"pit-trial","trial_index":236,"time_elapsed":989852,"internal_node_id":"0.0-143.0","task_version":"battery-v0.2"},{"rune":"N","rune_set":"bacs1","hex":"#3366ff99","correct":-1,"choice":32,"rt":388.3999999961816,"accuracy":0,"outcome":"+1","keys":[1888.9450000133365],"total_keys":1,"block":2,"trial":142,"stimulus":0,"robot":2,"valence":"win","action":"no-go","sham":0,"trial_type":"pit-trial","trial_index":237,"time_elapsed":992945,"internal_node_id":"0.0-144.0","task_version":"battery-v0.2"},{"rune":"O","rune_set":"bacs1","hex":"#3366ff99","correct":32,"choice":32,"rt":334.5149999950081,"accuracy":1,"outcome":"+10","keys":[1835.8599999919534],"total_keys":1,"block":2,"trial":143,"stimulus":3,"robot":1,"valence":"win","action":"go","sham":0,"trial_type":"pit-trial","trial_index":238,"time_elapsed":995983,"internal_node_id":"0.0-145.0","task_version":"battery-v0.2"},{"rune":"I","rune_set":"bacs1","hex":"#f73b6a7A","correct":-1,"choice":32,"rt":487.5600000086706,"accuracy":0,"outcome":"-10","keys":[1988.340000010794],"total_keys":1,"block":2,"trial":144,"stimulus":2,"robot":4,"valence":"lose","action":"no-go","sham":0,"trial_type":"pit-trial","trial_index":239,"time_elapsed":999174,"internal_node_id":"0.0-146.0","task_version":"battery-v0.2"},{"rune":"I","rune_set":"bacs1","hex":"#f73b6a7A","correct":-1,"choice":32,"rt":434.58999998983927,"accuracy":0,"outcome":"-10","keys":[1935.3450000053272],"total_keys":1,"block":2,"trial":145,"stimulus":2,"robot":4,"valence":"lose","action":"no-go","sham":0,"trial_type":"pit-trial","trial_index":240,"time_elapsed":1002313,"internal_node_id":"0.0-147.0","task_version":"battery-v0.2"},{"rune":"N","rune_set":"bacs1","hex":"#3366ff99","correct":-1,"choice":32,"rt":346.5250000008382,"accuracy":0,"outcome":"+1","keys":[1848.4949999838136],"total_keys":1,"block":2,"trial":146,"stimulus":0,"robot":2,"valence":"win","action":"no-go","sham":0,"trial_type":"pit-trial","trial_index":241,"time_elapsed":1005365,"internal_node_id":"0.0-148.0","task_version":"battery-v0.2"},{"rune":"G","rune_set":"bacs1","hex":"#3366ff99","correct":32,"choice":32,"rt":484.7850000078324,"accuracy":1,"outcome":"+10","keys":[1985.4950000008103],"total_keys":1,"block":2,"trial":147,"stimulus":1,"robot":1,"valence":"win","action":"go","sham":0,"trial_type":"pit-trial","trial_index":242,"time_elapsed":1008553,"internal_node_id":"0.0-149.0","task_version":"battery-v0.2"},{"rune":"O","rune_set":"bacs1","hex":"#3366ff99","correct":32,"choice":32,"rt":483.8000000163447,"accuracy":1,"outcome":"+10","keys":[1985.995000024559],"total_keys":1,"block":2,"trial":148,"stimulus":3,"robot":1,"valence":"win","action":"go","sham":0,"trial_type":"pit-trial","trial_index":243,"time_elapsed":1011744,"internal_node_id":"0.0-150.0","task_version":"battery-v0.2"},{"rune":"O","rune_set":"bacs1","hex":"#3366ff99","correct":32,"choice":32,"rt":732.1950000186916,"accuracy":1,"outcome":"+10","keys":[2232.7250000089407],"total_keys":1,"block":2,"trial":149,"stimulus":3,"robot":1,"valence":"win","action":"go","sham":0,"trial_type":"pit-trial","trial_index":244,"time_elapsed":1015182,"internal_node_id":"0.0-151.0","task_version":"battery-v0.2"},{"rune":"N","rune_set":"bacs1","hex":"#3366ff99","correct":-1,"choice":32,"rt":342.31000000727363,"accuracy":0,"outcome":"+1","keys":[1842.9550000000745],"total_keys":1,"block":2,"trial":150,"stimulus":0,"robot":2,"valence":"win","action":"no-go","sham":0,"trial_type":"pit-trial","trial_index":245,"time_elapsed":1018229,"internal_node_id":"0.0-152.0","task_version":"battery-v0.2"},{"rune":"G","rune_set":"bacs1","hex":"#3366ff99","correct":32,"choice":32,"rt":384.6049999992829,"accuracy":1,"outcome":"+10","keys":[1885.2500000211876],"total_keys":1,"block":2,"trial":151,"stimulus":1,"robot":1,"valence":"win","action":"go","sham":0,"trial_type":"pit-trial","trial_index":246,"time_elapsed":1021318,"internal_node_id":"0.0-153.0","task_version":"battery-v0.2"},{"rune":"I","rune_set":"bacs1","hex":"#f73b6a7A","correct":-1,"choice":-1,"rt":-1,"accuracy":1,"outcome":"-1","keys":[],"total_keys":0,"block":2,"trial":152,"stimulus":2,"robot":4,"valence":"lose","action":"no-go","sham":0,"trial_type":"pit-trial","trial_index":247,"time_elapsed":1025323,"internal_node_id":"0.0-154.0","task_version":"battery-v0.2"},{"rune":"I","rune_set":"bacs1","hex":"#f73b6a7A","correct":-1,"choice":-1,"rt":-1,"accuracy":1,"outcome":"-1","keys":[],"total_keys":0,"block":2,"trial":153,"stimulus":2,"robot":4,"valence":"lose","action":"no-go","sham":0,"trial_type":"pit-trial","trial_index":248,"time_elapsed":1029326,"internal_node_id":"0.0-155.0","task_version":"battery-v0.2"},{"rune":"N","rune_set":"bacs1","hex":"#3366ff99","correct":-1,"choice":32,"rt":434.1100000019651,"accuracy":0,"outcome":"+1","keys":[1935.0399999821093],"total_keys":1,"block":2,"trial":154,"stimulus":0,"robot":2,"valence":"win","action":"no-go","sham":0,"trial_type":"pit-trial","trial_index":249,"time_elapsed":1032465,"internal_node_id":"0.0-156.0","task_version":"battery-v0.2"},{"rune":"O","rune_set":"bacs1","hex":"#3366ff99","correct":32,"choice":32,"rt":530.1799999724608,"accuracy":1,"outcome":"+1","keys":[2030.9350000170525],"total_keys":1,"block":2,"trial":155,"stimulus":3,"robot":1,"valence":"win","action":"go","sham":1,"trial_type":"pit-trial","trial_index":250,"time_elapsed":1035701,"internal_node_id":"0.0-157.0","task_version":"battery-v0.2"},{"rune":"D","rune_set":"bacs1","hex":"#3366ff99","correct":32,"choice":32,"rt":514.7200000064913,"accuracy":1,"outcome":"+10","keys":[2014.8150000022724],"total_keys":1,"block":2,"trial":156,"stimulus":4,"robot":1,"valence":"win","action":"go","sham":0,"trial_type":"pit-trial","trial_index":251,"time_elapsed":1038920,"internal_node_id":"0.0-158.0","task_version":"battery-v0.2"},{"rune":"D","rune_set":"bacs1","hex":"#3366ff99","correct":32,"choice":32,"rt":829.154999984894,"accuracy":1,"outcome":"+10","keys":[2329.3349999876227],"total_keys":1,"block":2,"trial":157,"stimulus":4,"robot":1,"valence":"win","action":"go","sham":0,"trial_type":"pit-trial","trial_index":252,"time_elapsed":1042453,"internal_node_id":"0.0-159.0","task_version":"battery-v0.2"},{"rune":"N","rune_set":"bacs1","hex":"#3366ff99","correct":-1,"choice":-1,"rt":-1,"accuracy":1,"outcome":"+10","keys":[],"total_keys":0,"block":2,"trial":158,"stimulus":0,"robot":2,"valence":"win","action":"no-go","sham":0,"trial_type":"pit-trial","trial_index":253,"time_elapsed":1046460,"internal_node_id":"0.0-160.0","task_version":"battery-v0.2"},{"rune":"I","rune_set":"bacs1","hex":"#f73b6a7A","correct":-1,"choice":-1,"rt":-1,"accuracy":1,"outcome":"-1","keys":[],"total_keys":0,"block":2,"trial":159,"stimulus":2,"robot":4,"valence":"lose","action":"no-go","sham":0,"trial_type":"pit-trial","trial_index":254,"time_elapsed":1050463,"internal_node_id":"0.0-161.0","task_version":"battery-v0.2"},{"rune":"O","rune_set":"bacs1","hex":"#3366ff99","correct":32,"choice":32,"rt":467.52999999444,"accuracy":1,"outcome":"+10","keys":[1968.3200000145007],"total_keys":1,"block":2,"trial":160,"stimulus":3,"robot":1,"valence":"win","action":"go","sham":0,"trial_type":"pit-trial","trial_index":255,"time_elapsed":1053635,"internal_node_id":"0.0-162.0","task_version":"battery-v0.2"},{"rune":"N","rune_set":"bacs1","hex":"#3366ff99","correct":-1,"choice":-1,"rt":-1,"accuracy":1,"outcome":"+10","keys":[],"total_keys":0,"block":2,"trial":161,"stimulus":0,"robot":2,"valence":"win","action":"no-go","sham":0,"trial_type":"pit-trial","trial_index":256,"time_elapsed":1057638,"internal_node_id":"0.0-163.0","task_version":"battery-v0.2"},{"rune":"K","rune_set":"bacs1","hex":"#f73b6a7A","correct":32,"choice":32,"rt":861.2600000051316,"accuracy":1,"outcome":"-10","keys":[2362.009999982547],"total_keys":1,"block":2,"trial":162,"stimulus":5,"robot":3,"valence":"lose","action":"go","sham":1,"trial_type":"pit-trial","trial_index":257,"time_elapsed":1061202,"internal_node_id":"0.0-164.0","task_version":"battery-v0.2"},{"rune":"S","rune_set":"bacs1","hex":"#f73b6a7A","correct":-1,"choice":-1,"rt":-1,"accuracy":1,"outcome":"-1","keys":[],"total_keys":0,"block":2,"trial":163,"stimulus":6,"robot":4,"valence":"lose","action":"no-go","sham":0,"trial_type":"pit-trial","trial_index":258,"time_elapsed":1065207,"internal_node_id":"0.0-165.0","task_version":"battery-v0.2"},{"rune":"D","rune_set":"bacs1","hex":"#3366ff99","correct":32,"choice":32,"rt":652.5750000146218,"accuracy":1,"outcome":"+10","keys":[2153.725000011036],"total_keys":1,"block":2,"trial":164,"stimulus":4,"robot":1,"valence":"win","action":"go","sham":0,"trial_type":"pit-trial","trial_index":259,"time_elapsed":1068563,"internal_node_id":"0.0-166.0","task_version":"battery-v0.2"},{"rune":"K","rune_set":"bacs1","hex":"#f73b6a7A","correct":32,"choice":-1,"rt":-1,"accuracy":0,"outcome":"-1","keys":[],"total_keys":0,"block":2,"trial":165,"stimulus":5,"robot":3,"valence":"lose","action":"go","sham":1,"trial_type":"pit-trial","trial_index":260,"time_elapsed":1072567,"internal_node_id":"0.0-167.0","task_version":"battery-v0.2"},{"rune":"S","rune_set":"bacs1","hex":"#f73b6a7A","correct":-1,"choice":-1,"rt":-1,"accuracy":1,"outcome":"-1","keys":[],"total_keys":0,"block":2,"trial":166,"stimulus":6,"robot":4,"valence":"lose","action":"no-go","sham":0,"trial_type":"pit-trial","trial_index":261,"time_elapsed":1076572,"internal_node_id":"0.0-168.0","task_version":"battery-v0.2"},{"rune":"D","rune_set":"bacs1","hex":"#3366ff99","correct":32,"choice":32,"rt":476.21999998227693,"accuracy":1,"outcome":"+10","keys":[1976.7350000038277],"total_keys":1,"block":2,"trial":167,"stimulus":4,"robot":1,"valence":"win","action":"go","sham":0,"trial_type":"pit-trial","trial_index":262,"time_elapsed":1079754,"internal_node_id":"0.0-169.0","task_version":"battery-v0.2"},{"rune":"N","rune_set":"bacs1","hex":"#3366ff99","correct":-1,"choice":-1,"rt":-1,"accuracy":1,"outcome":"+10","keys":[],"total_keys":0,"block":2,"trial":168,"stimulus":0,"robot":2,"valence":"win","action":"no-go","sham":0,"trial_type":"pit-trial","trial_index":263,"time_elapsed":1083760,"internal_node_id":"0.0-170.0","task_version":"battery-v0.2"},{"rune":"K","rune_set":"bacs1","hex":"#f73b6a7A","correct":32,"choice":-1,"rt":-1,"accuracy":0,"outcome":"-10","keys":[],"total_keys":0,"block":2,"trial":169,"stimulus":5,"robot":3,"valence":"lose","action":"go","sham":0,"trial_type":"pit-trial","trial_index":264,"time_elapsed":1087766,"internal_node_id":"0.0-171.0","task_version":"battery-v0.2"},{"rune":"S","rune_set":"bacs1","hex":"#f73b6a7A","correct":-1,"choice":-1,"rt":-1,"accuracy":1,"outcome":"-10","keys":[],"total_keys":0,"block":2,"trial":170,"stimulus":6,"robot":4,"valence":"lose","action":"no-go","sham":1,"trial_type":"pit-trial","trial_index":265,"time_elapsed":1091770,"internal_node_id":"0.0-172.0","task_version":"battery-v0.2"},{"rune":"U","rune_set":"bacs1","hex":"#3366ff99","correct":-1,"choice":32,"rt":638.329999987036,"accuracy":0,"outcome":"+10","keys":[2139.049999997951],"total_keys":1,"block":2,"trial":171,"stimulus":7,"robot":2,"valence":"win","action":"no-go","sham":1,"trial_type":"pit-trial","trial_index":266,"time_elapsed":1095113,"internal_node_id":"0.0-173.0","task_version":"battery-v0.2"},{"rune":"D","rune_set":"bacs1","hex":"#3366ff99","correct":32,"choice":32,"rt":396.6099999961443,"accuracy":1,"outcome":"+10","keys":[1896.999999997206],"total_keys":1,"block":2,"trial":172,"stimulus":4,"robot":1,"valence":"win","action":"go","sham":0,"trial_type":"pit-trial","trial_index":267,"time_elapsed":1098212,"internal_node_id":"0.0-174.0","task_version":"battery-v0.2"},{"rune":"D","rune_set":"bacs1","hex":"#3366ff99","correct":32,"choice":32,"rt":472.3200000007637,"accuracy":1,"outcome":"+10","keys":[1973.150000005262],"total_keys":1,"block":2,"trial":173,"stimulus":4,"robot":1,"valence":"win","action":"go","sham":0,"trial_type":"pit-trial","trial_index":268,"time_elapsed":1101388,"internal_node_id":"0.0-175.0","task_version":"battery-v0.2"},{"rune":"S","rune_set":"bacs1","hex":"#f73b6a7A","correct":-1,"choice":-1,"rt":-1,"accuracy":1,"outcome":"-1","keys":[],"total_keys":0,"block":2,"trial":174,"stimulus":6,"robot":4,"valence":"lose","action":"no-go","sham":0,"trial_type":"pit-trial","trial_index":269,"time_elapsed":1105392,"internal_node_id":"0.0-176.0","task_version":"battery-v0.2"},{"rune":"K","rune_set":"bacs1","hex":"#f73b6a7A","correct":32,"choice":-1,"rt":-1,"accuracy":0,"outcome":"-1","keys":[],"total_keys":0,"block":2,"trial":175,"stimulus":5,"robot":3,"valence":"lose","action":"go","sham":1,"trial_type":"pit-trial","trial_index":270,"time_elapsed":1109398,"internal_node_id":"0.0-177.0","task_version":"battery-v0.2"},{"rune":"U","rune_set":"bacs1","hex":"#3366ff99","correct":-1,"choice":32,"rt":485.000000015134,"accuracy":0,"outcome":"+10","keys":[1985.740000003716],"total_keys":1,"block":2,"trial":176,"stimulus":7,"robot":2,"valence":"win","action":"no-go","sham":1,"trial_type":"pit-trial","trial_index":271,"time_elapsed":1112586,"internal_node_id":"0.0-178.0","task_version":"battery-v0.2"},{"rune":"K","rune_set":"bacs1","hex":"#f73b6a7A","correct":32,"choice":-1,"rt":-1,"accuracy":0,"outcome":"-10","keys":[],"total_keys":0,"block":2,"trial":177,"stimulus":5,"robot":3,"valence":"lose","action":"go","sham":0,"trial_type":"pit-trial","trial_index":272,"time_elapsed":1116590,"internal_node_id":"0.0-179.0","task_version":"battery-v0.2"},{"rune":"D","rune_set":"bacs1","hex":"#3366ff99","correct":32,"choice":32,"rt":397.5100000097882,"accuracy":1,"outcome":"+1","keys":[1898.7449999840464],"total_keys":1,"block":2,"trial":178,"stimulus":4,"robot":1,"valence":"win","action":"go","sham":1,"trial_type":"pit-trial","trial_index":273,"time_elapsed":1119692,"internal_node_id":"0.0-180.0","task_version":"battery-v0.2"},{"rune":"U","rune_set":"bacs1","hex":"#3366ff99","correct":-1,"choice":32,"rt":381.32000001496635,"accuracy":0,"outcome":"+1","keys":[1882.4599999934435],"total_keys":1,"block":2,"trial":179,"stimulus":7,"robot":2,"valence":"win","action":"no-go","sham":0,"trial_type":"pit-trial","trial_index":274,"time_elapsed":1122777,"internal_node_id":"0.0-181.0","task_version":"battery-v0.2"},{"rune":"S","rune_set":"bacs1","hex":"#f73b6a7A","correct":-1,"choice":-1,"rt":-1,"accuracy":1,"outcome":"-10","keys":[],"total_keys":0,"block":2,"trial":180,"stimulus":6,"robot":4,"valence":"lose","action":"no-go","sham":1,"trial_type":"pit-trial","trial_index":275,"time_elapsed":1126783,"internal_node_id":"0.0-182.0","task_version":"battery-v0.2"},{"rune":"K","rune_set":"bacs1","hex":"#f73b6a7A","correct":32,"choice":32,"rt":241.14500000723638,"accuracy":1,"outcome":"-1","keys":[1741.4149999967776],"total_keys":1,"block":2,"trial":181,"stimulus":5,"robot":3,"valence":"lose","action":"go","sham":0,"trial_type":"pit-trial","trial_index":276,"time_elapsed":1129728,"internal_node_id":"0.0-183.0","task_version":"battery-v0.2"},{"rune":"D","rune_set":"bacs1","hex":"#3366ff99","correct":32,"choice":32,"rt":366.4799999969546,"accuracy":1,"outcome":"+10","keys":[1867.6500000001397],"total_keys":1,"block":2,"trial":182,"stimulus":4,"robot":1,"valence":"win","action":"go","sham":0,"trial_type":"pit-trial","trial_index":277,"time_elapsed":1132799,"internal_node_id":"0.0-184.0","task_version":"battery-v0.2"},{"rune":"S","rune_set":"bacs1","hex":"#f73b6a7A","correct":-1,"choice":32,"rt":490.03499999525957,"accuracy":0,"outcome":"-10","keys":[1992.0900000142865],"total_keys":1,"block":2,"trial":183,"stimulus":6,"robot":4,"valence":"lose","action":"no-go","sham":0,"trial_type":"pit-trial","trial_index":278,"time_elapsed":1135994,"internal_node_id":"0.0-185.0","task_version":"battery-v0.2"},{"rune":"U","rune_set":"bacs1","hex":"#3366ff99","correct":-1,"choice":32,"rt":634.3500000075437,"accuracy":0,"outcome":"+1","keys":[2135.1100000028964],"total_keys":1,"block":2,"trial":184,"stimulus":7,"robot":2,"valence":"win","action":"no-go","sham":0,"trial_type":"pit-trial","trial_index":279,"time_elapsed":1139332,"internal_node_id":"0.0-186.0","task_version":"battery-v0.2"},{"rune":"D","rune_set":"bacs1","hex":"#3366ff99","correct":32,"choice":-1,"rt":-1,"accuracy":0,"outcome":"+1","keys":[],"total_keys":0,"block":2,"trial":185,"stimulus":4,"robot":1,"valence":"win","action":"go","sham":0,"trial_type":"pit-trial","trial_index":280,"time_elapsed":1143336,"internal_node_id":"0.0-187.0","task_version":"battery-v0.2"},{"rune":"S","rune_set":"bacs1","hex":"#f73b6a7A","correct":-1,"choice":32,"rt":482.66000000876375,"accuracy":0,"outcome":"-1","keys":[1984.4350000203121],"total_keys":1,"block":2,"trial":186,"stimulus":6,"robot":4,"valence":"lose","action":"no-go","sham":1,"trial_type":"pit-trial","trial_index":281,"time_elapsed":1146524,"internal_node_id":"0.0-188.0","task_version":"battery-v0.2"},{"rune":"U","rune_set":"bacs1","hex":"#3366ff99","correct":-1,"choice":32,"rt":439.69500000821427,"accuracy":0,"outcome":"+1","keys":[1939.9600000178907],"total_keys":1,"block":2,"trial":187,"stimulus":7,"robot":2,"valence":"win","action":"no-go","sham":0,"trial_type":"pit-trial","trial_index":282,"time_elapsed":1149669,"internal_node_id":"0.0-189.0","task_version":"battery-v0.2"},{"rune":"K","rune_set":"bacs1","hex":"#f73b6a7A","correct":32,"choice":32,"rt":442.96500002383254,"accuracy":1,"outcome":"-1","keys":[1943.6050000076648],"total_keys":1,"block":2,"trial":188,"stimulus":5,"robot":3,"valence":"lose","action":"go","sham":0,"trial_type":"pit-trial","trial_index":283,"time_elapsed":1152817,"internal_node_id":"0.0-190.0","task_version":"battery-v0.2"},{"rune":"S","rune_set":"bacs1","hex":"#f73b6a7A","correct":-1,"choice":32,"rt":576.6099999891594,"accuracy":0,"outcome":"-10","keys":[2078.075000026729],"total_keys":1,"block":2,"trial":189,"stimulus":6,"robot":4,"valence":"lose","action":"no-go"