[{"view_history":"[{\"page_index\":0,\"viewing_time\":1660.875000001397},{\"page_index\":1,\"viewing_time\":87667.53999999491},{\"page_index\":2,\"viewing_time\":2727.729999984149},{\"page_index\":3,\"viewing_time\":2482.0250000339},{\"page_index\":4,\"viewing_time\":4549.919999961276},{\"page_index\":5,\"viewing_time\":4670.870000030845},{\"page_index\":6,\"viewing_time\":4340.084999974351},{\"page_index\":7,\"viewing_time\":9425.435000041034},{\"page_index\":8,\"viewing_time\":6795.890000008512},{\"page_index\":9,\"viewing_time\":5847.384999971837}]","rt":130168.99999999441,"trial_type":"pit-instructions","trial_index":0,"time_elapsed":130177,"internal_node_id":"0.0-0.0-0.0","task_version":"battery-v0.2"},{"rune":"1","rune_set":"elianto","hex":"#3366ff99","correct":32,"choice":32,"rt":700.9199999738485,"accuracy":1,"outcome":"+10","keys":[2202.12500001071],"total_keys":1,"block":0,"practice":1,"trial_type":"pit-trial","trial_index":1,"time_elapsed":133585,"internal_node_id":"0.0-0.0-1.0-0.0","task_version":"battery-v0.2"},{"rune":"1","rune_set":"elianto","hex":"#3366ff99","correct":32,"choice":32,"rt":492.824999964796,"accuracy":1,"outcome":"+10","keys":[1992.87000001641],"total_keys":1,"block":0,"practice":1,"trial_type":"pit-trial","trial_index":2,"time_elapsed":136784,"internal_node_id":"0.0-0.0-1.1-0.1","task_version":"battery-v0.2"},{"rune":"1","rune_set":"elianto","hex":"#3366ff99","correct":32,"choice":32,"rt":441.53500004904345,"accuracy":1,"outcome":"+10","keys":[1942.670000018552],"total_keys":1,"block":0,"practice":1,"trial_type":"pit-trial","trial_index":3,"time_elapsed":139928,"internal_node_id":"0.0-0.0-1.2-0.2","task_version":"battery-v0.2"},{"rune":"1","rune_set":"elianto","hex":"#3366ff99","correct":32,"choice":32,"rt":519.4250000058673,"accuracy":1,"outcome":"+10","keys":[2020.360000024084],"total_keys":1,"block":0,"practice":1,"trial_type":"pit-trial","trial_index":4,"time_elapsed":143152,"internal_node_id":"0.0-0.0-1.3-0.3","task_version":"battery-v0.2"},{"view_history":"[{\"page_index\":0,\"viewing_time\":4610.129999986384},{\"page_index\":1,\"viewing_time\":3542.040000029374}]","rt":8152.56000001682,"trial_type":"pit-instructions","trial_index":5,"time_elapsed":151308,"internal_node_id":"0.0-0.0-2.0","task_version":"battery-v0.2"},{"rune":"2","rune_set":"elianto","hex":"#3366ff99","correct":-1,"choice":32,"rt":420.064999954775,"accuracy":0,"outcome":"+1","keys":[1272.8899999638088,1920.3850000048988],"total_keys":2,"block":0,"practice":2,"trial_type":"pit-trial","trial_index":6,"time_elapsed":154431,"internal_node_id":"0.0-0.0-3.0-0.0","task_version":"battery-v0.2"},{"rune":"2","rune_set":"elianto","hex":"#3366ff99","correct":-1,"choice":-1,"rt":-1,"accuracy":1,"outcome":"+10","keys":[],"total_keys":0,"block":0,"practice":2,"trial_type":"pit-trial","trial_index":7,"time_elapsed":158440,"internal_node_id":"0.0-0.0-3.1-0.1","task_version":"battery-v0.2"},{"rune":"2","rune_set":"elianto","hex":"#3366ff99","correct":-1,"choice":-1,"rt":-1,"accuracy":1,"outcome":"+10","keys":[],"total_keys":0,"block":0,"practice":2,"trial_type":"pit-trial","trial_index":8,"time_elapsed":162444,"internal_node_id":"0.0-0.0-3.2-0.2","task_version":"battery-v0.2"},{"rune":"2","rune_set":"elianto","hex":"#3366ff99","correct":-1,"choice":-1,"rt":-1,"accuracy":1,"outcome":"+10","keys":[],"total_keys":0,"block":0,"practice":2,"trial_type":"pit-trial","trial_index":9,"time_elapsed":166448,"internal_node_id":"0.0-0.0-3.3-0.3","task_version":"battery-v0.2"},{"view_history":"[{\"page_index\":0,\"viewing_time\":8518.829999957234},{\"page_index\":1,\"viewing_time\":5910.010000050534}]","rt":14429.360000009183,"trial_type":"pit-instructions","trial_index":10,"time_elapsed":180878,"internal_node_id":"0.0-0.0-4.0","task_version":"battery-v0.2"},{"rune":"3","rune_set":"elianto","hex":"#f73b6a7A","correct":-1,"choice":32,"rt":896.1300000082701,"accuracy":0,"outcome":"-10","keys":[2396.970000001602],"total_keys":1,"block":0,"practice":3,"trial_type":"pit-trial","trial_index":11,"time_elapsed":184477,"internal_node_id":"0.0-0.0-5.0-0.0","task_version":"battery-v0.2"},{"rune":"3","rune_set":"elianto","hex":"#f73b6a7A","correct":-1,"choice":-1,"rt":-1,"accuracy":1,"outcome":"-1","keys":[],"total_keys":0,"block":0,"practice":3,"trial_type":"pit-trial","trial_index":12,"time_elapsed":188480,"internal_node_id":"0.0-0.0-5.1-0.1","task_version":"battery-v0.2"},{"rune":"3","rune_set":"elianto","hex":"#f73b6a7A","correct":-1,"choice":-1,"rt":-1,"accuracy":1,"outcome":"-1","keys":[],"total_keys":0,"block":0,"practice":3,"trial_type":"pit-trial","trial_index":13,"time_elapsed":192484,"internal_node_id":"0.0-0.0-5.2-0.2","task_version":"battery-v0.2"},{"rune":"3","rune_set":"elianto","hex":"#f73b6a7A","correct":-1,"choice":-1,"rt":-1,"accuracy":1,"outcome":"-1","keys":[],"total_keys":0,"block":0,"practice":3,"trial_type":"pit-trial","trial_index":14,"time_elapsed":196488,"internal_node_id":"0.0-0.0-5.3-0.3","task_version":"battery-v0.2"},{"view_history":"[{\"page_index\":0,\"viewing_time\":1892.69999996759},{\"page_index\":1,\"viewing_time\":2467.30000001844}]","rt":4360.354999953415,"trial_type":"pit-instructions","trial_index":15,"time_elapsed":200850,"internal_node_id":"0.0-0.0-6.0","task_version":"battery-v0.2"},{"rune":"4","rune_set":"elianto","hex":"#f73b6a7A","correct":32,"choice":32,"rt":544.8200000100769,"accuracy":1,"outcome":"-1","keys":[2045.0500000151806],"total_keys":1,"block":0,"practice":4,"trial_type":"pit-trial","trial_index":16,"time_elapsed":204098,"internal_node_id":"0.0-0.0-7.0-0.0","task_version":"battery-v0.2"},{"rune":"4","rune_set":"elianto","hex":"#f73b6a7A","correct":32,"choice":32,"rt":367.65999998897314,"accuracy":1,"outcome":"-1","keys":[1496.065000013914,1867.8200000431389],"total_keys":2,"block":0,"practice":4,"trial_type":"pit-trial","trial_index":17,"time_elapsed":207183,"internal_node_id":"0.0-0.0-7.1-0.1","task_version":"battery-v0.2"},{"rune":"4","rune_set":"elianto","hex":"#f73b6a7A","correct":32,"choice":32,"rt":443.0300000240095,"accuracy":1,"outcome":"-1","keys":[1943.9450000063516],"total_keys":1,"block":0,"practice":4,"trial_type":"pit-trial","trial_index":18,"time_elapsed":210330,"internal_node_id":"0.0-0.0-7.2-0.2","task_version":"battery-v0.2"},{"rune":"4","rune_set":"elianto","hex":"#f73b6a7A","correct":32,"choice":32,"rt":401.8849999993108,"accuracy":1,"outcome":"-1","keys":[1902.8799999505281],"total_keys":1,"block":0,"practice":4,"trial_type":"pit-trial","trial_index":19,"time_elapsed":213436,"internal_node_id":"0.0-0.0-7.3-0.3","task_version":"battery-v0.2"},{"view_history":"[{\"page_index\":0,\"viewing_time\":2077.6499999919906},{\"page_index\":1,\"viewing_time\":3785.029999969993},{\"page_index\":2,\"viewing_time\":3011.1800000304356},{\"page_index\":3,\"viewing_time\":2127.5400000158697},{\"page_index\":4,\"viewing_time\":1617.1399999875575},{\"page_index\":5,\"viewing_time\":2145.459999970626}]","rt":14764.469999994617,"trial_type":"pit-instructions","trial_index":20,"time_elapsed":228203,"internal_node_id":"0.0-0.0-8.0","task_version":"battery-v0.2"},{"responses":["Press SPACE","+10","-1","True","True"],"num_errors":0,"rt":14062.360000039916,"trial_type":"pit-comprehension","trial_index":21,"time_elapsed":242267,"internal_node_id":"0.0-0.0-9.0","task_version":"battery-v0.2"},{"view_history":"[{\"page_index\":0,\"viewing_time\":1399.1950000054203},{\"page_index\":1,\"viewing_time\":3430.1700000069104}]","rt":4829.774999991059,"trial_type":"pit-instructions","trial_index":22,"time_elapsed":247100,"internal_node_id":"0.0-1.0","task_version":"battery-v0.2"},{"rune":"C","rune_set":"bacs1","hex":"#3366ff99","correct":32,"choice":32,"rt":616.2650000187568,"accuracy":1,"outcome":"+1","keys":[2117.1350000076927],"total_keys":1,"block":1,"trial":1,"stimulus":2,"robot":1,"valence":"win","action":"go","sham":1,"trial_type":"pit-trial","trial_index":23,"time_elapsed":250423,"internal_node_id":"0.0-2.0","task_version":"battery-v0.2"},{"rune":"A","rune_set":"bacs1","hex":"#3366ff99","correct":-1,"choice":32,"rt":517.7599999587983,"accuracy":0,"outcome":"+1","keys":[2017.9149999748915],"total_keys":1,"block":1,"trial":2,"stimulus":3,"robot":2,"valence":"win","action":"no-go","sham":0,"trial_type":"pit-trial","trial_index":24,"time_elapsed":253643,"internal_node_id":"0.0-3.0","task_version":"battery-v0.2"},{"rune":"L","rune_set":"bacs1","hex":"#f73b6a7A","correct":-1,"choice":32,"rt":734.2650000355206,"accuracy":0,"outcome":"-10","keys":[2234.779999998864],"total_keys":1,"block":1,"trial":3,"stimulus":1,"robot":4,"valence":"lose","action":"no-go","sham":0,"trial_type":"pit-trial","trial_index":25,"time_elapsed":257080,"internal_node_id":"0.0-4.0","task_version":"battery-v0.2"},{"rune":"Q","rune_set":"bacs1","hex":"#f73b6a7A","correct":-1,"choice":32,"rt":709.2549999943003,"accuracy":0,"outcome":"-10","keys":[2209.600000001956],"total_keys":1,"block":1,"trial":4,"stimulus":0,"robot":4,"valence":"lose","action":"no-go","sham":0,"trial_type":"pit-trial","trial_index":26,"time_elapsed":260493,"internal_node_id":"0.0-5.0","task_version":"battery-v0.2"},{"rune":"A","rune_set":"bacs1","hex":"#3366ff99","correct":-1,"choice":32,"rt":657.1799999801442,"accuracy":0,"outcome":"+1","keys":[2157.640000048559],"total_keys":1,"block":1,"trial":5,"stimulus":3,"robot":2,"valence":"win","action":"no-go","sham":0,"trial_type":"pit-trial","trial_index":27,"time_elapsed":263854,"internal_node_id":"0.0-6.0","task_version":"battery-v0.2"},{"rune":"L","rune_set":"bacs1","hex":"#f73b6a7A","correct":-1,"choice":-1,"rt":-1,"accuracy":1,"outcome":"-1","keys":[],"total_keys":0,"block":1,"trial":6,"stimulus":1,"robot":4,"valence":"lose","action":"no-go","sham":0,"trial_type":"pit-trial","trial_index":28,"time_elapsed":267858,"internal_node_id":"0.0-7.0","task_version":"battery-v0.2"},{"rune":"C","rune_set":"bacs1","hex":"#3366ff99","correct":32,"choice":-1,"rt":-1,"accuracy":0,"outcome":"+1","keys":[],"total_keys":0,"block":1,"trial":7,"stimulus":2,"robot":1,"valence":"win","action":"go","sham":0,"trial_type":"pit-trial","trial_index":29,"time_elapsed":271861,"internal_node_id":"0.0-8.0","task_version":"battery-v0.2"},{"rune":"Q","rune_set":"bacs1","hex":"#f73b6a7A","correct":-1,"choice":-1,"rt":-1,"accuracy":1,"outcome":"-1","keys":[],"total_keys":0,"block":1,"trial":8,"stimulus":0,"robot":4,"valence":"lose","action":"no-go","sham":0,"trial_type":"pit-trial","trial_index":30,"time_elapsed":275864,"internal_node_id":"0.0-9.0","task_version":"battery-v0.2"},{"rune":"L","rune_set":"bacs1","hex":"#f73b6a7A","correct":-1,"choice":-1,"rt":-1,"accuracy":1,"outcome":"-1","keys":[],"total_keys":0,"block":1,"trial":9,"stimulus":1,"robot":4,"valence":"lose","action":"no-go","sham":0,"trial_type":"pit-trial","trial_index":31,"time_elapsed":279867,"internal_node_id":"0.0-10.0","task_version":"battery-v0.2"},{"rune":"C","rune_set":"bacs1","hex":"#3366ff99","correct":32,"choice":32,"rt":585.6600000406615,"accuracy":1,"outcome":"+1","keys":[2086.330000020098],"total_keys":1,"block":1,"trial":10,"stimulus":2,"robot":1,"valence":"win","action":"go","sham":1,"trial_type":"pit-trial","trial_index":32,"time_elapsed":283156,"internal_node_id":"0.0-11.0","task_version":"battery-v0.2"},{"rune":"Q","rune_set":"bacs1","hex":"#f73b6a7A","correct":-1,"choice":-1,"rt":-1,"accuracy":1,"outcome":"-1","keys":[],"total_keys":0,"block":1,"trial":11,"stimulus":0,"robot":4,"valence":"lose","action":"no-go","sham":0,"trial_type":"pit-trial","trial_index":33,"time_elapsed":287160,"internal_node_id":"0.0-12.0","task_version":"battery-v0.2"},{"rune":"A","rune_set":"bacs1","hex":"#3366ff99","correct":-1,"choice":32,"rt":547.3950000014156,"accuracy":0,"outcome":"+10","keys":[2048.6199999577366],"total_keys":1,"block":1,"trial":12,"stimulus":3,"robot":2,"valence":"win","action":"no-go","sham":1,"trial_type":"pit-trial","trial_index":34,"time_elapsed":290412,"internal_node_id":"0.0-13.0","task_version":"battery-v0.2"},{"rune":"C","rune_set":"bacs1","hex":"#3366ff99","correct":32,"choice":-1,"rt":-1,"accuracy":0,"outcome":"+1","keys":[],"total_keys":0,"block":1,"trial":13,"stimulus":2,"robot":1,"valence":"win","action":"go","sham":0,"trial_type":"pit-trial","trial_index":35,"time_elapsed":294415,"internal_node_id":"0.0-14.0","task_version":"battery-v0.2"},{"rune":"L","rune_set":"bacs1","hex":"#f73b6a7A","correct":-1,"choice":-1,"rt":-1,"accuracy":1,"outcome":"-10","keys":[],"total_keys":0,"block":1,"trial":14,"stimulus":1,"robot":4,"valence":"lose","action":"no-go","sham":1,"trial_type":"pit-trial","trial_index":36,"time_elapsed":298421,"internal_node_id":"0.0-15.0","task_version":"battery-v0.2"},{"rune":"A","rune_set":"bacs1","hex":"#3366ff99","correct":-1,"choice":-1,"rt":-1,"accuracy":1,"outcome":"+10","keys":[],"total_keys":0,"block":1,"trial":15,"stimulus":3,"robot":2,"valence":"win","action":"no-go","sham":0,"trial_type":"pit-trial","trial_index":37,"time_elapsed":302426,"internal_node_id":"0.0-16.0","task_version":"battery-v0.2"},{"rune":"Q","rune_set":"bacs1","hex":"#f73b6a7A","correct":-1,"choice":-1,"rt":-1,"accuracy":1,"outcome":"-1","keys":[],"total_keys":0,"block":1,"trial":16,"stimulus":0,"robot":4,"valence":"lose","action":"no-go","sham":0,"trial_type":"pit-trial","trial_index":38,"time_elapsed":306429,"internal_node_id":"0.0-17.0","task_version":"battery-v0.2"},{"rune":"Q","rune_set":"bacs1","hex":"#f73b6a7A","correct":-1,"choice":-1,"rt":-1,"accuracy":1,"outcome":"-1","keys":[],"total_keys":0,"block":1,"trial":17,"stimulus":0,"robot":4,"valence":"lose","action":"no-go","sham":0,"trial_type":"pit-trial","trial_index":39,"time_elapsed":310433,"internal_node_id":"0.0-18.0","task_version":"battery-v0.2"},{"rune":"L","rune_set":"bacs1","hex":"#f73b6a7A","correct":-1,"choice":-1,"rt":-1,"accuracy":1,"outcome":"-1","keys":[],"total_keys":0,"block":1,"trial":18,"stimulus":1,"robot":4,"valence":"lose","action":"no-go","sham":0,"trial_type":"pit-trial","trial_index":40,"time_elapsed":314438,"internal_node_id":"0.0-19.0","task_version":"battery-v0.2"},{"rune":"A","rune_set":"bacs1","hex":"#3366ff99","correct":-1,"choice":32,"rt":515.735000022687,"accuracy":0,"outcome":"+10","keys":[2015.9350000321865],"total_keys":1,"block":1,"trial":19,"stimulus":3,"robot":2,"valence":"win","action":"no-go","sham":1,"trial_type":"pit-trial","trial_index":41,"time_elapsed":317657,"internal_node_id":"0.0-20.0","task_version":"battery-v0.2"},{"rune":"C","rune_set":"bacs1","hex":"#3366ff99","correct":32,"choice":-1,"rt":-1,"accuracy":0,"outcome":"+10","keys":[],"total_keys":0,"block":1,"trial":20,"stimulus":2,"robot":1,"valence":"win","action":"go","sham":1,"trial_type":"pit-trial","trial_index":42,"time_elapsed":321661,"internal_node_id":"0.0-21.0","task_version":"battery-v0.2"},{"rune":"C","rune_set":"bacs1","hex":"#3366ff99","correct":32,"choice":-1,"rt":-1,"accuracy":0,"outcome":"+1","keys":[],"total_keys":0,"block":1,"trial":21,"stimulus":2,"robot":1,"valence":"win","action":"go","sham":0,"trial_type":"pit-trial","trial_index":43,"time_elapsed":325664,"internal_node_id":"0.0-22.0","task_version":"battery-v0.2"},{"rune":"L","rune_set":"bacs1","hex":"#f73b6a7A","correct":-1,"choice":-1,"rt":-1,"accuracy":1,"outcome":"-10","keys":[],"total_keys":0,"block":1,"trial":22,"stimulus":1,"robot":4,"valence":"lose","action":"no-go","sham":1,"trial_type":"pit-trial","trial_index":44,"time_elapsed":329668,"internal_node_id":"0.0-23.0","task_version":"battery-v0.2"},{"rune":"A","rune_set":"bacs1","hex":"#3366ff99","correct":-1,"choice":32,"rt":393.8099999795668,"accuracy":0,"outcome":"+1","keys":[1894.254999991972],"total_keys":1,"block":1,"trial":23,"stimulus":3,"robot":2,"valence":"win","action":"no-go","sham":0,"trial_type":"pit-trial","trial_index":45,"time_elapsed":332766,"internal_node_id":"0.0-24.0","task_version":"battery-v0.2"},{"rune":"Q","rune_set":"bacs1","hex":"#f73b6a7A","correct":-1,"choice":-1,"rt":-1,"accuracy":1,"outcome":"-10","keys":[],"total_keys":0,"block":1,"trial":24,"stimulus":0,"robot":4,"valence":"lose","action":"no-go","sham":1,"trial_type":"pit-trial","trial_index":46,"time_elapsed":336770,"internal_node_id":"0.0-25.0","task_version":"battery-v0.2"},{"rune":"L","rune_set":"bacs1","hex":"#f73b6a7A","correct":-1,"choice":32,"rt":565.7000000355765,"accuracy":0,"outcome":"-10","keys":[2066.3349999813363],"total_keys":1,"block":1,"trial":25,"stimulus":1,"robot":4,"valence":"lose","action":"no-go","sham":0,"trial_type":"pit-trial","trial_index":47,"time_elapsed":340038,"internal_node_id":"0.0-26.0","task_version":"battery-v0.2"},{"rune":"A","rune_set":"bacs1","hex":"#3366ff99","correct":-1,"choice":-1,"rt":-1,"accuracy":1,"outcome":"+1","keys":[],"total_keys":0,"block":1,"trial":26,"stimulus":3,"robot":2,"valence":"win","action":"no-go","sham":1,"trial_type":"pit-trial","trial_index":48,"time_elapsed":344043,"internal_node_id":"0.0-27.0","task_version":"battery-v0.2"},{"rune":"Q","rune_set":"bacs1","hex":"#f73b6a7A","correct":-1,"choice":-1,"rt":-1,"accuracy":1,"outcome":"-1","keys":[101.42999998060986],"total_keys":1,"block":1,"trial":27,"stimulus":0,"robot":4,"valence":"lose","action":"no-go","sham":0,"trial_type":"pit-trial","trial_index":49,"time_elapsed":348046,"internal_node_id":"0.0-28.0","task_version":"battery-v0.2"},{"rune":"C","rune_set":"bacs1","hex":"#3366ff99","correct":32,"choice":-1,"rt":-1,"accuracy":0,"outcome":"+1","keys":[],"total_keys":0,"block":1,"trial":28,"stimulus":2,"robot":1,"valence":"win","action":"go","sham":0,"trial_type":"pit-trial","trial_index":50,"time_elapsed":352052,"internal_node_id":"0.0-29.0","task_version":"battery-v0.2"},{"rune":"A","rune_set":"bacs1","hex":"#3366ff99","correct":-1,"choice":32,"rt":312.8449999494478,"accuracy":0,"outcome":"+10","keys":[1813.1249999860302],"total_keys":1,"block":1,"trial":29,"stimulus":3,"robot":2,"valence":"win","action":"no-go","sham":1,"trial_type":"pit-trial","trial_index":51,"time_elapsed":355067,"internal_node_id":"0.0-30.0","task_version":"battery-v0.2"},{"rune":"L","rune_set":"bacs1","hex":"#f73b6a7A","correct":-1,"choice":32,"rt":471.08500002650544,"accuracy":0,"outcome":"-1","keys":[1971.3700000429526],"total_keys":1,"block":1,"trial":30,"stimulus":1,"robot":4,"valence":"lose","action":"no-go","sham":1,"trial_type":"pit-trial","trial_index":52,"time_elapsed":358242,"internal_node_id":"0.0-31.0","task_version":"battery-v0.2"},{"rune":"Q","rune_set":"bacs1","hex":"#f73b6a7A","correct":-1,"choice":-1,"rt":-1,"accuracy":1,"outcome":"-1","keys":[],"total_keys":0,"block":1,"trial":31,"stimulus":0,"robot":4,"valence":"lose","action":"no-go","sham":0,"trial_type":"pit-trial","trial_index":53,"time_elapsed":362247,"internal_node_id":"0.0-32.0","task_version":"battery-v0.2"},{"rune":"C","rune_set":"bacs1","hex":"#3366ff99","correct":32,"choice":-1,"rt":-1,"accuracy":0,"outcome":"+1","keys":[],"total_keys":0,"block":1,"trial":32,"stimulus":2,"robot":1,"valence":"win","action":"go","sham":0,"trial_type":"pit-trial","trial_index":54,"time_elapsed":366252,"internal_node_id":"0.0-33.0","task_version":"battery-v0.2"},{"rune":"A","rune_set":"bacs1","hex":"#3366ff99","correct":-1,"choice":32,"rt":350.2299999818206,"accuracy":0,"outcome":"+1","keys":[1851.250000006985],"total_keys":1,"block":1,"trial":33,"stimulus":3,"robot":2,"valence":"win","action":"no-go","sham":0,"trial_type":"pit-trial","trial_index":55,"time_elapsed":369306,"internal_node_id":"0.0-34.0","task_version":"battery-v0.2"},{"rune":"F","rune_set":"bacs1","hex":"#f73b6a7A","correct":32,"choice":-1,"rt":-1,"accuracy":0,"outcome":"-10","keys":[],"total_keys":0,"block":1,"trial":34,"stimulus":4,"robot":3,"valence":"lose","action":"go","sham":0,"trial_type":"pit-trial","trial_index":56,"time_elapsed":373311,"internal_node_id":"0.0-35.0","task_version":"battery-v0.2"},{"rune":"Q","rune_set":"bacs1","hex":"#f73b6a7A","correct":-1,"choice":-1,"rt":-1,"accuracy":1,"outcome":"-1","keys":[],"total_keys":0,"block":1,"trial":35,"stimulus":0,"robot":4,"valence":"lose","action":"no-go","sham":0,"trial_type":"pit-trial","trial_index":57,"time_elapsed":377315,"internal_node_id":"0.0-36.0","task_version":"battery-v0.2"},{"rune":"C","rune_set":"bacs1","hex":"#3366ff99","correct":32,"choice":32,"rt":635.9449999872595,"accuracy":1,"outcome":"+10","keys":[2136.965000012424],"total_keys":1,"block":1,"trial":36,"stimulus":2,"robot":1,"valence":"win","action":"go","sham":0,"trial_type":"pit-trial","trial_index":58,"time_elapsed":380664,"internal_node_id":"0.0-37.0","task_version":"battery-v0.2"},{"rune":"C","rune_set":"bacs1","hex":"#3366ff99","correct":32,"choice":32,"rt":481.0449999640696,"accuracy":1,"outcome":"+10","keys":[1981.5049999742769],"total_keys":1,"block":1,"trial":37,"stimulus":2,"robot":1,"valence":"win","action":"go","sham":0,"trial_type":"pit-trial","trial_index":59,"time_elapsed":383849,"internal_node_id":"0.0-38.0","task_version":"battery-v0.2"},{"rune":"A","rune_set":"bacs1","hex":"#3366ff99","correct":-1,"choice":32,"rt":421.90000001573935,"accuracy":0,"outcome":"+1","keys":[1922.359999967739],"total_keys":1,"block":1,"trial":38,"stimulus":3,"robot":2,"valence":"win","action":"no-go","sham":0,"trial_type":"pit-trial","trial_index":60,"time_elapsed":386974,"internal_node_id":"0.0-39.0","task_version":"battery-v0.2"},{"rune":"F","rune_set":"bacs1","hex":"#f73b6a7A","correct":32,"choice":-1,"rt":-1,"accuracy":0,"outcome":"-10","keys":[],"total_keys":0,"block":1,"trial":39,"stimulus":4,"robot":3,"valence":"lose","action":"go","sham":0,"trial_type":"pit-trial","trial_index":61,"time_elapsed":390978,"internal_node_id":"0.0-40.0","task_version":"battery-v0.2"},{"rune":"Q","rune_set":"bacs1","hex":"#f73b6a7A","correct":-1,"choice":32,"rt":478.3799999859184,"accuracy":0,"outcome":"-10","keys":[1979.1100000147708],"total_keys":1,"block":1,"trial":40,"stimulus":0,"robot":4,"valence":"lose","action":"no-go","sham":0,"trial_type":"pit-trial","trial_index":62,"time_elapsed":394160,"internal_node_id":"0.0-41.0","task_version":"battery-v0.2"},{"rune":"Q","rune_set":"bacs1","hex":"#f73b6a7A","correct":-1,"choice":32,"rt":407.5249999877997,"accuracy":0,"outcome":"-10","keys":[1907.9250000067987],"total_keys":1,"block":1,"trial":41,"stimulus":0,"robot":4,"valence":"lose","action":"no-go","sham":0,"trial_type":"pit-trial","trial_index":63,"time_elapsed":397271,"internal_node_id":"0.0-42.0","task_version":"battery-v0.2"},{"rune":"E","rune_set":"bacs1","hex":"#3366ff99","correct":32,"choice":32,"rt":196.4299999526702,"accuracy":1,"outcome":"+10","keys":[1696.654999977909],"total_keys":1,"block":1,"trial":42,"stimulus":6,"robot":1,"valence":"win","action":"go","sham":0,"trial_type":"pit-trial","trial_index":64,"time_elapsed":400170,"internal_node_id":"0.0-43.0","task_version":"battery-v0.2"},{"rune":"T","rune_set":"bacs1","hex":"#3366ff99","correct":-1,"choice":32,"rt":478.20000001229346,"accuracy":0,"outcome":"+1","keys":[1978.7150000338443],"total_keys":1,"block":1,"trial":43,"stimulus":5,"robot":2,"valence":"win","action":"no-go","sham":0,"trial_type":"pit-trial","trial_index":65,"time_elapsed":403351,"internal_node_id":"0.0-44.0","task_version":"battery-v0.2"},{"rune":"F","rune_set":"bacs1","hex":"#f73b6a7A","correct":32,"choice":-1,"rt":-1,"accuracy":0,"outcome":"-10","keys":[],"total_keys":0,"block":1,"trial":44,"stimulus":4,"robot":3,"valence":"lose","action":"go","sham":0,"trial_type":"pit-trial","trial_index":66,"time_elapsed":407354,"internal_node_id":"0.0-45.0","task_version":"battery-v0.2"},{"rune":"E","rune_set":"bacs1","hex":"#3366ff99","correct":32,"choice":32,"rt":634.8600000492297,"accuracy":1,"outcome":"+10","keys":[2135.8800000161864],"total_keys":1,"block":1,"trial":45,"stimulus":6,"robot":1,"valence":"win","action":"go","sham":0,"trial_type":"pit-trial","trial_index":67,"time_elapsed":410703,"internal_node_id":"0.0-46.0","task_version":"battery-v0.2"},{"rune":"F","rune_set":"bacs1","hex":"#f73b6a7A","correct":32,"choice":32,"rt":689.8050000309013,"accuracy":1,"outcome":"-1","keys":[2190.4250000370666],"total_keys":1,"block":1,"trial":46,"stimulus":4,"robot":3,"valence":"lose","action":"go","sham":0,"trial_type":"pit-trial","trial_index":68,"time_elapsed":414096,"internal_node_id":"0.0-47.0","task_version":"battery-v0.2"},{"rune":"Q","rune_set":"bacs1","hex":"#f73b6a7A","correct":-1,"choice":-1,"rt":-1,"accuracy":1,"outcome":"-1","keys":[],"total_keys":0,"block":1,"trial":47,"stimulus":0,"robot":4,"valence":"lose","action":"no-go","sham":0,"trial_type":"pit-trial","trial_index":69,"time_elapsed":418099,"internal_node_id":"0.0-48.0","task_version":"battery-v0.2"},{"rune":"T","rune_set":"bacs1","hex":"#3366ff99","correct":-1,"choice":32,"rt":522.0899999840185,"accuracy":0,"outcome":"+1","keys":[2024.0149999735877],"total_keys":1,"block":1,"trial":48,"stimulus":5,"robot":2,"valence":"win","action":"no-go","sham":0,"trial_type":"pit-trial","trial_index":70,"time_elapsed":421326,"internal_node_id":"0.0-49.0","task_version":"battery-v0.2"},{"rune":"V","rune_set":"bacs1","hex":"#f73b6a7A","correct":-1,"choice":-1,"rt":-1,"accuracy":1,"outcome":"-1","keys":[],"total_keys":0,"block":1,"trial":49,"stimulus":7,"robot":4,"valence":"lose","action":"no-go","sham":0,"trial_type":"pit-trial","trial_index":71,"time_elapsed":425330,"internal_node_id":"0.0-50.0","task_version":"battery-v0.2"},{"rune":"T","rune_set":"bacs1","hex":"#3366ff99","correct":-1,"choice":32,"rt":831.0349999810569,"accuracy":0,"outcome":"+10","keys":[2332.384999957867],"total_keys":1,"block":1,"trial":50,"stimulus":5,"robot":2,"valence":"win","action":"no-go","sham":1,"trial_type":"pit-trial","trial_index":72,"time_elapsed":428865,"internal_node_id":"0.0-51.0","task_version":"battery-v0.2"},{"rune":"E","rune_set":"bacs1","hex":"#3366ff99","correct":32,"choice":32,"rt":768.3800000231713,"accuracy":1,"outcome":"+10","keys":[2269.114999973681],"total_keys":1,"block":1,"trial":51,"stimulus":6,"robot":1,"valence":"win","action":"go","sham":0,"trial_type":"pit-trial","trial_index":73,"time_elapsed":432336,"internal_node_id":"0.0-52.0","task_version":"battery-v0.2"},{"rune":"F","rune_set":"bacs1","hex":"#f73b6a7A","correct":32,"choice":32,"rt":478.1850000144914,"accuracy":1,"outcome":"-1","keys":[1978.9650000166148],"total_keys":1,"block":1,"trial":52,"stimulus":4,"robot":3,"valence":"lose","action":"go","sham":0,"trial_type":"pit-trial","trial_index":74,"time_elapsed":435517,"internal_node_id":"0.0-53.0","task_version":"battery-v0.2"},{"rune":"V","rune_set":"bacs1","hex":"#f73b6a7A","correct":-1,"choice":32,"rt":1265.9899999853224,"accuracy":0,"outcome":"-10","keys":[2766.895000007935],"total_keys":1,"block":1,"trial":53,"stimulus":7,"robot":4,"valence":"lose","action":"no-go","sham":0,"trial_type":"pit-trial","trial_index":75,"time_elapsed":439486,"internal_node_id":"0.0-54.0","task_version":"battery-v0.2"},{"rune":"E","rune_set":"bacs1","hex":"#3366ff99","correct":32,"choice":32,"rt":899.3550000013784,"accuracy":1,"outcome":"+1","keys":[2401.395000051707],"total_keys":1,"block":1,"trial":54,"stimulus":6,"robot":1,"valence":"win","action":"go","sham":1,"trial_type":"pit-trial","trial_index":76,"time_elapsed":443091,"internal_node_id":"0.0-55.0","task_version":"battery-v0.2"},{"rune":"T","rune_set":"bacs1","hex":"#3366ff99","correct":-1,"choice":-1,"rt":-1,"accuracy":1,"outcome":"+10","keys":[2819.245000020601],"total_keys":1,"block":1,"trial":55,"stimulus":5,"robot":2,"valence":"win","action":"no-go","sham":0,"trial_type":"pit-trial","trial_index":77,"time_elapsed":447097,"internal_node_id":"0.0-56.0","task_version":"battery-v0.2"},{"rune":"F","rune_set":"bacs1","hex":"#f73b6a7A","correct":32,"choice":32,"rt":881.7949999938719,"accuracy":1,"outcome":"-1","keys":[2382.485000009183],"total_keys":1,"block":1,"trial":56,"stimulus":4,"robot":3,"valence":"lose","action":"go","sham":0,"trial_type":"pit-trial","trial_index":78,"time_elapsed":450681,"internal_node_id":"0.0-57.0","task_version":"battery-v0.2"},{"rune":"V","rune_set":"bacs1","hex":"#f73b6a7A","correct":-1,"choice":-1,"rt":-1,"accuracy":1,"outcome":"-10","keys":[2972.5500000058673],"total_keys":1,"block":1,"trial":57,"stimulus":7,"robot":4,"valence":"lose","action":"no-go","sham":1,"trial_type":"pit-trial","trial_index":79,"time_elapsed":454685,"internal_node_id":"0.0-58.0","task_version":"battery-v0.2"},{"rune":"E","rune_set":"bacs1","hex":"#3366ff99","correct":32,"choice":32,"rt":727.0699999644421,"accuracy":1,"outcome":"+1","keys":[2228.449999995064],"total_keys":1,"block":1,"trial":58,"stimulus":6,"robot":1,"valence":"win","action":"go","sham":1,"trial_type":"pit-trial","trial_index":80,"time_elapsed":458115,"internal_node_id":"0.0-59.0","task_version":"battery-v0.2"},{"rune":"T","rune_set":"bacs1","hex":"#3366ff99","correct":-1,"choice":32,"rt":403.4000000101514,"accuracy":0,"outcome":"+10","keys":[1904.4849999481812],"total_keys":1,"block":1,"trial":59,"stimulus":5,"robot":2,"valence":"win","action":"no-go","sham":1,"trial_type":"pit-trial","trial_index":81,"time_elapsed":461223,"internal_node_id":"0.0-60.0","task_version":"battery-v0.2"},{"rune":"F","rune_set":"bacs1","hex":"#f73b6a7A","correct":32,"choice":32,"rt":747.5700000068173,"accuracy":1,"outcome":"-1","keys":[2247.7700000163168],"total_keys":1,"block":1,"trial":60,"stimulus":4,"robot":3,"valence":"lose","action":"go","sham":0,"trial_type":"pit-trial","trial_index":82,"time_elapsed":464674,"internal_node_id":"0.0-61.0","task_version":"battery-v0.2"},{"rune":"E","rune_set":"bacs1","hex":"#3366ff99","correct":32,"choice":-1,"rt":-1,"accuracy":0,"outcome":"+1","keys":[3179.795000003651],"total_keys":1,"block":1,"trial":61,"stimulus":6,"robot":1,"valence":"win","action":"go","sham":0,"trial_type":"pit-trial","trial_index":83,"time_elapsed":468677,"internal_node_id":"0.0-62.0","task_version":"battery-v0.2"},{"rune":"V","rune_set":"bacs1","hex":"#f73b6a7A","correct":-1,"choice":-1,"rt":-1,"accuracy":1,"outcome":"-10","keys":[],"total_keys":0,"block":1,"trial":62,"stimulus":7,"robot":4,"valence":"lose","action":"no-go","sham":1,"trial_type":"pit-trial","trial_index":84,"time_elapsed":472681,"internal_node_id":"0.0-63.0","task_version":"battery-v0.2"},{"rune":"T","rune_set":"bacs1","hex":"#3366ff99","correct":-1,"choice":32,"rt":460.12500004144385,"accuracy":0,"outcome":"+1","keys":[319.6349999634549,1960.2149999700487],"total_keys":2,"block":1,"trial":63,"stimulus":5,"robot":2,"valence":"win","action":"no-go","sham":0,"trial_type":"pit-trial","trial_index":85,"time_elapsed":475845,"internal_node_id":"0.0-64.0","task_version":"battery-v0.2"},{"rune":"F","rune_set":"bacs1","hex":"#f73b6a7A","correct":32,"choice":32,"rt":1073.7450000015087,"accuracy":1,"outcome":"-1","keys":[2574.61000001058],"total_keys":1,"block":1,"trial":64,"stimulus":4,"robot":3,"valence":"lose","action":"go","sham":0,"trial_type":"pit-trial","trial_index":86,"time_elapsed":479623,"internal_node_id":"0.0-65.0","task_version":"battery-v0.2"},{"rune":"T","rune_set":"bacs1","hex":"#3366ff99","correct":-1,"choice":32,"rt":295.3049999778159,"accuracy":0,"outcome":"+10","keys":[1795.5950000323355],"total_keys":1,"block":1,"trial":65,"stimulus":5,"robot":2,"valence":"win","action":"no-go","sham":1,"trial_type":"pit-trial","trial_index":87,"time_elapsed":482621,"internal_node_id":"0.0-66.0","task_version":"battery-v0.2"},{"rune":"E","rune_set":"bacs1","hex":"#3366ff99","correct":32,"choice":32,"rt":343.8849999802187,"accuracy":1,"outcome":"+10","keys":[1844.1600000369363],"total_keys":1,"block":1,"trial":66,"stimulus":6,"robot":1,"valence":"win","action":"go","sham":0,"trial_type":"pit-trial","trial_index":88,"time_elapsed":485669,"internal_node_id":"0.0-67.0","task_version":"battery-v0.2"},{"rune":"F","rune_set":"bacs1","hex":"#f73b6a7A","correct":32,"choice":32,"rt":251.41999998595566,"accuracy":1,"outcome":"-1","keys":[1751.7250000382774],"total_keys":1,"block":1,"trial":67,"stimulus":4,"robot":3,"valence":"lose","action":"go","sham":0,"trial_type":"pit-trial","trial_index":89,"time_elapsed":488625,"internal_node_id":"0.0-68.0","task_version":"battery-v0.2"},{"rune":"V","rune_set":"bacs1","hex":"#f73b6a7A","correct":-1,"choice":32,"rt":407.0350000401959,"accuracy":0,"outcome":"-10","keys":[1907.2199999936856],"total_keys":1,"block":1,"trial":68,"stimulus":7,"robot":4,"valence":"lose","action":"no-go","sham":0,"trial_type":"pit-trial","trial_index":90,"time_elapsed":491734,"internal_node_id":"0.0-69.0","task_version":"battery-v0.2"},{"rune":"T","rune_set":"bacs1","hex":"#3366ff99","correct":-1,"choice":32,"rt":390.59999998426065,"accuracy":0,"outcome":"+1","keys":[1890.6549999956042],"total_keys":1,"block":1,"trial":69,"stimulus":5,"robot":2,"valence":"win","action":"no-go","sham":0,"trial_type":"pit-trial","trial_index":91,"time_elapsed":494827,"internal_node_id":"0.0-70.0","task_version":"battery-v0.2"},{"rune":"V","rune_set":"bacs1","hex":"#f73b6a7A","correct":-1,"choice":-1,"rt":-1,"accuracy":1,"outcome":"-1","keys":[],"total_keys":0,"block":1,"trial":70,"stimulus":7,"robot":4,"valence":"lose","action":"no-go","sham":0,"trial_type":"pit-trial","trial_index":92,"time_elapsed":498832,"internal_node_id":"0.0-71.0","task_version":"battery-v0.2"},{"rune":"F","rune_set":"bacs1","hex":"#f73b6a7A","correct":32,"choice":32,"rt":776.7900000326335,"accuracy":1,"outcome":"-10","keys":[2277.7750000241213],"total_keys":1,"block":1,"trial":71,"stimulus":4,"robot":3,"valence":"lose","action":"go","sham":1,"trial_type":"pit-trial","trial_index":93,"time_elapsed":502312,"internal_node_id":"0.0-72.0","task_version":"battery-v0.2"},{"rune":"E","rune_set":"bacs1","hex":"#3366ff99","correct":32,"choice":32,"rt":417.6699999952689,"accuracy":1,"outcome":"+10","keys":[1917.974999989383],"total_keys":1,"block":1,"trial":72,"stimulus":6,"robot":1,"valence":"win","action":"go","sham":0,"trial_type":"pit-trial","trial_index":94,"time_elapsed":505433,"internal_node_id":"0.0-73.0","task_version":"battery-v0.2"},{"rune":"T","rune_set":"bacs1","hex":"#3366ff99","correct":-1,"choice":32,"rt":483.1300000078045,"accuracy":0,"outcome":"+1","keys":[1983.6950000026263],"total_keys":1,"block":1,"trial":73,"stimulus":5,"robot":2,"valence":"win","action":"no-go","sham":0,"trial_type":"pit-trial","trial_index":95,"time_elapsed":508620,"internal_node_id":"0.0-74.0","task_version":"battery-v0.2"},{"rune":"R","rune_set":"bacs1","hex":"#3366ff99","correct":32,"choice":32,"rt":530.7500000344589,"accuracy":1,"outcome":"+10","keys":[2032.34000003431],"total_keys":1,"block":1,"trial":74,"stimulus":8,"robot":1,"valence":"win","action":"go","sham":0,"trial_type":"pit-trial","trial_index":96,"time_elapsed":511855,"internal_node_id":"0.0-75.0","task_version":"battery-v0.2"},{"rune":"V","rune_set":"bacs1","hex":"#f73b6a7A","correct":-1,"choice":32,"rt":1012.7300000167452,"accuracy":0,"outcome":"-10","keys":[2513.555000012275],"total_keys":1,"block":1,"trial":75,"stimulus":7,"robot":4,"valence":"lose","action":"no-go","sham":0,"trial_type":"pit-trial","trial_index":97,"time_elapsed":515571,"internal_node_id":"0.0-76.0","task_version":"battery-v0.2"},{"rune":"J","rune_set":"bacs1","hex":"#f73b6a7A","correct":32,"choice":32,"rt":711.2750000087544,"accuracy":1,"outcome":"-1","keys":[2212.310000031721],"total_keys":1,"block":1,"trial":76,"stimulus":9,"robot":3,"valence":"lose","action":"go","sham":0,"trial_type":"pit-trial","trial_index":98,"time_elapsed":518985,"internal_node_id":"0.0-77.0","task_version":"battery-v0.2"},{"rune":"V","rune_set":"bacs1","hex":"#f73b6a7A","correct":-1,"choice":-1,"rt":-1,"accuracy":1,"outcome":"-1","keys":[],"total_keys":0,"block":1,"trial":77,"stimulus":7,"robot":4,"valence":"lose","action":"no-go","sham":0,"trial_type":"pit-trial","trial_index":99,"time_elapsed":522988,"internal_node_id":"0.0-78.0","task_version":"battery-v0.2"},{"rune":"R","rune_set":"bacs1","hex":"#3366ff99","correct":32,"choice":32,"rt":523.8850000314415,"accuracy":1,"outcome":"+10","keys":[2025.374999968335],"total_keys":1,"block":1,"trial":78,"stimulus":8,"robot":1,"valence":"win","action":"go","sham":0,"trial_type":"pit-trial","trial_index":100,"time_elapsed":526217,"internal_node_id":"0.0-79.0","task_version":"battery-v0.2"},{"rune":"J","rune_set":"bacs1","hex":"#f73b6a7A","correct":32,"choice":-1,"rt":-1,"accuracy":0,"outcome":"-10","keys":[],"total_keys":0,"block":1,"trial":79,"stimulus":9,"robot":3,"valence":"lose","action":"go","sham":0,"trial_type":"pit-trial","trial_index":101,"time_elapsed":530222,"internal_node_id":"0.0-80.0","task_version":"battery-v0.2"},{"rune":"T","rune_set":"bacs1","hex":"#3366ff99","correct":-1,"choice":-1,"rt":-1,"accuracy":1,"outcome":"+10","keys":[2884.0349999954924],"total_keys":1,"block":1,"trial":80,"stimulus":5,"robot":2,"valence":"win","action":"no-go","sham":0,"trial_type":"pit-trial","trial_index":102,"time_elapsed":534226,"internal_node_id":"0.0-81.0","task_version":"battery-v0.2"},{"rune":"V","rune_set":"bacs1","hex":"#f73b6a7A","correct":-1,"choice":-1,"rt":-1,"accuracy":1,"outcome":"-1","keys":[],"total_keys":0,"block":1,"trial":81,"stimulus":7,"robot":4,"valence":"lose","action":"no-go","sham":0,"trial_type":"pit-trial","trial_index":103,"time_elapsed":538229,"internal_node_id":"0.0-82.0","task_version":"battery-v0.2"},{"rune":"T","rune_set":"bacs1","hex":"#3366ff99","correct":-1,"choice":-1,"rt":-1,"accuracy":1,"outcome":"+1","keys":[],"total_keys":0,"block":1,"trial":82,"stimulus":5,"robot":2,"valence":"win","action":"no-go","sham":1,"trial_type":"pit-trial","trial_index":104,"time_elapsed":542232,"internal_node_id":"0.0-83.0","task_version":"battery-v0.2"},{"rune":"R","rune_set":"bacs1","hex":"#3366ff99","correct":32,"choice":32,"rt":399.96000000974163,"accuracy":1,"outcome":"+1","keys":[1901.335000002291],"total_keys":1,"block":1,"trial":83,"stimulus":8,"robot":1,"valence":"win","action":"go","sham":1,"trial_type":"pit-trial","trial_index":105,"time_elapsed":545335,"internal_node_id":"0.0-84.0","task_version":"battery-v0.2"},{"rune":"J","rune_set":"bacs1","hex":"#f73b6a7A","correct":32,"choice":-1,"rt":-1,"accuracy":0,"outcome":"-10","keys":[],"total_keys":0,"block":1,"trial":84,"stimulus":9,"robot":3,"valence":"lose","action":"go","sham":0,"trial_type":"pit-trial","trial_index":106,"time_elapsed":549339,"internal_node_id":"0.0-85.0","task_version":"battery-v0.2"},{"rune":"T","rune_set":"bacs1","hex":"#3366ff99","correct":-1,"choice":32,"rt":508.510000014212,"accuracy":0,"outcome":"+1","keys":[2008.6250000167638],"total_keys":1,"block":1,"trial":85,"stimulus":5,"robot":2,"valence":"win","action":"no-go","sham":0,"trial_type":"pit-trial","trial_index":107,"time_elapsed":552550,"internal_node_id":"0.0-86.0","task_version":"battery-v0.2"},{"rune":"J","rune_set":"bacs1","hex":"#f73b6a7A","correct":32,"choice":32,"rt":851.8000000040047,"accuracy":1,"outcome":"-1","keys":[2352.5799999479204],"total_keys":1,"block":1,"trial":86,"stimulus":9,"robot":3,"valence":"lose","action":"go","sham":0,"trial_type":"pit-trial","trial_index":108,"time_elapsed":556106,"internal_node_id":"0.0-87.0","task_version":"battery-v0.2"},{"rune":"V","rune_set":"bacs1","hex":"#f73b6a7A","correct":-1,"choice":-1,"rt":-1,"accuracy":1,"outcome":"-10","keys":[],"total_keys":0,"block":1,"trial":87,"stimulus":7,"robot":4,"valence":"lose","action":"no-go","sham":1,"trial_type":"pit-trial","trial_index":109,"time_elapsed":560111,"internal_node_id":"0.0-88.0","task_version":"battery-v0.2"},{"rune":"R","rune_set":"bacs1","hex":"#3366ff99","correct":32,"choice":32,"rt":388.9649999910034,"accuracy":1,"outcome":"+10","keys":[1889.3500000122003],"total_keys":1,"block":1,"trial":88,"stimulus":8,"robot":1,"valence":"win","action":"go","sham":0,"trial_type":"pit-trial","trial_index":110,"time_elapsed":563203,"internal_node_id":"0.0-89.0","task_version":"battery-v0.2"},{"rune":"J","rune_set":"bacs1","hex":"#f73b6a7A","correct":32,"choice":32,"rt":786.4999999874271,"accuracy":1,"outcome":"-1","keys":[2286.7149999947287],"total_keys":1,"block":1,"trial":89,"stimulus":9,"robot":3,"valence":"lose","action":"go","sham":0,"trial_type":"pit-trial","trial_index":111,"time_elapsed":566697,"internal_node_id":"0.0-90.0","task_version":"battery-v0.2"},{"rune":"B","rune_set":"bacs1","hex":"#3366ff99","correct":-1,"choice":32,"rt":672.3200000124052,"accuracy":0,"outcome":"+1","keys":[2173.4050000086427],"total_keys":1,"block":1,"trial":90,"stimulus":11,"robot":2,"valence":"win","action":"no-go","sham":0,"trial_type":"pit-trial","trial_index":112,"time_elapsed":570074,"internal_node_id":"0.0-91.0","task_version":"battery-v0.2"},{"rune":"R","rune_set":"bacs1","hex":"#3366ff99","correct":32,"choice":32,"rt":428.0600000056438,"accuracy":1,"outcome":"+10","keys":[1928.7149999872781],"total_keys":1,"block":1,"trial":91,"stimulus":8,"robot":1,"valence":"win","action":"go","sham":0,"trial_type":"pit-trial","trial_index":113,"time_elapsed":573206,"internal_node_id":"0.0-92.0","task_version":"battery-v0.2"},{"rune":"Z","rune_set":"bacs1","hex":"#f73b6a7A","correct":32,"choice":32,"rt":630.5600000196137,"accuracy":1,"outcome":"-1","keys":[2132.1450000396],"total_keys":1,"block":1,"trial":92,"stimulus":10,"robot":3,"valence":"lose","action":"go","sham":0,"trial_type":"pit-trial","trial_index":114,"time_elapsed":576540,"internal_node_id":"0.0-93.0","task_version":"battery-v0.2"},{"rune":"J","rune_set":"bacs1","hex":"#f73b6a7A","correct":32,"choice":32,"rt":559.7500000149012,"accuracy":1,"outcome":"-1","keys":[2060.5600000126287],"total_keys":1,"block":1,"trial":93,"stimulus":9,"robot":3,"valence":"lose","action":"go","sham":0,"trial_type":"pit-trial","trial_index":115,"time_elapsed":579804,"internal_node_id":"0.0-94.0","task_version":"battery-v0.2"},{"rune":"R","rune_set":"bacs1","hex":"#3366ff99","correct":32,"choice":32,"rt":369.1950000356883,"accuracy":1,"outcome":"+10","keys":[1870.154999953229],"total_keys":1,"block":1,"trial":94,"stimulus":8,"robot":1,"valence":"win","action":"go","sham":0,"trial_type":"pit-trial","trial_index":116,"time_elapsed":582877,"internal_node_id":"0.0-95.0","task_version":"battery-v0.2"},{"rune":"B","rune_set":"bacs1","hex":"#3366ff99","correct":-1,"choice":32,"rt":459.0300000272691,"accuracy":0,"outcome":"+1","keys":[1959.8300000070594],"total_keys":1,"block":1,"trial":95,"stimulus":11,"robot":2,"valence":"win","action":"no-go","sham":0,"trial_type":"pit-trial","trial_index":117,"time_elapsed":586040,"internal_node_id":"0.0-96.0","task_version":"battery-v0.2"},{"rune":"Z","rune_set":"bacs1","hex":"#f73b6a7A","correct":32,"choice":32,"rt":462.1500000357628,"accuracy":1,"outcome":"-1","keys":[1962.4550000298768],"total_keys":1,"block":1,"trial":96,"stimulus":10,"robot":3,"valence":"lose","action":"go","sham":0,"trial_type":"pit-trial","trial_index":118,"time_elapsed":589206,"internal_node_id":"0.0-97.0","task_version":"battery-v0.2"},{"rune":"B","rune_set":"bacs1","hex":"#3366ff99","correct":-1,"choice":32,"rt":380.2600000053644,"accuracy":0,"outcome":"+1","keys":[1881.0149999917485],"total_keys":1,"block":1,"trial":97,"stimulus":11,"robot":2,"valence":"win","action":"no-go","sham":0,"trial_type":"pit-trial","trial_index":119,"time_elapsed":592290,"internal_node_id":"0.0-98.0","task_version":"battery-v0.2"},{"rune":"Z","rune_set":"bacs1","hex":"#f73b6a7A","correct":32,"choice":32,"rt":499.3900000117719,"accuracy":1,"outcome":"-1","keys":[1999.7250000014901],"total_keys":1,"block":1,"trial":98,"stimulus":10,"robot":3,"valence":"lose","action":"go","sham":0,"trial_type":"pit-trial","trial_index":120,"time_elapsed":595492,"internal_node_id":"0.0-99.0","task_version":"battery-v0.2"},{"rune":"J","rune_set":"bacs1","hex":"#f73b6a7A","correct":32,"choice":32,"rt":625.0649999710731,"accuracy":1,"outcome":"-1","keys":[2125.579999992624],"total_keys":1,"block":1,"trial":99,"stimulus":9,"robot":3,"valence":"lose","action":"go","sham":0,"trial_type":"pit-trial","trial_index":121,"time_elapsed":598820,"internal_node_id":"0.0-100.0","task_version":"battery-v0.2"},{"rune":"R","rune_set":"bacs1","hex":"#3366ff99","correct":32,"choice":32,"rt":398.30000000074506,"accuracy":1,"outcome":"+10","keys":[1898.3850000076927],"total_keys":1,"block":1,"trial":100,"stimulus":8,"robot":1,"valence":"win","action":"go","sham":0,"trial_type":"pit-trial","trial_index":122,"time_elapsed":601921,"internal_node_id":"0.0-101.0","task_version":"battery-v0.2"},{"rune":"J","rune_set":"bacs1","hex":"#f73b6a7A","correct":32,"choice":32,"rt":567.090000025928,"accuracy":1,"outcome":"-1","keys":[2067.734999989625],"total_keys":1,"block":1,"trial":101,"stimulus":9,"robot":3,"valence":"lose","action":"go","sham":0,"trial_type":"pit-trial","trial_index":123,"time_elapsed":605192,"internal_node_id":"0.0-102.0","task_version":"battery-v0.2"},{"rune":"R","rune_set":"bacs1","hex":"#3366ff99","correct":32,"choice":32,"rt":506.50499999755993,"accuracy":1,"outcome":"+1","keys":[2007.9900000127964],"total_keys":1,"block":1,"trial":102,"stimulus":8,"robot":1,"valence":"win","action":"go","sham":1,"trial_type":"pit-trial","trial_index":124,"time_elapsed":608404,"internal_node_id":"0.0-103.0","task_version":"battery-v0.2"},{"rune":"Z","rune_set":"bacs1","hex":"#f73b6a7A","correct":32,"choice":32,"rt":566.4899999974295,"accuracy":1,"outcome":"-1","keys":[2067.4800000269897],"total_keys":1,"block":1,"trial":103,"stimulus":10,"robot":3,"valence":"lose","action":"go","sham":0,"trial_type":"pit-trial","trial_index":125,"time_elapsed":611674,"internal_node_id":"0.0-104.0","task_version":"battery-v0.2"},{"rune":"B","rune_set":"bacs1","hex":"#3366ff99","correct":-1,"choice":-1,"rt":-1,"accuracy":1,"outcome":"+10","keys":[],"total_keys":0,"block":1,"trial":104,"stimulus":11,"robot":2,"valence":"win","action":"no-go","sham":0,"trial_type":"pit-trial","trial_index":126,"time_elapsed":615678,"internal_node_id":"0.0-105.0","task_version":"battery-v0.2"},{"rune":"Z","rune_set":"bacs1","hex":"#f73b6a7A","correct":32,"choice":32,"rt":508.9000000152737,"accuracy":1,"outcome":"-10","keys":[2009.8300000536256],"total_keys":1,"block":1,"trial":105,"stimulus":10,"robot":3,"valence":"lose","action":"go","sham":1,"trial_type":"pit-trial","trial_index":127,"time_elapsed":618892,"internal_node_id":"0.0-106.0","task_version":"battery-v0.2"},{"rune":"R","rune_set":"bacs1","hex":"#3366ff99","correct":32,"choice":32,"rt":344.8199999984354,"accuracy":1,"outcome":"+10","keys":[1845.5250000115484],"total_keys":1,"block":1,"trial":106,"stimulus":8,"robot":1,"valence":"win","action":"go","sham":0,"trial_type":"pit-trial","trial_index":128,"time_elapsed":621941,"internal_node_id":"0.0-107.0","task_version":"battery-v0.2"},{"rune":"B","rune_set":"bacs1","hex":"#3366ff99","correct":-1,"choice":32,"rt":448.0549999861978,"accuracy":0,"outcome":"+10","keys":[1949.9950000317767],"total_keys":1,"block":1,"trial":107,"stimulus":11,"robot":2,"valence":"win","action":"no-go","sham":1,"trial_type":"pit-trial","trial_index":129,"time_elapsed":625094,"internal_node_id":"0.0-108.0","task_version":"battery-v0.2"},{"rune":"J","rune_set":"bacs1","hex":"#f73b6a7A","correct":32,"choice":32,"rt":411.16000001784414,"accuracy":1,"outcome":"-1","keys":[1912.6299999770708],"total_keys":1,"block":1,"trial":108,"stimulus":9,"robot":3,"valence":"lose","action":"go","sham":0,"trial_type":"pit-trial","trial_index":130,"time_elapsed":628209,"internal_node_id":"0.0-109.0","task_version":"battery-v0.2"},{"rune":"Z","rune_set":"bacs1","hex":"#f73b6a7A","correct":32,"choice":32,"rt":478.1249999650754,"accuracy":1,"outcome":"-1","keys":[1979.0700000012293],"total_keys":1,"block":1,"trial":109,"stimulus":10,"robot":3,"valence":"lose","action":"go","sham":0,"trial_type":"pit-trial","trial_index":131,"time_elapsed":631391,"internal_node_id":"0.0-110.0","task_version":"battery-v0.2"},{"rune":"R","rune_set":"bacs1","hex":"#3366ff99","correct":32,"choice":32,"rt":413.60999998869374,"accuracy":1,"outcome":"+10","keys":[1913.799999980256],"total_keys":1,"block":1,"trial":110,"stimulus":8,"robot":1,"valence":"win","action":"go","sham":0,"trial_type":"pit-trial","trial_index":132,"time_elapsed":634507,"internal_node_id":"0.0-111.0","task_version":"battery-v0.2"},{"rune":"B","rune_set":"bacs1","hex":"#3366ff99","correct":-1,"choice":-1,"rt":-1,"accuracy":1,"outcome":"+10","keys":[],"total_keys":0,"block":1,"trial":111,"stimulus":11,"robot":2,"valence":"win","action":"no-go","sham":0,"trial_type":"pit-trial","trial_index":133,"time_elapsed":638513,"internal_node_id":"0.0-112.0","task_version":"battery-v0.2"},{"rune":"J","rune_set":"bacs1","hex":"#f73b6a7A","correct":32,"choice":32,"rt":515.6200000201352,"accuracy":1,"outcome":"-1","keys":[2015.7650000182912],"total_keys":1,"block":1,"trial":112,"stimulus":9,"robot":3,"valence":"lose","action":"go","sham":0,"trial_type":"pit-trial","trial_index":134,"time_elapsed":641731,"internal_node_id":"0.0-113.0","task_version":"battery-v0.2"},{"rune":"J","rune_set":"bacs1","hex":"#f73b6a7A","correct":32,"choice":32,"rt":480.6749999988824,"accuracy":1,"outcome":"-10","keys":[1980.9100000420585],"total_keys":1,"block":1,"trial":113,"stimulus":9,"robot":3,"valence":"lose","action":"go","sham":1,"trial_type":"pit-trial","trial_index":135,"time_elapsed":644915,"internal_node_id":"0.0-114.0","task_version":"battery-v0.2"},{"rune":"R","rune_set":"bacs1","hex":"#3366ff99","correct":32,"choice":32,"rt":356.50499997427687,"accuracy":1,"outcome":"+10","keys":[1856.6899999859743],"total_keys":1,"block":1,"trial":114,"stimulus":8,"robot":1,"valence":"win","action":"go","sham":0,"trial_type":"pit-trial","trial_index":136,"time_elapsed":647974,"internal_node_id":"0.0-115.0","task_version":"battery-v0.2"},{"rune":"Z","rune_set":"bacs1","hex":"#f73b6a7A","correct":32,"choice":32,"rt":1249.3549999780953,"accuracy":1,"outcome":"-1","keys":[2749.934999970719],"total_keys":1,"block":1,"trial":115,"stimulus":10,"robot":3,"valence":"lose","action":"go","sham":0,"trial_type":"pit-trial","trial_index":137,"time_elapsed":651927,"internal_node_id":"0.0-116.0","task_version":"battery-v0.2"},{"rune":"B","rune_set":"bacs1","hex":"#3366ff99","correct":-1,"choice":-1,"rt":-1,"accuracy":1,"outcome":"+10","keys":[],"total_keys":0,"block":1,"trial":116,"stimulus":11,"robot":2,"valence":"win","action":"no-go","sham":0,"trial_type":"pit-trial","trial_index":138,"time_elapsed":655931,"internal_node_id":"0.0-117.0","task_version":"battery-v0.2"},{"rune":"J","rune_set":"bacs1","hex":"#f73b6a7A","correct":32,"choice":32,"rt":628.824999963399,"accuracy":1,"outcome":"-1","keys":[2129.0550000267103],"total_keys":1,"block":1,"trial":117,"stimulus":9,"robot":3,"valence":"lose","action":"go","sham":0,"trial_type":"pit-trial","trial_index":139,"time_elapsed":659263,"internal_node_id":"0.0-118.0","task_version":"battery-v0.2"},{"rune":"R","rune_set":"bacs1","hex":"#3366ff99","correct":32,"choice":32,"rt":272.4600000074133,"accuracy":1,"outcome":"+1","keys":[1773.010000004433],"total_keys":1,"block":1,"trial":118,"stimulus":8,"robot":1,"valence":"win","action":"go","sham":1,"trial_type":"pit-trial","trial_index":140,"time_elapsed":662238,"internal_node_id":"0.0-119.0","task_version":"battery-v0.2"},{"rune":"Z","rune_set":"bacs1","hex":"#f73b6a7A","correct":32,"choice":32,"rt":484.230000001844,"accuracy":1,"outcome":"-1","keys":[1985.1699999999255],"total_keys":1,"block":1,"trial":119,"stimulus":10,"robot":3,"valence":"lose","action":"go","sham":0,"trial_type":"pit-trial","trial_index":141,"time_elapsed":665426,"internal_node_id":"0.0-120.0","task_version":"battery-v0.2"},{"rune":"B","rune_set":"bacs1","hex":"#3366ff99","correct":-1,"choice":-1,"rt":-1,"accuracy":1,"outcome":"+10","keys":[],"total_keys":0,"block":1,"trial":120,"stimulus":11,"robot":2,"valence":"win","action":"no-go","sham":0,"trial_type":"pit-trial","trial_index":142,"time_elapsed":669430,"internal_node_id":"0.0-121.0","task_version":"battery-v0.2"},{"view_history":"[{\"page_index\":0,\"viewing_time\":28432.580000022426},{\"page_index\":1,\"viewing_time\":2493.6800000141375}]","rt":30926.740000024438,"trial_type":"pit-instructions","trial_index":143,"time_elapsed":700358,"internal_node_id":"0.0-122.0","task_version":"battery-v0.2"},{"rune":"H","rune_set":"bacs1","hex":"#3366ff99","correct":32,"choice":32,"rt":660.9999999636784,"accuracy":1,"outcome":"+10","keys":[2161.364999949001],"total_keys":1,"block":2,"trial":121,"stimulus":1,"robot":1,"valence":"win","action":"go","sham":0,"trial_type":"pit-trial","trial_index":144,"time_elapsed":703725,"internal_node_id":"0.0-123.0","task_version":"battery-v0.2"},{"rune":"M","rune_set":"bacs1","hex":"#3366ff99","correct":32,"choice":-1,"rt":-1,"accuracy":0,"outcome":"+1","keys":[],"total_keys":0,"block":2,"trial":122,"stimulus":3,"robot":1,"valence":"win","action":"go","sham":0,"trial_type":"pit-trial","trial_index":145,"time_elapsed":707729,"internal_node_id":"0.0-124.0","task_version":"battery-v0.2"},{"rune":"Y","rune_set":"bacs1","hex":"#3366ff99","correct":-1,"choice":32,"rt":563.6700000031851,"accuracy":0,"outcome":"+1","keys":[2063.7250000145286],"total_keys":1,"block":2,"trial":123,"stimulus":0,"robot":2,"valence":"win","action":"no-go","sham":0,"trial_type":"pit-trial","trial_index":146,"time_elapsed":710995,"internal_node_id":"0.0-125.0","task_version":"battery-v0.2"},{"rune":"P","rune_set":"bacs1","hex":"#f73b6a7A","correct":-1,"choice":-1,"rt":-1,"accuracy":1,"outcome":"-1","keys":[],"total_keys":0,"block":2,"trial":124,"stimulus":2,"robot":4,"valence":"lose","action":"no-go","sham":0,"trial_type":"pit-trial","trial_index":147,"time_elapsed":715000,"internal_node_id":"0.0-126.0","task_version":"battery-v0.2"},{"rune":"H","rune_set":"bacs1","hex":"#3366ff99","correct":32,"choice":32,"rt":462.53999997861683,"accuracy":1,"outcome":"+10","keys":[1963.3849999518134],"total_keys":1,"block":2,"trial":125,"stimulus":1,"robot":1,"valence":"win","action":"go","sham":0,"trial_type":"pit-trial","trial_index":148,"time_elapsed":718166,"internal_node_id":"0.0-127.0","task_version":"battery-v0.2"},{"rune":"P","rune_set":"bacs1","hex":"#f73b6a7A","correct":-1,"choice":32,"rt":422.4549999926239,"accuracy":0,"outcome":"-10","keys":[1922.8349999757484],"total_keys":1,"block":2,"trial":126,"stimulus":2,"robot":4,"valence":"lose","action":"no-go","sham":0,"trial_type":"pit-trial","trial_index":149,"time_elapsed":721300,"internal_node_id":"0.0-128.0","task_version":"battery-v0.2"},{"rune":"M","rune_set":"bacs1","hex":"#3366ff99","correct":32,"choice":32,"rt":847.3149999626912,"accuracy":1,"outcome":"+10","keys":[2347.4500000011176],"total_keys":1,"block":2,"trial":127,"stimulus":3,"robot":1,"valence":"win","action":"go","sham":0,"trial_type":"pit-trial","trial_index":150,"time_elapsed":724850,"internal_node_id":"0.0-129.0","task_version":"battery-v0.2"},{"rune":"Y","rune_set":"bacs1","hex":"#3366ff99","correct":-1,"choice":-1,"rt":-1,"accuracy":1,"outcome":"+10","keys":[],"total_keys":0,"block":2,"trial":128,"stimulus":0,"robot":2,"valence":"win","action":"no-go","sham":0,"trial_type":"pit-trial","trial_index":151,"time_elapsed":728855,"internal_node_id":"0.0-130.0","task_version":"battery-v0.2"},{"rune":"H","rune_set":"bacs1","hex":"#3366ff99","correct":32,"choice":32,"rt":614.5300000207499,"accuracy":1,"outcome":"+1","keys":[2114.61499996949],"total_keys":1,"block":2,"trial":129,"stimulus":1,"robot":1,"valence":"win","action":"go","sham":1,"trial_type":"pit-trial","trial_index":152,"time_elapsed":732171,"internal_node_id":"0.0-131.0","task_version":"battery-v0.2"},{"rune":"M","rune_set":"bacs1","hex":"#3366ff99","correct":32,"choice":32,"rt":504.32999996701255,"accuracy":1,"outcome":"+10","keys":[2004.7199999680743],"total_keys":1,"block":2,"trial":130,"stimulus":3,"robot":1,"valence":"win","action":"go","sham":0,"trial_type":"pit-trial","trial_index":153,"time_elapsed":735379,"internal_node_id":"0.0-132.0","task_version":"battery-v0.2"},{"rune":"P","rune_set":"bacs1","hex":"#f73b6a7A","correct":-1,"choice":32,"rt":840.6400000094436,"accuracy":0,"outcome":"-10","keys":[2341.7950000148267],"total_keys":1,"block":2,"trial":131,"stimulus":2,"robot":4,"valence":"lose","action":"no-go","sham":0,"trial_type":"pit-trial","trial_index":154,"time_elapsed":738924,"internal_node_id":"0.0-133.0","task_version":"battery-v0.2"},{"rune":"Y","rune_set":"bacs1","hex":"#3366ff99","correct":-1,"choice":32,"rt":463.5950000374578,"accuracy":0,"outcome":"+1","keys":[1963.8999999733642],"total_keys":1,"block":2,"trial":132,"stimulus":0,"robot":2,"valence":"win","action":"no-go","sham":0,"trial_type":"pit-trial","trial_index":155,"time_elapsed":742104,"internal_node_id":"0.0-134.0","task_version":"battery-v0.2"},{"rune":"P","rune_set":"bacs1","hex":"#f73b6a7A","correct":-1,"choice":32,"rt":938.9300000038929,"accuracy":0,"outcome":"-10","keys":[2439.3850000342354],"total_keys":1,"block":2,"trial":133,"stimulus":2,"robot":4,"valence":"lose","action":"no-go","sham":0,"trial_type":"pit-trial","trial_index":156,"time_elapsed":745745,"internal_node_id":"0.0-135.0","task_version":"battery-v0.2"},{"rune":"Y","rune_set":"bacs1","hex":"#3366ff99","correct":-1,"choice":32,"rt":690.9650000161491,"accuracy":0,"outcome":"+1","keys":[2192.864999989979],"total_keys":1,"block":2,"trial":134,"stimulus":0,"robot":2,"valence":"win","action":"no-go","sham":0,"trial_type":"pit-trial","trial_index":157,"time_elapsed":749141,"internal_node_id":"0.0-136.0","task_version":"battery-v0.2"},{"rune":"M","rune_set":"bacs1","hex":"#3366ff99","correct":32,"choice":32,"rt":1291.4650000166148,"accuracy":1,"outcome":"+1","keys":[2792.829999991227],"total_keys":1,"block":2,"trial":135,"stimulus":3,"robot":1,"valence":"win","action":"go","sham":1,"trial_type":"pit-trial","trial_index":158,"time_elapsed":753150,"internal_node_id":"0.0-137.0","task_version":"battery-v0.2"},{"rune":"H","rune_set":"bacs1","hex":"#3366ff99","correct":32,"choice":32,"rt":308.73499996960163,"accuracy":1,"outcome":"+10","keys":[1809.2499999911524],"total_keys":1,"block":2,"trial":136,"stimulus":1,"robot":1,"valence":"win","action":"go","sham":0,"trial_type":"pit-trial","trial_index":159,"time_elapsed":756161,"internal_node_id":"0.0-138.0","task_version":"battery-v0.2"},{"rune":"M","rune_set":"bacs1","hex":"#3366ff99","correct":32,"choice":32,"rt":396.85999997891486,"accuracy":1,"outcome":"+10","keys":[1897.850000008475],"total_keys":1,"block":2,"trial":137,"stimulus":3,"robot":1,"valence":"win","action":"go","sham":0,"trial_type":"pit-trial","trial_index":160,"time_elapsed":759261,"internal_node_id":"0.0-139.0","task_version":"battery-v0.2"},{"rune":"H","rune_set":"bacs1","hex":"#3366ff99","correct":32,"choice":32,"rt":362.2200000099838,"accuracy":1,"outcome":"+10","keys":[1862.5600000377744],"total_keys":1,"block":2,"trial":138,"stimulus":1,"robot":1,"valence":"win","action":"go","sham":0,"trial_type":"pit-trial","trial_index":161,"time_elapsed":762329,"internal_node_id":"0.0-140.0","task_version":"battery-v0.2"},{"rune":"Y","rune_set":"bacs1","hex":"#3366ff99","correct":-1,"choice":32,"rt":325.06499998271465,"accuracy":0,"outcome":"+1","keys":[1825.364999996964],"total_keys":1,"block":2,"trial":139,"stimulus":0,"robot":2,"valence":"win","action":"no-go","sham":0,"trial_type":"pit-trial","trial_index":162,"time_elapsed":765357,"internal_node_id":"0.0-141.0","task_version":"battery-v0.2"},{"rune":"P","rune_set":"bacs1","hex":"#f73b6a7A","correct":-1,"choice":32,"rt":446.23000000137836,"accuracy":0,"outcome":"-10","keys":[1946.585000026971],"total_keys":1,"block":2,"trial":140,"stimulus":2,"robot":4,"valence":"lose","action":"no-go","sham":0,"trial_type":"pit-trial","trial_index":163,"time_elapsed":768507,"internal_node_id":"0.0-142.0","task_version":"battery-v0.2"},{"rune":"P","rune_set":"bacs1","hex":"#f73b6a7A","correct":-1,"choice":-1,"rt":-1,"accuracy":1,"outcome":"-1","keys":[],"total_keys":0,"block":2,"trial":141,"stimulus":2,"robot":4,"valence":"lose","action":"no-go","sham":0,"trial_type":"pit-trial","trial_index":164,"time_elapsed":772511,"internal_node_id":"0.0-143.0","task_version":"battery-v0.2"},{"rune":"M","rune_set":"bacs1","hex":"#3366ff99","correct":32,"choice":32,"rt":415.2899999753572,"accuracy":1,"outcome":"+10","keys":[1916.1399999866262],"total_keys":1,"block":2,"trial":142,"stimulus":3,"robot":1,"valence":"win","action":"go","sham":0,"trial_type":"pit-trial","trial_index":165,"time_elapsed":775629,"internal_node_id":"0.0-144.0","task_version":"battery-v0.2"},{"rune":"H","rune_set":"bacs1","hex":"#3366ff99","correct":32,"choice":32,"rt":446.89000002108514,"accuracy":1,"outcome":"+10","keys":[1947.6750000030734],"total_keys":1,"block":2,"trial":143,"stimulus":1,"robot":1,"valence":"win","action":"go","sham":0,"trial_type":"pit-trial","trial_index":166,"time_elapsed":778780,"internal_node_id":"0.0-145.0","task_version":"battery-v0.2"},{"rune":"Y","rune_set":"bacs1","hex":"#3366ff99","correct":-1,"choice":32,"rt":347.8400000021793,"accuracy":0,"outcome":"+10","keys":[1848.085000005085],"total_keys":1,"block":2,"trial":144,"stimulus":0,"robot":2,"valence":"win","action":"no-go","sham":1,"trial_type":"pit-trial","trial_index":167,"time_elapsed":781831,"internal_node_id":"0.0-146.0","task_version":"battery-v0.2"},{"rune":"P","rune_set":"bacs1","hex":"#f73b6a7A","correct":-1,"choice":32,"rt":274.77999997790903,"accuracy":0,"outcome":"-10","keys":[1775.9200000436977],"total_keys":1,"block":2,"trial":145,"stimulus":2,"robot":4,"valence":"lose","action":"no-go","sham":0,"trial_type":"pit-trial","trial_index":168,"time_elapsed":784809,"internal_node_id":"0.0-147.0","task_version":"battery-v0.2"},{"rune":"H","rune_set":"bacs1","hex":"#3366ff99","correct":32,"choice":32,"rt":397.66999997664243,"accuracy":1,"outcome":"+1","keys":[1898.8349999999627],"total_keys":1,"block":2,"trial":146,"stimulus":1,"robot":1,"valence":"win","action":"go","sham":1,"trial_type":"pit-trial","trial_index":169,"time_elapsed":787912,"internal_node_id":"0.0-148.0","task_version":"battery-v0.2"},{"rune":"M","rune_set":"bacs1","hex":"#3366ff99","correct":32,"choice":32,"rt":480.2150000468828,"accuracy":1,"outcome":"+10","keys":[1980.9900000109337],"total_keys":1,"block":2,"trial":147,"stimulus":3,"robot":1,"valence":"win","action":"go","sham":0,"trial_type":"pit-trial","trial_index":170,"time_elapsed":791096,"internal_node_id":"0.0-149.0","task_version":"battery-v0.2"},{"rune":"Y","rune_set":"bacs1","hex":"#3366ff99","correct":-1,"choice":-1,"rt":-1,"accuracy":1,"outcome":"+10","keys":[],"total_keys":0,"block":2,"trial":148,"stimulus":0,"robot":2,"valence":"win","action":"no-go","sham":0,"trial_type":"pit-trial","trial_index":171,"time_elapsed":795100,"internal_node_id":"0.0-150.0","task_version":"battery-v0.2"},{"rune":"H","rune_set":"bacs1","hex":"#3366ff99","correct":32,"choice":32,"rt":773.6700000241399,"accuracy":1,"outcome":"+1","keys":[2274.325000005774],"total_keys":1,"block":2,"trial":149,"stimulus":1,"robot":1,"valence":"win","action":"go","sham":1,"trial_type":"pit-trial","trial_index":172,"time_elapsed":798584,"internal_node_id":"0.0-151.0","task_version":"battery-v0.2"},{"rune":"M","rune_set":"bacs1","hex":"#3366ff99","correct":32,"choice":32,"rt":912.9899999825284,"accuracy":1,"outcome":"+10","keys":[2413.47999998834],"total_keys":1,"block":2,"trial":150,"stimulus":3,"robot":1,"valence":"win","action":"go","sham":0,"trial_type":"pit-trial","trial_index":173,"time_elapsed":802199,"internal_node_id":"0.0-152.0","task_version":"battery-v0.2"},{"rune":"Y","rune_set":"bacs1","hex":"#3366ff99","correct":-1,"choice":-1,"rt":-1,"accuracy":1,"outcome":"+10","keys":[],"total_keys":0,"block":2,"trial":151,"stimulus":0,"robot":2,"valence":"win","action":"no-go","sham":0,"trial_type":"pit-trial","trial_index":174,"time_elapsed":806202,"internal_node_id":"0.0-153.0","task_version":"battery-v0.2"},{"rune":"P","rune_set":"bacs1","hex":"#f73b6a7A","correct":-1,"choice":-1,"rt":-1,"accuracy":1,"outcome":"-1","keys":[],"total_keys":0,"block":2,"trial":152,"stimulus":2,"robot":4,"valence":"lose","action":"no-go","sham":0,"trial_type":"pit-trial","trial_index":175,"time_elapsed":810207,"internal_node_id":"0.0-154.0","task_version":"battery-v0.2"},{"rune":"P","rune_set":"bacs1","hex":"#f73b6a7A","correct":-1,"choice":-1,"rt":-1,"accuracy":1,"outcome":"-1","keys":[],"total_keys":0,"block":2,"trial":153,"stimulus":2,"robot":4,"valence":"lose","action":"no-go","sham":0,"trial_type":"pit-trial","trial_index":176,"time_elapsed":814210,"internal_node_id":"0.0-155.0","task_version":"battery-v0.2"},{"rune":"U","rune_set":"bacs1","hex":"#3366ff99","correct":32,"choice":-1,"rt":-1,"accuracy":0,"outcome":"+1","keys":[],"total_keys":0,"block":2,"trial":154,"stimulus":4,"robot":1,"valence":"win","action":"go","sham":0,"trial_type":"pit-trial","trial_index":177,"time_elapsed":818227,"internal_node_id":"0.0-156.0","task_version":"battery-v0.2"},{"rune":"Y","rune_set":"bacs1","hex":"#3366ff99","correct":-1,"choice":-1,"rt":-1,"accuracy":1,"outcome":"+10","keys":[],"total_keys":0,"block":2,"trial":155,"stimulus":0,"robot":2,"valence":"win","action":"no-go","sham":0,"trial_type":"pit-trial","trial_index":178,"time_elapsed":822231,"internal_node_id":"0.0-157.0","task_version":"battery-v0.2"},{"rune":"M","rune_set":"bacs1","hex":"#3366ff99","correct":32,"choice":32,"rt":571.7300000251271,"accuracy":1,"outcome":"+10","keys":[2072.6949999807402],"total_keys":1,"block":2,"trial":156,"stimulus":3,"robot":1,"valence":"win","action":"go","sham":0,"trial_type":"pit-trial","trial_index":179,"time_elapsed":825506,"internal_node_id":"0.0-158.0","task_version":"battery-v0.2"},{"rune":"M","rune_set":"bacs1","hex":"#3366ff99","correct":32,"choice":-1,"rt":-1,"accuracy":0,"outcome":"+1","keys":[],"total_keys":0,"block":2,"trial":157,"stimulus":3,"robot":1,"valence":"win","action":"go","sham":0,"trial_type":"pit-trial","trial_index":180,"time_elapsed":829509,"internal_node_id":"0.0-159.0","task_version":"battery-v0.2"},{"rune":"U","rune_set":"bacs1","hex":"#3366ff99","correct":32,"choice":-1,"rt":-1,"accuracy":0,"outcome":"+1","keys":[],"total_keys":0,"block":2,"trial":158,"stimulus":4,"robot":1,"valence":"win","action":"go","sham":0,"trial_type":"pit-trial","trial_index":181,"time_elapsed":833514,"internal_node_id":"0.0-160.0","task_version":"battery-v0.2"},{"rune":"Y","rune_set":"bacs1","hex":"#3366ff99","correct":-1,"choice":32,"rt":747.3149999859743,"accuracy":0,"outcome":"+1","keys":[2249.1600000066683],"total_keys":1,"block":2,"trial":159,"stimulus":0,"robot":2,"valence":"win","action":"no-go","sham":0,"trial_type":"pit-trial","trial_index":182,"time_elapsed":836967,"internal_node_id":"0.0-161.0","task_version":"battery-v0.2"},{"rune":"P","rune_set":"bacs1","hex":"#f73b6a7A","correct":-1,"choice":-1,"rt":-1,"accuracy":1,"outcome":"-1","keys":[],"total_keys":0,"block":2,"trial":160,"stimulus":2,"robot":4,"valence":"lose","action":"no-go","sham":0,"trial_type":"pit-trial","trial_index":183,"time_elapsed":840971,"internal_node_id":"0.0-162.0","task_version":"battery-v0.2"},{"rune":"Y","rune_set":"bacs1","hex":"#3366ff99","correct":-1,"choice":-1,"rt":-1,"accuracy":1,"outcome":"+10","keys":[],"total_keys":0,"block":2,"trial":161,"stimulus":0,"robot":2,"valence":"win","action":"no-go","sham":0,"trial_type":"pit-trial","trial_index":184,"time_elapsed":844974,"internal_node_id":"0.0-163.0","task_version":"battery-v0.2"},{"rune":"S","rune_set":"bacs1","hex":"#f73b6a7A","correct":32,"choice":32,"rt":1002.1800000104122,"accuracy":1,"outcome":"-1","keys":[2503.484999993816],"total_keys":1,"block":2,"trial":162,"stimulus":5,"robot":3,"valence":"lose","action":"go","sham":0,"trial_type":"pit-trial","trial_index":185,"time_elapsed":848681,"internal_node_id":"0.0-164.0","task_version":"battery-v0.2"},{"rune":"U","rune_set":"bacs1","hex":"#3366ff99","correct":32,"choice":-1,"rt":-1,"accuracy":0,"outcome":"+1","keys":[2965.13500000583],"total_keys":1,"block":2,"trial":163,"stimulus":4,"robot":1,"valence":"win","action":"go","sham":0,"trial_type":"pit-trial","trial_index":186,"time_elapsed":852685,"internal_node_id":"0.0-165.0","task_version":"battery-v0.2"},{"rune":"K","rune_set":"bacs1","hex":"#f73b6a7A","correct":-1,"choice":-1,"rt":-1,"accuracy":1,"outcome":"-1","keys":[],"total_keys":0,"block":2,"trial":164,"stimulus":6,"robot":4,"valence":"lose","action":"no-go","sham":0,"trial_type":"pit-trial","trial_index":187,"time_elapsed":856688,"internal_node_id":"0.0-166.0","task_version":"battery-v0.2"},{"rune":"Y","rune_set":"bacs1","hex":"#3366ff99","correct":-1,"choice":-1,"rt":-1,"accuracy":1,"outcome":"+10","keys":[],"total_keys":0,"block":2,"trial":165,"stimulus":0,"robot":2,"valence":"win","action":"no-go","sham":0,"trial_type":"pit-trial","trial_index":188,"time_elapsed":860693,"internal_node_id":"0.0-167.0","task_version":"battery-v0.2"},{"rune":"S","rune_set":"bacs1","hex":"#f73b6a7A","correct":32,"choice":32,"rt":1264.595000015106,"accuracy":1,"outcome":"-1","keys":[2765.060000005178],"total_keys":1,"block":2,"trial":166,"stimulus":5,"robot":3,"valence":"lose","action":"go","sham":0,"trial_type":"pit-trial","trial_index":189,"time_elapsed":864660,"internal_node_id":"0.0-168.0","task_version":"battery-v0.2"},{"rune":"K","rune_set":"bacs1","hex":"#f73b6a7A","correct":-1,"choice":32,"rt":1267.2350000357255,"accuracy":0,"outcome":"-10","keys":[2767.805000010412],"total_keys":1,"block":2,"trial":167,"stimulus":6,"robot":4,"valence":"lose","action":"no-go","sham":0,"trial_type":"pit-trial","trial_index":190,"time_elapsed":868631,"internal_node_id":"0.0-169.0","task_version":"battery-v0.2"},{"rune":"U","rune_set":"bacs1","hex":"#3366ff99","correct":32,"choice":32,"rt":1037.209999980405,"accuracy":1,"outcome":"+10","keys":[2537.460000021383],"total_keys":1,"block":2,"trial":168,"stimulus":4,"robot":1,"valence":"win","action":"go","sham":0,"trial_type":"pit-trial","trial_index":191,"time_elapsed":872371,"internal_node_id":"0.0-170.0","task_version":"battery-v0.2"},{"rune":"S","rune_set":"bacs1","hex":"#f73b6a7A","correct":32,"choice":-1,"rt":-1,"accuracy":0,"outcome":"-10","keys":[2805.6199999991804],"total_keys":1,"block":2,"trial":169,"stimulus":5,"robot":3,"valence":"lose","action":"go","sham":0,"trial_type":"pit-trial","trial_index":192,"time_elapsed":876374,"internal_node_id":"0.0-171.0","task_version":"battery-v0.2"},{"rune":"D","rune_set":"bacs1","hex":"#3366ff99","correct":-1,"choice":-1,"rt":-1,"accuracy":1,"outcome":"+10","keys":[],"total_keys":0,"block":2,"trial":170,"stimulus":7,"robot":2,"valence":"win","action":"no-go","sham":0,"trial_type":"pit-trial","trial_index":193,"time_elapsed":880379,"internal_node_id":"0.0-172.0","task_version":"battery-v0.2"},{"rune":"K","rune_set":"bacs1","hex":"#f73b6a7A","correct":-1,"choice":-1,"rt":-1,"accuracy":1,"outcome":"-1","keys":[],"total_keys":0,"block":2,"trial":171,"stimulus":6,"robot":4,"valence":"lose","action":"no-go","sham":0,"trial_type":"pit-trial","trial_index":194,"time_elapsed":884383,"internal_node_id":"0.0-173.0","task_version":"battery-v0.2"},{"rune":"U","rune_set":"bacs1","hex":"#3366ff99","correct":32,"choice":32,"rt":950.1649999874644,"accuracy":1,"outcome":"+10","keys":[2451.210000028368],"total_keys":1,"block":2,"trial":172,"stimulus":4,"robot":1,"valence":"win","action":"go","sham":0,"trial_type":"pit-trial","trial_index":195,"time_elapsed":888036,"internal_node_id":"0.0-174.0","task_version":"battery-v0.2"},{"rune":"K","rune_set":"bacs1","hex":"#f73b6a7A","correct":-1,"choice":32,"rt":765.6600000336766,"accuracy":0,"outcome":"-10","keys":[2266.99000003282],"total_keys":1,"block":2,"trial":173,"stimulus":6,"robot":4,"valence":"lose","action":"no-go","sham":0,"trial_type":"pit-trial","trial_index":196,"time_elapsed":891505,"internal_node_id":"0.0-175.0","task_version":"battery-v0.2"},{"rune":"D","rune_set":"bacs1","hex":"#3366ff99","correct":-1,"choice":-1,"rt":-1,"accuracy":1,"outcome":"+10","keys":[3383.700000005774],"total_keys":1,"block":2,"trial":174,"stimulus":7,"robot":2,"valence":"win","action":"no-go","sham":0,"trial_type":"pit-trial","trial_index":197,"time_elapsed":895510,"internal_node_id":"0.0-176.0","task_version":"battery-v0.2"},{"rune":"U","rune_set":"bacs1","hex":"#3366ff99","correct":32,"choice":-1,"rt":-1,"accuracy":0,"outcome":"+1","keys":[3509.2400000430644],"total_keys":1,"block":2,"trial":175,"stimulus":4,"robot":1,"valence":"win","action":"go","sham":0,"trial_type":"pit-trial","trial_index":198,"time_elapsed":899513,"internal_node_id":"0.0-177.0","task_version":"battery-v0.2"},{"rune":"S","rune_set":"bacs1","hex":"#f73b6a7A","correct":32,"choice":-1,"rt":-1,"accuracy":0,"outcome":"-10","keys":[2937.915000016801],"total_keys":1,"block":2,"trial":176,"stimulus":5,"robot":3,"valence":"lose","action":"go","sham":0,"trial_type":"pit-trial","trial_index":199,"time_elapsed":903518,"internal_node_id":"0.0-178.0","task_version":"battery-v0.2"},{"rune":"K","rune_set":"bacs1","hex":"#f73b6a7A","correct":-1,"choice":-1,"rt":-1,"accuracy":1,"outcome":"-10","keys":[],"total_keys":0,"block":2,"trial":177,"stimulus":6,"robot":4,"valence":"lose","action":"no-go","sham":1,"trial_type":"pit-trial","trial_index":200,"time_elapsed":907522,"internal_node_id":"0.0-179.0","task_version":"battery-v0.2"},{"rune":"S","rune_set":"bacs1","hex":"#f73b6a7A","correct":32,"choice":32,"rt":919.1550000105053,"accuracy":1,"outcome":"-1","keys":[2420.849999994971],"total_keys":1,"block":2,"trial":178,"stimulus":5,"robot":3,"valence":"lose","action":"go","sham":0,"trial_type":"pit-trial","trial_index":201,"time_elapsed":911145,"internal_node_id":"0.0-180.0","task_version":"battery-v0.2"},{"rune":"U","rune_set":"bacs1","hex":"#3366ff99","correct":32,"choice":32,"rt":711.6749999695458,"accuracy":1,"outcome":"+10","keys":[2211.765000014566],"total_keys":1,"block":2,"trial":179,"stimulus":4,"robot":1,"valence":"win","action":"go","sham":0,"trial_type":"pit-trial","trial_index":202,"time_elapsed":914559,"internal_node_id":"0.0-181.0","task_version":"battery-v0.2"},{"rune":"D","rune_set":"bacs1","hex":"#3366ff99","correct":-1,"choice":32,"rt":1026.2199999997392,"accuracy":0,"outcome":"+1","keys":[2526.3900000136346],"total_keys":1,"block":2,"trial":180,"stimulus":7,"robot":2,"valence":"win","action":"no-go","sham":0,"trial_type":"pit-trial","trial_index":203,"time_elapsed":918289,"internal_node_id":"0.0-182.0","task_version":"battery-v0.2"},{"rune":"U","rune_set":"bacs1","hex":"#3366ff99","correct":32,"choice":32,"rt":952.1550000063144,"accuracy":1,"outcome":"+10","keys":[2452.8900000150315],"total_keys":1,"block":2,"trial":181,"stimulus":4,"robot":1,"valence":"win","action":"go","sham":0,"trial_type":"pit-trial","trial_index":204,"time_elapsed":921945,"internal_node_id":"0.0-183.0","task_version":"battery-v0.2"},{"rune":"K","rune_set":"bacs1","hex":"#f73b6a7A","correct":-1,"choice":-1,"rt":-1,"accuracy":1,"outcome":"-1","keys":[],"total_keys":0,"block":2,"trial":182,"stimulus":6,"robot":4,"valence":"lose","action":"no-go","sham":0,"trial_type":"pit-trial","trial_index":205,"time_elapsed":925950,"internal_node_id":"0.0-184.0","task_version":"battery-v0.2"},{"rune":"S","rune_set":"bacs1","hex":"#f73b6a7A","correct":32,"choice":32,"rt":855.7000000146218,"accuracy":1,"outcome":"-10","keys":[2356.274999969173],"total_keys":1,"block":2,"trial":183,"stimulus":5,"robot":3,"valence":"lose","action":"go","sham":1,"trial_type":"pit-trial","trial_index":206,"time_elapsed":929509,"internal_node_id":"0.0-185.0","task_version":"battery-v0.2"},{"rune":"D","rune_set":"bacs1","hex":"#3366ff99","correct":-1,"choice":32,"rt":972.5449999677949,"accuracy":0,"outcome":"+1","keys":[2473.0450000497513],"total_keys":1,"block":2,"trial":184,"stimulus":7,"robot":2,"valence":"win","action":"no-go","sham":0,"trial_type":"pit-trial","trial_index":207,"time_elapsed":933185,"internal_node_id":"0.0-186.0","task_version":"battery-v0.2"},{"rune":"K","rune_set":"bacs1","hex":"#f73b6a7A","correct":-1,"choice":-1,"rt":-1,"accuracy":1,"outcome":"-10","keys":[],"total_keys":0,"block":2,"trial":185,"stimulus":6,"robot":4,"valence":"lose","action":"no-go","sham":1,"trial_type":"pit-trial","trial_index":208,"time_elapsed":937192,"internal_node_id":"0.0-187.0","task_version":"battery-v0.2"},{"rune":"U","rune_set":"bacs1","hex":"#3366ff99","correct":32,"choice":32,"rt":1044.7900000144728,"accuracy":1,"outcome":"+10","keys":[2545.090000028722],"total_keys":1,"block":2,"trial":186,"stimulus":4,"robot":1,"valence":"win","action":"go","sham":0,"trial_type":"pit-trial","trial_index":209,"time_elapsed":940940,"internal_node_id":"0.0-188.0","task_version":"battery-v0.2"},{"rune":"S","rune_set":"bacs1","hex":"#f73b6a7A","correct":32,"choice":32,"rt":921.0650000022724,"accuracy":1,"outcome":"-1","keys":[2422.59999999078],"total_keys":1,"block":2,"trial":187,"stimulus":5,"robot":3,"valence":"lose","action":"go","sham":0,"trial_type":"pit-trial","trial_index":210,"time_elapsed":944570,"internal_node_id":"0.0-189.0","task_version":"battery-v0.2"},{"rune":"D","rune_set":"bacs1","hex":"#3366ff99","correct":-1,"choice":-1,"rt":-1,"accuracy":1,"outcome":"+1","keys":[],"total_keys":0,"block":2,"trial":188,"stimulus":7,"robot":2,"valence":"win","action":"no-go","sham":1,"trial_type":"pit-trial","trial_index":211,"time_elapsed":948584,"internal_node_id":"0.0-190.0","task_version":"battery-v0.2"},{"rune":"S","rune_set":"bacs1","hex":"#f73b6a7A","correct":32,"choice":32,"rt":833.405000041239,"accuracy":1,"outcome":"-10","keys":[2334.3450000393204],"total_keys":1,"block":2,"trial":189,"stimulus":5,"robot":3,"valence":"lose","action":"go","sham":1,"trial_type":"pit-trial","trial_index":212,"time_elapsed":952121,"internal_node_id":"0.0-191.0","task_version":"battery-v0.2"},{"rune":"D","rune_set":"bacs1","hex":"#3366ff99","correct":-1,"choice":-1,"rt":-1,"accuracy":1,"outcome":"+10","keys":[],"total_keys":0,"block":2,"trial":190,"stimulus":7,"robot":2,"valence":"win","action":"no-go","sham":0,"trial_type":"pit-trial","trial_index":213,"time_elapsed":956124,"internal_node_id":"0.0-192.0","task_version":"battery-v0.2"},{"rune":"U","rune_set":"bacs1","hex":"#3366ff99","correct":32,"choice":32,"rt":787.5200000125915,"accuracy":1,"outcome":"+10","keys":[2288.0500000319444],"total_keys":1,"block":2,"trial":191,"stimulus":4,"robot":1,"valence":"win","action":"go","sham":0,"trial_type":"pit-trial","trial_index":214,"time_elapsed":959623,"internal_node_id":"0.0-193.0","task_version":"battery-v0.2"},{"rune":"K","rune_set":"bacs1","hex":"#f73b6a7A","correct":-1,"choice":-1,"rt":-1,"accuracy":1,"outcome":"-1","keys":[],"total_keys":0,"block":2,"trial":192,"stimulus":6,"robot":4,"valence":"lose","action":"no-go","sham":0,"trial_type":"pit-trial","trial_index":215,"time_elapsed":963627,"internal_node_id":"0.0-194.0","task_version":"battery-v0.2"},{"rune":"U","rune_set":"bacs1","hex":"#3366ff99","correct":32,"choice":32,"rt":663.7350000091828,"accuracy":1,"outcome":"+10","keys":[2164.8000000277534],"total_keys":1,"block":2,"trial":193,"stimulus":4,"robot":1,"valence":"win","action":"go","sham":0,"trial_type":"pit-trial","trial_index":216,"time_elapsed":966994,"internal_node_id":"0.0-195.0","task_version":"battery-v0.2"},{"rune":"K","rune_set":"bacs1","hex":"#f73b6a7A","correct":-1,"choice":32,"rt":1057.7699999557808,"accuracy":0,"outcome":"-10","keys":[2559.3099999823608],"total_keys":1,"block":2,"trial":194,"stimulus":6,"robot":4,"valence":"lose","action":"no-go","sham":0,"trial_type":"pit-trial","trial_index":217,"time_elapsed":970757,"internal_node_id":"0.0-196.0","task_version":"battery-v0.2"},{"rune":"D","rune_set":"bacs1","hex":"#3366ff99","correct":-1,"choice":-1,"rt":-1,"accuracy":1,"outcome":"+10","keys":[],"total_keys":0,"block":2,"trial":195,"stimulus":7,"robot":2,"valence":"win","action":"no-go","sham":0,"trial_type":"pit-trial","trial_index":218,"time_elapsed":974775,"internal_node_id":"0.0-197.0","task_version":"battery-v0.2"},{"rune":"O","rune_set":"bacs1","hex":"#f73b6a7A","correct":32,"choice":-1,"rt":-1,"accuracy":0,"outcome":"-10","keys":[],"total_keys":0,"block":2,"trial":196,"stimulus":8,"robot":3,"valence":"lose","action":"go","sham":0,"trial_type":"pit-trial","trial_index":219,"time_elapsed":978780,"internal_node_id":"0.0-198.0","task_version":"battery-v0.2"},{"rune":"O","rune_set":"bacs1","hex":"#f73b6a7A","correct":32,"choice":32,"rt":652.2949999780394,"accuracy":1,"outcome":"-1","keys":[2152.9699999955483],"total_keys":1,"block":2,"trial":197,"stimulus":8,"robot":3,"valence":"lose","action":"go","sham":0,"trial_type":"pit-trial","trial_index":220,"time_elapsed":982135,"internal_node_id":"0.0-199.0","task_version":"battery-v0.2"},{"rune":"D","rune_set":"bacs1","hex":"#3366ff99","correct":-1,"choice":-1,"rt":-1,"accuracy":1,"outcome":"+10","keys":[],"total_keys":0,"block":2,"trial":198,"stimulus":7,"robot":2,"valence":"win","action":"no-go","sham":0,"trial_type":"pit-trial","trial_index":221,"time_elapsed":986138,"internal_node_id":"0.0-200.0","task_version":"battery-v0.2"},{"rune":"U","rune_set":"bacs1","hex":"#3366ff99","correct":32,"choice":32,"rt":555.9750000247732,"accuracy":1,"outcome":"+1","keys":[2056.0399999958463],"total_keys":1,"block":2,"trial":199,"stimulus":4,"robot":1,"valence":"win","action":"go","sham":1,"trial_type":"pit-trial","trial_index":222,"time_elapsed":989397,"internal_node_id":"0.0-201.0","task_version":"battery-v0.2"},{"rune":"K","rune_set":"bacs1","hex":"#f73b6a7A","correct":-1,"choice":-1,"rt":-1,"accuracy":1,"outcome":"-10","keys":[],"total_keys":0,"block":2,"trial":200,"stimulus":6,"robot":4,"valence":"lose","action":"no-go","sham":1,"trial_type":"pit-trial","trial_index":223,"time_elapsed":993400,"internal_node_id":"0.0-202.0","task_version":"battery-v0.2"},{"rune":"O","rune_set":"bacs1","hex":"#f73b6a7A","correct":32,"choice":-1,"rt":-1,"accuracy":0,"outcome":"-1","keys":[2801.869999966584],"total_keys":1,"block":2,"trial":201,"stimulus":8,"robot":3,"valence":"lose","action":"go","sham":1,"trial_type":"pit-trial","trial_index":224,"time_elapsed":997402,"internal_node_id":"0.0-203.0","task_version":"battery-v0.2"},{"rune":"D","rune_set":"bacs1","hex":"#3366ff99","correct":-1,"choice":32,"rt":750.3549999673851,"accuracy":0,"outcome":"+1","keys":[2251.6849999665283],"total_keys":1,"block":2,"trial":202,"stimulus":7,"robot":2,"valence":"win","action":"no-go","sham":0,"trial_type":"pit-trial","trial_index":225,"time_elapsed":1000857,"internal_node_id":"0.0-204.0","task_version":"battery-v0.2"},{"rune":"K","rune_set":"bacs1","hex":"#f73b6a7A","correct":-1,"choice":-1,"rt":-1,"accuracy":1,"outcome":"-10","keys":[3104.049999965355],"total_keys":1,"block":2,"trial":203,"stimulus":6,"robot":4,"valence":"lose","action":"no-go","sham":1,"trial_type":"pit-trial","trial_index":226,"time_elapsed":1004860,"internal_node_id":"0.0-205.0","task_version":"battery-v0.2"},{"rune":"I","rune_set":"bacs1","hex":"#f73b6a7A","correct":32,"choice":-1,"rt":-1,"accuracy":0,"outcome":"-10","keys":[2824.1150000249036],"total_keys":1,"block":2,"trial":204,"stimulus":9,"robot":3,"valence":"lose","action":"go","sham":0,"trial_type":"pit-trial","trial_index":227,"time_elapsed":1008864,"internal_node_id":"0.0-206.0","task_version":"battery-v0.2"},{"rune":"D","rune_set":"bacs1","hex":"#3366ff99","correct":-1,"choice":32,"rt":1203.830000013113,"accuracy":0,"outcome":"+1","keys":[2704.9450000049546],"total_keys":1,"block":2,"trial":205,"stimulus":7,"robot":2,"valence":"win","action":"no-go","sham":0,"trial_type":"pit-trial","trial_index":228,"time_elapsed":1012772,"internal_node_id":"0.0-207.0","task_version":"battery-v0.2"},{"rune":"K","rune_set":"bacs1","hex":"#f73b6a7A","correct":-1,"choice":32,"rt":635.2499999920838,"accuracy":0,"outcome":"-10","keys":[2136.3150000106543],"total_keys":1,"block":2,"trial":206,"stimulus":6,"robot":4,"valence":"lose","action":"no-go","sham":0,"trial_type":"pit-trial","trial_index":229,"time_elapsed":1016111,"internal_node_id":"0.0-208.0","task_version":"battery-v0.2"},{"rune":"O","rune_set":"bacs1","hex":"#f73b6a7A","correct":32,"choice":32,"rt":883.9349999907427,"accuracy":1,"outcome":"-1","keys":[2384.0600000112318],"total_keys":1,"block":2,"trial":207,"stimulus":8,"robot":3,"valence":"lose","action":"go","sham":0,"trial_type":"pit-trial","trial_index":230,"time_elapsed":1019697,"internal_node_id":"0.0-209.0","task_version":"battery-v0.2"},{"rune":"I","rune_set":"bacs1","hex":"#f73b6a7A","correct":32,"choice":-1,"rt":-1,"accuracy":0,"outcome":"-10","keys":[],"total_keys":0,"block":2,"trial":208,"stimulus":9,"robot":3,"valence":"lose","action":"go","sham":0,"trial_type":"pit-trial","trial_index":231,"time_elapsed":1023701,"internal_node_id":"0.0-210.0","task_version":"battery-v0.2"},{"rune":"N","rune_set":"bacs1","hex":"#3366ff99","correct":-1,"choice":32,"rt":488.3750000153668,"accuracy":0,"outcome":"+1","keys":[1989.5850000320934],"total_keys":1,"block":2,"trial":209,"stimulus":11,"robot":2,"valence":"win","action":"no-go","sham":0,"trial_type":"pit-trial","trial_index":232,"time_elapsed":1026893,"internal_node_id":"0.0-211.0","task_version":"battery-v0.2"},{"rune":"I","rune_set":"bacs1","hex":"#f73b6a7A","correct":32,"choice":32,"rt":1136.884999985341,"accuracy":1,"outcome":"-1","keys":[2637.2499999706633],"total_keys":1,"block":2,"trial":210,"stimulus":9,"robot":3,"valence":"lose","action":"go","sham":0,"trial_type":"pit-trial","trial_index":233,"time_elapsed":1030733,"internal_node_id":"0.0-212.0","task_version":"battery-v0.2"},{"rune":"O","rune_set":"bacs1","hex":"#f73b6a7A","correct":32,"choice":32,"rt":1081.899999990128,"accuracy":1,"outcome":"-1","keys":[2582.08999998169],"total_keys":1,"block":2,"trial":211,"stimulus":8,"robot":3,"valence":"lose","action":"go","sham":0,"trial_type":"pit-trial","trial_index":234,"time_elapsed":1034533,"internal_node_id":"0.0-213.0","task_version":"battery-v0.2"},{"rune":"G","rune_set":"bacs1","hex":"#f73b6a7A","correct":-1,"choice":-1,"rt":-1,"accuracy":1,"outcome":"-1","keys":[],"total_keys":0,"block":2,"trial":212,"stimulus":10,"robot":4,"valence":"lose","action":"no-go","sham":0,"trial_type":"pit-trial","trial_index":235,"time_elapsed":1038537,"internal_node_id":"0.0-214.0","task_version":"battery-v0.2"},{"rune":"G","rune_set":"bacs1","hex":"#f73b6a7A","correct":-1,"choice":-1,"rt":-1,"accuracy":1,"outcome":"-1","keys":[2858.1150000100024],"total_keys":1,"block":2,"trial":213,"stimulus":10,"robot":4,"valence":"lose","action":"no-go","sham":0,"trial_type":"pit-trial","trial_index":236,"time_elapsed":1042543,"internal_node_id":"0.0-215.0","task_version":"battery-v0.2"},{"rune":"I","rune_set":"bacs1","hex":"#f73b6a7A","correct":32,"choice":32,"rt":497.899999958463,"accuracy":1,"outcome":"-1","keys":[1998.9449999993667],"total_keys":1,"block":2,"trial":214,"stimulus":9,"robot":3,"valence":"lose","action":"go","sham":0,"trial_type":"pit-trial","trial_index":237,"time_elapsed":1045744,"internal_node_id":"0.0-216.0","task_version":"battery-v0.2"},{"rune":"O","rune_set":"bacs1","hex":"#f73b6a7A","correct":32,"choice":-1,"rt":-1,"accuracy":0,"outcome":"-1","keys":[],"total_keys":0,"block":2,"trial":215,"stimulus":8,"robot":3,"valence":"lose","action":"go","sham":1,"trial_type":"pit-trial","trial_index":238,"time_elapsed":1049747,"internal_node_id":"0.0-217.0","task_version":"battery-v0.2"},{"rune":"N","rune_set":"bacs1","hex":"#3366ff99","correct":-1,"choice":32,"rt":879.8400000086986,"accuracy":0,"outcome":"+1","keys":[2380.2700000233017],"total_keys":1,"block":2,"trial":216,"stimulus":11,"robot":2,"valence":"win","action":"no-go","sham":0,"trial_type":"pit-trial","trial_index":239,"time_elapsed":1053329,"internal_node_id":"0.0-218.0","task_version":"battery-v0.2"},{"rune":"G","rune_set":"bacs1","hex":"#f73b6a7A","correct":-1,"choice":-1,"rt":-1,"accuracy":1,"outcome":"-1","keys":[],"total_keys":0,"block":2,"trial":217,"stimulus":10,"robot":4,"valence":"lose","action":"no-go","sham":0,"trial_type":"pit-trial","trial_index":240,"time_elapsed":1057332,"internal_node_id":"0.0-219.0","task_version":"battery-v0.2"},{"rune":"N","rune_set":"bacs1","hex":"#3366ff99","correct":-1,"choice":32,"rt":560.2599999983795,"accuracy":0,"outcome":"+1","keys":[2060.3850000188686],"total_keys":1,"block":2,"trial":218,"stimulus":11,"robot":2,"valence":"win","action":"no-go","sham":0,"trial_type":"pit-trial","trial_index":241,"time_elapsed":1060596,"internal_node_id":"0.0-220.0","task_version":"battery-v0.2"},{"rune":"I","rune_set":"bacs1","hex":"#f73b6a7A","correct":32,"choice":-1,"rt":-1,"accuracy":0,"outcome":"-10","keys":[],"total_keys":0,"block":2,"trial":219,"stimulus":9,"robot":3,"valence":"lose","action":"go","sham":0,"trial_type":"pit-trial","trial_index":242,"time_elapsed":1064598,"internal_node_id":"0.0-221.0","task_version":"battery-v0.2"},{"rune":"O","rune_set":"bacs1","hex":"#f73b6a7A","correct":32,"choice":-1,"rt":-1,"accuracy":0,"outcome":"-10","keys":[],"total_keys":0,"block":2,"trial":220,"stimulus":8,"robot":3,"valence":"lose","action":"go","sham":0,"trial_type":"pit-trial","trial_index":243,"time_elapsed":1068603,"internal_node_id":"0.0-222.0","task_version":"battery-v0.2"},{"rune":"I","rune_set":"bacs1","hex":"#f73b6a7A","correct":32,"choice":32,"rt":479.0200000279583,"accuracy":1,"outcome":"-1","keys":[1979.2649999726564],"total_keys":1,"block":2,"trial":221,"stimulus":9,"robot":3,"valence":"lose","action":"go","sham":0,"trial_type":"pit-trial","trial_index":244,"time_elapsed":1071785,"internal_node_id":"0.0-223.0","task_version":"battery-v0.2"},{"rune":"G","rune_set":"bacs1","hex":"#f73b6a7A","correct":-1,"choice":32,"rt":727.1799999871291,"accuracy":0,"outcome":"-10","keys":[2227.474999963306],"total_keys":1,"block":2,"trial":222,"stimulus":10,"robot":4,"valence":"lose","action":"no-go","sham":0,"trial_type":"pit-trial","trial_index":245,"time_elapsed":1075215,"internal_node_id":"0.0-224.0","task_version":"battery-v0.2"},{"rune":"O","rune_set":"bacs1","hex":"#f73b6a7A","correct":32,"choice":32,"rt":717.4399999785237,"accuracy":1,"outcome":"-1","keys":[2218.1100000161678],"total_keys":1,"block":2,"trial":223,"stimulus":8,"robot":3,"valence":"lose","action":"go","sham":0,"trial_type":"pit-trial","trial_index":246,"time_elapsed":1078635,"internal_node_id":"0.0-225.0","task_version":"battery-v0.2"},{"rune":"N","rune_set":"bacs1","hex":"#3366ff99","correct":-1,"choice":32,"rt":566.9099999940954,"accuracy":0,"outcome":"+10","keys":[2067.7799999830313],"total_keys":1,"block":2,"trial":224,"stimulus":11,"robot":2,"valence":"win","action":"no-go","sham":1,"trial_type":"pit-trial","trial_index":247,"time_elapsed":1081905,"internal_node_id":"0.0-226.0","task_version":"battery-v0.2"},{"rune":"O","rune_set":"bacs1","hex":"#f73b6a7A","correct":32,"choice":32,"rt":818.0350000038743,"accuracy":1,"outcome":"-1","keys":[2319.469999987632],"total_keys":1,"block":2,"trial":225,"stimulus":8,"robot":3,"valence":"lose","action":"go","sham":0,"trial_type":"pit-trial","trial_index":248,"time_elapsed":1085427,"internal_node_id":"0.0-227.0","task_version":"battery-v0.2"},{"rune":"I","rune_set":"bacs1","hex":"#f73b6a7A","correct":32,"choice":32,"rt":658.2700000144541,"accuracy":1,"outcome":"-1","keys":[2158.880000002682],"total_keys":1,"block":2,"trial":226,"stimulus":9,"robot":3,"valence":"lose","action":"go","sham":0,"trial_type":"pit-trial","trial_index":249,"time_elapsed":1088789,"internal_node_id":"0.0-228.0","task_version":"battery-v0.2"},{"rune":"G","rune_set":"bacs1","hex":"#f73b6a7A","correct":-1,"choice":32,"rt":652.2450000047684,"accuracy":0,"outcome":"-10","keys":[2153.219999978319],"total_keys":1,"block":2,"trial":227,"stimulus":10,"robot":4,"valence":"lose","action":"no-go","sham":0,"trial_type":"pit-trial","trial_index":250,"time_elapsed":1092145,"internal_node_id":"0.0-229.0","task_version":"battery-v0.2"},{"rune":"N","rune_set":"bacs1","hex":"#3366ff99","correct":-1,"choice":32,"rt":830.2400000393391,"accuracy":0,"outcome":"+1","keys":[2331.9400000036694],"total_keys":1,"block":2,"trial":228,"stimulus":11,"robot":2,"valence":"win","action":"no-go","sham":0,"trial_type":"pit-trial","trial_index":251,"time_elapsed":1095680,"internal_node_id":"0.0-230.0","task_version":"battery-v0.2"},{"rune":"I","rune_set":"bacs1","hex":"#f73b6a7A","correct":32,"choice":32,"rt":803.0799999833107,"accuracy":1,"outcome":"-1","keys":[2303.6299999803305],"total_keys":1,"block":2,"trial":229,"stimulus":9,"robot":3,"valence":"lose","action":"go","sham":0,"trial_type":"pit-trial","trial_index":252,"time_elapsed":1099186,"internal_node_id":"0.0-231.0","task_version":"battery-v0.2"},{"rune":"O","rune_set":"bacs1","hex":"#f73b6a7A","correct":32,"choice":32,"rt":686.5250000264496,"accuracy":1,"outcome":"-10","keys":[2186.8300000205636],"total_keys":1,"block":2,"trial":230,"stimulus":8,"robot":3,"valence":"lose","action":"go","sham":1,"trial_type":"pit-trial","trial_index":253,"time_elapsed":1102576,"internal_node_id":"0.0-232.0","task_version":"battery-v0.2"},{"rune":"N","rune_set":"bacs1","hex":"#3366ff99","correct":-1,"choice":32,"rt":653.8150000269525,"accuracy":0,"outcome":"+1","keys":[2154.8300000140443],"total_keys":1,"block":2,"trial":231,"stimulus":11,"robot":2,"valence":"win","action":"no-go","sham":0,"trial_type":"pit-trial","trial_index":254,"time_elapsed":1105933,"internal_node_id":"0.0-233.0","task_version":"battery-v0.2"},{"rune":"G","rune_set":"bacs1","hex":"#f73b6a7A","correct":-1,"choice":-1,"rt":-1,"accuracy":1,"outcome":"-10","keys":[],"total_keys":0,"block":2,"trial":232,"stimulus":10,"robot":4,"valence":"lose","action":"no-go","sham":1,"trial_type":"pit-trial","trial_index":255,"time_elapsed":1109937,"internal_node_id":"0.0-234.0","task_version":"battery-v0.2"},{"rune":"O","rune_set":"bacs1","hex":"#f73b6a7A","correct":32,"choice":32,"rt":1286.870000010822,"accuracy":1,"outcome":"-1","keys":[2787.190000002738],"total_keys":1,"block":2,"trial":233,"stimulus":8,"robot":3,"valence":"lose","action":"go","sham":0,"trial_type":"pit-trial","trial_index":256,"time_elapsed":1113927,"internal_node_id":"0.0-235.0","task_version":"battery-v0.2"},{"rune":"G","rune_set":"bacs1","hex":"#f73b6a7A","correct":-1,"choice":32,"rt":1266.0150000010617,"accuracy":0,"outcome":"-10","keys":[2766.155000019353],"total_keys":1,"block":2,"trial":234,"stimulus":10,"robot":4,"valence":"lose","action":"no-go","sham":0,"trial_type":"pit-trial","trial_index":257,"time_elapsed":1117897,"internal_node_id":"0.0-236.0","task_version":"battery-v0.2"},{"rune":"N","rune_set":"bacs1","hex":"#3366ff99","correct":-1,"choice":32,"rt":484.5249999780208,"accuracy":0,"outcome":"+1","keys":[1986.4449999877252],"total_keys":1,"block":2,"trial":235,"stimulus":11,"robot":2,"valence":"win","action":"no-go","sham":0,"trial_type":"pit-trial","trial_index":258,"time_elapsed":1121087,"internal_node_id":"0.0-237.0","task_version":"battery-v0.2"},{"rune":"I","rune_set":"bacs1","hex":"#f73b6a7A","correct":32,"choice":-1,"rt":-1,"accuracy":0,"outcome":"-10","keys":[],"total_keys":0,"block":2,"trial":236,"stimulus":9,"robot":3,"valence":"lose","action":"go","sham":0,"trial_type":"pit-trial","trial_index":259,"time_elapsed":1125090,"internal_node_id":"0.0-238.0","task_version":"battery-v0.2"},{"rune":"I","rune_set":"bacs1","hex":"#f73b6a7A","correct":32,"choice":32,"rt":791.3299999781884,"accuracy":1,"outcome":"-1","keys":[2291.464999958407],"total_keys":1,"block":2,"trial":237,"stimulus":9,"robot":3,"valence":"lose","action":"go","sham":0,"trial_type":"pit-trial","trial_index":260,"time_elapsed":1128583,"internal_node_id":"0.0-239.0","task_version":"battery-v0.2"},{"rune":"G","rune_set":"bacs1","hex":"#f73b6a7A","correct":-1,"choice":-1,"rt":-1,"accuracy":1,"outcome":"-1","keys":[],"total_keys":0,"block":2,"trial":238,"stimulus":10,"robot":4,"valence":"lose","action":"no-go","sham":0,"trial_type":"pit-trial","trial_index":261,"time_elapsed":1132586,"internal_node_id":"0.0-240.0","task_version":"battery-v0.2"},{"rune":"N","rune_set":"bacs1","hex":"#3366ff99","correct":-1,"choice":32,"rt":436.710000038147,"accuracy":0,"outcome":"+1","keys":[1936.890000011772],"total_keys":1,"block":2,"trial":239,"stimulus":11,"robot":2,"valence":"win","action":"no-go","sham":0,"trial_type":"pit-trial","trial_index":262,"time_elapsed":1135726,"internal_node_id":"0.0-241.0","task_version":"battery-v0.2"},{"rune":"O","rune_set":"bacs1","hex":"#f73b6a7A","correct":32,"choice":-1,"rt":-1,"accuracy":0,"outcome":"-1","keys":[],"total_keys":0,"block":2,"trial":240,"stimulus":8,"robot":3,"valence":"lose","action":"go","sham":1,"trial_type":"pit-trial","trial_index":263,"time_elapsed":1139730,"internal_node_id":"0.0-242.0","task_version":"battery-v0.2"},{"view_history":"[{\"page_index\":0,\"viewing_time\":1605.2700000000186}]","rt":1605.6450000032783,"trial_type":"pit-instructions","trial_index":264,"time_elapsed":1141337,"internal_node_id":"0.0-243.0","task_version":"battery-v0.2"},{"rt":10119.270000024699,"responses":{"age":"37","gender-categorical":"Female","gender-free-response":"","ethnicity":"Not Hispanic or Latino","race":["White"],"language":"Yes","fluency":"Very well"},"survey":"demographics","trial_type":"survey-demo","trial_index":265,"time_elapsed":1151459,"internal_node_id":"0.0-244.0","task_version":"battery-v0.2"},{"rt":17933.78500000108,"responses":{"difficulty":"4","fun":"4","clarity":"5","strategy":"tried to remember the symbols","feedback":""},"survey":"debrief","trial_type":"survey-debrief","trial_index":266,"time_elapsed":1169395,"internal_node_id":"0.0-245.0","task_version":"battery-v0.2","interactions":"[{\"event\":\"blur\",\"trial\":0,\"time\":3003},{\"event\":\"focus\",\"trial\":0,\"time\":86891}]"}]