[{"view_history":"[{\"page_index\":0,\"viewing_time\":8498.00000002142},{\"page_index\":1,\"viewing_time\":5989.999999990687},{\"page_index\":2,\"viewing_time\":7785.000000032596},{\"page_index\":3,\"viewing_time\":8270.000000018626},{\"page_index\":4,\"viewing_time\":10606.999999959953},{\"page_index\":5,\"viewing_time\":6241.999999969266},{\"page_index\":6,\"viewing_time\":4111.000000033528},{\"page_index\":7,\"viewing_time\":10542.000000015832},{\"page_index\":8,\"viewing_time\":8045.999999972992},{\"page_index\":9,\"viewing_time\":4310.9999999869615}]","rt":74403.99999998044,"trial_type":"pit-instructions","trial_index":0,"time_elapsed":74453,"internal_node_id":"0.0-0.0-0.0","task_version":"battery-v0.2"},{"rune":"1","rune_set":"elianto","hex":"#3366ff99","correct":32,"choice":-1,"rt":-1,"accuracy":0,"outcome":"+1","keys":[],"total_keys":0,"block":0,"practice":1,"trial_type":"pit-trial","trial_index":1,"time_elapsed":78461,"internal_node_id":"0.0-0.0-1.0-0.0","task_version":"battery-v0.2"},{"rune":"1","rune_set":"elianto","hex":"#3366ff99","correct":32,"choice":-1,"rt":-1,"accuracy":0,"outcome":"+1","keys":[],"total_keys":0,"block":0,"practice":1,"trial_type":"pit-trial","trial_index":2,"time_elapsed":82463,"internal_node_id":"0.0-0.0-1.1-0.1","task_version":"battery-v0.2"},{"rune":"1","rune_set":"elianto","hex":"#3366ff99","correct":32,"choice":-1,"rt":-1,"accuracy":0,"outcome":"+1","keys":[],"total_keys":0,"block":0,"practice":1,"trial_type":"pit-trial","trial_index":3,"time_elapsed":86468,"internal_node_id":"0.0-0.0-1.2-0.2","task_version":"battery-v0.2"},{"rune":"1","rune_set":"elianto","hex":"#3366ff99","correct":32,"choice":-1,"rt":-1,"accuracy":0,"outcome":"+1","keys":[],"total_keys":0,"block":0,"practice":1,"trial_type":"pit-trial","trial_index":4,"time_elapsed":90473,"internal_node_id":"0.0-0.0-1.3-0.3","task_version":"battery-v0.2"},{"rune":"1","rune_set":"elianto","hex":"#3366ff99","correct":32,"choice":-1,"rt":-1,"accuracy":0,"outcome":"+1","keys":[],"total_keys":0,"block":0,"practice":1,"trial_type":"pit-trial","trial_index":5,"time_elapsed":94475,"internal_node_id":"0.0-0.0-1.4-0.4","task_version":"battery-v0.2"},{"rune":"1","rune_set":"elianto","hex":"#3366ff99","correct":32,"choice":-1,"rt":-1,"accuracy":0,"outcome":"+1","keys":[],"total_keys":0,"block":0,"practice":1,"trial_type":"pit-trial","trial_index":6,"time_elapsed":98476,"internal_node_id":"0.0-0.0-1.5-0.5","task_version":"battery-v0.2"},{"rune":"1","rune_set":"elianto","hex":"#3366ff99","correct":32,"choice":-1,"rt":-1,"accuracy":0,"outcome":"+1","keys":[],"total_keys":0,"block":0,"practice":1,"trial_type":"pit-trial","trial_index":7,"time_elapsed":102479,"internal_node_id":"0.0-0.0-1.6-0.6","task_version":"battery-v0.2"},{"rune":"1","rune_set":"elianto","hex":"#3366ff99","correct":32,"choice":-1,"rt":-1,"accuracy":0,"outcome":"+1","keys":[],"total_keys":0,"block":0,"practice":1,"trial_type":"pit-trial","trial_index":8,"time_elapsed":106491,"internal_node_id":"0.0-0.0-1.7-0.7","task_version":"battery-v0.2"},{"rune":"1","rune_set":"elianto","hex":"#3366ff99","correct":32,"choice":-1,"rt":-1,"accuracy":0,"outcome":"+1","keys":[],"total_keys":0,"block":0,"practice":1,"trial_type":"pit-trial","trial_index":9,"time_elapsed":110495,"internal_node_id":"0.0-0.0-1.8-0.8","task_version":"battery-v0.2"},{"rune":"1","rune_set":"elianto","hex":"#3366ff99","correct":32,"choice":-1,"rt":-1,"accuracy":0,"outcome":"+1","keys":[],"total_keys":0,"block":0,"practice":1,"trial_type":"pit-trial","trial_index":10,"time_elapsed":114500,"internal_node_id":"0.0-0.0-1.9-0.9","task_version":"battery-v0.2"},{"rune":"1","rune_set":"elianto","hex":"#3366ff99","correct":32,"choice":-1,"rt":-1,"accuracy":0,"outcome":"+1","keys":[],"total_keys":0,"block":0,"practice":1,"trial_type":"pit-trial","trial_index":11,"time_elapsed":118509,"internal_node_id":"0.0-0.0-1.10-0.10","task_version":"battery-v0.2"},{"rune":"1","rune_set":"elianto","hex":"#3366ff99","correct":32,"choice":-1,"rt":-1,"accuracy":0,"outcome":"+1","keys":[],"total_keys":0,"block":0,"practice":1,"trial_type":"pit-trial","trial_index":12,"time_elapsed":122516,"internal_node_id":"0.0-0.0-1.11-0.11","task_version":"battery-v0.2"},{"rune":"1","rune_set":"elianto","hex":"#3366ff99","correct":32,"choice":-1,"rt":-1,"accuracy":0,"outcome":"+1","keys":[],"total_keys":0,"block":0,"practice":1,"trial_type":"pit-trial","trial_index":13,"time_elapsed":126530,"internal_node_id":"0.0-0.0-1.12-0.12","task_version":"battery-v0.2"},{"rune":"1","rune_set":"elianto","hex":"#3366ff99","correct":32,"choice":-1,"rt":-1,"accuracy":0,"outcome":"+1","keys":[],"total_keys":0,"block":0,"practice":1,"trial_type":"pit-trial","trial_index":14,"time_elapsed":130549,"internal_node_id":"0.0-0.0-1.13-0.13","task_version":"battery-v0.2"},{"rune":"1","rune_set":"elianto","hex":"#3366ff99","correct":32,"choice":-1,"rt":-1,"accuracy":0,"outcome":"+1","keys":[],"total_keys":0,"block":0,"practice":1,"trial_type":"pit-trial","trial_index":15,"time_elapsed":134552,"internal_node_id":"0.0-0.0-1.14-0.14","task_version":"battery-v0.2"},{"rune":"1","rune_set":"elianto","hex":"#3366ff99","correct":32,"choice":-1,"rt":-1,"accuracy":0,"outcome":"+1","keys":[],"total_keys":0,"block":0,"practice":1,"trial_type":"pit-trial","trial_index":16,"time_elapsed":138565,"internal_node_id":"0.0-0.0-1.15-0.15","task_version":"battery-v0.2"},{"rune":"1","rune_set":"elianto","hex":"#3366ff99","correct":32,"choice":-1,"rt":-1,"accuracy":0,"outcome":"+1","keys":[],"total_keys":0,"block":0,"practice":1,"trial_type":"pit-trial","trial_index":17,"time_elapsed":142568,"internal_node_id":"0.0-0.0-1.16-0.16","task_version":"battery-v0.2"},{"rune":"1","rune_set":"elianto","hex":"#3366ff99","correct":32,"choice":-1,"rt":-1,"accuracy":0,"outcome":"+1","keys":[],"total_keys":0,"block":0,"practice":1,"trial_type":"pit-trial","trial_index":18,"time_elapsed":146570,"internal_node_id":"0.0-0.0-1.17-0.17","task_version":"battery-v0.2"},{"rune":"1","rune_set":"elianto","hex":"#3366ff99","correct":32,"choice":-1,"rt":-1,"accuracy":0,"outcome":"+1","keys":[],"total_keys":0,"block":0,"practice":1,"trial_type":"pit-trial","trial_index":19,"time_elapsed":150574,"internal_node_id":"0.0-0.0-1.18-0.18","task_version":"battery-v0.2"},{"rune":"1","rune_set":"elianto","hex":"#3366ff99","correct":32,"choice":-1,"rt":-1,"accuracy":0,"outcome":"+1","keys":[],"total_keys":0,"block":0,"practice":1,"trial_type":"pit-trial","trial_index":20,"time_elapsed":154581,"internal_node_id":"0.0-0.0-1.19-0.19","task_version":"battery-v0.2"},{"rune":"1","rune_set":"elianto","hex":"#3366ff99","correct":32,"choice":-1,"rt":-1,"accuracy":0,"outcome":"+1","keys":[],"total_keys":0,"block":0,"practice":1,"trial_type":"pit-trial","trial_index":21,"time_elapsed":158601,"internal_node_id":"0.0-0.0-1.20-0.20","task_version":"battery-v0.2"},{"rune":"1","rune_set":"elianto","hex":"#3366ff99","correct":32,"choice":-1,"rt":-1,"accuracy":0,"outcome":"+1","keys":[],"total_keys":0,"block":0,"practice":1,"trial_type":"pit-trial","trial_index":22,"time_elapsed":162612,"internal_node_id":"0.0-0.0-1.21-0.21","task_version":"battery-v0.2"},{"rune":"1","rune_set":"elianto","hex":"#3366ff99","correct":32,"choice":-1,"rt":-1,"accuracy":0,"outcome":"+1","keys":[],"total_keys":0,"block":0,"practice":1,"trial_type":"pit-trial","trial_index":23,"time_elapsed":166636,"internal_node_id":"0.0-0.0-1.22-0.22","task_version":"battery-v0.2"},{"rune":"1","rune_set":"elianto","hex":"#3366ff99","correct":32,"choice":-1,"rt":-1,"accuracy":0,"outcome":"+1","keys":[],"total_keys":0,"block":0,"practice":1,"trial_type":"pit-trial","trial_index":24,"time_elapsed":170645,"internal_node_id":"0.0-0.0-1.23-0.23","task_version":"battery-v0.2"},{"rune":"1","rune_set":"elianto","hex":"#3366ff99","correct":32,"choice":-1,"rt":-1,"accuracy":0,"outcome":"+1","keys":[],"total_keys":0,"block":0,"practice":1,"trial_type":"pit-trial","trial_index":25,"time_elapsed":174646,"internal_node_id":"0.0-0.0-1.24-0.24","task_version":"battery-v0.2"},{"rune":"1","rune_set":"elianto","hex":"#3366ff99","correct":32,"choice":-1,"rt":-1,"accuracy":0,"outcome":"+1","keys":[],"total_keys":0,"block":0,"practice":1,"trial_type":"pit-trial","trial_index":26,"time_elapsed":178650,"internal_node_id":"0.0-0.0-1.25-0.25","task_version":"battery-v0.2"},{"rune":"1","rune_set":"elianto","hex":"#3366ff99","correct":32,"choice":-1,"rt":-1,"accuracy":0,"outcome":"+1","keys":[],"total_keys":0,"block":0,"practice":1,"trial_type":"pit-trial","trial_index":27,"time_elapsed":182653,"internal_node_id":"0.0-0.0-1.26-0.26","task_version":"battery-v0.2"},{"rune":"1","rune_set":"elianto","hex":"#3366ff99","correct":32,"choice":-1,"rt":-1,"accuracy":0,"outcome":"+1","keys":[],"total_keys":0,"block":0,"practice":1,"trial_type":"pit-trial","trial_index":28,"time_elapsed":186659,"internal_node_id":"0.0-0.0-1.27-0.27","task_version":"battery-v0.2"},{"rune":"1","rune_set":"elianto","hex":"#3366ff99","correct":32,"choice":-1,"rt":-1,"accuracy":0,"outcome":"+1","keys":[],"total_keys":0,"block":0,"practice":1,"trial_type":"pit-trial","trial_index":29,"time_elapsed":190663,"internal_node_id":"0.0-0.0-1.28-0.28","task_version":"battery-v0.2"},{"rune":"1","rune_set":"elianto","hex":"#3366ff99","correct":32,"choice":-1,"rt":-1,"accuracy":0,"outcome":"+1","keys":[],"total_keys":0,"block":0,"practice":1,"trial_type":"pit-trial","trial_index":30,"time_elapsed":194669,"internal_node_id":"0.0-0.0-1.29-0.29","task_version":"battery-v0.2"},{"rune":"1","rune_set":"elianto","hex":"#3366ff99","correct":32,"choice":-1,"rt":-1,"accuracy":0,"outcome":"+1","keys":[],"total_keys":0,"block":0,"practice":1,"trial_type":"pit-trial","trial_index":31,"time_elapsed":198672,"internal_node_id":"0.0-0.0-1.30-0.30","task_version":"battery-v0.2"},{"rune":"1","rune_set":"elianto","hex":"#3366ff99","correct":32,"choice":-1,"rt":-1,"accuracy":0,"outcome":"+1","keys":[],"total_keys":0,"block":0,"practice":1,"trial_type":"pit-trial","trial_index":32,"time_elapsed":202676,"internal_node_id":"0.0-0.0-1.31-0.31","task_version":"battery-v0.2"},{"rune":"1","rune_set":"elianto","hex":"#3366ff99","correct":32,"choice":-1,"rt":-1,"accuracy":0,"outcome":"+1","keys":[],"total_keys":0,"block":0,"practice":1,"trial_type":"pit-trial","trial_index":33,"time_elapsed":206682,"internal_node_id":"0.0-0.0-1.32-0.32","task_version":"battery-v0.2"},{"rune":"1","rune_set":"elianto","hex":"#3366ff99","correct":32,"choice":-1,"rt":-1,"accuracy":0,"outcome":"+1","keys":[],"total_keys":0,"block":0,"practice":1,"trial_type":"pit-trial","trial_index":34,"time_elapsed":210685,"internal_node_id":"0.0-0.0-1.33-0.33","task_version":"battery-v0.2"},{"rune":"1","rune_set":"elianto","hex":"#3366ff99","correct":32,"choice":-1,"rt":-1,"accuracy":0,"outcome":"+1","keys":[],"total_keys":0,"block":0,"practice":1,"trial_type":"pit-trial","trial_index":35,"time_elapsed":214691,"internal_node_id":"0.0-0.0-1.34-0.34","task_version":"battery-v0.2"},{"rune":"1","rune_set":"elianto","hex":"#3366ff99","correct":32,"choice":-1,"rt":-1,"accuracy":0,"outcome":"+1","keys":[],"total_keys":0,"block":0,"practice":1,"trial_type":"pit-trial","trial_index":36,"time_elapsed":218706,"internal_node_id":"0.0-0.0-1.35-0.35","task_version":"battery-v0.2"},{"rune":"1","rune_set":"elianto","hex":"#3366ff99","correct":32,"choice":-1,"rt":-1,"accuracy":0,"outcome":"+1","keys":[],"total_keys":0,"block":0,"practice":1,"trial_type":"pit-trial","trial_index":37,"time_elapsed":222709,"internal_node_id":"0.0-0.0-1.36-0.36","task_version":"battery-v0.2"},{"rune":"1","rune_set":"elianto","hex":"#3366ff99","correct":32,"choice":-1,"rt":-1,"accuracy":0,"outcome":"+1","keys":[],"total_keys":0,"block":0,"practice":1,"trial_type":"pit-trial","trial_index":38,"time_elapsed":226733,"internal_node_id":"0.0-0.0-1.37-0.37","task_version":"battery-v0.2"},{"rune":"1","rune_set":"elianto","hex":"#3366ff99","correct":32,"choice":-1,"rt":-1,"accuracy":0,"outcome":"+1","keys":[],"total_keys":0,"block":0,"practice":1,"trial_type":"pit-trial","trial_index":39,"time_elapsed":230743,"internal_node_id":"0.0-0.0-1.38-0.38","task_version":"battery-v0.2"},{"rune":"1","rune_set":"elianto","hex":"#3366ff99","correct":32,"choice":-1,"rt":-1,"accuracy":0,"outcome":"+1","keys":[],"total_keys":0,"block":0,"practice":1,"trial_type":"pit-trial","trial_index":40,"time_elapsed":234755,"internal_node_id":"0.0-0.0-1.39-0.39","task_version":"battery-v0.2"},{"rune":"1","rune_set":"elianto","hex":"#3366ff99","correct":32,"choice":-1,"rt":-1,"accuracy":0,"outcome":"+1","keys":[],"total_keys":0,"block":0,"practice":1,"trial_type":"pit-trial","trial_index":41,"time_elapsed":238771,"internal_node_id":"0.0-0.0-1.40-0.40","task_version":"battery-v0.2"},{"rune":"1","rune_set":"elianto","hex":"#3366ff99","correct":32,"choice":-1,"rt":-1,"accuracy":0,"outcome":"+1","keys":[],"total_keys":0,"block":0,"practice":1,"trial_type":"pit-trial","trial_index":42,"time_elapsed":242774,"internal_node_id":"0.0-0.0-1.41-0.41","task_version":"battery-v0.2"},{"rune":"1","rune_set":"elianto","hex":"#3366ff99","correct":32,"choice":-1,"rt":-1,"accuracy":0,"outcome":"+1","keys":[],"total_keys":0,"block":0,"practice":1,"trial_type":"pit-trial","trial_index":43,"time_elapsed":246782,"internal_node_id":"0.0-0.0-1.42-0.42","task_version":"battery-v0.2"},{"rune":"1","rune_set":"elianto","hex":"#3366ff99","correct":32,"choice":-1,"rt":-1,"accuracy":0,"outcome":"+1","keys":[],"total_keys":0,"block":0,"practice":1,"trial_type":"pit-trial","trial_index":44,"time_elapsed":250786,"internal_node_id":"0.0-0.0-1.43-0.43","task_version":"battery-v0.2"},{"rune":"1","rune_set":"elianto","hex":"#3366ff99","correct":32,"choice":-1,"rt":-1,"accuracy":0,"outcome":"+1","keys":[],"total_keys":0,"block":0,"practice":1,"trial_type":"pit-trial","trial_index":45,"time_elapsed":254792,"internal_node_id":"0.0-0.0-1.44-0.44","task_version":"battery-v0.2"},{"rune":"1","rune_set":"elianto","hex":"#3366ff99","correct":32,"choice":-1,"rt":-1,"accuracy":0,"outcome":"+1","keys":[],"total_keys":0,"block":0,"practice":1,"trial_type":"pit-trial","trial_index":46,"time_elapsed":258796,"internal_node_id":"0.0-0.0-1.45-0.45","task_version":"battery-v0.2"},{"rune":"1","rune_set":"elianto","hex":"#3366ff99","correct":32,"choice":-1,"rt":-1,"accuracy":0,"outcome":"+1","keys":[],"total_keys":0,"block":0,"practice":1,"trial_type":"pit-trial","trial_index":47,"time_elapsed":262803,"internal_node_id":"0.0-0.0-1.46-0.46","task_version":"battery-v0.2"},{"rune":"1","rune_set":"elianto","hex":"#3366ff99","correct":32,"choice":-1,"rt":-1,"accuracy":0,"outcome":"+1","keys":[],"total_keys":0,"block":0,"practice":1,"trial_type":"pit-trial","trial_index":48,"time_elapsed":266836,"internal_node_id":"0.0-0.0-1.47-0.47","task_version":"battery-v0.2"},{"rune":"1","rune_set":"elianto","hex":"#3366ff99","correct":32,"choice":-1,"rt":-1,"accuracy":0,"outcome":"+1","keys":[],"total_keys":0,"block":0,"practice":1,"trial_type":"pit-trial","trial_index":49,"time_elapsed":270843,"internal_node_id":"0.0-0.0-1.48-0.48","task_version":"battery-v0.2"},{"rune":"1","rune_set":"elianto","hex":"#3366ff99","correct":32,"choice":-1,"rt":-1,"accuracy":0,"outcome":"+1","keys":[],"total_keys":0,"block":0,"practice":1,"trial_type":"pit-trial","trial_index":50,"time_elapsed":274847,"internal_node_id":"0.0-0.0-1.49-0.49","task_version":"battery-v0.2"},{"rune":"1","rune_set":"elianto","hex":"#3366ff99","correct":32,"choice":-1,"rt":-1,"accuracy":0,"outcome":"+1","keys":[],"total_keys":0,"block":0,"practice":1,"trial_type":"pit-trial","trial_index":51,"time_elapsed":278855,"internal_node_id":"0.0-0.0-1.50-0.50","task_version":"battery-v0.2"},{"rune":"1","rune_set":"elianto","hex":"#3366ff99","correct":32,"choice":-1,"rt":-1,"accuracy":0,"outcome":"+1","keys":[],"total_keys":0,"block":0,"practice":1,"trial_type":"pit-trial","trial_index":52,"time_elapsed":282865,"internal_node_id":"0.0-0.0-1.51-0.51","task_version":"battery-v0.2"},{"rune":"1","rune_set":"elianto","hex":"#3366ff99","correct":32,"choice":-1,"rt":-1,"accuracy":0,"outcome":"+1","keys":[],"total_keys":0,"block":0,"practice":1,"trial_type":"pit-trial","trial_index":53,"time_elapsed":286873,"internal_node_id":"0.0-0.0-1.52-0.52","task_version":"battery-v0.2"},{"rune":"1","rune_set":"elianto","hex":"#3366ff99","correct":32,"choice":-1,"rt":-1,"accuracy":0,"outcome":"+1","keys":[],"total_keys":0,"block":0,"practice":1,"trial_type":"pit-trial","trial_index":54,"time_elapsed":290882,"internal_node_id":"0.0-0.0-1.53-0.53","task_version":"battery-v0.2"},{"rune":"1","rune_set":"elianto","hex":"#3366ff99","correct":32,"choice":-1,"rt":-1,"accuracy":0,"outcome":"+1","keys":[],"total_keys":0,"block":0,"practice":1,"trial_type":"pit-trial","trial_index":55,"time_elapsed":294884,"internal_node_id":"0.0-0.0-1.54-0.54","task_version":"battery-v0.2"},{"rune":"1","rune_set":"elianto","hex":"#3366ff99","correct":32,"choice":-1,"rt":-1,"accuracy":0,"outcome":"+1","keys":[],"total_keys":0,"block":0,"practice":1,"trial_type":"pit-trial","trial_index":56,"time_elapsed":298895,"internal_node_id":"0.0-0.0-1.55-0.55","task_version":"battery-v0.2"},{"rune":"1","rune_set":"elianto","hex":"#3366ff99","correct":32,"choice":-1,"rt":-1,"accuracy":0,"outcome":"+1","keys":[],"total_keys":0,"block":0,"practice":1,"trial_type":"pit-trial","trial_index":57,"time_elapsed":302904,"internal_node_id":"0.0-0.0-1.56-0.56","task_version":"battery-v0.2"},{"rune":"1","rune_set":"elianto","hex":"#3366ff99","correct":32,"choice":-1,"rt":-1,"accuracy":0,"outcome":"+1","keys":[],"total_keys":0,"block":0,"practice":1,"trial_type":"pit-trial","trial_index":58,"time_elapsed":306912,"internal_node_id":"0.0-0.0-1.57-0.57","task_version":"battery-v0.2"},{"rune":"1","rune_set":"elianto","hex":"#3366ff99","correct":32,"choice":-1,"rt":-1,"accuracy":0,"outcome":"+1","keys":[],"total_keys":0,"block":0,"practice":1,"trial_type":"pit-trial","trial_index":59,"time_elapsed":310917,"internal_node_id":"0.0-0.0-1.58-0.58","task_version":"battery-v0.2"},{"rune":"1","rune_set":"elianto","hex":"#3366ff99","correct":32,"choice":-1,"rt":-1,"accuracy":0,"outcome":"+1","keys":[],"total_keys":0,"block":0,"practice":1,"trial_type":"pit-trial","trial_index":60,"time_elapsed":314924,"internal_node_id":"0.0-0.0-1.59-0.59","task_version":"battery-v0.2"},{"rune":"1","rune_set":"elianto","hex":"#3366ff99","correct":32,"choice":-1,"rt":-1,"accuracy":0,"outcome":"+1","keys":[],"total_keys":0,"block":0,"practice":1,"trial_type":"pit-trial","trial_index":61,"time_elapsed":318928,"internal_node_id":"0.0-0.0-1.60-0.60","task_version":"battery-v0.2"},{"rune":"1","rune_set":"elianto","hex":"#3366ff99","correct":32,"choice":-1,"rt":-1,"accuracy":0,"outcome":"+1","keys":[],"total_keys":0,"block":0,"practice":1,"trial_type":"pit-trial","trial_index":62,"time_elapsed":322932,"internal_node_id":"0.0-0.0-1.61-0.61","task_version":"battery-v0.2"},{"rune":"1","rune_set":"elianto","hex":"#3366ff99","correct":32,"choice":-1,"rt":-1,"accuracy":0,"outcome":"+1","keys":[],"total_keys":0,"block":0,"practice":1,"trial_type":"pit-trial","trial_index":63,"time_elapsed":326941,"internal_node_id":"0.0-0.0-1.62-0.62","task_version":"battery-v0.2"},{"rune":"1","rune_set":"elianto","hex":"#3366ff99","correct":32,"choice":-1,"rt":-1,"accuracy":0,"outcome":"+1","keys":[],"total_keys":0,"block":0,"practice":1,"trial_type":"pit-trial","trial_index":64,"time_elapsed":330947,"internal_node_id":"0.0-0.0-1.63-0.63","task_version":"battery-v0.2"},{"rune":"1","rune_set":"elianto","hex":"#3366ff99","correct":32,"choice":-1,"rt":-1,"accuracy":0,"outcome":"+1","keys":[],"total_keys":0,"block":0,"practice":1,"trial_type":"pit-trial","trial_index":65,"time_elapsed":334953,"internal_node_id":"0.0-0.0-1.64-0.64","task_version":"battery-v0.2"},{"rune":"1","rune_set":"elianto","hex":"#3366ff99","correct":32,"choice":-1,"rt":-1,"accuracy":0,"outcome":"+1","keys":[],"total_keys":0,"block":0,"practice":1,"trial_type":"pit-trial","trial_index":66,"time_elapsed":338957,"internal_node_id":"0.0-0.0-1.65-0.65","task_version":"battery-v0.2"},{"rune":"1","rune_set":"elianto","hex":"#3366ff99","correct":32,"choice":-1,"rt":-1,"accuracy":0,"outcome":"+1","keys":[],"total_keys":0,"block":0,"practice":1,"trial_type":"pit-trial","trial_index":67,"time_elapsed":342962,"internal_node_id":"0.0-0.0-1.66-0.66","task_version":"battery-v0.2"},{"rune":"1","rune_set":"elianto","hex":"#3366ff99","correct":32,"choice":-1,"rt":-1,"accuracy":0,"outcome":"+1","keys":[],"total_keys":0,"block":0,"practice":1,"trial_type":"pit-trial","trial_index":68,"time_elapsed":346977,"internal_node_id":"0.0-0.0-1.67-0.67","task_version":"battery-v0.2"},{"rune":"1","rune_set":"elianto","hex":"#3366ff99","correct":32,"choice":-1,"rt":-1,"accuracy":0,"outcome":"+1","keys":[],"total_keys":0,"block":0,"practice":1,"trial_type":"pit-trial","trial_index":69,"time_elapsed":350983,"internal_node_id":"0.0-0.0-1.68-0.68","task_version":"battery-v0.2"},{"rune":"1","rune_set":"elianto","hex":"#3366ff99","correct":32,"choice":-1,"rt":-1,"accuracy":0,"outcome":"+1","keys":[],"total_keys":0,"block":0,"practice":1,"trial_type":"pit-trial","trial_index":70,"time_elapsed":354992,"internal_node_id":"0.0-0.0-1.69-0.69","task_version":"battery-v0.2"},{"rune":"1","rune_set":"elianto","hex":"#3366ff99","correct":32,"choice":-1,"rt":-1,"accuracy":0,"outcome":"+1","keys":[],"total_keys":0,"block":0,"practice":1,"trial_type":"pit-trial","trial_index":71,"time_elapsed":358996,"internal_node_id":"0.0-0.0-1.70-0.70","task_version":"battery-v0.2"},{"rune":"1","rune_set":"elianto","hex":"#3366ff99","correct":32,"choice":-1,"rt":-1,"accuracy":0,"outcome":"+1","keys":[],"total_keys":0,"block":0,"practice":1,"trial_type":"pit-trial","trial_index":72,"time_elapsed":362999,"internal_node_id":"0.0-0.0-1.71-0.71","task_version":"battery-v0.2"},{"rune":"1","rune_set":"elianto","hex":"#3366ff99","correct":32,"choice":-1,"rt":-1,"accuracy":0,"outcome":"+1","keys":[],"total_keys":0,"block":0,"practice":1,"trial_type":"pit-trial","trial_index":73,"time_elapsed":367006,"internal_node_id":"0.0-0.0-1.72-0.72","task_version":"battery-v0.2"},{"rune":"1","rune_set":"elianto","hex":"#3366ff99","correct":32,"choice":-1,"rt":-1,"accuracy":0,"outcome":"+1","keys":[],"total_keys":0,"block":0,"practice":1,"trial_type":"pit-trial","trial_index":74,"time_elapsed":371009,"internal_node_id":"0.0-0.0-1.73-0.73","task_version":"battery-v0.2"},{"rune":"1","rune_set":"elianto","hex":"#3366ff99","correct":32,"choice":-1,"rt":-1,"accuracy":0,"outcome":"+1","keys":[],"total_keys":0,"block":0,"practice":1,"trial_type":"pit-trial","trial_index":75,"time_elapsed":375020,"internal_node_id":"0.0-0.0-1.74-0.74","task_version":"battery-v0.2"},{"rune":"1","rune_set":"elianto","hex":"#3366ff99","correct":32,"choice":-1,"rt":-1,"accuracy":0,"outcome":"+1","keys":[],"total_keys":0,"block":0,"practice":1,"trial_type":"pit-trial","trial_index":76,"time_elapsed":379024,"internal_node_id":"0.0-0.0-1.75-0.75","task_version":"battery-v0.2"},{"rune":"1","rune_set":"elianto","hex":"#3366ff99","correct":32,"choice":-1,"rt":-1,"accuracy":0,"outcome":"+1","keys":[],"total_keys":0,"block":0,"practice":1,"trial_type":"pit-trial","trial_index":77,"time_elapsed":383037,"internal_node_id":"0.0-0.0-1.76-0.76","task_version":"battery-v0.2"},{"rune":"1","rune_set":"elianto","hex":"#3366ff99","correct":32,"choice":-1,"rt":-1,"accuracy":0,"outcome":"+1","keys":[],"total_keys":0,"block":0,"practice":1,"trial_type":"pit-trial","trial_index":78,"time_elapsed":387050,"internal_node_id":"0.0-0.0-1.77-0.77","task_version":"battery-v0.2"},{"rune":"1","rune_set":"elianto","hex":"#3366ff99","correct":32,"choice":-1,"rt":-1,"accuracy":0,"outcome":"+1","keys":[],"total_keys":0,"block":0,"practice":1,"trial_type":"pit-trial","trial_index":79,"time_elapsed":391055,"internal_node_id":"0.0-0.0-1.78-0.78","task_version":"battery-v0.2"},{"rune":"1","rune_set":"elianto","hex":"#3366ff99","correct":32,"choice":-1,"rt":-1,"accuracy":0,"outcome":"+1","keys":[],"total_keys":0,"block":0,"practice":1,"trial_type":"pit-trial","trial_index":80,"time_elapsed":395057,"internal_node_id":"0.0-0.0-1.79-0.79","task_version":"battery-v0.2"},{"rune":"1","rune_set":"elianto","hex":"#3366ff99","correct":32,"choice":-1,"rt":-1,"accuracy":0,"outcome":"+1","keys":[],"total_keys":0,"block":0,"practice":1,"trial_type":"pit-trial","trial_index":81,"time_elapsed":399061,"internal_node_id":"0.0-0.0-1.80-0.80","task_version":"battery-v0.2"},{"rune":"1","rune_set":"elianto","hex":"#3366ff99","correct":32,"choice":-1,"rt":-1,"accuracy":0,"outcome":"+1","keys":[],"total_keys":0,"block":0,"practice":1,"trial_type":"pit-trial","trial_index":82,"time_elapsed":403063,"internal_node_id":"0.0-0.0-1.81-0.81","task_version":"battery-v0.2"},{"rune":"1","rune_set":"elianto","hex":"#3366ff99","correct":32,"choice":-1,"rt":-1,"accuracy":0,"outcome":"+1","keys":[],"total_keys":0,"block":0,"practice":1,"trial_type":"pit-trial","trial_index":83,"time_elapsed":407069,"internal_node_id":"0.0-0.0-1.82-0.82","task_version":"battery-v0.2"},{"rune":"1","rune_set":"elianto","hex":"#3366ff99","correct":32,"choice":-1,"rt":-1,"accuracy":0,"outcome":"+1","keys":[],"total_keys":0,"block":0,"practice":1,"trial_type":"pit-trial","trial_index":84,"time_elapsed":411099,"internal_node_id":"0.0-0.0-1.83-0.83","task_version":"battery-v0.2"},{"rune":"1","rune_set":"elianto","hex":"#3366ff99","correct":32,"choice":-1,"rt":-1,"accuracy":0,"outcome":"+1","keys":[],"total_keys":0,"block":0,"practice":1,"trial_type":"pit-trial","trial_index":85,"time_elapsed":415105,"internal_node_id":"0.0-0.0-1.84-0.84","task_version":"battery-v0.2"},{"rune":"1","rune_set":"elianto","hex":"#3366ff99","correct":32,"choice":-1,"rt":-1,"accuracy":0,"outcome":"+1","keys":[],"total_keys":0,"block":0,"practice":1,"trial_type":"pit-trial","trial_index":86,"time_elapsed":419108,"internal_node_id":"0.0-0.0-1.85-0.85","task_version":"battery-v0.2"},{"rune":"1","rune_set":"elianto","hex":"#3366ff99","correct":32,"choice":-1,"rt":-1,"accuracy":0,"outcome":"+1","keys":[],"total_keys":0,"block":0,"practice":1,"trial_type":"pit-trial","trial_index":87,"time_elapsed":423121,"internal_node_id":"0.0-0.0-1.86-0.86","task_version":"battery-v0.2"},{"rune":"1","rune_set":"elianto","hex":"#3366ff99","correct":32,"choice":-1,"rt":-1,"accuracy":0,"outcome":"+1","keys":[],"total_keys":0,"block":0,"practice":1,"trial_type":"pit-trial","trial_index":88,"time_elapsed":427141,"internal_node_id":"0.0-0.0-1.87-0.87","task_version":"battery-v0.2"},{"rune":"1","rune_set":"elianto","hex":"#3366ff99","correct":32,"choice":-1,"rt":-1,"accuracy":0,"outcome":"+1","keys":[],"total_keys":0,"block":0,"practice":1,"trial_type":"pit-trial","trial_index":89,"time_elapsed":431170,"internal_node_id":"0.0-0.0-1.88-0.88","task_version":"battery-v0.2"},{"rune":"1","rune_set":"elianto","hex":"#3366ff99","correct":32,"choice":-1,"rt":-1,"accuracy":0,"outcome":"+1","keys":[],"total_keys":0,"block":0,"practice":1,"trial_type":"pit-trial","trial_index":90,"time_elapsed":435184,"internal_node_id":"0.0-0.0-1.89-0.89","task_version":"battery-v0.2"},{"rune":"1","rune_set":"elianto","hex":"#3366ff99","correct":32,"choice":-1,"rt":-1,"accuracy":0,"outcome":"+1","keys":[],"total_keys":0,"block":0,"practice":1,"trial_type":"pit-trial","trial_index":91,"time_elapsed":439194,"internal_node_id":"0.0-0.0-1.90-0.90","task_version":"battery-v0.2"},{"rune":"1","rune_set":"elianto","hex":"#3366ff99","correct":32,"choice":-1,"rt":-1,"accuracy":0,"outcome":"+1","keys":[],"total_keys":0,"block":0,"practice":1,"trial_type":"pit-trial","trial_index":92,"time_elapsed":443199,"internal_node_id":"0.0-0.0-1.91-0.91","task_version":"battery-v0.2"},{"rune":"1","rune_set":"elianto","hex":"#3366ff99","correct":32,"choice":-1,"rt":-1,"accuracy":0,"outcome":"+1","keys":[],"total_keys":0,"block":0,"practice":1,"trial_type":"pit-trial","trial_index":93,"time_elapsed":447204,"internal_node_id":"0.0-0.0-1.92-0.92","task_version":"battery-v0.2"},{"rune":"1","rune_set":"elianto","hex":"#3366ff99","correct":32,"choice":-1,"rt":-1,"accuracy":0,"outcome":"+1","keys":[],"total_keys":0,"block":0,"practice":1,"trial_type":"pit-trial","trial_index":94,"time_elapsed":451209,"internal_node_id":"0.0-0.0-1.93-0.93","task_version":"battery-v0.2"},{"rune":"1","rune_set":"elianto","hex":"#3366ff99","correct":32,"choice":-1,"rt":-1,"accuracy":0,"outcome":"+1","keys":[],"total_keys":0,"block":0,"practice":1,"trial_type":"pit-trial","trial_index":95,"time_elapsed":455213,"internal_node_id":"0.0-0.0-1.94-0.94","task_version":"battery-v0.2"},{"rune":"1","rune_set":"elianto","hex":"#3366ff99","correct":32,"choice":-1,"rt":-1,"accuracy":0,"outcome":"+1","keys":[],"total_keys":0,"block":0,"practice":1,"trial_type":"pit-trial","trial_index":96,"time_elapsed":459216,"internal_node_id":"0.0-0.0-1.95-0.95","task_version":"battery-v0.2"},{"rune":"1","rune_set":"elianto","hex":"#3366ff99","correct":32,"choice":-1,"rt":-1,"accuracy":0,"outcome":"+1","keys":[],"total_keys":0,"block":0,"practice":1,"trial_type":"pit-trial","trial_index":97,"time_elapsed":463221,"internal_node_id":"0.0-0.0-1.96-0.96","task_version":"battery-v0.2"},{"rune":"1","rune_set":"elianto","hex":"#3366ff99","correct":32,"choice":-1,"rt":-1,"accuracy":0,"outcome":"+1","keys":[],"total_keys":0,"block":0,"practice":1,"trial_type":"pit-trial","trial_index":98,"time_elapsed":467225,"internal_node_id":"0.0-0.0-1.97-0.97","task_version":"battery-v0.2"},{"rune":"1","rune_set":"elianto","hex":"#3366ff99","correct":32,"choice":-1,"rt":-1,"accuracy":0,"outcome":"+1","keys":[],"total_keys":0,"block":0,"practice":1,"trial_type":"pit-trial","trial_index":99,"time_elapsed":471231,"internal_node_id":"0.0-0.0-1.98-0.98","task_version":"battery-v0.2"},{"rune":"1","rune_set":"elianto","hex":"#3366ff99","correct":32,"choice":-1,"rt":-1,"accuracy":0,"outcome":"+1","keys":[],"total_keys":0,"block":0,"practice":1,"trial_type":"pit-trial","trial_index":100,"time_elapsed":475233,"internal_node_id":"0.0-0.0-1.99-0.99","task_version":"battery-v0.2"},{"rune":"1","rune_set":"elianto","hex":"#3366ff99","correct":32,"choice":-1,"rt":-1,"accuracy":0,"outcome":"+1","keys":[],"total_keys":0,"block":0,"practice":1,"trial_type":"pit-trial","trial_index":101,"time_elapsed":479242,"internal_node_id":"0.0-0.0-1.100-0.100","task_version":"battery-v0.2"},{"rune":"1","rune_set":"elianto","hex":"#3366ff99","correct":32,"choice":-1,"rt":-1,"accuracy":0,"outcome":"+1","keys":[],"total_keys":0,"block":0,"practice":1,"trial_type":"pit-trial","trial_index":102,"time_elapsed":483243,"internal_node_id":"0.0-0.0-1.101-0.101","task_version":"battery-v0.2"},{"rune":"1","rune_set":"elianto","hex":"#3366ff99","correct":32,"choice":-1,"rt":-1,"accuracy":0,"outcome":"+1","keys":[],"total_keys":0,"block":0,"practice":1,"trial_type":"pit-trial","trial_index":103,"time_elapsed":487250,"internal_node_id":"0.0-0.0-1.102-0.102","task_version":"battery-v0.2"},{"rune":"1","rune_set":"elianto","hex":"#3366ff99","correct":32,"choice":-1,"rt":-1,"accuracy":0,"outcome":"+1","keys":[],"total_keys":0,"block":0,"practice":1,"trial_type":"pit-trial","trial_index":104,"time_elapsed":491262,"internal_node_id":"0.0-0.0-1.103-0.103","task_version":"battery-v0.2"},{"rune":"1","rune_set":"elianto","hex":"#3366ff99","correct":32,"choice":-1,"rt":-1,"accuracy":0,"outcome":"+1","keys":[],"total_keys":0,"block":0,"practice":1,"trial_type":"pit-trial","trial_index":105,"time_elapsed":495264,"internal_node_id":"0.0-0.0-1.104-0.104","task_version":"battery-v0.2"},{"rune":"1","rune_set":"elianto","hex":"#3366ff99","correct":32,"choice":-1,"rt":-1,"accuracy":0,"outcome":"+1","keys":[],"total_keys":0,"block":0,"practice":1,"trial_type":"pit-trial","trial_index":106,"time_elapsed":499271,"internal_node_id":"0.0-0.0-1.105-0.105","task_version":"battery-v0.2"},{"rune":"1","rune_set":"elianto","hex":"#3366ff99","correct":32,"choice":-1,"rt":-1,"accuracy":0,"outcome":"+1","keys":[],"total_keys":0,"block":0,"practice":1,"trial_type":"pit-trial","trial_index":107,"time_elapsed":503275,"internal_node_id":"0.0-0.0-1.106-0.106","task_version":"battery-v0.2"},{"rune":"1","rune_set":"elianto","hex":"#3366ff99","correct":32,"choice":-1,"rt":-1,"accuracy":0,"outcome":"+1","keys":[],"total_keys":0,"block":0,"practice":1,"trial_type":"pit-trial","trial_index":108,"time_elapsed":507293,"internal_node_id":"0.0-0.0-1.107-0.107","task_version":"battery-v0.2"},{"rune":"1","rune_set":"elianto","hex":"#3366ff99","correct":32,"choice":-1,"rt":-1,"accuracy":0,"outcome":"+1","keys":[],"total_keys":0,"block":0,"practice":1,"trial_type":"pit-trial","trial_index":109,"time_elapsed":511314,"internal_node_id":"0.0-0.0-1.108-0.108","task_version":"battery-v0.2"},{"rune":"1","rune_set":"elianto","hex":"#3366ff99","correct":32,"choice":-1,"rt":-1,"accuracy":0,"outcome":"+1","keys":[],"total_keys":0,"block":0,"practice":1,"trial_type":"pit-trial","trial_index":110,"time_elapsed":515328,"internal_node_id":"0.0-0.0-1.109-0.109","task_version":"battery-v0.2"},{"rune":"1","rune_set":"elianto","hex":"#3366ff99","correct":32,"choice":-1,"rt":-1,"accuracy":0,"outcome":"+1","keys":[],"total_keys":0,"block":0,"practice":1,"trial_type":"pit-trial","trial_index":111,"time_elapsed":519331,"internal_node_id":"0.0-0.0-1.110-0.110","task_version":"battery-v0.2"},{"rune":"1","rune_set":"elianto","hex":"#3366ff99","correct":32,"choice":-1,"rt":-1,"accuracy":0,"outcome":"+1","keys":[],"total_keys":0,"block":0,"practice":1,"trial_type":"pit-trial","trial_index":112,"time_elapsed":523352,"internal_node_id":"0.0-0.0-1.111-0.111","task_version":"battery-v0.2"},{"rune":"1","rune_set":"elianto","hex":"#3366ff99","correct":32,"choice":-1,"rt":-1,"accuracy":0,"outcome":"+1","keys":[],"total_keys":0,"block":0,"practice":1,"trial_type":"pit-trial","trial_index":113,"time_elapsed":527357,"internal_node_id":"0.0-0.0-1.112-0.112","task_version":"battery-v0.2"},{"rune":"1","rune_set":"elianto","hex":"#3366ff99","correct":32,"choice":-1,"rt":-1,"accuracy":0,"outcome":"+1","keys":[],"total_keys":0,"block":0,"practice":1,"trial_type":"pit-trial","trial_index":114,"time_elapsed":531360,"internal_node_id":"0.0-0.0-1.113-0.113","task_version":"battery-v0.2"},{"rune":"1","rune_set":"elianto","hex":"#3366ff99","correct":32,"choice":-1,"rt":-1,"accuracy":0,"outcome":"+1","keys":[],"total_keys":0,"block":0,"practice":1,"trial_type":"pit-trial","trial_index":115,"time_elapsed":535381,"internal_node_id":"0.0-0.0-1.114-0.114","task_version":"battery-v0.2"},{"rune":"1","rune_set":"elianto","hex":"#3366ff99","correct":32,"choice":-1,"rt":-1,"accuracy":0,"outcome":"+1","keys":[],"total_keys":0,"block":0,"practice":1,"trial_type":"pit-trial","trial_index":116,"time_elapsed":539383,"internal_node_id":"0.0-0.0-1.115-0.115","task_version":"battery-v0.2"},{"rune":"1","rune_set":"elianto","hex":"#3366ff99","correct":32,"choice":-1,"rt":-1,"accuracy":0,"outcome":"+1","keys":[],"total_keys":0,"block":0,"practice":1,"trial_type":"pit-trial","trial_index":117,"time_elapsed":543386,"internal_node_id":"0.0-0.0-1.116-0.116","task_version":"battery-v0.2"},{"rune":"1","rune_set":"elianto","hex":"#3366ff99","correct":32,"choice":-1,"rt":-1,"accuracy":0,"outcome":"+1","keys":[],"total_keys":0,"block":0,"practice":1,"trial_type":"pit-trial","trial_index":118,"time_elapsed":547392,"internal_node_id":"0.0-0.0-1.117-0.117","task_version":"battery-v0.2"},{"rune":"1","rune_set":"elianto","hex":"#3366ff99","correct":32,"choice":-1,"rt":-1,"accuracy":0,"outcome":"+1","keys":[],"total_keys":0,"block":0,"practice":1,"trial_type":"pit-trial","trial_index":119,"time_elapsed":551394,"internal_node_id":"0.0-0.0-1.118-0.118","task_version":"battery-v0.2"},{"rune":"1","rune_set":"elianto","hex":"#3366ff99","correct":32,"choice":-1,"rt":-1,"accuracy":0,"outcome":"+1","keys":[],"total_keys":0,"block":0,"practice":1,"trial_type":"pit-trial","trial_index":120,"time_elapsed":555396,"internal_node_id":"0.0-0.0-1.119-0.119","task_version":"battery-v0.2"},{"rune":"1","rune_set":"elianto","hex":"#3366ff99","correct":32,"choice":-1,"rt":-1,"accuracy":0,"outcome":"+1","keys":[],"total_keys":0,"block":0,"practice":1,"trial_type":"pit-trial","trial_index":121,"time_elapsed":559406,"internal_node_id":"0.0-0.0-1.120-0.120","task_version":"battery-v0.2"},{"rune":"1","rune_set":"elianto","hex":"#3366ff99","correct":32,"choice":-1,"rt":-1,"accuracy":0,"outcome":"+1","keys":[],"total_keys":0,"block":0,"practice":1,"trial_type":"pit-trial","trial_index":122,"time_elapsed":563407,"internal_node_id":"0.0-0.0-1.121-0.121","task_version":"battery-v0.2"},{"rune":"1","rune_set":"elianto","hex":"#3366ff99","correct":32,"choice":-1,"rt":-1,"accuracy":0,"outcome":"+1","keys":[],"total_keys":0,"block":0,"practice":1,"trial_type":"pit-trial","trial_index":123,"time_elapsed":567411,"internal_node_id":"0.0-0.0-1.122-0.122","task_version":"battery-v0.2"},{"rune":"1","rune_set":"elianto","hex":"#3366ff99","correct":32,"choice":-1,"rt":-1,"accuracy":0,"outcome":"+1","keys":[],"total_keys":0,"block":0,"practice":1,"trial_type":"pit-trial","trial_index":124,"time_elapsed":571414,"internal_node_id":"0.0-0.0-1.123-0.123","task_version":"battery-v0.2"},{"rune":"1","rune_set":"elianto","hex":"#3366ff99","correct":32,"choice":-1,"rt":-1,"accuracy":0,"outcome":"+1","keys":[],"total_keys":0,"block":0,"practice":1,"trial_type":"pit-trial","trial_index":125,"time_elapsed":575418,"internal_node_id":"0.0-0.0-1.124-0.124","task_version":"battery-v0.2"},{"rune":"1","rune_set":"elianto","hex":"#3366ff99","correct":32,"choice":-1,"rt":-1,"accuracy":0,"outcome":"+1","keys":[],"total_keys":0,"block":0,"practice":1,"trial_type":"pit-trial","trial_index":126,"time_elapsed":579422,"internal_node_id":"0.0-0.0-1.125-0.125","task_version":"battery-v0.2"},{"rune":"1","rune_set":"elianto","hex":"#3366ff99","correct":32,"choice":-1,"rt":-1,"accuracy":0,"outcome":"+1","keys":[],"total_keys":0,"block":0,"practice":1,"trial_type":"pit-trial","trial_index":127,"time_elapsed":583428,"internal_node_id":"0.0-0.0-1.126-0.126","task_version":"battery-v0.2"},{"rune":"1","rune_set":"elianto","hex":"#3366ff99","correct":32,"choice":-1,"rt":-1,"accuracy":0,"outcome":"+1","keys":[],"total_keys":0,"block":0,"practice":1,"trial_type":"pit-trial","trial_index":128,"time_elapsed":587447,"internal_node_id":"0.0-0.0-1.127-0.127","task_version":"battery-v0.2"},{"rune":"1","rune_set":"elianto","hex":"#3366ff99","correct":32,"choice":-1,"rt":-1,"accuracy":0,"outcome":"+1","keys":[],"total_keys":0,"block":0,"practice":1,"trial_type":"pit-trial","trial_index":129,"time_elapsed":591448,"internal_node_id":"0.0-0.0-1.128-0.128","task_version":"battery-v0.2"},{"rune":"1","rune_set":"elianto","hex":"#3366ff99","correct":32,"choice":-1,"rt":-1,"accuracy":0,"outcome":"+1","keys":[],"total_keys":0,"block":0,"practice":1,"trial_type":"pit-trial","trial_index":130,"time_elapsed":595452,"internal_node_id":"0.0-0.0-1.129-0.129","task_version":"battery-v0.2"},{"rune":"1","rune_set":"elianto","hex":"#3366ff99","correct":32,"choice":-1,"rt":-1,"accuracy":0,"outcome":"+1","keys":[],"total_keys":0,"block":0,"practice":1,"trial_type":"pit-trial","trial_index":131,"time_elapsed":599454,"internal_node_id":"0.0-0.0-1.130-0.130","task_version":"battery-v0.2"},{"rune":"1","rune_set":"elianto","hex":"#3366ff99","correct":32,"choice":-1,"rt":-1,"accuracy":0,"outcome":"+1","keys":[],"total_keys":0,"block":0,"practice":1,"trial_type":"pit-trial","trial_index":132,"time_elapsed":603454,"internal_node_id":"0.0-0.0-1.131-0.131","task_version":"battery-v0.2"},{"rune":"1","rune_set":"elianto","hex":"#3366ff99","correct":32,"choice":-1,"rt":-1,"accuracy":0,"outcome":"+1","keys":[],"total_keys":0,"block":0,"practice":1,"trial_type":"pit-trial","trial_index":133,"time_elapsed":607456,"internal_node_id":"0.0-0.0-1.132-0.132","task_version":"battery-v0.2"},{"rune":"1","rune_set":"elianto","hex":"#3366ff99","correct":32,"choice":-1,"rt":-1,"accuracy":0,"outcome":"+1","keys":[],"total_keys":0,"block":0,"practice":1,"trial_type":"pit-trial","trial_index":134,"time_elapsed":611469,"internal_node_id":"0.0-0.0-1.133-0.133","task_version":"battery-v0.2"},{"rune":"1","rune_set":"elianto","hex":"#3366ff99","correct":32,"choice":-1,"rt":-1,"accuracy":0,"outcome":"+1","keys":[],"total_keys":0,"block":0,"practice":1,"trial_type":"pit-trial","trial_index":135,"time_elapsed":615474,"internal_node_id":"0.0-0.0-1.134-0.134","task_version":"battery-v0.2"},{"rune":"1","rune_set":"elianto","hex":"#3366ff99","correct":32,"choice":-1,"rt":-1,"accuracy":0,"outcome":"+1","keys":[],"total_keys":0,"block":0,"practice":1,"trial_type":"pit-trial","trial_index":136,"time_elapsed":619509,"internal_node_id":"0.0-0.0-1.135-0.135","task_version":"battery-v0.2"},{"rune":"1","rune_set":"elianto","hex":"#3366ff99","correct":32,"choice":-1,"rt":-1,"accuracy":0,"outcome":"+1","keys":[],"total_keys":0,"block":0,"practice":1,"trial_type":"pit-trial","trial_index":137,"time_elapsed":623524,"internal_node_id":"0.0-0.0-1.136-0.136","task_version":"battery-v0.2"},{"rune":"1","rune_set":"elianto","hex":"#3366ff99","correct":32,"choice":-1,"rt":-1,"accuracy":0,"outcome":"+1","keys":[],"total_keys":0,"block":0,"practice":1,"trial_type":"pit-trial","trial_index":138,"time_elapsed":627532,"internal_node_id":"0.0-0.0-1.137-0.137","task_version":"battery-v0.2"},{"rune":"1","rune_set":"elianto","hex":"#3366ff99","correct":32,"choice":-1,"rt":-1,"accuracy":0,"outcome":"+1","keys":[],"total_keys":0,"block":0,"practice":1,"trial_type":"pit-trial","trial_index":139,"time_elapsed":631547,"internal_node_id":"0.0-0.0-1.138-0.138","task_version":"battery-v0.2"},{"rune":"1","rune_set":"elianto","hex":"#3366ff99","correct":32,"choice":-1,"rt":-1,"accuracy":0,"outcome":"+1","keys":[],"total_keys":0,"block":0,"practice":1,"trial_type":"pit-trial","trial_index":140,"time_elapsed":635562,"internal_node_id":"0.0-0.0-1.139-0.139","task_version":"battery-v0.2"},{"rune":"1","rune_set":"elianto","hex":"#3366ff99","correct":32,"choice":-1,"rt":-1,"accuracy":0,"outcome":"+1","keys":[],"total_keys":0,"block":0,"practice":1,"trial_type":"pit-trial","trial_index":141,"time_elapsed":639567,"internal_node_id":"0.0-0.0-1.140-0.140","task_version":"battery-v0.2"},{"rune":"1","rune_set":"elianto","hex":"#3366ff99","correct":32,"choice":-1,"rt":-1,"accuracy":0,"outcome":"+1","keys":[],"total_keys":0,"block":0,"practice":1,"trial_type":"pit-trial","trial_index":142,"time_elapsed":644203,"internal_node_id":"0.0-0.0-1.141-0.141","task_version":"battery-v0.2"},{"rune":"1","rune_set":"elianto","hex":"#3366ff99","correct":32,"choice":-1,"rt":-1,"accuracy":0,"outcome":"+1","keys":[],"total_keys":0,"block":0,"practice":1,"trial_type":"pit-trial","trial_index":143,"time_elapsed":649186,"internal_node_id":"0.0-0.0-1.142-0.142","task_version":"battery-v0.2"},{"rune":"1","rune_set":"elianto","hex":"#3366ff99","correct":32,"choice":-1,"rt":-1,"accuracy":0,"outcome":"+1","keys":[],"total_keys":0,"block":0,"practice":1,"trial_type":"pit-trial","trial_index":144,"time_elapsed":654208,"internal_node_id":"0.0-0.0-1.143-0.143","task_version":"battery-v0.2"},{"rune":"1","rune_set":"elianto","hex":"#3366ff99","correct":32,"choice":-1,"rt":-1,"accuracy":0,"outcome":"+1","keys":[],"total_keys":0,"block":0,"practice":1,"trial_type":"pit-trial","trial_index":145,"time_elapsed":658210,"internal_node_id":"0.0-0.0-1.144-0.144","task_version":"battery-v0.2"},{"rune":"1","rune_set":"elianto","hex":"#3366ff99","correct":32,"choice":-1,"rt":-1,"accuracy":0,"outcome":"+1","keys":[],"total_keys":0,"block":0,"practice":1,"trial_type":"pit-trial","trial_index":146,"time_elapsed":662215,"internal_node_id":"0.0-0.0-1.145-0.145","task_version":"battery-v0.2"},{"rune":"1","rune_set":"elianto","hex":"#3366ff99","correct":32,"choice":-1,"rt":-1,"accuracy":0,"outcome":"+1","keys":[],"total_keys":0,"block":0,"practice":1,"trial_type":"pit-trial","trial_index":147,"time_elapsed":666218,"internal_node_id":"0.0-0.0-1.146-0.146","task_version":"battery-v0.2"},{"rune":"1","rune_set":"elianto","hex":"#3366ff99","correct":32,"choice":-1,"rt":-1,"accuracy":0,"outcome":"+1","keys":[],"total_keys":0,"block":0,"practice":1,"trial_type":"pit-trial","trial_index":148,"time_elapsed":670224,"internal_node_id":"0.0-0.0-1.147-0.147","task_version":"battery-v0.2"},{"rune":"1","rune_set":"elianto","hex":"#3366ff99","correct":32,"choice":-1,"rt":-1,"accuracy":0,"outcome":"+1","keys":[],"total_keys":0,"block":0,"practice":1,"trial_type":"pit-trial","trial_index":149,"time_elapsed":674235,"internal_node_id":"0.0-0.0-1.148-0.148","task_version":"battery-v0.2"},{"rune":"1","rune_set":"elianto","hex":"#3366ff99","correct":32,"choice":-1,"rt":-1,"accuracy":0,"outcome":"+1","keys":[],"total_keys":0,"block":0,"practice":1,"trial_type":"pit-trial","trial_index":150,"time_elapsed":678239,"internal_node_id":"0.0-0.0-1.149-0.149","task_version":"battery-v0.2"},{"rune":"1","rune_set":"elianto","hex":"#3366ff99","correct":32,"choice":-1,"rt":-1,"accuracy":0,"outcome":"+1","keys":[],"total_keys":0,"block":0,"practice":1,"trial_type":"pit-trial","trial_index":151,"time_elapsed":682242,"internal_node_id":"0.0-0.0-1.150-0.150","task_version":"battery-v0.2"},{"rune":"1","rune_set":"elianto","hex":"#3366ff99","correct":32,"choice":-1,"rt":-1,"accuracy":0,"outcome":"+1","keys":[],"total_keys":0,"block":0,"practice":1,"trial_type":"pit-trial","trial_index":152,"time_elapsed":686246,"internal_node_id":"0.0-0.0-1.151-0.151","task_version":"battery-v0.2"},{"rune":"1","rune_set":"elianto","hex":"#3366ff99","correct":32,"choice":-1,"rt":-1,"accuracy":0,"outcome":"+1","keys":[],"total_keys":0,"block":0,"practice":1,"trial_type":"pit-trial","trial_index":153,"time_elapsed":690255,"internal_node_id":"0.0-0.0-1.152-0.152","task_version":"battery-v0.2"},{"rune":"1","rune_set":"elianto","hex":"#3366ff99","correct":32,"choice":-1,"rt":-1,"accuracy":0,"outcome":"+1","keys":[],"total_keys":0,"block":0,"practice":1,"trial_type":"pit-trial","trial_index":154,"time_elapsed":694262,"internal_node_id":"0.0-0.0-1.153-0.153","task_version":"battery-v0.2"},{"rune":"1","rune_set":"elianto","hex":"#3366ff99","correct":32,"choice":-1,"rt":-1,"accuracy":0,"outcome":"+1","keys":[],"total_keys":0,"block":0,"practice":1,"trial_type":"pit-trial","trial_index":155,"time_elapsed":698285,"internal_node_id":"0.0-0.0-1.154-0.154","task_version":"battery-v0.2"},{"rune":"1","rune_set":"elianto","hex":"#3366ff99","correct":32,"choice":-1,"rt":-1,"accuracy":0,"outcome":"+1","keys":[],"total_keys":0,"block":0,"practice":1,"trial_type":"pit-trial","trial_index":156,"time_elapsed":702297,"internal_node_id":"0.0-0.0-1.155-0.155","task_version":"battery-v0.2"},{"rune":"1","rune_set":"elianto","hex":"#3366ff99","correct":32,"choice":-1,"rt":-1,"accuracy":0,"outcome":"+1","keys":[],"total_keys":0,"block":0,"practice":1,"trial_type":"pit-trial","trial_index":157,"time_elapsed":706301,"internal_node_id":"0.0-0.0-1.156-0.156","task_version":"battery-v0.2"},{"rune":"1","rune_set":"elianto","hex":"#3366ff99","correct":32,"choice":-1,"rt":-1,"accuracy":0,"outcome":"+1","keys":[],"total_keys":0,"block":0,"practice":1,"trial_type":"pit-trial","trial_index":158,"time_elapsed":710307,"internal_node_id":"0.0-0.0-1.157-0.157","task_version":"battery-v0.2"},{"rune":"1","rune_set":"elianto","hex":"#3366ff99","correct":32,"choice":-1,"rt":-1,"accuracy":0,"outcome":"+1","keys":[],"total_keys":0,"block":0,"practice":1,"trial_type":"pit-trial","trial_index":159,"time_elapsed":714318,"internal_node_id":"0.0-0.0-1.158-0.158","task_version":"battery-v0.2"},{"rune":"1","rune_set":"elianto","hex":"#3366ff99","correct":32,"choice":-1,"rt":-1,"accuracy":0,"outcome":"+1","keys":[],"total_keys":0,"block":0,"practice":1,"trial_type":"pit-trial","trial_index":160,"time_elapsed":718321,"internal_node_id":"0.0-0.0-1.159-0.159","task_version":"battery-v0.2"},{"rune":"1","rune_set":"elianto","hex":"#3366ff99","correct":32,"choice":-1,"rt":-1,"accuracy":0,"outcome":"+1","keys":[],"total_keys":0,"block":0,"practice":1,"trial_type":"pit-trial","trial_index":161,"time_elapsed":722327,"internal_node_id":"0.0-0.0-1.160-0.160","task_version":"battery-v0.2"},{"rune":"1","rune_set":"elianto","hex":"#3366ff99","correct":32,"choice":-1,"rt":-1,"accuracy":0,"outcome":"+1","keys":[],"total_keys":0,"block":0,"practice":1,"trial_type":"pit-trial","trial_index":162,"time_elapsed":726338,"internal_node_id":"0.0-0.0-1.161-0.161","task_version":"battery-v0.2"},{"rune":"1","rune_set":"elianto","hex":"#3366ff99","correct":32,"choice":-1,"rt":-1,"accuracy":0,"outcome":"+1","keys":[],"total_keys":0,"block":0,"practice":1,"trial_type":"pit-trial","trial_index":163,"time_elapsed":730345,"internal_node_id":"0.0-0.0-1.162-0.162","task_version":"battery-v0.2"},{"rune":"1","rune_set":"elianto","hex":"#3366ff99","correct":32,"choice":-1,"rt":-1,"accuracy":0,"outcome":"+1","keys":[],"total_keys":0,"block":0,"practice":1,"trial_type":"pit-trial","trial_index":164,"time_elapsed":734349,"internal_node_id":"0.0-0.0-1.163-0.163","task_version":"battery-v0.2"},{"rune":"1","rune_set":"elianto","hex":"#3366ff99","correct":32,"choice":-1,"rt":-1,"accuracy":0,"outcome":"+1","keys":[],"total_keys":0,"block":0,"practice":1,"trial_type":"pit-trial","trial_index":165,"time_elapsed":738355,"internal_node_id":"0.0-0.0-1.164-0.164","task_version":"battery-v0.2"},{"rune":"1","rune_set":"elianto","hex":"#3366ff99","correct":32,"choice":-1,"rt":-1,"accuracy":0,"outcome":"+1","keys":[],"total_keys":0,"block":0,"practice":1,"trial_type":"pit-trial","trial_index":166,"time_elapsed":742359,"internal_node_id":"0.0-0.0-1.165-0.165","task_version":"battery-v0.2"},{"rune":"1","rune_set":"elianto","hex":"#3366ff99","correct":32,"choice":-1,"rt":-1,"accuracy":0,"outcome":"+1","keys":[],"total_keys":0,"block":0,"practice":1,"trial_type":"pit-trial","trial_index":167,"time_elapsed":746362,"internal_node_id":"0.0-0.0-1.166-0.166","task_version":"battery-v0.2"},{"rune":"1","rune_set":"elianto","hex":"#3366ff99","correct":32,"choice":-1,"rt":-1,"accuracy":0,"outcome":"+1","keys":[],"total_keys":0,"block":0,"practice":1,"trial_type":"pit-trial","trial_index":168,"time_elapsed":750372,"internal_node_id":"0.0-0.0-1.167-0.167","task_version":"battery-v0.2"},{"rune":"1","rune_set":"elianto","hex":"#3366ff99","correct":32,"choice":-1,"rt":-1,"accuracy":0,"outcome":"+1","keys":[],"total_keys":0,"block":0,"practice":1,"trial_type":"pit-trial","trial_index":169,"time_elapsed":754375,"internal_node_id":"0.0-0.0-1.168-0.168","task_version":"battery-v0.2"},{"rune":"1","rune_set":"elianto","hex":"#3366ff99","correct":32,"choice":-1,"rt":-1,"accuracy":0,"outcome":"+1","keys":[],"total_keys":0,"block":0,"practice":1,"trial_type":"pit-trial","trial_index":170,"time_elapsed":758388,"internal_node_id":"0.0-0.0-1.169-0.169","task_version":"battery-v0.2"},{"rune":"1","rune_set":"elianto","hex":"#3366ff99","correct":32,"choice":-1,"rt":-1,"accuracy":0,"outcome":"+1","keys":[],"total_keys":0,"block":0,"practice":1,"trial_type":"pit-trial","trial_index":171,"time_elapsed":762392,"internal_node_id":"0.0-0.0-1.170-0.170","task_version":"battery-v0.2"},{"rune":"1","rune_set":"elianto","hex":"#3366ff99","correct":32,"choice":-1,"rt":-1,"accuracy":0,"outcome":"+1","keys":[],"total_keys":0,"block":0,"practice":1,"trial_type":"pit-trial","trial_index":172,"time_elapsed":766402,"internal_node_id":"0.0-0.0-1.171-0.171","task_version":"battery-v0.2"},{"rune":"1","rune_set":"elianto","hex":"#3366ff99","correct":32,"choice":-1,"rt":-1,"accuracy":0,"outcome":"+1","keys":[],"total_keys":0,"block":0,"practice":1,"trial_type":"pit-trial","trial_index":173,"time_elapsed":770414,"internal_node_id":"0.0-0.0-1.172-0.172","task_version":"battery-v0.2"},{"rune":"1","rune_set":"elianto","hex":"#3366ff99","correct":32,"choice":-1,"rt":-1,"accuracy":0,"outcome":"+1","keys":[],"total_keys":0,"block":0,"practice":1,"trial_type":"pit-trial","trial_index":174,"time_elapsed":774418,"internal_node_id":"0.0-0.0-1.173-0.173","task_version":"battery-v0.2"},{"rune":"1","rune_set":"elianto","hex":"#3366ff99","correct":32,"choice":-1,"rt":-1,"accuracy":0,"outcome":"+1","keys":[],"total_keys":0,"block":0,"practice":1,"trial_type":"pit-trial","trial_index":175,"time_elapsed":778424,"internal_node_id":"0.0-0.0-1.174-0.174","task_version":"battery-v0.2"},{"rune":"1","rune_set":"elianto","hex":"#3366ff99","correct":32,"choice":-1,"rt":-1,"accuracy":0,"outcome":"+1","keys":[],"total_keys":0,"block":0,"practice":1,"trial_type":"pit-trial","trial_index":176,"time_elapsed":782430,"internal_node_id":"0.0-0.0-1.175-0.175","task_version":"battery-v0.2"},{"rune":"1","rune_set":"elianto","hex":"#3366ff99","correct":32,"choice":-1,"rt":-1,"accuracy":0,"outcome":"+1","keys":[],"total_keys":0,"block":0,"practice":1,"trial_type":"pit-trial","trial_index":177,"time_elapsed":786444,"internal_node_id":"0.0-0.0-1.176-0.176","task_version":"battery-v0.2"},{"rune":"1","rune_set":"elianto","hex":"#3366ff99","correct":32,"choice":32,"rt":148.00000004470348,"accuracy":1,"outcome":"+10","keys":[673.9999999990687,971.0000000195578,1670.0000000419095,1930.9999999823049,2168.00000006333],"total_keys":5,"block":0,"practice":1,"trial_type":"pit-trial","trial_index":178,"time_elapsed":789320,"internal_node_id":"0.0-0.0-1.177-0.177","task_version":"battery-v0.2"},{"rune":"1","rune_set":"elianto","hex":"#3366ff99","correct":32,"choice":32,"rt":60.000000055879354,"accuracy":1,"outcome":"+10","keys":[734.9999999860302,962.9999999888241,1158.9999999850988,1342.9999999934807,1560.9999999869615,1724.999999976717,1895.0000000186265,2127.9999999096617],"total_keys":8,"block":0,"practice":1,"trial_type":"pit-trial","trial_index":179,"time_elapsed":792087,"internal_node_id":"0.0-0.0-1.178-0.178","task_version":"battery-v0.2"},{"rune":"1","rune_set":"elianto","hex":"#3366ff99","correct":32,"choice":32,"rt":148.00000004470348,"accuracy":1,"outcome":"+10","keys":[1305.9999999823049,1500,1648.0000000447035,1822.0000000437722,1978.000000002794],"total_keys":5,"block":0,"practice":1,"trial_type":"pit-trial","trial_index":180,"time_elapsed":794941,"internal_node_id":"0.0-0.0-1.179-0.179","task_version":"battery-v0.2"},{"view_history":"[{\"page_index\":0,\"viewing_time\":4648.999999975786},{\"page_index\":1,\"viewing_time\":1716.0000000149012}]","rt":6365.999999921769,"trial_type":"pit-instructions","trial_index":181,"time_elapsed":801309,"internal_node_id":"0.0-0.0-2.0","task_version":"battery-v0.2"},{"rune":"2","rune_set":"elianto","hex":"#3366ff99","correct":-1,"choice":32,"rt":28.999999980442226,"accuracy":0,"outcome":"+1","keys":[1206.000000005588,1373.0000000214204,1530.0000000279397,1686.0000001033768,1847.0000000670552],"total_keys":5,"block":0,"practice":2,"trial_type":"pit-trial","trial_index":182,"time_elapsed":804045,"internal_node_id":"0.0-0.0-3.0-0.0","task_version":"battery-v0.2"},{"rune":"2","rune_set":"elianto","hex":"#3366ff99","correct":-1,"choice":32,"rt":38.00000005867332,"accuracy":0,"outcome":"+1","keys":[1189.9999999441206,1349.999999976717,1538.9999999897555,1728.000000002794,1881.9999999832362,2052.999999956228,2245.9999999264255],"total_keys":7,"block":0,"practice":2,"trial_type":"pit-trial","trial_index":183,"time_elapsed":806786,"internal_node_id":"0.0-0.0-3.1-0.1","task_version":"battery-v0.2"},{"rune":"2","rune_set":"elianto","hex":"#3366ff99","correct":-1,"choice":32,"rt":31.00000007543713,"accuracy":0,"outcome":"+1","keys":[1166.0000000847504,1379.0000000735745,1543.00000006333,1710.0000000791624,1885.0000000093132,2056.00000009872,2239.999999990687,2440.999999991618],"total_keys":8,"block":0,"practice":2,"trial_type":"pit-trial","trial_index":184,"time_elapsed":809539,"internal_node_id":"0.0-0.0-3.2-0.2","task_version":"battery-v0.2"},{"rune":"2","rune_set":"elianto","hex":"#3366ff99","correct":-1,"choice":32,"rt":160.99999996367842,"accuracy":0,"outcome":"+1","keys":[186.9999999180436,550.9999999776483,692.9999999701977,858.9999999385327,1035.9999999636784,1198.9999999059364,1351.9999999552965,1500.9999999310821,1661.9999998947605,1827.999999979511,1998.9999999525025,2209.999999962747,2464.9999999674037,2625],"total_keys":14,"block":0,"practice":2,"trial_type":"pit-trial","trial_index":185,"time_elapsed":812404,"internal_node_id":"0.0-0.0-3.3-0.3","task_version":"battery-v0.2"},{"rune":"2","rune_set":"elianto","hex":"#3366ff99","correct":-1,"choice":32,"rt":159.99999991618097,"accuracy":0,"outcome":"+1","keys":[304.0000000037253,482.00000007636845,688.0000000819564,841.0000000149012,1026.0000000707805,1175.0000000465661,1337.9999999888241,1501.9999999785796,1668.999999994412,1810.9999999869615,1978.000000002794,2143.999999971129,2304.0000000037253,2478.000000002794,2646.999999997206,2825.000000069849],"total_keys":16,"block":0,"practice":2,"trial_type":"pit-trial","trial_index":186,"time_elapsed":815278,"internal_node_id":"0.0-0.0-3.4-0.4","task_version":"battery-v0.2"},{"rune":"2","rune_set":"elianto","hex":"#3366ff99","correct":-1,"choice":32,"rt":342.99999999348074,"accuracy":0,"outcome":"+1","keys":[126.99999997857958,285.9999999636784,1849.999999976717,2016.0000000614673,2160.0000000325963,2324.999999953434],"total_keys":6,"block":0,"practice":2,"trial_type":"pit-trial","trial_index":187,"time_elapsed":818334,"internal_node_id":"0.0-0.0-3.5-0.5","task_version":"battery-v0.2"},{"rune":"2","rune_set":"elianto","hex":"#3366ff99","correct":-1,"choice":32,"rt":121.99999997392297,"accuracy":0,"outcome":"+1","keys":[1268.0000000400469,1445.0000000651926,1621.999999973923,1790.999999968335,1955.0000000745058,2130.0000000046566,2303.000000072643],"total_keys":7,"block":0,"practice":2,"trial_type":"pit-trial","trial_index":188,"time_elapsed":821169,"internal_node_id":"0.0-0.0-3.6-0.6","task_version":"battery-v0.2"},{"rune":"2","rune_set":"elianto","hex":"#3366ff99","correct":-1,"choice":32,"rt":28.999999980442226,"accuracy":0,"outcome":"+1","keys":[1170.9999999729916,1355.9999999124557,1529.9999999115244,1728.999999933876,1928.99999988731,2097.9999999981374,2315.999999991618],"total_keys":7,"block":0,"practice":2,"trial_type":"pit-trial","trial_index":189,"time_elapsed":823905,"internal_node_id":"0.0-0.0-3.7-0.7","task_version":"battery-v0.2"},{"rune":"2","rune_set":"elianto","hex":"#3366ff99","correct":-1,"choice":32,"rt":3.9999999571591616,"accuracy":0,"outcome":"+1","keys":[1302.0000000251457,1510.0000000093132,1658.0000000540167,1836.0000000102445],"total_keys":4,"block":0,"practice":2,"trial_type":"pit-trial","trial_index":190,"time_elapsed":826618,"internal_node_id":"0.0-0.0-3.8-0.8","task_version":"battery-v0.2"},{"rune":"2","rune_set":"elianto","hex":"#3366ff99","correct":-1,"choice":32,"rt":69.00000001769513,"accuracy":0,"outcome":"+1","keys":[619.0000000642613,844.0000000409782,1008.9999999618158,1205.0000000745058,1393.0000000400469,1570.0000000651926,1751.0000000474975],"total_keys":7,"block":0,"practice":2,"trial_type":"pit-trial","trial_index":191,"time_elapsed":829388,"internal_node_id":"0.0-0.0-3.9-0.9","task_version":"battery-v0.2"},{"rune":"2","rune_set":"elianto","hex":"#3366ff99","correct":-1,"choice":32,"rt":180.00000005122274,"accuracy":0,"outcome":"+1","keys":[1490.999999921769,1680.9999999823049,1870.9999999264255],"total_keys":3,"block":0,"practice":2,"trial_type":"pit-trial","trial_index":192,"time_elapsed":832270,"internal_node_id":"0.0-0.0-3.10-0.10","task_version":"battery-v0.2"},{"rune":"2","rune_set":"elianto","hex":"#3366ff99","correct":-1,"choice":-1,"rt":-1,"accuracy":1,"outcome":"+10","keys":[1349.999999976717],"total_keys":1,"block":0,"practice":2,"trial_type":"pit-trial","trial_index":193,"time_elapsed":836275,"internal_node_id":"0.0-0.0-3.11-0.11","task_version":"battery-v0.2"},{"rune":"2","rune_set":"elianto","hex":"#3366ff99","correct":-1,"choice":32,"rt":685.9999999869615,"accuracy":0,"outcome":"+1","keys":[2185.9999999869615],"total_keys":1,"block":0,"practice":2,"trial_type":"pit-trial","trial_index":194,"time_elapsed":839665,"internal_node_id":"0.0-0.0-3.12-0.12","task_version":"battery-v0.2"},{"rune":"2","rune_set":"elianto","hex":"#3366ff99","correct":-1,"choice":32,"rt":438.9999998966232,"accuracy":0,"outcome":"+1","keys":[1290.999999968335,1939.9999999441206,2535.9999999636784],"total_keys":3,"block":0,"practice":2,"trial_type":"pit-trial","trial_index":195,"time_elapsed":842808,"internal_node_id":"0.0-0.0-3.13-0.13","task_version":"battery-v0.2"},{"rune":"2","rune_set":"elianto","hex":"#3366ff99","correct":-1,"choice":32,"rt":836.0000000102445,"accuracy":0,"outcome":"+1","keys":[2336.9999999413267],"total_keys":1,"block":0,"practice":2,"trial_type":"pit-trial","trial_index":196,"time_elapsed":846350,"internal_node_id":"0.0-0.0-3.14-0.14","task_version":"battery-v0.2"},{"rune":"2","rune_set":"elianto","hex":"#3366ff99","correct":-1,"choice":32,"rt":145.00000001862645,"accuracy":0,"outcome":"+1","keys":[1646.999999997206,2250,2831.000000005588],"total_keys":3,"block":0,"practice":2,"trial_type":"pit-trial","trial_index":197,"time_elapsed":849201,"internal_node_id":"0.0-0.0-3.15-0.15","task_version":"battery-v0.2"},{"rune":"2","rune_set":"elianto","hex":"#3366ff99","correct":-1,"choice":32,"rt":25.000000023283064,"accuracy":0,"outcome":"+1","keys":[229.99999998137355,434.0000000083819,1525.9999999543652,2022.9999999282882],"total_keys":4,"block":0,"practice":2,"trial_type":"pit-trial","trial_index":198,"time_elapsed":851939,"internal_node_id":"0.0-0.0-3.16-0.16","task_version":"battery-v0.2"},{"rune":"2","rune_set":"elianto","hex":"#3366ff99","correct":-1,"choice":32,"rt":332.9999999841675,"accuracy":0,"outcome":"+1","keys":[1837.000000057742],"total_keys":1,"block":0,"practice":2,"trial_type":"pit-trial","trial_index":199,"time_elapsed":854981,"internal_node_id":"0.0-0.0-3.17-0.17","task_version":"battery-v0.2"},{"rune":"2","rune_set":"elianto","hex":"#3366ff99","correct":-1,"choice":32,"rt":368.0000000167638,"accuracy":0,"outcome":"+1","keys":[1868.0000000167638],"total_keys":1,"block":0,"practice":2,"trial_type":"pit-trial","trial_index":200,"time_elapsed":858055,"internal_node_id":"0.0-0.0-3.18-0.18","task_version":"battery-v0.2"},{"rune":"2","rune_set":"elianto","hex":"#3366ff99","correct":-1,"choice":32,"rt":980.0000000977889,"accuracy":0,"outcome":"+1","keys":[2487.000000081025],"total_keys":1,"block":0,"practice":2,"trial_type":"pit-trial","trial_index":201,"time_elapsed":861761,"internal_node_id":"0.0-0.0-3.19-0.19","task_version":"battery-v0.2"},{"rune":"2","rune_set":"elianto","hex":"#3366ff99","correct":-1,"choice":32,"rt":15.000000013969839,"accuracy":0,"outcome":"+1","keys":[1515.999999945052],"total_keys":1,"block":0,"practice":2,"trial_type":"pit-trial","trial_index":202,"time_elapsed":864488,"internal_node_id":"0.0-0.0-3.20-0.20","task_version":"battery-v0.2"},{"rune":"2","rune_set":"elianto","hex":"#3366ff99","correct":-1,"choice":32,"rt":125,"accuracy":0,"outcome":"+1","keys":[1635.9999999403954],"total_keys":1,"block":0,"practice":2,"trial_type":"pit-trial","trial_index":203,"time_elapsed":867329,"internal_node_id":"0.0-0.0-3.21-0.21","task_version":"battery-v0.2"},{"rune":"2","rune_set":"elianto","hex":"#3366ff99","correct":-1,"choice":32,"rt":114.99999999068677,"accuracy":0,"outcome":"+1","keys":[1614.0000000596046,2290.000000037253],"total_keys":2,"block":0,"practice":2,"trial_type":"pit-trial","trial_index":204,"time_elapsed":870145,"internal_node_id":"0.0-0.0-3.22-0.22","task_version":"battery-v0.2"},{"rune":"2","rune_set":"elianto","hex":"#3366ff99","correct":-1,"choice":32,"rt":201.00000000093132,"accuracy":0,"outcome":"+1","keys":[1724.999999976717,2108.0000000074506,2380.0000000046566],"total_keys":3,"block":0,"practice":2,"trial_type":"pit-trial","trial_index":205,"time_elapsed":873077,"internal_node_id":"0.0-0.0-3.23-0.23","task_version":"battery-v0.2"},{"rune":"2","rune_set":"elianto","hex":"#3366ff99","correct":-1,"choice":32,"rt":244.00000006426126,"accuracy":0,"outcome":"+1","keys":[1076.9999999320135,1478.000000002794,1751.9999999785796],"total_keys":3,"block":0,"practice":2,"trial_type":"pit-trial","trial_index":206,"time_elapsed":876036,"internal_node_id":"0.0-0.0-3.24-0.24","task_version":"battery-v0.2"},{"rune":"2","rune_set":"elianto","hex":"#3366ff99","correct":-1,"choice":32,"rt":56.999999913387,"accuracy":0,"outcome":"+1","keys":[1167.9999999469146,1396.999999997206,1557.9999999608845,1736.0000000335276,1910.0000000325963,2038.9999999897555,2214.9999999674037],"total_keys":7,"block":0,"practice":2,"trial_type":"pit-trial","trial_index":207,"time_elapsed":878800,"internal_node_id":"0.0-0.0-3.25-0.25","task_version":"battery-v0.2"},{"rune":"2","rune_set":"elianto","hex":"#3366ff99","correct":-1,"choice":32,"rt":339.9999999674037,"accuracy":0,"outcome":"+1","keys":[1842.9999999934807],"total_keys":1,"block":0,"practice":2,"trial_type":"pit-trial","trial_index":208,"time_elapsed":881852,"internal_node_id":"0.0-0.0-3.26-0.26","task_version":"battery-v0.2"},{"rune":"2","rune_set":"elianto","hex":"#3366ff99","correct":-1,"choice":32,"rt":550.0000000465661,"accuracy":0,"outcome":"+1","keys":[1490.999999921769,2050.9999999776483],"total_keys":2,"block":0,"practice":2,"trial_type":"pit-trial","trial_index":209,"time_elapsed":885110,"internal_node_id":"0.0-0.0-3.27-0.27","task_version":"battery-v0.2"},{"rune":"2","rune_set":"elianto","hex":"#3366ff99","correct":-1,"choice":-1,"rt":-1,"accuracy":1,"outcome":"+10","keys":[],"total_keys":0,"block":0,"practice":2,"trial_type":"pit-trial","trial_index":210,"time_elapsed":889113,"internal_node_id":"0.0-0.0-3.28-0.28","task_version":"battery-v0.2"},{"rune":"2","rune_set":"elianto","hex":"#3366ff99","correct":-1,"choice":-1,"rt":-1,"accuracy":1,"outcome":"+10","keys":[],"total_keys":0,"block":0,"practice":2,"trial_type":"pit-trial","trial_index":211,"time_elapsed":893119,"internal_node_id":"0.0-0.0-3.29-0.29","task_version":"battery-v0.2"},{"rune":"2","rune_set":"elianto","hex":"#3366ff99","correct":-1,"choice":32,"rt":132.00000009965152,"accuracy":0,"outcome":"+1","keys":[1643.0000000400469,1935.9999999869615,2162.000000011176,2434.999999939464],"total_keys":4,"block":0,"practice":2,"trial_type":"pit-trial","trial_index":212,"time_elapsed":895967,"internal_node_id":"0.0-0.0-3.30-0.30","task_version":"battery-v0.2"},{"rune":"2","rune_set":"elianto","hex":"#3366ff99","correct":-1,"choice":32,"rt":60.999999986961484,"accuracy":0,"outcome":"+1","keys":[1560.9999999869615,1910.9999999636784,2152.0000000018626,2456.99999993667],"total_keys":4,"block":0,"practice":2,"trial_type":"pit-trial","trial_index":213,"time_elapsed":898735,"internal_node_id":"0.0-0.0-3.31-0.31","task_version":"battery-v0.2"},{"rune":"2","rune_set":"elianto","hex":"#3366ff99","correct":-1,"choice":32,"rt":47.999999951571226,"accuracy":0,"outcome":"+1","keys":[1547.9999999515712,1826.9999999320135,2023.9999999757856,2133.999999961816,2304.9999999348074,2586.0000000102445],"total_keys":6,"block":0,"practice":2,"trial_type":"pit-trial","trial_index":214,"time_elapsed":901483,"internal_node_id":"0.0-0.0-3.32-0.32","task_version":"battery-v0.2"},{"rune":"2","rune_set":"elianto","hex":"#3366ff99","correct":-1,"choice":32,"rt":40.0000000372529,"accuracy":0,"outcome":"+1","keys":[1557.9999999608845,1769.9999999022111,1954.9999999580905,2132.9999999143183],"total_keys":4,"block":0,"practice":2,"trial_type":"pit-trial","trial_index":215,"time_elapsed":904248,"internal_node_id":"0.0-0.0-3.33-0.33","task_version":"battery-v0.2"},{"rune":"2","rune_set":"elianto","hex":"#3366ff99","correct":-1,"choice":32,"rt":239.99999999068677,"accuracy":0,"outcome":"+1","keys":[1743.0000000167638,1960.0000000791624,2163.0000000586733,2391.0000000614673],"total_keys":4,"block":0,"practice":2,"trial_type":"pit-trial","trial_index":216,"time_elapsed":907198,"internal_node_id":"0.0-0.0-3.34-0.34","task_version":"battery-v0.2"},{"rune":"2","rune_set":"elianto","hex":"#3366ff99","correct":-1,"choice":-1,"rt":-1,"accuracy":1,"outcome":"+10","keys":[],"total_keys":0,"block":0,"practice":2,"trial_type":"pit-trial","trial_index":217,"time_elapsed":911200,"internal_node_id":"0.0-0.0-3.35-0.35","task_version":"battery-v0.2"},{"rune":"2","rune_set":"elianto","hex":"#3366ff99","correct":-1,"choice":32,"rt":33.99999998509884,"accuracy":0,"outcome":"+1","keys":[1001.0000000474975,1535.0000000325963,1783.9999999850988,1964.9999999674037,2123.0000000214204,2364.0000000596046,2717.0000000623986],"total_keys":7,"block":0,"practice":2,"trial_type":"pit-trial","trial_index":218,"time_elapsed":913936,"internal_node_id":"0.0-0.0-3.36-0.36","task_version":"battery-v0.2"},{"rune":"2","rune_set":"elianto","hex":"#3366ff99","correct":-1,"choice":32,"rt":103.00000000279397,"accuracy":0,"outcome":"+1","keys":[516.9999999925494,773.0000000447035,977.0000000717118,1241.9999999692664,1604.0000000502914,1952.0000000484288,2410.9999999636784,2616.9999999692664],"total_keys":8,"block":0,"practice":2,"trial_type":"pit-trial","trial_index":219,"time_elapsed":916746,"internal_node_id":"0.0-0.0-3.37-0.37","task_version":"battery-v0.2"},{"rune":"2","rune_set":"elianto","hex":"#3366ff99","correct":-1,"choice":32,"rt":770.0000000186265,"accuracy":0,"outcome":"+1","keys":[2272.999999928288,2565.999999991618,2741.9999999692664,2909.999999916181,3156.999999890104,3360.9999999171123],"total_keys":6,"block":0,"practice":2,"trial_type":"pit-trial","trial_index":220,"time_elapsed":920221,"internal_node_id":"0.0-0.0-3.38-0.38","task_version":"battery-v0.2"},{"rune":"2","rune_set":"elianto","hex":"#3366ff99","correct":-1,"choice":32,"rt":47.0000000204891,"accuracy":0,"outcome":"+1","keys":[162.999999942258,437.99999996554106,1337.9999999888241,1547.9999999515712,1835.9999998938292,2546.999999904074],"total_keys":6,"block":0,"practice":2,"trial_type":"pit-trial","trial_index":221,"time_elapsed":922974,"internal_node_id":"0.0-0.0-3.39-0.39","task_version":"battery-v0.2"},{"rune":"2","rune_set":"elianto","hex":"#3366ff99","correct":-1,"choice":32,"rt":821.9999999273568,"accuracy":0,"outcome":"+1","keys":[57.99999996088445,238.0000000121072,432.0000000298023,646.999999997206,949.9999999534339,1425.9999999776483,2332.9999999841675,2599.000000045635,2837.000000057742],"total_keys":9,"block":0,"practice":2,"trial_type":"pit-trial","trial_index":222,"time_elapsed":926511,"internal_node_id":"0.0-0.0-3.40-0.40","task_version":"battery-v0.2"},{"rune":"2","rune_set":"elianto","hex":"#3366ff99","correct":-1,"choice":32,"rt":37.00000001117587,"accuracy":0,"outcome":"+1","keys":[625.9999999310821,1260.9999999403954,1537.999999942258,1886.9999999878928,2380.9999999357387],"total_keys":5,"block":0,"practice":2,"trial_type":"pit-trial","trial_index":223,"time_elapsed":929254,"internal_node_id":"0.0-0.0-3.41-0.41","task_version":"battery-v0.2"},{"rune":"2","rune_set":"elianto","hex":"#3366ff99","correct":-1,"choice":32,"rt":62.000000034458935,"accuracy":0,"outcome":"+1","keys":[1565.000000060536,1815.999999991618,2054.0000000037253,2261.999999987893,2474.999999976717],"total_keys":5,"block":0,"practice":2,"trial_type":"pit-trial","trial_index":224,"time_elapsed":932031,"internal_node_id":"0.0-0.0-3.42-0.42","task_version":"battery-v0.2"},{"rune":"2","rune_set":"elianto","hex":"#3366ff99","correct":-1,"choice":-1,"rt":-1,"accuracy":1,"outcome":"+10","keys":[648.9999999757856,849.9999999767169,1020.0000000186265,1214.0000000363216,1410.9999999636784,3388.0000000353903,3601.9999999552965,3849.000000045635],"total_keys":8,"block":0,"practice":2,"trial_type":"pit-trial","trial_index":225,"time_elapsed":936034,"internal_node_id":"0.0-0.0-3.43-0.43","task_version":"battery-v0.2"},{"rune":"2","rune_set":"elianto","hex":"#3366ff99","correct":-1,"choice":32,"rt":761.9999999878928,"accuracy":0,"outcome":"+1","keys":[2262.999999918975,2471.99999995064,2655.999999959022,2848.9999999292195,3046.999999904074,3255.0000000046566],"total_keys":6,"block":0,"practice":2,"trial_type":"pit-trial","trial_index":226,"time_elapsed":939504,"internal_node_id":"0.0-0.0-3.44-0.44","task_version":"battery-v0.2"},{"rune":"2","rune_set":"elianto","hex":"#3366ff99","correct":-1,"choice":32,"rt":429.9999999348074,"accuracy":0,"outcome":"+1","keys":[38.99999998975545,728.000000002794,972.9999999981374,1155.0000000279397,1368.0000000167638,1940.999999991618,2152.0000000018626,2354.0000000502914,2523.0000000447035,2716.9999999459833,2945.9999999962747],"total_keys":11,"block":0,"practice":2,"trial_type":"pit-trial","trial_index":227,"time_elapsed":942656,"internal_node_id":"0.0-0.0-3.45-0.45","task_version":"battery-v0.2"},{"rune":"2","rune_set":"elianto","hex":"#3366ff99","correct":-1,"choice":32,"rt":417.0000000158325,"accuracy":0,"outcome":"+1","keys":[590.000000083819,862.0000000810251,1233.0000000074506,1920.0000000419095,2140.00000001397,2315.999999991618,2494.9999999953434,2687.000000034459,2877.000000094995],"total_keys":9,"block":0,"practice":2,"trial_type":"pit-trial","trial_index":228,"time_elapsed":945781,"internal_node_id":"0.0-0.0-3.46-0.46","task_version":"battery-v0.2"},{"rune":"2","rune_set":"elianto","hex":"#3366ff99","correct":-1,"choice":32,"rt":87.99999998882413,"accuracy":0,"outcome":"+1","keys":[1013.9999999664724,1246.999999973923,1603.000000002794,2072.9999999748543,2436.9999999180436],"total_keys":5,"block":0,"practice":2,"trial_type":"pit-trial","trial_index":229,"time_elapsed":948595,"internal_node_id":"0.0-0.0-3.47-0.47","task_version":"battery-v0.2"},{"rune":"2","rune_set":"elianto","hex":"#3366ff99","correct":-1,"choice":32,"rt":246.99999997392297,"accuracy":0,"outcome":"+1","keys":[227.00000007171184,560.0000000558794,1239.0000000596046,1748.0000000214204,2081.000000005588,2663.9999999897555],"total_keys":6,"block":0,"practice":2,"trial_type":"pit-trial","trial_index":230,"time_elapsed":951547,"internal_node_id":"0.0-0.0-3.48-0.48","task_version":"battery-v0.2"},{"rune":"2","rune_set":"elianto","hex":"#3366ff99","correct":-1,"choice":32,"rt":207.99999998416752,"accuracy":0,"outcome":"+1","keys":[52.99999995622784,308.9999998919666,542.9999999469146,783.9999999850988,1006.9999999832362,1187.999999965541,1494.9999999953434,1713.9999999199063,2000,2281.999999890104,2649.9999999068677,2914.9999999208376],"total_keys":12,"block":0,"practice":2,"trial_type":"pit-trial","trial_index":231,"time_elapsed":954464,"internal_node_id":"0.0-0.0-3.49-0.49","task_version":"battery-v0.2"},{"rune":"2","rune_set":"elianto","hex":"#3366ff99","correct":-1,"choice":32,"rt":476.0000000242144,"accuracy":0,"outcome":"+1","keys":[241.99999996926636,521.999999997206,802.9999999562278,1076.9999999320135,1976.9999999552965],"total_keys":5,"block":0,"practice":2,"trial_type":"pit-trial","trial_index":232,"time_elapsed":957644,"internal_node_id":"0.0-0.0-3.50-0.50","task_version":"battery-v0.2"},{"rune":"2","rune_set":"elianto","hex":"#3366ff99","correct":-1,"choice":32,"rt":825.0000000698492,"accuracy":0,"outcome":"+1","keys":[2325.000000069849],"total_keys":1,"block":0,"practice":2,"trial_type":"pit-trial","trial_index":233,"time_elapsed":961173,"internal_node_id":"0.0-0.0-3.51-0.51","task_version":"battery-v0.2"},{"rune":"2","rune_set":"elianto","hex":"#3366ff99","correct":-1,"choice":32,"rt":381.9999999832362,"accuracy":0,"outcome":"+1","keys":[1528.9999999804422,1912.0000000111759,2118.999999947846,2342.9999999934807],"total_keys":4,"block":0,"practice":2,"trial_type":"pit-trial","trial_index":234,"time_elapsed":964291,"internal_node_id":"0.0-0.0-3.52-0.52","task_version":"battery-v0.2"},{"rune":"2","rune_set":"elianto","hex":"#3366ff99","correct":-1,"choice":-1,"rt":-1,"accuracy":1,"outcome":"+10","keys":[3629.0000000735745,3883.999999961816],"total_keys":2,"block":0,"practice":2,"trial_type":"pit-trial","trial_index":235,"time_elapsed":968300,"internal_node_id":"0.0-0.0-3.53-0.53","task_version":"battery-v0.2"},{"rune":"2","rune_set":"elianto","hex":"#3366ff99","correct":-1,"choice":32,"rt":332.9999999841675,"accuracy":0,"outcome":"+1","keys":[1832.9999999841675,2108.0000000074506,2344.9999999720603,2565.999999991618],"total_keys":4,"block":0,"practice":2,"trial_type":"pit-trial","trial_index":236,"time_elapsed":971336,"internal_node_id":"0.0-0.0-3.54-0.54","task_version":"battery-v0.2"},{"rune":"2","rune_set":"elianto","hex":"#3366ff99","correct":-1,"choice":-1,"rt":-1,"accuracy":1,"outcome":"+10","keys":[3452.999999979511,3707.9999999841675],"total_keys":2,"block":0,"practice":2,"trial_type":"pit-trial","trial_index":237,"time_elapsed":975340,"internal_node_id":"0.0-0.0-3.55-0.55","task_version":"battery-v0.2"},{"rune":"2","rune_set":"elianto","hex":"#3366ff99","correct":-1,"choice":-1,"rt":-1,"accuracy":1,"outcome":"+10","keys":[3785.9999999636784],"total_keys":1,"block":0,"practice":2,"trial_type":"pit-trial","trial_index":238,"time_elapsed":979344,"internal_node_id":"0.0-0.0-3.56-0.56","task_version":"battery-v0.2"},{"rune":"2","rune_set":"elianto","hex":"#3366ff99","correct":-1,"choice":32,"rt":26.000000070780516,"accuracy":0,"outcome":"+1","keys":[48.99999999906868,347.99999999813735,954.9999999580905,1273.0000000447035,1538.0000000586733,1912.0000000111759,2178.000000072643],"total_keys":7,"block":0,"practice":2,"trial_type":"pit-trial","trial_index":239,"time_elapsed":982087,"internal_node_id":"0.0-0.0-3.57-0.57","task_version":"battery-v0.2"},{"rune":"2","rune_set":"elianto","hex":"#3366ff99","correct":-1,"choice":32,"rt":43.999999994412065,"accuracy":0,"outcome":"+1","keys":[933.0000000772998,1194.0000000176951,1543.999999994412,1812.000000034459,2106.000000028871,2319.000000017695,2631.999999983236],"total_keys":7,"block":0,"practice":2,"trial_type":"pit-trial","trial_index":240,"time_elapsed":984833,"internal_node_id":"0.0-0.0-3.58-0.58","task_version":"battery-v0.2"},{"rune":"2","rune_set":"elianto","hex":"#3366ff99","correct":-1,"choice":32,"rt":65.9999999916181,"accuracy":0,"outcome":"+1","keys":[763.9999999664724,1263.9999999664724,1567.9999999701977,1824.0000000223517,2076.0000000009313,2317.0000000391155,2623.9999999525025],"total_keys":7,"block":0,"practice":2,"trial_type":"pit-trial","trial_index":241,"time_elapsed":987604,"internal_node_id":"0.0-0.0-3.59-0.59","task_version":"battery-v0.2"},{"rune":"2","rune_set":"elianto","hex":"#3366ff99","correct":-1,"choice":32,"rt":175.00000004656613,"accuracy":0,"outcome":"+1","keys":[359.99999998603016,684.999999939464,1356.9999999599531,1685.9999999869615,1939.0000000130385,2219.000000040978,2535.0000000325963],"total_keys":7,"block":0,"practice":2,"trial_type":"pit-trial","trial_index":242,"time_elapsed":990495,"internal_node_id":"0.0-0.0-3.60-0.60","task_version":"battery-v0.2"},{"rune":"2","rune_set":"elianto","hex":"#3366ff99","correct":-1,"choice":32,"rt":253.99999995715916,"accuracy":0,"outcome":"+1","keys":[1036.9999998947605,1444.9999999487773,1757.9999999143183,2016.9999999925494,2279.9999999115244],"total_keys":5,"block":0,"practice":2,"trial_type":"pit-trial","trial_index":243,"time_elapsed":993458,"internal_node_id":"0.0-0.0-3.61-0.61","task_version":"battery-v0.2"},{"rune":"2","rune_set":"elianto","hex":"#3366ff99","correct":-1,"choice":32,"rt":165.99999996833503,"accuracy":0,"outcome":"+1","keys":[1672.9999999515712,1863.9999999431893,2118.999999947846,2316.9999999227,2541.999999899417],"total_keys":5,"block":0,"practice":2,"trial_type":"pit-trial","trial_index":244,"time_elapsed":996335,"internal_node_id":"0.0-0.0-3.62-0.62","task_version":"battery-v0.2"},{"rune":"2","rune_set":"elianto","hex":"#3366ff99","correct":-1,"choice":32,"rt":740.9999999217689,"accuracy":0,"outcome":"+1","keys":[2240.999999921769,2467.9999999934807,2701.9999999320135,2954.0000000270084,3236.9999999646097],"total_keys":5,"block":0,"practice":2,"trial_type":"pit-trial","trial_index":245,"time_elapsed":999780,"internal_node_id":"0.0-0.0-3.63-0.63","task_version":"battery-v0.2"},{"rune":"2","rune_set":"elianto","hex":"#3366ff99","correct":-1,"choice":-1,"rt":-1,"accuracy":1,"outcome":"+10","keys":[521.999999997206,832.0000000530854,1082.0000000530854,1339.0000000363216,3540.000000037253,3918.00000006333],"total_keys":6,"block":0,"practice":2,"trial_type":"pit-trial","trial_index":246,"time_elapsed":1003788,"internal_node_id":"0.0-0.0-3.64-0.64","task_version":"battery-v0.2"},{"rune":"2","rune_set":"elianto","hex":"#3366ff99","correct":-1,"choice":-1,"rt":-1,"accuracy":1,"outcome":"+10","keys":[193.000000086613,496.00000004284084,761.9999999878928,3623.0000000214204,3860.0000001024455],"total_keys":5,"block":0,"practice":2,"trial_type":"pit-trial","trial_index":247,"time_elapsed":1007801,"internal_node_id":"0.0-0.0-3.65-0.65","task_version":"battery-v0.2"},{"rune":"2","rune_set":"elianto","hex":"#3366ff99","correct":-1,"choice":-1,"rt":-1,"accuracy":1,"outcome":"+10","keys":[141.99999999254942,405.9999999590218,3037.000000011176,3297.999999951571],"total_keys":4,"block":0,"practice":2,"trial_type":"pit-trial","trial_index":248,"time_elapsed":1011815,"internal_node_id":"0.0-0.0-3.66-0.66","task_version":"battery-v0.2"},{"view_history":"[{\"page_index\":0,\"viewing_time\":13785.999999963678},{\"page_index\":1,\"viewing_time\":3336.0000000102445}]","rt":17123.00000002142,"trial_type":"pit-instructions","trial_index":249,"time_elapsed":1028938,"internal_node_id":"0.0-0.0-4.0","task_version":"battery-v0.2"},{"rune":"3","rune_set":"elianto","hex":"#f73b6a7A","correct":-1,"choice":32,"rt":243.99999994784594,"accuracy":0,"outcome":"-10","keys":[1750,1927.9999999562278,2099.000000045635,2224.999999976717],"total_keys":4,"block":0,"practice":3,"trial_type":"pit-trial","trial_index":250,"time_elapsed":1031892,"internal_node_id":"0.0-0.0-5.0-0.0","task_version":"battery-v0.2"},{"rune":"3","rune_set":"elianto","hex":"#f73b6a7A","correct":-1,"choice":32,"rt":1170.0000000419095,"accuracy":0,"outcome":"-10","keys":[1210.9999998938292,2673.9999999990687,2984.99999998603,3233.9999999385327,3470.9999999031425],"total_keys":5,"block":0,"practice":3,"trial_type":"pit-trial","trial_index":251,"time_elapsed":1035770,"internal_node_id":"0.0-0.0-5.1-0.1","task_version":"battery-v0.2"},{"rune":"3","rune_set":"elianto","hex":"#f73b6a7A","correct":-1,"choice":-1,"rt":-1,"accuracy":1,"outcome":"-1","keys":[],"total_keys":0,"block":0,"practice":3,"trial_type":"pit-trial","trial_index":252,"time_elapsed":1039777,"internal_node_id":"0.0-0.0-5.2-0.2","task_version":"battery-v0.2"},{"rune":"3","rune_set":"elianto","hex":"#f73b6a7A","correct":-1,"choice":-1,"rt":-1,"accuracy":1,"outcome":"-1","keys":[],"total_keys":0,"block":0,"practice":3,"trial_type":"pit-trial","trial_index":253,"time_elapsed":1043783,"internal_node_id":"0.0-0.0-5.3-0.3","task_version":"battery-v0.2"},{"rune":"3","rune_set":"elianto","hex":"#f73b6a7A","correct":-1,"choice":32,"rt":109.99999998603016,"accuracy":0,"outcome":"-10","keys":[826.0000000009313,1224.999999976717,1644.9999999022111],"total_keys":3,"block":0,"practice":3,"trial_type":"pit-trial","trial_index":254,"time_elapsed":1046632,"internal_node_id":"0.0-0.0-5.4-0.4","task_version":"battery-v0.2"},{"rune":"3","rune_set":"elianto","hex":"#f73b6a7A","correct":-1,"choice":-1,"rt":-1,"accuracy":1,"outcome":"-1","keys":[],"total_keys":0,"block":0,"practice":3,"trial_type":"pit-trial","trial_index":255,"time_elapsed":1050638,"internal_node_id":"0.0-0.0-5.5-0.5","task_version":"battery-v0.2"},{"rune":"3","rune_set":"elianto","hex":"#f73b6a7A","correct":-1,"choice":-1,"rt":-1,"accuracy":1,"outcome":"-1","keys":[],"total_keys":0,"block":0,"practice":3,"trial_type":"pit-trial","trial_index":256,"time_elapsed":1054640,"internal_node_id":"0.0-0.0-5.6-0.6","task_version":"battery-v0.2"},{"rune":"3","rune_set":"elianto","hex":"#f73b6a7A","correct":-1,"choice":-1,"rt":-1,"accuracy":1,"outcome":"-1","keys":[],"total_keys":0,"block":0,"practice":3,"trial_type":"pit-trial","trial_index":257,"time_elapsed":1058643,"internal_node_id":"0.0-0.0-5.7-0.7","task_version":"battery-v0.2"},{"view_history":"[{\"page_index\":0,\"viewing_time\":4383.999999961816},{\"page_index\":1,\"viewing_time\":1135.9999999403954}]","rt":5520.999999949709,"trial_type":"pit-instructions","trial_index":258,"time_elapsed":1064165,"internal_node_id":"0.0-0.0-6.0","task_version":"battery-v0.2"},{"rune":"4","rune_set":"elianto","hex":"#f73b6a7A","correct":32,"choice":32,"rt":59.0000000083819,"accuracy":1,"outcome":"-1","keys":[1559.000000008382,1798.0000000679865,2130.0000000046566],"total_keys":3,"block":0,"practice":4,"trial_type":"pit-trial","trial_index":259,"time_elapsed":1066929,"internal_node_id":"0.0-0.0-7.0-0.0","task_version":"battery-v0.2"},{"rune":"4","rune_set":"elianto","hex":"#f73b6a7A","correct":32,"choice":32,"rt":373.99999995250255,"accuracy":1,"outcome":"-1","keys":[1875],"total_keys":1,"block":0,"practice":4,"trial_type":"pit-trial","trial_index":260,"time_elapsed":1070008,"internal_node_id":"0.0-0.0-7.1-0.1","task_version":"battery-v0.2"},{"rune":"4","rune_set":"elianto","hex":"#f73b6a7A","correct":32,"choice":32,"rt":35.99999996367842,"accuracy":1,"outcome":"-1","keys":[1231.9999999599531,1387.999999918975,1536.9999998947605],"total_keys":3,"block":0,"practice":4,"trial_type":"pit-trial","trial_index":261,"time_elapsed":1072762,"internal_node_id":"0.0-0.0-7.2-0.2","task_version":"battery-v0.2"},{"rune":"4","rune_set":"elianto","hex":"#f73b6a7A","correct":32,"choice":32,"rt":582.9999999841675,"accuracy":1,"outcome":"-1","keys":[2087.999999988824,2266.9999999925494,2452.999999979511,2582.9999999841675,2734.99999998603],"total_keys":5,"block":0,"practice":4,"trial_type":"pit-trial","trial_index":262,"time_elapsed":1076053,"internal_node_id":"0.0-0.0-7.3-0.3","task_version":"battery-v0.2"},{"view_history":"[{\"page_index\":0,\"viewing_time\":2708.9999999152496},{\"page_index\":1,\"viewing_time\":1063.0000000819564},{\"page_index\":2,\"viewing_time\":4721.99999995064},{\"page_index\":3,\"viewing_time\":1684.000000008382},{\"page_index\":4,\"viewing_time\":2170.9999999729916},{\"page_index\":5,\"viewing_time\":2226.0000000242144}]","rt":14574.999999953434,"trial_type":"pit-instructions","trial_index":263,"time_elapsed":1090628,"internal_node_id":"0.0-0.0-8.0","task_version":"battery-v0.2"},{"responses":["Press SPACE","+10","-10","True","True"],"num_errors":1,"rt":28496.00000004284,"trial_type":"pit-comprehension","trial_index":264,"time_elapsed":1119126,"internal_node_id":"0.0-0.0-9.0","task_version":"battery-v0.2"},{"view_history":"[{\"page_index\":0,\"viewing_time\":3527.0000000018626},{\"page_index\":1,\"viewing_time\":2320.9999999962747}]","rt":5851.000000024214,"trial_type":"pit-instructions","trial_index":265,"time_elapsed":1124982,"internal_node_id":"0.0-1.0","task_version":"battery-v0.2"},{"rune":"N","rune_set":"bacs2","hex":"#f73b6a7A","correct":-1,"choice":32,"rt":599.9999999767169,"accuracy":0,"outcome":"-10","keys":[2104.9999999813735],"total_keys":1,"block":1,"trial":1,"stimulus":0,"robot":4,"valence":"lose","action":"no-go","sham":0,"trial_type":"pit-trial","trial_index":266,"time_elapsed":1128319,"internal_node_id":"0.0-2.0","task_version":"battery-v0.2"},{"rune":"A","rune_set":"bacs2","hex":"#3366ff99","correct":32,"choice":32,"rt":167.9999999469146,"accuracy":1,"outcome":"+1","keys":[1317.0000000391155,1670.9999999729916],"total_keys":2,"block":1,"trial":2,"stimulus":2,"robot":1,"valence":"win","action":"go","sham":1,"trial_type":"pit-trial","trial_index":267,"time_elapsed":1131194,"internal_node_id":"0.0-3.0","task_version":"battery-v0.2"},{"rune":"F","rune_set":"bacs2","hex":"#f73b6a7A","correct":-1,"choice":32,"rt":79.00000002700835,"accuracy":0,"outcome":"-10","keys":[1585.0000000791624],"total_keys":1,"block":1,"trial":3,"stimulus":1,"robot":4,"valence":"lose","action":"no-go","sham":0,"trial_type":"pit-trial","trial_index":268,"time_elapsed":1133982,"internal_node_id":"0.0-4.0","task_version":"battery-v0.2"},{"rune":"U","rune_set":"bacs2","hex":"#3366ff99","correct":-1,"choice":32,"rt":262.99999991897494,"accuracy":0,"outcome":"+1","keys":[1763.9999999664724],"total_keys":1,"block":1,"trial":4,"stimulus":3,"robot":2,"valence":"win","action":"no-go","sham":0,"trial_type":"pit-trial","trial_index":269,"time_elapsed":1136952,"internal_node_id":"0.0-5.0","task_version":"battery-v0.2"},{"rune":"F","rune_set":"bacs2","hex":"#f73b6a7A","correct":-1,"choice":-1,"rt":-1,"accuracy":1,"outcome":"-1","keys":[],"total_keys":0,"block":1,"trial":5,"stimulus":1,"robot":4,"valence":"lose","action":"no-go","sham":0,"trial_type":"pit-trial","trial_index":270,"time_elapsed":1140955,"internal_node_id":"0.0-6.0","task_version":"battery-v0.2"},{"rune":"A","rune_set":"bacs2","hex":"#3366ff99","correct":32,"choice":-1,"rt":-1,"accuracy":0,"outcome":"+1","keys":[1247.999999905005],"total_keys":1,"block":1,"trial":6,"stimulus":2,"robot":1,"valence":"win","action":"go","sham":0,"trial_type":"pit-trial","trial_index":271,"time_elapsed":1144958,"internal_node_id":"0.0-7.0","task_version":"battery-v0.2"},{"rune":"N","rune_set":"bacs2","hex":"#f73b6a7A","correct":-1,"choice":-1,"rt":-1,"accuracy":1,"outcome":"-1","keys":[],"total_keys":0,"block":1,"trial":7,"stimulus":0,"robot":4,"valence":"lose","action":"no-go","sham":0,"trial_type":"pit-trial","trial_index":272,"time_elapsed":1148966,"internal_node_id":"0.0-8.0","task_version":"battery-v0.2"},{"rune":"U","rune_set":"bacs2","hex":"#3366ff99","correct":-1,"choice":-1,"rt":-1,"accuracy":1,"outcome":"+10","keys":[1251.0000000474975],"total_keys":1,"block":1,"trial":8,"stimulus":3,"robot":2,"valence":"win","action":"no-go","sham":0,"trial_type":"pit-trial","trial_index":273,"time_elapsed":1152968,"internal_node_id":"0.0-9.0","task_version":"battery-v0.2"},{"rune":"A","rune_set":"bacs2","hex":"#3366ff99","correct":32,"choice":-1,"rt":-1,"accuracy":0,"outcome":"+1","keys":[2838.9999999199063],"total_keys":1,"block":1,"trial":9,"stimulus":2,"robot":1,"valence":"win","action":"go","sham":0,"trial_type":"pit-trial","trial_index":274,"time_elapsed":1156987,"internal_node_id":"0.0-10.0","task_version":"battery-v0.2"},{"rune":"U","rune_set":"bacs2","hex":"#3366ff99","correct":-1,"choice":32,"rt":316.9999999227002,"accuracy":0,"outcome":"+1","keys":[1817.9999999701977],"total_keys":1,"block":1,"trial":10,"stimulus":3,"robot":2,"valence":"win","action":"no-go","sham":0,"trial_type":"pit-trial","trial_index":275,"time_elapsed":1160017,"internal_node_id":"0.0-11.0","task_version":"battery-v0.2"},{"rune":"N","rune_set":"bacs2","hex":"#f73b6a7A","correct":-1,"choice":-1,"rt":-1,"accuracy":1,"outcome":"-1","keys":[],"total_keys":0,"block":1,"trial":11,"stimulus":0,"robot":4,"valence":"lose","action":"no-go","sham":0,"trial_type":"pit-trial","trial_index":276,"time_elapsed":1164020,"internal_node_id":"0.0-12.0","task_version":"battery-v0.2"},{"rune":"F","rune_set":"bacs2","hex":"#f73b6a7A","correct":-1,"choice":-1,"rt":-1,"accuracy":1,"outcome":"-1","keys":[1215.9999998984858],"total_keys":1,"block":1,"trial":12,"stimulus":1,"robot":4,"valence":"lose","action":"no-go","sham":0,"trial_type":"pit-trial","trial_index":277,"time_elapsed":1168024,"internal_node_id":"0.0-13.0","task_version":"battery-v0.2"},{"rune":"A","rune_set":"bacs2","hex":"#3366ff99","correct":32,"choice":32,"rt":388.9999999664724,"accuracy":1,"outcome":"+1","keys":[1180.9999999823049,1893.0000000400469],"total_keys":2,"block":1,"trial":13,"stimulus":2,"robot":1,"valence":"win","action":"go","sham":1,"trial_type":"pit-trial","trial_index":278,"time_elapsed":1171123,"internal_node_id":"0.0-14.0","task_version":"battery-v0.2"},{"rune":"N","rune_set":"bacs2","hex":"#f73b6a7A","correct":-1,"choice":32,"rt":349.0000000456348,"accuracy":0,"outcome":"-10","keys":[1852.0000000717118],"total_keys":1,"block":1,"trial":14,"stimulus":0,"robot":4,"valence":"lose","action":"no-go","sham":0,"trial_type":"pit-trial","trial_index":279,"time_elapsed":1174186,"internal_node_id":"0.0-15.0","task_version":"battery-v0.2"},{"rune":"F","rune_set":"bacs2","hex":"#f73b6a7A","correct":-1,"choice":32,"rt":255.99999993573874,"accuracy":0,"outcome":"-10","keys":[1769.9999999022111],"total_keys":1,"block":1,"trial":15,"stimulus":1,"robot":4,"valence":"lose","action":"no-go","sham":0,"trial_type":"pit-trial","trial_index":280,"time_elapsed":1177165,"internal_node_id":"0.0-16.0","task_version":"battery-v0.2"},{"rune":"U","rune_set":"bacs2","hex":"#3366ff99","correct":-1,"choice":32,"rt":380.99999993573874,"accuracy":0,"outcome":"+1","keys":[1883.9999999618158,2612.999999895692,2815.999999991618,2983.9999999385327],"total_keys":4,"block":1,"trial":16,"stimulus":3,"robot":2,"valence":"win","action":"no-go","sham":0,"trial_type":"pit-trial","trial_index":281,"time_elapsed":1180258,"internal_node_id":"0.0-17.0","task_version":"battery-v0.2"},{"rune":"F","rune_set":"bacs2","hex":"#f73b6a7A","correct":-1,"choice":32,"rt":216.00000001490116,"accuracy":0,"outcome":"-10","keys":[42.000000015832484,1717.0000000623986],"total_keys":2,"block":1,"trial":17,"stimulus":1,"robot":4,"valence":"lose","action":"no-go","sham":0,"trial_type":"pit-trial","trial_index":282,"time_elapsed":1183195,"internal_node_id":"0.0-18.0","task_version":"battery-v0.2"},{"rune":"U","rune_set":"bacs2","hex":"#3366ff99","correct":-1,"choice":32,"rt":1244.9999999953434,"accuracy":0,"outcome":"+1","keys":[2746.000000042841,3261.999999987893,3478.000000002794,3628.999999957159],"total_keys":4,"block":1,"trial":18,"stimulus":3,"robot":2,"valence":"win","action":"no-go","sham":0,"trial_type":"pit-trial","trial_index":283,"time_elapsed":1187149,"internal_node_id":"0.0-19.0","task_version":"battery-v0.2"},{"rune":"N","rune_set":"bacs2","hex":"#f73b6a7A","correct":-1,"choice":32,"rt":322.9999999748543,"accuracy":0,"outcome":"-1","keys":[1824.0000000223517],"total_keys":1,"block":1,"trial":19,"stimulus":0,"robot":4,"valence":"lose","action":"no-go","sham":1,"trial_type":"pit-trial","trial_index":284,"time_elapsed":1190179,"internal_node_id":"0.0-20.0","task_version":"battery-v0.2"},{"rune":"A","rune_set":"bacs2","hex":"#3366ff99","correct":32,"choice":32,"rt":533.9999999850988,"accuracy":1,"outcome":"+10","keys":[2035.0000000325963],"total_keys":1,"block":1,"trial":20,"stimulus":2,"robot":1,"valence":"win","action":"go","sham":0,"trial_type":"pit-trial","trial_index":285,"time_elapsed":1193420,"internal_node_id":"0.0-21.0","task_version":"battery-v0.2"},{"rune":"U","rune_set":"bacs2","hex":"#3366ff99","correct":-1,"choice":32,"rt":712.9999999888241,"accuracy":0,"outcome":"+1","keys":[2214.0000000363216],"total_keys":1,"block":1,"trial":21,"stimulus":3,"robot":2,"valence":"win","action":"no-go","sham":0,"trial_type":"pit-trial","trial_index":286,"time_elapsed":1196837,"internal_node_id":"0.0-22.0","task_version":"battery-v0.2"},{"rune":"F","rune_set":"bacs2","hex":"#f73b6a7A","correct":-1,"choice":-1,"rt":-1,"accuracy":1,"outcome":"-1","keys":[],"total_keys":0,"block":1,"trial":22,"stimulus":1,"robot":4,"valence":"lose","action":"no-go","sham":0,"trial_type":"pit-trial","trial_index":287,"time_elapsed":1200841,"internal_node_id":"0.0-23.0","task_version":"battery-v0.2"},{"rune":"N","rune_set":"bacs2","hex":"#f73b6a7A","correct":-1,"choice":-1,"rt":-1,"accuracy":1,"outcome":"-1","keys":[1454.0000000270084],"total_keys":1,"block":1,"trial":23,"stimulus":0,"robot":4,"valence":"lose","action":"no-go","sham":0,"trial_type":"pit-trial","trial_index":288,"time_elapsed":1204844,"internal_node_id":"0.0-24.0","task_version":"battery-v0.2"},{"rune":"A","rune_set":"bacs2","hex":"#3366ff99","correct":32,"choice":-1,"rt":-1,"accuracy":0,"outcome":"+10","keys":[1489.0000000596046,3141.9999999925494],"total_keys":2,"block":1,"trial":24,"stimulus":2,"robot":1,"valence":"win","action":"go","sham":1,"trial_type":"pit-trial","trial_index":289,"time_elapsed":1208846,"internal_node_id":"0.0-25.0","task_version":"battery-v0.2"},{"rune":"A","rune_set":"bacs2","hex":"#3366ff99","correct":32,"choice":32,"rt":488.0000000121072,"accuracy":1,"outcome":"+10","keys":[2005.9999999357387],"total_keys":1,"block":1,"trial":25,"stimulus":2,"robot":1,"valence":"win","action":"go","sham":0,"trial_type":"pit-trial","trial_index":290,"time_elapsed":1212055,"internal_node_id":"0.0-26.0","task_version":"battery-v0.2"},{"rune":"F","rune_set":"bacs2","hex":"#f73b6a7A","correct":-1,"choice":-1,"rt":-1,"accuracy":1,"outcome":"-1","keys":[],"total_keys":0,"block":1,"trial":26,"stimulus":1,"robot":4,"valence":"lose","action":"no-go","sham":0,"trial_type":"pit-trial","trial_index":291,"time_elapsed":1216059,"internal_node_id":"0.0-27.0","task_version":"battery-v0.2"},{"rune":"N","rune_set":"bacs2","hex":"#f73b6a7A","correct":-1,"choice":-1,"rt":-1,"accuracy":1,"outcome":"-1","keys":[],"total_keys":0,"block":1,"trial":27,"stimulus":0,"robot":4,"valence":"lose","action":"no-go","sham":0,"trial_type":"pit-trial","trial_index":292,"time_elapsed":1220064,"internal_node_id":"0.0-28.0","task_version":"battery-v0.2"},{"rune":"U","rune_set":"bacs2","hex":"#3366ff99","correct":-1,"choice":32,"rt":357.00000007636845,"accuracy":0,"outcome":"+1","keys":[1875],"total_keys":1,"block":1,"trial":28,"stimulus":3,"robot":2,"valence":"win","action":"no-go","sham":0,"trial_type":"pit-trial","trial_index":293,"time_elapsed":1223150,"internal_node_id":"0.0-29.0","task_version":"battery-v0.2"},{"rune":"U","rune_set":"bacs2","hex":"#3366ff99","correct":-1,"choice":32,"rt":517.9999999236315,"accuracy":0,"outcome":"+1","keys":[2017.9999999236315],"total_keys":1,"block":1,"trial":29,"stimulus":3,"robot":2,"valence":"win","action":"no-go","sham":0,"trial_type":"pit-trial","trial_index":294,"time_elapsed":1226375,"internal_node_id":"0.0-30.0","task_version":"battery-v0.2"},{"rune":"F","rune_set":"bacs2","hex":"#f73b6a7A","correct":-1,"choice":-1,"rt":-1,"accuracy":1,"outcome":"-10","keys":[],"total_keys":0,"block":1,"trial":30,"stimulus":1,"robot":4,"valence":"lose","action":"no-go","sham":1,"trial_type":"pit-trial","trial_index":295,"time_elapsed":1230382,"internal_node_id":"0.0-31.0","task_version":"battery-v0.2"},{"rune":"N","rune_set":"bacs2","hex":"#f73b6a7A","correct":-1,"choice":32,"rt":691.0000001080334,"accuracy":0,"outcome":"-1","keys":[2192.0000000391155],"total_keys":1,"block":1,"trial":31,"stimulus":0,"robot":4,"valence":"lose","action":"no-go","sham":1,"trial_type":"pit-trial","trial_index":296,"time_elapsed":1233778,"internal_node_id":"0.0-32.0","task_version":"battery-v0.2"},{"rune":"A","rune_set":"bacs2","hex":"#3366ff99","correct":32,"choice":32,"rt":423.00000006798655,"accuracy":1,"outcome":"+1","keys":[1929.0000000037253],"total_keys":1,"block":1,"trial":32,"stimulus":2,"robot":1,"valence":"win","action":"go","sham":1,"trial_type":"pit-trial","trial_index":297,"time_elapsed":1236914,"internal_node_id":"0.0-33.0","task_version":"battery-v0.2"},{"rune":"N","rune_set":"bacs2","hex":"#f73b6a7A","correct":-1,"choice":32,"rt":1133.9999999618158,"accuracy":0,"outcome":"-10","keys":[2635.000000009313],"total_keys":1,"block":1,"trial":33,"stimulus":0,"robot":4,"valence":"lose","action":"no-go","sham":0,"trial_type":"pit-trial","trial_index":298,"time_elapsed":1240767,"internal_node_id":"0.0-34.0","task_version":"battery-v0.2"},{"rune":"S","rune_set":"bacs2","hex":"#f73b6a7A","correct":32,"choice":32,"rt":793.9999999944121,"accuracy":1,"outcome":"-1","keys":[2297.999999951571],"total_keys":1,"block":1,"trial":34,"stimulus":4,"robot":3,"valence":"lose","action":"go","sham":0,"trial_type":"pit-trial","trial_index":299,"time_elapsed":1244275,"internal_node_id":"0.0-35.0","task_version":"battery-v0.2"},{"rune":"U","rune_set":"bacs2","hex":"#3366ff99","correct":-1,"choice":32,"rt":354.99999998137355,"accuracy":0,"outcome":"+1","keys":[1855.9999999124557,2510.9999999403954,2723.9999999292195,2981.999999959953],"total_keys":4,"block":1,"trial":35,"stimulus":3,"robot":2,"valence":"win","action":"no-go","sham":0,"trial_type":"pit-trial","trial_index":300,"time_elapsed":1247334,"internal_node_id":"0.0-36.0","task_version":"battery-v0.2"},{"rune":"A","rune_set":"bacs2","hex":"#3366ff99","correct":32,"choice":32,"rt":619.9999999953434,"accuracy":1,"outcome":"+1","keys":[2123.99999