[{"view_history":"[{\"page_index\":0,\"viewing_time\":2355},{\"page_index\":1,\"viewing_time\":3729},{\"page_index\":2,\"viewing_time\":6950},{\"page_index\":3,\"viewing_time\":5178},{\"page_index\":4,\"viewing_time\":6608},{\"page_index\":5,\"viewing_time\":5272},{\"page_index\":6,\"viewing_time\":8608},{\"page_index\":7,\"viewing_time\":11246},{\"page_index\":8,\"viewing_time\":10368},{\"page_index\":9,\"viewing_time\":7564}]","rt":67879,"trial_type":"pit-instructions","trial_index":0,"time_elapsed":67885,"internal_node_id":"0.0-0.0-0.0","task_version":"battery-v0.2"},{"rune":"1","rune_set":"elianto","hex":"#3366ff99","correct":32,"choice":-1,"rt":-1,"accuracy":0,"outcome":"+1","keys":[1266],"total_keys":1,"block":0,"practice":1,"trial_type":"pit-trial","trial_index":1,"time_elapsed":71892,"internal_node_id":"0.0-0.0-1.0-0.0","task_version":"battery-v0.2"},{"rune":"1","rune_set":"elianto","hex":"#3366ff99","correct":32,"choice":-1,"rt":-1,"accuracy":0,"outcome":"+1","keys":[1451],"total_keys":1,"block":0,"practice":1,"trial_type":"pit-trial","trial_index":2,"time_elapsed":75895,"internal_node_id":"0.0-0.0-1.1-0.1","task_version":"battery-v0.2"},{"rune":"1","rune_set":"elianto","hex":"#3366ff99","correct":32,"choice":-1,"rt":-1,"accuracy":0,"outcome":"+1","keys":[1312],"total_keys":1,"block":0,"practice":1,"trial_type":"pit-trial","trial_index":3,"time_elapsed":79901,"internal_node_id":"0.0-0.0-1.2-0.2","task_version":"battery-v0.2"},{"rune":"1","rune_set":"elianto","hex":"#3366ff99","correct":32,"choice":-1,"rt":-1,"accuracy":0,"outcome":"+1","keys":[],"total_keys":0,"block":0,"practice":1,"trial_type":"pit-trial","trial_index":4,"time_elapsed":83904,"internal_node_id":"0.0-0.0-1.3-0.3","task_version":"battery-v0.2"},{"rune":"1","rune_set":"elianto","hex":"#3366ff99","correct":32,"choice":32,"rt":619,"accuracy":1,"outcome":"+10","keys":[2121],"total_keys":1,"block":0,"practice":1,"trial_type":"pit-trial","trial_index":5,"time_elapsed":87226,"internal_node_id":"0.0-0.0-1.4-0.4","task_version":"battery-v0.2"},{"rune":"1","rune_set":"elianto","hex":"#3366ff99","correct":32,"choice":32,"rt":560,"accuracy":1,"outcome":"+10","keys":[2061],"total_keys":1,"block":0,"practice":1,"trial_type":"pit-trial","trial_index":6,"time_elapsed":90491,"internal_node_id":"0.0-0.0-1.5-0.5","task_version":"battery-v0.2"},{"rune":"1","rune_set":"elianto","hex":"#3366ff99","correct":32,"choice":32,"rt":488,"accuracy":1,"outcome":"+10","keys":[1988],"total_keys":1,"block":0,"practice":1,"trial_type":"pit-trial","trial_index":7,"time_elapsed":93682,"internal_node_id":"0.0-0.0-1.6-0.6","task_version":"battery-v0.2"},{"view_history":"[{\"page_index\":0,\"viewing_time\":5378},{\"page_index\":1,\"viewing_time\":20308}]","rt":25687,"trial_type":"pit-instructions","trial_index":8,"time_elapsed":119370,"internal_node_id":"0.0-0.0-2.0","task_version":"battery-v0.2"},{"rune":"2","rune_set":"elianto","hex":"#3366ff99","correct":-1,"choice":32,"rt":808,"accuracy":0,"outcome":"+1","keys":[2309],"total_keys":1,"block":0,"practice":2,"trial_type":"pit-trial","trial_index":9,"time_elapsed":122882,"internal_node_id":"0.0-0.0-3.0-0.0","task_version":"battery-v0.2"},{"rune":"2","rune_set":"elianto","hex":"#3366ff99","correct":-1,"choice":32,"rt":600,"accuracy":0,"outcome":"+1","keys":[2101],"total_keys":1,"block":0,"practice":2,"trial_type":"pit-trial","trial_index":10,"time_elapsed":126186,"internal_node_id":"0.0-0.0-3.1-0.1","task_version":"battery-v0.2"},{"rune":"2","rune_set":"elianto","hex":"#3366ff99","correct":-1,"choice":-1,"rt":-1,"accuracy":1,"outcome":"+10","keys":[],"total_keys":0,"block":0,"practice":2,"trial_type":"pit-trial","trial_index":11,"time_elapsed":130189,"internal_node_id":"0.0-0.0-3.2-0.2","task_version":"battery-v0.2"},{"rune":"2","rune_set":"elianto","hex":"#3366ff99","correct":-1,"choice":-1,"rt":-1,"accuracy":1,"outcome":"+10","keys":[],"total_keys":0,"block":0,"practice":2,"trial_type":"pit-trial","trial_index":12,"time_elapsed":134191,"internal_node_id":"0.0-0.0-3.3-0.3","task_version":"battery-v0.2"},{"rune":"2","rune_set":"elianto","hex":"#3366ff99","correct":-1,"choice":-1,"rt":-1,"accuracy":1,"outcome":"+10","keys":[],"total_keys":0,"block":0,"practice":2,"trial_type":"pit-trial","trial_index":13,"time_elapsed":138194,"internal_node_id":"0.0-0.0-3.4-0.4","task_version":"battery-v0.2"},{"view_history":"[{\"page_index\":0,\"viewing_time\":11478},{\"page_index\":1,\"viewing_time\":7406}]","rt":18885,"trial_type":"pit-instructions","trial_index":14,"time_elapsed":157079,"internal_node_id":"0.0-0.0-4.0","task_version":"battery-v0.2"},{"rune":"3","rune_set":"elianto","hex":"#f73b6a7A","correct":-1,"choice":32,"rt":572,"accuracy":0,"outcome":"-10","keys":[2073],"total_keys":1,"block":0,"practice":3,"trial_type":"pit-trial","trial_index":15,"time_elapsed":160356,"internal_node_id":"0.0-0.0-5.0-0.0","task_version":"battery-v0.2"},{"rune":"3","rune_set":"elianto","hex":"#f73b6a7A","correct":-1,"choice":-1,"rt":-1,"accuracy":1,"outcome":"-1","keys":[],"total_keys":0,"block":0,"practice":3,"trial_type":"pit-trial","trial_index":16,"time_elapsed":164360,"internal_node_id":"0.0-0.0-5.1-0.1","task_version":"battery-v0.2"},{"rune":"3","rune_set":"elianto","hex":"#f73b6a7A","correct":-1,"choice":-1,"rt":-1,"accuracy":1,"outcome":"-1","keys":[],"total_keys":0,"block":0,"practice":3,"trial_type":"pit-trial","trial_index":17,"time_elapsed":168362,"internal_node_id":"0.0-0.0-5.2-0.2","task_version":"battery-v0.2"},{"rune":"3","rune_set":"elianto","hex":"#f73b6a7A","correct":-1,"choice":-1,"rt":-1,"accuracy":1,"outcome":"-1","keys":[],"total_keys":0,"block":0,"practice":3,"trial_type":"pit-trial","trial_index":18,"time_elapsed":172364,"internal_node_id":"0.0-0.0-5.3-0.3","task_version":"battery-v0.2"},{"view_history":"[{\"page_index\":0,\"viewing_time\":3600},{\"page_index\":1,\"viewing_time\":4062}]","rt":7663,"trial_type":"pit-instructions","trial_index":19,"time_elapsed":180028,"internal_node_id":"0.0-0.0-6.0","task_version":"battery-v0.2"},{"rune":"4","rune_set":"elianto","hex":"#f73b6a7A","correct":32,"choice":32,"rt":367,"accuracy":1,"outcome":"-1","keys":[1867],"total_keys":1,"block":0,"practice":4,"trial_type":"pit-trial","trial_index":20,"time_elapsed":183098,"internal_node_id":"0.0-0.0-7.0-0.0","task_version":"battery-v0.2"},{"rune":"4","rune_set":"elianto","hex":"#f73b6a7A","correct":32,"choice":32,"rt":135,"accuracy":1,"outcome":"-1","keys":[1636],"total_keys":1,"block":0,"practice":4,"trial_type":"pit-trial","trial_index":21,"time_elapsed":185938,"internal_node_id":"0.0-0.0-7.1-0.1","task_version":"battery-v0.2"},{"rune":"4","rune_set":"elianto","hex":"#f73b6a7A","correct":32,"choice":32,"rt":216,"accuracy":1,"outcome":"-1","keys":[1718],"total_keys":1,"block":0,"practice":4,"trial_type":"pit-trial","trial_index":22,"time_elapsed":188857,"internal_node_id":"0.0-0.0-7.2-0.2","task_version":"battery-v0.2"},{"rune":"4","rune_set":"elianto","hex":"#f73b6a7A","correct":32,"choice":32,"rt":256,"accuracy":1,"outcome":"-1","keys":[1758],"total_keys":1,"block":0,"practice":4,"trial_type":"pit-trial","trial_index":23,"time_elapsed":191817,"internal_node_id":"0.0-0.0-7.3-0.3","task_version":"battery-v0.2"},{"view_history":"[{\"page_index\":0,\"viewing_time\":2596},{\"page_index\":1,\"viewing_time\":6594},{\"page_index\":2,\"viewing_time\":20152},{\"page_index\":3,\"viewing_time\":5968},{\"page_index\":4,\"viewing_time\":4032},{\"page_index\":5,\"viewing_time\":4026}]","rt":43368,"trial_type":"pit-instructions","trial_index":24,"time_elapsed":235187,"internal_node_id":"0.0-0.0-8.0","task_version":"battery-v0.2"},{"responses":["Press SPACE","+10","-1","True","True"],"num_errors":0,"rt":26619,"trial_type":"pit-comprehension","trial_index":25,"time_elapsed":261810,"internal_node_id":"0.0-0.0-9.0","task_version":"battery-v0.2"},{"view_history":"[{\"page_index\":0,\"viewing_time\":2368},{\"page_index\":1,\"viewing_time\":5271}]","rt":7639,"trial_type":"pit-instructions","trial_index":26,"time_elapsed":269453,"internal_node_id":"0.0-1.0","task_version":"battery-v0.2"},{"rune":"X","rune_set":"elianto","hex":"#3366ff99","correct":32,"choice":32,"rt":730,"accuracy":1,"outcome":"+10","keys":[2231],"total_keys":1,"block":1,"trial":1,"stimulus":3,"robot":1,"valence":"win","action":"go","sham":0,"trial_type":"pit-trial","trial_index":27,"time_elapsed":272889,"internal_node_id":"0.0-2.0","task_version":"battery-v0.2"},{"rune":"F","rune_set":"elianto","hex":"#f73b6a7A","correct":-1,"choice":32,"rt":840,"accuracy":0,"outcome":"-10","keys":[2342],"total_keys":1,"block":1,"trial":2,"stimulus":2,"robot":4,"valence":"lose","action":"no-go","sham":0,"trial_type":"pit-trial","trial_index":28,"time_elapsed":276434,"internal_node_id":"0.0-3.0","task_version":"battery-v0.2"},{"rune":"Q","rune_set":"elianto","hex":"#3366ff99","correct":-1,"choice":32,"rt":776,"accuracy":0,"outcome":"+1","keys":[2276],"total_keys":1,"block":1,"trial":3,"stimulus":0,"robot":2,"valence":"win","action":"no-go","sham":0,"trial_type":"pit-trial","trial_index":29,"time_elapsed":279912,"internal_node_id":"0.0-4.0","task_version":"battery-v0.2"},{"rune":"N","rune_set":"elianto","hex":"#3366ff99","correct":32,"choice":32,"rt":680,"accuracy":1,"outcome":"+10","keys":[2182],"total_keys":1,"block":1,"trial":4,"stimulus":1,"robot":1,"valence":"win","action":"go","sham":0,"trial_type":"pit-trial","trial_index":30,"time_elapsed":283298,"internal_node_id":"0.0-5.0","task_version":"battery-v0.2"},{"rune":"F","rune_set":"elianto","hex":"#f73b6a7A","correct":-1,"choice":-1,"rt":-1,"accuracy":1,"outcome":"-1","keys":[],"total_keys":0,"block":1,"trial":5,"stimulus":2,"robot":4,"valence":"lose","action":"no-go","sham":0,"trial_type":"pit-trial","trial_index":31,"time_elapsed":287300,"internal_node_id":"0.0-6.0","task_version":"battery-v0.2"},{"rune":"Q","rune_set":"elianto","hex":"#3366ff99","correct":-1,"choice":-1,"rt":-1,"accuracy":1,"outcome":"+10","keys":[],"total_keys":0,"block":1,"trial":6,"stimulus":0,"robot":2,"valence":"win","action":"no-go","sham":0,"trial_type":"pit-trial","trial_index":32,"time_elapsed":291302,"internal_node_id":"0.0-7.0","task_version":"battery-v0.2"},{"rune":"X","rune_set":"elianto","hex":"#3366ff99","correct":32,"choice":32,"rt":595,"accuracy":1,"outcome":"+1","keys":[2096],"total_keys":1,"block":1,"trial":7,"stimulus":3,"robot":1,"valence":"win","action":"go","sham":1,"trial_type":"pit-trial","trial_index":33,"time_elapsed":294601,"internal_node_id":"0.0-8.0","task_version":"battery-v0.2"},{"rune":"N","rune_set":"elianto","hex":"#3366ff99","correct":32,"choice":32,"rt":650,"accuracy":1,"outcome":"+10","keys":[2150],"total_keys":1,"block":1,"trial":8,"stimulus":1,"robot":1,"valence":"win","action":"go","sham":0,"trial_type":"pit-trial","trial_index":34,"time_elapsed":297953,"internal_node_id":"0.0-9.0","task_version":"battery-v0.2"},{"rune":"F","rune_set":"elianto","hex":"#f73b6a7A","correct":-1,"choice":-1,"rt":-1,"accuracy":1,"outcome":"-1","keys":[],"total_keys":0,"block":1,"trial":9,"stimulus":2,"robot":4,"valence":"lose","action":"no-go","sham":0,"trial_type":"pit-trial","trial_index":35,"time_elapsed":301957,"internal_node_id":"0.0-10.0","task_version":"battery-v0.2"},{"rune":"X","rune_set":"elianto","hex":"#3366ff99","correct":32,"choice":32,"rt":659,"accuracy":1,"outcome":"+10","keys":[2161],"total_keys":1,"block":1,"trial":10,"stimulus":3,"robot":1,"valence":"win","action":"go","sham":0,"trial_type":"pit-trial","trial_index":36,"time_elapsed":305321,"internal_node_id":"0.0-11.0","task_version":"battery-v0.2"},{"rune":"N","rune_set":"elianto","hex":"#3366ff99","correct":32,"choice":32,"rt":504,"accuracy":1,"outcome":"+10","keys":[2005],"total_keys":1,"block":1,"trial":11,"stimulus":1,"robot":1,"valence":"win","action":"go","sham":0,"trial_type":"pit-trial","trial_index":37,"time_elapsed":308528,"internal_node_id":"0.0-12.0","task_version":"battery-v0.2"},{"rune":"Q","rune_set":"elianto","hex":"#3366ff99","correct":-1,"choice":-1,"rt":-1,"accuracy":1,"outcome":"+1","keys":[],"total_keys":0,"block":1,"trial":12,"stimulus":0,"robot":2,"valence":"win","action":"no-go","sham":1,"trial_type":"pit-trial","trial_index":38,"time_elapsed":312531,"internal_node_id":"0.0-13.0","task_version":"battery-v0.2"},{"rune":"X","rune_set":"elianto","hex":"#3366ff99","correct":32,"choice":32,"rt":656,"accuracy":1,"outcome":"+10","keys":[2157],"total_keys":1,"block":1,"trial":13,"stimulus":3,"robot":1,"valence":"win","action":"go","sham":0,"trial_type":"pit-trial","trial_index":39,"time_elapsed":315889,"internal_node_id":"0.0-14.0","task_version":"battery-v0.2"},{"rune":"N","rune_set":"elianto","hex":"#3366ff99","correct":32,"choice":32,"rt":567,"accuracy":1,"outcome":"+1","keys":[2070],"total_keys":1,"block":1,"trial":14,"stimulus":1,"robot":1,"valence":"win","action":"go","sham":1,"trial_type":"pit-trial","trial_index":40,"time_elapsed":319160,"internal_node_id":"0.0-15.0","task_version":"battery-v0.2"},{"rune":"F","rune_set":"elianto","hex":"#f73b6a7A","correct":-1,"choice":-1,"rt":-1,"accuracy":1,"outcome":"-1","keys":[],"total_keys":0,"block":1,"trial":15,"stimulus":2,"robot":4,"valence":"lose","action":"no-go","sham":0,"trial_type":"pit-trial","trial_index":41,"time_elapsed":323164,"internal_node_id":"0.0-16.0","task_version":"battery-v0.2"},{"rune":"Q","rune_set":"elianto","hex":"#3366ff99","correct":-1,"choice":-1,"rt":-1,"accuracy":1,"outcome":"+10","keys":[],"total_keys":0,"block":1,"trial":16,"stimulus":0,"robot":2,"valence":"win","action":"no-go","sham":0,"trial_type":"pit-trial","trial_index":42,"time_elapsed":327167,"internal_node_id":"0.0-17.0","task_version":"battery-v0.2"},{"rune":"F","rune_set":"elianto","hex":"#f73b6a7A","correct":-1,"choice":-1,"rt":-1,"accuracy":1,"outcome":"-10","keys":[],"total_keys":0,"block":1,"trial":17,"stimulus":2,"robot":4,"valence":"lose","action":"no-go","sham":1,"trial_type":"pit-trial","trial_index":43,"time_elapsed":331168,"internal_node_id":"0.0-18.0","task_version":"battery-v0.2"},{"rune":"N","rune_set":"elianto","hex":"#3366ff99","correct":32,"choice":32,"rt":658,"accuracy":1,"outcome":"+10","keys":[2159],"total_keys":1,"block":1,"trial":18,"stimulus":1,"robot":1,"valence":"win","action":"go","sham":0,"trial_type":"pit-trial","trial_index":44,"time_elapsed":334530,"internal_node_id":"0.0-19.0","task_version":"battery-v0.2"},{"rune":"Q","rune_set":"elianto","hex":"#3366ff99","correct":-1,"choice":-1,"rt":-1,"accuracy":1,"outcome":"+1","keys":[],"total_keys":0,"block":1,"trial":19,"stimulus":0,"robot":2,"valence":"win","action":"no-go","sham":1,"trial_type":"pit-trial","trial_index":45,"time_elapsed":338534,"internal_node_id":"0.0-20.0","task_version":"battery-v0.2"},{"rune":"X","rune_set":"elianto","hex":"#3366ff99","correct":32,"choice":32,"rt":588,"accuracy":1,"outcome":"+10","keys":[2089],"total_keys":1,"block":1,"trial":20,"stimulus":3,"robot":1,"valence":"win","action":"go","sham":0,"trial_type":"pit-trial","trial_index":46,"time_elapsed":341825,"internal_node_id":"0.0-21.0","task_version":"battery-v0.2"},{"rune":"Q","rune_set":"elianto","hex":"#3366ff99","correct":-1,"choice":-1,"rt":-1,"accuracy":1,"outcome":"+1","keys":[],"total_keys":0,"block":1,"trial":21,"stimulus":0,"robot":2,"valence":"win","action":"no-go","sham":1,"trial_type":"pit-trial","trial_index":47,"time_elapsed":345829,"internal_node_id":"0.0-22.0","task_version":"battery-v0.2"},{"rune":"N","rune_set":"elianto","hex":"#3366ff99","correct":32,"choice":32,"rt":606,"accuracy":1,"outcome":"+10","keys":[2106],"total_keys":1,"block":1,"trial":22,"stimulus":1,"robot":1,"valence":"win","action":"go","sham":0,"trial_type":"pit-trial","trial_index":48,"time_elapsed":349138,"internal_node_id":"0.0-23.0","task_version":"battery-v0.2"},{"rune":"F","rune_set":"elianto","hex":"#f73b6a7A","correct":-1,"choice":-1,"rt":-1,"accuracy":1,"outcome":"-1","keys":[],"total_keys":0,"block":1,"trial":23,"stimulus":2,"robot":4,"valence":"lose","action":"no-go","sham":0,"trial_type":"pit-trial","trial_index":49,"time_elapsed":353141,"internal_node_id":"0.0-24.0","task_version":"battery-v0.2"},{"rune":"X","rune_set":"elianto","hex":"#3366ff99","correct":32,"choice":32,"rt":595,"accuracy":1,"outcome":"+10","keys":[2096],"total_keys":1,"block":1,"trial":24,"stimulus":3,"robot":1,"valence":"win","action":"go","sham":0,"trial_type":"pit-trial","trial_index":50,"time_elapsed":356440,"internal_node_id":"0.0-25.0","task_version":"battery-v0.2"},{"rune":"Q","rune_set":"elianto","hex":"#3366ff99","correct":-1,"choice":32,"rt":433,"accuracy":0,"outcome":"+10","keys":[1934],"total_keys":1,"block":1,"trial":25,"stimulus":0,"robot":2,"valence":"win","action":"no-go","sham":1,"trial_type":"pit-trial","trial_index":51,"time_elapsed":359577,"internal_node_id":"0.0-26.0","task_version":"battery-v0.2"},{"rune":"F","rune_set":"elianto","hex":"#f73b6a7A","correct":-1,"choice":-1,"rt":-1,"accuracy":1,"outcome":"-1","keys":[],"total_keys":0,"block":1,"trial":26,"stimulus":2,"robot":4,"valence":"lose","action":"no-go","sham":0,"trial_type":"pit-trial","trial_index":52,"time_elapsed":363582,"internal_node_id":"0.0-27.0","task_version":"battery-v0.2"},{"rune":"N","rune_set":"elianto","hex":"#3366ff99","correct":32,"choice":32,"rt":580,"accuracy":1,"outcome":"+1","keys":[2081],"total_keys":1,"block":1,"trial":27,"stimulus":1,"robot":1,"valence":"win","action":"go","sham":1,"trial_type":"pit-trial","trial_index":53,"time_elapsed":366864,"internal_node_id":"0.0-28.0","task_version":"battery-v0.2"},{"rune":"X","rune_set":"elianto","hex":"#3366ff99","correct":32,"choice":32,"rt":537,"accuracy":1,"outcome":"+10","keys":[2038],"total_keys":1,"block":1,"trial":28,"stimulus":3,"robot":1,"valence":"win","action":"go","sham":0,"trial_type":"pit-trial","trial_index":54,"time_elapsed":370103,"internal_node_id":"0.0-29.0","task_version":"battery-v0.2"},{"rune":"F","rune_set":"elianto","hex":"#f73b6a7A","correct":-1,"choice":-1,"rt":-1,"accuracy":1,"outcome":"-1","keys":[],"total_keys":0,"block":1,"trial":29,"stimulus":2,"robot":4,"valence":"lose","action":"no-go","sham":0,"trial_type":"pit-trial","trial_index":55,"time_elapsed":374108,"internal_node_id":"0.0-30.0","task_version":"battery-v0.2"},{"rune":"Q","rune_set":"elianto","hex":"#3366ff99","correct":-1,"choice":32,"rt":710,"accuracy":0,"outcome":"+1","keys":[2211],"total_keys":1,"block":1,"trial":30,"stimulus":0,"robot":2,"valence":"win","action":"no-go","sham":0,"trial_type":"pit-trial","trial_index":56,"time_elapsed":377521,"internal_node_id":"0.0-31.0","task_version":"battery-v0.2"},{"rune":"N","rune_set":"elianto","hex":"#3366ff99","correct":32,"choice":32,"rt":466,"accuracy":1,"outcome":"+10","keys":[1966],"total_keys":1,"block":1,"trial":31,"stimulus":1,"robot":1,"valence":"win","action":"go","sham":0,"trial_type":"pit-trial","trial_index":57,"time_elapsed":380688,"internal_node_id":"0.0-32.0","task_version":"battery-v0.2"},{"rune":"X","rune_set":"elianto","hex":"#3366ff99","correct":32,"choice":32,"rt":561,"accuracy":1,"outcome":"+1","keys":[2063],"total_keys":1,"block":1,"trial":32,"stimulus":3,"robot":1,"valence":"win","action":"go","sham":1,"trial_type":"pit-trial","trial_index":58,"time_elapsed":383953,"internal_node_id":"0.0-33.0","task_version":"battery-v0.2"},{"rune":"X","rune_set":"elianto","hex":"#3366ff99","correct":32,"choice":32,"rt":607,"accuracy":1,"outcome":"+10","keys":[2109],"total_keys":1,"block":1,"trial":33,"stimulus":3,"robot":1,"valence":"win","action":"go","sham":0,"trial_type":"pit-trial","trial_index":59,"time_elapsed":387265,"internal_node_id":"0.0-34.0","task_version":"battery-v0.2"},{"rune":"F","rune_set":"elianto","hex":"#f73b6a7A","correct":-1,"choice":-1,"rt":-1,"accuracy":1,"outcome":"-1","keys":[],"total_keys":0,"block":1,"trial":34,"stimulus":2,"robot":4,"valence":"lose","action":"no-go","sham":0,"trial_type":"pit-trial","trial_index":60,"time_elapsed":391268,"internal_node_id":"0.0-35.0","task_version":"battery-v0.2"},{"rune":"Q","rune_set":"elianto","hex":"#3366ff99","correct":-1,"choice":-1,"rt":-1,"accuracy":1,"outcome":"+1","keys":[],"total_keys":0,"block":1,"trial":35,"stimulus":0,"robot":2,"valence":"win","action":"no-go","sham":1,"trial_type":"pit-trial","trial_index":61,"time_elapsed":395271,"internal_node_id":"0.0-36.0","task_version":"battery-v0.2"},{"rune":"T","rune_set":"elianto","hex":"#3366ff99","correct":32,"choice":32,"rt":843,"accuracy":1,"outcome":"+10","keys":[2343],"total_keys":1,"block":1,"trial":36,"stimulus":4,"robot":1,"valence":"win","action":"go","sham":0,"trial_type":"pit-trial","trial_index":62,"time_elapsed":398818,"internal_node_id":"0.0-37.0","task_version":"battery-v0.2"},{"rune":"F","rune_set":"elianto","hex":"#f73b6a7A","correct":-1,"choice":-1,"rt":-1,"accuracy":1,"outcome":"-1","keys":[],"total_keys":0,"block":1,"trial":37,"stimulus":2,"robot":4,"valence":"lose","action":"no-go","sham":0,"trial_type":"pit-trial","trial_index":63,"time_elapsed":402821,"internal_node_id":"0.0-38.0","task_version":"battery-v0.2"},{"rune":"Q","rune_set":"elianto","hex":"#3366ff99","correct":-1,"choice":32,"rt":588,"accuracy":0,"outcome":"+10","keys":[2090],"total_keys":1,"block":1,"trial":38,"stimulus":0,"robot":2,"valence":"win","action":"no-go","sham":1,"trial_type":"pit-trial","trial_index":64,"time_elapsed":406113,"internal_node_id":"0.0-39.0","task_version":"battery-v0.2"},{"rune":"T","rune_set":"elianto","hex":"#3366ff99","correct":32,"choice":32,"rt":672,"accuracy":1,"outcome":"+10","keys":[2172],"total_keys":1,"block":1,"trial":39,"stimulus":4,"robot":1,"valence":"win","action":"go","sham":0,"trial_type":"pit-trial","trial_index":65,"time_elapsed":409488,"internal_node_id":"0.0-40.0","task_version":"battery-v0.2"},{"rune":"X","rune_set":"elianto","hex":"#3366ff99","correct":32,"choice":32,"rt":497,"accuracy":1,"outcome":"+10","keys":[1999],"total_keys":1,"block":1,"trial":40,"stimulus":3,"robot":1,"valence":"win","action":"go","sham":0,"trial_type":"pit-trial","trial_index":66,"time_elapsed":412688,"internal_node_id":"0.0-41.0","task_version":"battery-v0.2"},{"rune":"T","rune_set":"elianto","hex":"#3366ff99","correct":32,"choice":32,"rt":560,"accuracy":1,"outcome":"+10","keys":[2062],"total_keys":1,"block":1,"trial":41,"stimulus":4,"robot":1,"valence":"win","action":"go","sham":0,"trial_type":"pit-trial","trial_index":67,"time_elapsed":415952,"internal_node_id":"0.0-42.0","task_version":"battery-v0.2"},{"rune":"B","rune_set":"elianto","hex":"#f73b6a7A","correct":32,"choice":32,"rt":1241,"accuracy":1,"outcome":"-10","keys":[2742],"total_keys":1,"block":1,"trial":42,"stimulus":5,"robot":3,"valence":"lose","action":"go","sham":1,"trial_type":"pit-trial","trial_index":68,"time_elapsed":419896,"internal_node_id":"0.0-43.0","task_version":"battery-v0.2"},{"rune":"Q","rune_set":"elianto","hex":"#3366ff99","correct":-1,"choice":32,"rt":640,"accuracy":0,"outcome":"+1","keys":[2141],"total_keys":1,"block":1,"trial":43,"stimulus":0,"robot":2,"valence":"win","action":"no-go","sham":0,"trial_type":"pit-trial","trial_index":69,"time_elapsed":423240,"internal_node_id":"0.0-44.0","task_version":"battery-v0.2"},{"rune":"C","rune_set":"elianto","hex":"#f73b6a7A","correct":-1,"choice":32,"rt":1250,"accuracy":0,"outcome":"-10","keys":[2750],"total_keys":1,"block":1,"trial":44,"stimulus":6,"robot":4,"valence":"lose","action":"no-go","sham":0,"trial_type":"pit-trial","trial_index":70,"time_elapsed":427192,"internal_node_id":"0.0-45.0","task_version":"battery-v0.2"},{"rune":"Q","rune_set":"elianto","hex":"#3366ff99","correct":-1,"choice":32,"rt":600,"accuracy":0,"outcome":"+10","keys":[2101],"total_keys":1,"block":1,"trial":45,"stimulus":0,"robot":2,"valence":"win","action":"no-go","sham":1,"trial_type":"pit-trial","trial_index":71,"time_elapsed":430495,"internal_node_id":"0.0-46.0","task_version":"battery-v0.2"},{"rune":"B","rune_set":"elianto","hex":"#f73b6a7A","correct":32,"choice":-1,"rt":-1,"accuracy":0,"outcome":"-10","keys":[],"total_keys":0,"block":1,"trial":46,"stimulus":5,"robot":3,"valence":"lose","action":"go","sham":0,"trial_type":"pit-trial","trial_index":72,"time_elapsed":434498,"internal_node_id":"0.0-47.0","task_version":"battery-v0.2"},{"rune":"T","rune_set":"elianto","hex":"#3366ff99","correct":32,"choice":32,"rt":550,"accuracy":1,"outcome":"+10","keys":[2052],"total_keys":1,"block":1,"trial":47,"stimulus":4,"robot":1,"valence":"win","action":"go","sham":0,"trial_type":"pit-trial","trial_index":73,"time_elapsed":437751,"internal_node_id":"0.0-48.0","task_version":"battery-v0.2"},{"rune":"C","rune_set":"elianto","hex":"#f73b6a7A","correct":-1,"choice":32,"rt":850,"accuracy":0,"outcome":"-10","keys":[2351],"total_keys":1,"block":1,"trial":48,"stimulus":6,"robot":4,"valence":"lose","action":"no-go","sham":0,"trial_type":"pit-trial","trial_index":74,"time_elapsed":441304,"internal_node_id":"0.0-49.0","task_version":"battery-v0.2"},{"rune":"B","rune_set":"elianto","hex":"#f73b6a7A","correct":32,"choice":-1,"rt":-1,"accuracy":0,"outcome":"-10","keys":[],"total_keys":0,"block":1,"trial":49,"stimulus":5,"robot":3,"valence":"lose","action":"go","sham":0,"trial_type":"pit-trial","trial_index":75,"time_elapsed":445307,"internal_node_id":"0.0-50.0","task_version":"battery-v0.2"},{"rune":"Z","rune_set":"elianto","hex":"#3366ff99","correct":-1,"choice":32,"rt":868,"accuracy":0,"outcome":"+1","keys":[2370],"total_keys":1,"block":1,"trial":50,"stimulus":7,"robot":2,"valence":"win","action":"no-go","sham":0,"trial_type":"pit-trial","trial_index":76,"time_elapsed":448879,"internal_node_id":"0.0-51.0","task_version":"battery-v0.2"},{"rune":"C","rune_set":"elianto","hex":"#f73b6a7A","correct":-1,"choice":-1,"rt":-1,"accuracy":1,"outcome":"-1","keys":[],"total_keys":0,"block":1,"trial":51,"stimulus":6,"robot":4,"valence":"lose","action":"no-go","sham":0,"trial_type":"pit-trial","trial_index":77,"time_elapsed":452883,"internal_node_id":"0.0-52.0","task_version":"battery-v0.2"},{"rune":"T","rune_set":"elianto","hex":"#3366ff99","correct":32,"choice":32,"rt":542,"accuracy":1,"outcome":"+10","keys":[2043],"total_keys":1,"block":1,"trial":52,"stimulus":4,"robot":1,"valence":"win","action":"go","sham":0,"trial_type":"pit-trial","trial_index":78,"time_elapsed":456129,"internal_node_id":"0.0-53.0","task_version":"battery-v0.2"},{"rune":"T","rune_set":"elianto","hex":"#3366ff99","correct":32,"choice":32,"rt":601,"accuracy":1,"outcome":"+10","keys":[2101],"total_keys":1,"block":1,"trial":53,"stimulus":4,"robot":1,"valence":"win","action":"go","sham":0,"trial_type":"pit-trial","trial_index":79,"time_elapsed":459431,"internal_node_id":"0.0-54.0","task_version":"battery-v0.2"},{"rune":"Z","rune_set":"elianto","hex":"#3366ff99","correct":-1,"choice":32,"rt":514,"accuracy":0,"outcome":"+1","keys":[2014],"total_keys":1,"block":1,"trial":54,"stimulus":7,"robot":2,"valence":"win","action":"no-go","sham":0,"trial_type":"pit-trial","trial_index":80,"time_elapsed":462649,"internal_node_id":"0.0-55.0","task_version":"battery-v0.2"},{"rune":"B","rune_set":"elianto","hex":"#f73b6a7A","correct":32,"choice":-1,"rt":-1,"accuracy":0,"outcome":"-10","keys":[],"total_keys":0,"block":1,"trial":55,"stimulus":5,"robot":3,"valence":"lose","action":"go","sham":0,"trial_type":"pit-trial","trial_index":81,"time_elapsed":466652,"internal_node_id":"0.0-56.0","task_version":"battery-v0.2"},{"rune":"C","rune_set":"elianto","hex":"#f73b6a7A","correct":-1,"choice":-1,"rt":-1,"accuracy":1,"outcome":"-1","keys":[],"total_keys":0,"block":1,"trial":56,"stimulus":6,"robot":4,"valence":"lose","action":"no-go","sham":0,"trial_type":"pit-trial","trial_index":82,"time_elapsed":470654,"internal_node_id":"0.0-57.0","task_version":"battery-v0.2"},{"rune":"Z","rune_set":"elianto","hex":"#3366ff99","correct":-1,"choice":32,"rt":884,"accuracy":0,"outcome":"+1","keys":[2384],"total_keys":1,"block":1,"trial":57,"stimulus":7,"robot":2,"valence":"win","action":"no-go","sham":0,"trial_type":"pit-trial","trial_index":83,"time_elapsed":474239,"internal_node_id":"0.0-58.0","task_version":"battery-v0.2"},{"rune":"C","rune_set":"elianto","hex":"#f73b6a7A","correct":-1,"choice":-1,"rt":-1,"accuracy":1,"outcome":"-1","keys":[],"total_keys":0,"block":1,"trial":58,"stimulus":6,"robot":4,"valence":"lose","action":"no-go","sham":0,"trial_type":"pit-trial","trial_index":84,"time_elapsed":478243,"internal_node_id":"0.0-59.0","task_version":"battery-v0.2"},{"rune":"T","rune_set":"elianto","hex":"#3366ff99","correct":32,"choice":32,"rt":702,"accuracy":1,"outcome":"+10","keys":[2202],"total_keys":1,"block":1,"trial":59,"stimulus":4,"robot":1,"valence":"win","action":"go","sham":0,"trial_type":"pit-trial","trial_index":85,"time_elapsed":481647,"internal_node_id":"0.0-60.0","task_version":"battery-v0.2"},{"rune":"B","rune_set":"elianto","hex":"#f73b6a7A","correct":32,"choice":-1,"rt":-1,"accuracy":0,"outcome":"-10","keys":[],"total_keys":0,"block":1,"trial":60,"stimulus":5,"robot":3,"valence":"lose","action":"go","sham":0,"trial_type":"pit-trial","trial_index":86,"time_elapsed":485651,"internal_node_id":"0.0-61.0","task_version":"battery-v0.2"},{"rune":"C","rune_set":"elianto","hex":"#f73b6a7A","correct":-1,"choice":-1,"rt":-1,"accuracy":1,"outcome":"-1","keys":[],"total_keys":0,"block":1,"trial":61,"stimulus":6,"robot":4,"valence":"lose","action":"no-go","sham":0,"trial_type":"pit-trial","trial_index":87,"time_elapsed":489655,"internal_node_id":"0.0-62.0","task_version":"battery-v0.2"},{"rune":"B","rune_set":"elianto","hex":"#f73b6a7A","correct":32,"choice":-1,"rt":-1,"accuracy":0,"outcome":"-10","keys":[2879],"total_keys":1,"block":1,"trial":62,"stimulus":5,"robot":3,"valence":"lose","action":"go","sham":0,"trial_type":"pit-trial","trial_index":88,"time_elapsed":493658,"internal_node_id":"0.0-63.0","task_version":"battery-v0.2"},{"rune":"T","rune_set":"elianto","hex":"#3366ff99","correct":32,"choice":32,"rt":534,"accuracy":1,"outcome":"+10","keys":[2036],"total_keys":1,"block":1,"trial":63,"stimulus":4,"robot":1,"valence":"win","action":"go","sham":0,"trial_type":"pit-trial","trial_index":89,"time_elapsed":496895,"internal_node_id":"0.0-64.0","task_version":"battery-v0.2"},{"rune":"Z","rune_set":"elianto","hex":"#3366ff99","correct":-1,"choice":-1,"rt":-1,"accuracy":1,"outcome":"+10","keys":[],"total_keys":0,"block":1,"trial":64,"stimulus":7,"robot":2,"valence":"win","action":"no-go","sham":0,"trial_type":"pit-trial","trial_index":90,"time_elapsed":500897,"internal_node_id":"0.0-65.0","task_version":"battery-v0.2"},{"rune":"C","rune_set":"elianto","hex":"#f73b6a7A","correct":-1,"choice":-1,"rt":-1,"accuracy":1,"outcome":"-1","keys":[],"total_keys":0,"block":1,"trial":65,"stimulus":6,"robot":4,"valence":"lose","action":"no-go","sham":0,"trial_type":"pit-trial","trial_index":91,"time_elapsed":504901,"internal_node_id":"0.0-66.0","task_version":"battery-v0.2"},{"rune":"Z","rune_set":"elianto","hex":"#3366ff99","correct":-1,"choice":-1,"rt":-1,"accuracy":1,"outcome":"+10","keys":[],"total_keys":0,"block":1,"trial":66,"stimulus":7,"robot":2,"valence":"win","action":"no-go","sham":0,"trial_type":"pit-trial","trial_index":92,"time_elapsed":508905,"internal_node_id":"0.0-67.0","task_version":"battery-v0.2"},{"rune":"B","rune_set":"elianto","hex":"#f73b6a7A","correct":32,"choice":32,"rt":1185,"accuracy":1,"outcome":"-10","keys":[2686],"total_keys":1,"block":1,"trial":67,"stimulus":5,"robot":3,"valence":"lose","action":"go","sham":1,"trial_type":"pit-trial","trial_index":93,"time_elapsed":512791,"internal_node_id":"0.0-68.0","task_version":"battery-v0.2"},{"rune":"T","rune_set":"elianto","hex":"#3366ff99","correct":32,"choice":32,"rt":775,"accuracy":1,"outcome":"+10","keys":[2276],"total_keys":1,"block":1,"trial":68,"stimulus":4,"robot":1,"valence":"win","action":"go","sham":0,"trial_type":"pit-trial","trial_index":94,"time_elapsed":516271,"internal_node_id":"0.0-69.0","task_version":"battery-v0.2"},{"rune":"Z","rune_set":"elianto","hex":"#3366ff99","correct":-1,"choice":-1,"rt":-1,"accuracy":1,"outcome":"+10","keys":[],"total_keys":0,"block":1,"trial":69,"stimulus":7,"robot":2,"valence":"win","action":"no-go","sham":0,"trial_type":"pit-trial","trial_index":95,"time_elapsed":520274,"internal_node_id":"0.0-70.0","task_version":"battery-v0.2"},{"rune":"T","rune_set":"elianto","hex":"#3366ff99","correct":32,"choice":32,"rt":869,"accuracy":1,"outcome":"+10","keys":[2370],"total_keys":1,"block":1,"trial":70,"stimulus":4,"robot":1,"valence":"win","action":"go","sham":0,"trial_type":"pit-trial","trial_index":96,"time_elapsed":523847,"internal_node_id":"0.0-71.0","task_version":"battery-v0.2"},{"rune":"B","rune_set":"elianto","hex":"#f73b6a7A","correct":32,"choice":-1,"rt":-1,"accuracy":0,"outcome":"-1","keys":[],"total_keys":0,"block":1,"trial":71,"stimulus":5,"robot":3,"valence":"lose","action":"go","sham":1,"trial_type":"pit-trial","trial_index":97,"time_elapsed":527849,"internal_node_id":"0.0-72.0","task_version":"battery-v0.2"},{"rune":"C","rune_set":"elianto","hex":"#f73b6a7A","correct":-1,"choice":-1,"rt":-1,"accuracy":1,"outcome":"-1","keys":[],"total_keys":0,"block":1,"trial":72,"stimulus":6,"robot":4,"valence":"lose","action":"no-go","sham":0,"trial_type":"pit-trial","trial_index":98,"time_elapsed":531852,"internal_node_id":"0.0-73.0","task_version":"battery-v0.2"},{"rune":"H","rune_set":"elianto","hex":"#f73b6a7A","correct":32,"choice":-1,"rt":-1,"accuracy":0,"outcome":"-10","keys":[],"total_keys":0,"block":1,"trial":73,"stimulus":8,"robot":3,"valence":"lose","action":"go","sham":0,"trial_type":"pit-trial","trial_index":99,"time_elapsed":535855,"internal_node_id":"0.0-74.0","task_version":"battery-v0.2"},{"rune":"T","rune_set":"elianto","hex":"#3366ff99","correct":32,"choice":32,"rt":729,"accuracy":1,"outcome":"+1","keys":[2230],"total_keys":1,"block":1,"trial":74,"stimulus":4,"robot":1,"valence":"win","action":"go","sham":1,"trial_type":"pit-trial","trial_index":100,"time_elapsed":539288,"internal_node_id":"0.0-75.0","task_version":"battery-v0.2"},{"rune":"Z","rune_set":"elianto","hex":"#3366ff99","correct":-1,"choice":-1,"rt":-1,"accuracy":1,"outcome":"+10","keys":[],"total_keys":0,"block":1,"trial":75,"stimulus":7,"robot":2,"valence":"win","action":"no-go","sham":0,"trial_type":"pit-trial","trial_index":101,"time_elapsed":543290,"internal_node_id":"0.0-76.0","task_version":"battery-v0.2"},{"rune":"C","rune_set":"elianto","hex":"#f73b6a7A","correct":-1,"choice":-1,"rt":-1,"accuracy":1,"outcome":"-1","keys":[],"total_keys":0,"block":1,"trial":76,"stimulus":6,"robot":4,"valence":"lose","action":"no-go","sham":0,"trial_type":"pit-trial","trial_index":102,"time_elapsed":547294,"internal_node_id":"0.0-77.0","task_version":"battery-v0.2"},{"rune":"C","rune_set":"elianto","hex":"#f73b6a7A","correct":-1,"choice":-1,"rt":-1,"accuracy":1,"outcome":"-1","keys":[],"total_keys":0,"block":1,"trial":77,"stimulus":6,"robot":4,"valence":"lose","action":"no-go","sham":0,"trial_type":"pit-trial","trial_index":103,"time_elapsed":551298,"internal_node_id":"0.0-78.0","task_version":"battery-v0.2"},{"rune":"H","rune_set":"elianto","hex":"#f73b6a7A","correct":32,"choice":32,"rt":791,"accuracy":1,"outcome":"-1","keys":[2291],"total_keys":1,"block":1,"trial":78,"stimulus":8,"robot":3,"valence":"lose","action":"go","sham":0,"trial_type":"pit-trial","trial_index":104,"time_elapsed":554791,"internal_node_id":"0.0-79.0","task_version":"battery-v0.2"},{"rune":"Z","rune_set":"elianto","hex":"#3366ff99","correct":-1,"choice":-1,"rt":-1,"accuracy":1,"outcome":"+10","keys":[],"total_keys":0,"block":1,"trial":79,"stimulus":7,"robot":2,"valence":"win","action":"no-go","sham":0,"trial_type":"pit-trial","trial_index":105,"time_elapsed":558795,"internal_node_id":"0.0-80.0","task_version":"battery-v0.2"},{"rune":"T","rune_set":"elianto","hex":"#3366ff99","correct":32,"choice":32,"rt":799,"accuracy":1,"outcome":"+10","keys":[2299],"total_keys":1,"block":1,"trial":80,"stimulus":4,"robot":1,"valence":"win","action":"go","sham":0,"trial_type":"pit-trial","trial_index":106,"time_elapsed":562296,"internal_node_id":"0.0-81.0","task_version":"battery-v0.2"},{"rune":"C","rune_set":"elianto","hex":"#f73b6a7A","correct":-1,"choice":-1,"rt":-1,"accuracy":1,"outcome":"-1","keys":[],"total_keys":0,"block":1,"trial":81,"stimulus":6,"robot":4,"valence":"lose","action":"no-go","sham":0,"trial_type":"pit-trial","trial_index":107,"time_elapsed":566298,"internal_node_id":"0.0-82.0","task_version":"battery-v0.2"},{"rune":"Y","rune_set":"elianto","hex":"#f73b6a7A","correct":32,"choice":-1,"rt":-1,"accuracy":0,"outcome":"-1","keys":[],"total_keys":0,"block":1,"trial":82,"stimulus":9,"robot":3,"valence":"lose","action":"go","sham":1,"trial_type":"pit-trial","trial_index":108,"time_elapsed":570300,"internal_node_id":"0.0-83.0","task_version":"battery-v0.2"},{"rune":"Z","rune_set":"elianto","hex":"#3366ff99","correct":-1,"choice":-1,"rt":-1,"accuracy":1,"outcome":"+10","keys":[],"total_keys":0,"block":1,"trial":83,"stimulus":7,"robot":2,"valence":"win","action":"no-go","sham":0,"trial_type":"pit-trial","trial_index":109,"time_elapsed":574303,"internal_node_id":"0.0-84.0","task_version":"battery-v0.2"},{"rune":"H","rune_set":"elianto","hex":"#f73b6a7A","correct":32,"choice":32,"rt":921,"accuracy":1,"outcome":"-10","keys":[2421],"total_keys":1,"block":1,"trial":84,"stimulus":8,"robot":3,"valence":"lose","action":"go","sham":1,"trial_type":"pit-trial","trial_index":110,"time_elapsed":577927,"internal_node_id":"0.0-85.0","task_version":"battery-v0.2"},{"rune":"Z","rune_set":"elianto","hex":"#3366ff99","correct":-1,"choice":-1,"rt":-1,"accuracy":1,"outcome":"+10","keys":[],"total_keys":0,"block":1,"trial":85,"stimulus":7,"robot":2,"valence":"win","action":"no-go","sham":0,"trial_type":"pit-trial","trial_index":111,"time_elapsed":581930,"internal_node_id":"0.0-86.0","task_version":"battery-v0.2"},{"rune":"C","rune_set":"elianto","hex":"#f73b6a7A","correct":-1,"choice":-1,"rt":-1,"accuracy":1,"outcome":"-1","keys":[],"total_keys":0,"block":1,"trial":86,"stimulus":6,"robot":4,"valence":"lose","action":"no-go","sham":0,"trial_type":"pit-trial","trial_index":112,"time_elapsed":585935,"internal_node_id":"0.0-87.0","task_version":"battery-v0.2"},{"rune":"Y","rune_set":"elianto","hex":"#f73b6a7A","correct":32,"choice":32,"rt":1145,"accuracy":1,"outcome":"-1","keys":[2647],"total_keys":1,"block":1,"trial":87,"stimulus":9,"robot":3,"valence":"lose","action":"go","sham":0,"trial_type":"pit-trial","trial_index":113,"time_elapsed":589784,"internal_node_id":"0.0-88.0","task_version":"battery-v0.2"},{"rune":"H","rune_set":"elianto","hex":"#f73b6a7A","correct":32,"choice":-1,"rt":-1,"accuracy":0,"outcome":"-10","keys":[],"total_keys":0,"block":1,"trial":88,"stimulus":8,"robot":3,"valence":"lose","action":"go","sham":0,"trial_type":"pit-trial","trial_index":114,"time_elapsed":593788,"internal_node_id":"0.0-89.0","task_version":"battery-v0.2"},{"rune":"R","rune_set":"elianto","hex":"#f73b6a7A","correct":-1,"choice":32,"rt":996,"accuracy":0,"outcome":"-10","keys":[2497],"total_keys":1,"block":1,"trial":89,"stimulus":10,"robot":4,"valence":"lose","action":"no-go","sham":0,"trial_type":"pit-trial","trial_index":115,"time_elapsed":597486,"internal_node_id":"0.0-90.0","task_version":"battery-v0.2"},{"rune":"H","rune_set":"elianto","hex":"#f73b6a7A","correct":32,"choice":-1,"rt":-1,"accuracy":0,"outcome":"-10","keys":[],"total_keys":0,"block":1,"trial":90,"stimulus":8,"robot":3,"valence":"lose","action":"go","sham":0,"trial_type":"pit-trial","trial_index":116,"time_elapsed":601490,"internal_node_id":"0.0-91.0","task_version":"battery-v0.2"},{"rune":"M","rune_set":"elianto","hex":"#3366ff99","correct":-1,"choice":32,"rt":910,"accuracy":0,"outcome":"+1","keys":[2411],"total_keys":1,"block":1,"trial":91,"stimulus":11,"robot":2,"valence":"win","action":"no-go","sham":0,"trial_type":"pit-trial","trial_index":117,"time_elapsed":605103,"internal_node_id":"0.0-92.0","task_version":"battery-v0.2"},{"rune":"Y","rune_set":"elianto","hex":"#f73b6a7A","correct":32,"choice":-1,"rt":-1,"accuracy":0,"outcome":"-1","keys":[],"total_keys":0,"block":1,"trial":92,"stimulus":9,"robot":3,"valence":"lose","action":"go","sham":1,"trial_type":"pit-trial","trial_index":118,"time_elapsed":609106,"internal_node_id":"0.0-93.0","task_version":"battery-v0.2"},{"rune":"Y","rune_set":"elianto","hex":"#f73b6a7A","correct":32,"choice":-1,"rt":-1,"accuracy":0,"outcome":"-10","keys":[],"total_keys":0,"block":1,"trial":93,"stimulus":9,"robot":3,"valence":"lose","action":"go","sham":0,"trial_type":"pit-trial","trial_index":119,"time_elapsed":613111,"internal_node_id":"0.0-94.0","task_version":"battery-v0.2"},{"rune":"H","rune_set":"elianto","hex":"#f73b6a7A","correct":32,"choice":-1,"rt":-1,"accuracy":0,"outcome":"-10","keys":[],"total_keys":0,"block":1,"trial":94,"stimulus":8,"robot":3,"valence":"lose","action":"go","sham":0,"trial_type":"pit-trial","trial_index":120,"time_elapsed":617114,"internal_node_id":"0.0-95.0","task_version":"battery-v0.2"},{"rune":"R","rune_set":"elianto","hex":"#f73b6a7A","correct":-1,"choice":32,"rt":956,"accuracy":0,"outcome":"-1","keys":[2458],"total_keys":1,"block":1,"trial":95,"stimulus":10,"robot":4,"valence":"lose","action":"no-go","sham":1,"trial_type":"pit-trial","trial_index":121,"time_elapsed":620775,"internal_node_id":"0.0-96.0","task_version":"battery-v0.2"},{"rune":"M","rune_set":"elianto","hex":"#3366ff99","correct":-1,"choice":32,"rt":777,"accuracy":0,"outcome":"+1","keys":[2277],"total_keys":1,"block":1,"trial":96,"stimulus":11,"robot":2,"valence":"win","action":"no-go","sham":0,"trial_type":"pit-trial","trial_index":122,"time_elapsed":624254,"internal_node_id":"0.0-97.0","task_version":"battery-v0.2"},{"rune":"Y","rune_set":"elianto","hex":"#f73b6a7A","correct":32,"choice":32,"rt":1146,"accuracy":1,"outcome":"-1","keys":[2644],"total_keys":1,"block":1,"trial":97,"stimulus":9,"robot":3,"valence":"lose","action":"go","sham":0,"trial_type":"pit-trial","trial_index":123,"time_elapsed":628102,"internal_node_id":"0.0-98.0","task_version":"battery-v0.2"},{"rune":"H","rune_set":"elianto","hex":"#f73b6a7A","correct":32,"choice":-1,"rt":-1,"accuracy":0,"outcome":"-10","keys":[],"total_keys":0,"block":1,"trial":98,"stimulus":8,"robot":3,"valence":"lose","action":"go","sham":0,"trial_type":"pit-trial","trial_index":124,"time_elapsed":632105,"internal_node_id":"0.0-99.0","task_version":"battery-v0.2"},{"rune":"M","rune_set":"elianto","hex":"#3366ff99","correct":-1,"choice":32,"rt":752,"accuracy":0,"outcome":"+1","keys":[2252],"total_keys":1,"block":1,"trial":99,"stimulus":11,"robot":2,"valence":"win","action":"no-go","sham":0,"trial_type":"pit-trial","trial_index":125,"time_elapsed":635559,"internal_node_id":"0.0-100.0","task_version":"battery-v0.2"},{"rune":"R","rune_set":"elianto","hex":"#f73b6a7A","correct":-1,"choice":32,"rt":1169,"accuracy":0,"outcome":"-1","keys":[2669],"total_keys":1,"block":1,"trial":100,"stimulus":10,"robot":4,"valence":"lose","action":"no-go","sham":1,"trial_type":"pit-trial","trial_index":126,"time_elapsed":639433,"internal_node_id":"0.0-101.0","task_version":"battery-v0.2"},{"rune":"R","rune_set":"elianto","hex":"#f73b6a7A","correct":-1,"choice":32,"rt":686,"accuracy":0,"outcome":"-10","keys":[2188],"total_keys":1,"block":1,"trial":101,"stimulus":10,"robot":4,"valence":"lose","action":"no-go","sham":0,"trial_type":"pit-trial","trial_index":127,"time_elapsed":642822,"internal_node_id":"0.0-102.0","task_version":"battery-v0.2"},{"rune":"M","rune_set":"elianto","hex":"#3366ff99","correct":-1,"choice":32,"rt":873,"accuracy":0,"outcome":"+1","keys":[2374],"total_keys":1,"block":1,"trial":102,"stimulus":11,"robot":2,"valence":"win","action":"no-go","sham":0,"trial_type":"pit-trial","trial_index":128,"time_elapsed":646398,"internal_node_id":"0.0-103.0","task_version":"battery-v0.2"},{"rune":"Y","rune_set":"elianto","hex":"#f73b6a7A","correct":32,"choice":-1,"rt":-1,"accuracy":0,"outcome":"-1","keys":[],"total_keys":0,"block":1,"trial":103,"stimulus":9,"robot":3,"valence":"lose","action":"go","sham":1,"trial_type":"pit-trial","trial_index":129,"time_elapsed":650400,"internal_node_id":"0.0-104.0","task_version":"battery-v0.2"},{"rune":"H","rune_set":"elianto","hex":"#f73b6a7A","correct":32,"choice":-1,"rt":-1,"accuracy":0,"outcome":"-10","keys":[],"total_keys":0,"block":1,"trial":104,"stimulus":8,"robot":3,"valence":"lose","action":"go","sham":0,"trial_type":"pit-trial","trial_index":130,"time_elapsed":654405,"internal_node_id":"0.0-105.0","task_version":"battery-v0.2"},{"rune":"M","rune_set":"elianto","hex":"#3366ff99","correct":-1,"choice":32,"rt":1098,"accuracy":0,"outcome":"+10","keys":[2599],"total_keys":1,"block":1,"trial":105,"stimulus":11,"robot":2,"valence":"win","action":"no-go","sham":1,"trial_type":"pit-trial","trial_index":131,"time_elapsed":658208,"internal_node_id":"0.0-106.0","task_version":"battery-v0.2"},{"rune":"R","rune_set":"elianto","hex":"#f73b6a7A","correct":-1,"choice":-1,"rt":-1,"accuracy":1,"outcome":"-1","keys":[],"total_keys":0,"block":1,"trial":106,"stimulus":10,"robot":4,"valence":"lose","action":"no-go","sham":0,"trial_type":"pit-trial","trial_index":132,"time_elapsed":662208,"internal_node_id":"0.0-107.0","task_version":"battery-v0.2"},{"rune":"H","rune_set":"elianto","hex":"#f73b6a7A","correct":32,"choice":32,"rt":823,"accuracy":1,"outcome":"-1","keys":[2323],"total_keys":1,"block":1,"trial":107,"stimulus":8,"robot":3,"valence":"lose","action":"go","sham":0,"trial_type":"pit-trial","trial_index":133,"time_elapsed":665735,"internal_node_id":"0.0-108.0","task_version":"battery-v0.2"},{"rune":"Y","rune_set":"elianto","hex":"#f73b6a7A","correct":32,"choice":-1,"rt":-1,"accuracy":0,"outcome":"-10","keys":[],"total_keys":0,"block":1,"trial":108,"stimulus":9,"robot":3,"valence":"lose","action":"go","sham":0,"trial_type":"pit-trial","trial_index":134,"time_elapsed":669736,"internal_node_id":"0.0-109.0","task_version":"battery-v0.2"},{"rune":"Y","rune_set":"elianto","hex":"#f73b6a7A","correct":32,"choice":32,"rt":672,"accuracy":1,"outcome":"-1","keys":[2172],"total_keys":1,"block":1,"trial":109,"stimulus":9,"robot":3,"valence":"lose","action":"go","sham":0,"trial_type":"pit-trial","trial_index":135,"time_elapsed":673112,"internal_node_id":"0.0-110.0","task_version":"battery-v0.2"},{"rune":"M","rune_set":"elianto","hex":"#3366ff99","correct":-1,"choice":32,"rt":648,"accuracy":0,"outcome":"+1","keys":[2148],"total_keys":1,"block":1,"trial":110,"stimulus":11,"robot":2,"valence":"win","action":"no-go","sham":0,"trial_type":"pit-trial","trial_index":136,"time_elapsed":676461,"internal_node_id":"0.0-111.0","task_version":"battery-v0.2"},{"rune":"H","rune_set":"elianto","hex":"#f73b6a7A","correct":32,"choice":32,"rt":713,"accuracy":1,"outcome":"-1","keys":[2214],"total_keys":1,"block":1,"trial":111,"stimulus":8,"robot":3,"valence":"lose","action":"go","sham":0,"trial_type":"pit-trial","trial_index":137,"time_elapsed":679878,"internal_node_id":"0.0-112.0","task_version":"battery-v0.2"},{"rune":"R","rune_set":"elianto","hex":"#f73b6a7A","correct":-1,"choice":32,"rt":890,"accuracy":0,"outcome":"-10","keys":[2390],"total_keys":1,"block":1,"trial":112,"stimulus":10,"robot":4,"valence":"lose","action":"no-go","sham":0,"trial_type":"pit-trial","trial_index":138,"time_elapsed":683471,"internal_node_id":"0.0-113.0","task_version":"battery-v0.2"},{"rune":"M","rune_set":"elianto","hex":"#3366ff99","correct":-1,"choice":32,"rt":666,"accuracy":0,"outcome":"+1","keys":[2164],"total_keys":1,"block":1,"trial":113,"stimulus":11,"robot":2,"valence":"win","action":"no-go","sham":0,"trial_type":"pit-trial","trial_index":139,"time_elapsed":686837,"internal_node_id":"0.0-114.0","task_version":"battery-v0.2"},{"rune":"H","rune_set":"elianto","hex":"#f73b6a7A","correct":32,"choice":32,"rt":499,"accuracy":1,"outcome":"-1","keys":[1999],"total_keys":1,"block":1,"trial":114,"stimulus":8,"robot":3,"valence":"lose","action":"go","sham":0,"trial_type":"pit-trial","trial_index":140,"time_elapsed":690038,"internal_node_id":"0.0-115.0","task_version":"battery-v0.2"},{"rune":"Y","rune_set":"elianto","hex":"#f73b6a7A","correct":32,"choice":32,"rt":833,"accuracy":1,"outcome":"-1","keys":[2333],"total_keys":1,"block":1,"trial":115,"stimulus":9,"robot":3,"valence":"lose","action":"go","sham":0,"trial_type":"pit-trial","trial_index":141,"time_elapsed":693574,"internal_node_id":"0.0-116.0","task_version":"battery-v0.2"},{"rune":"R","rune_set":"elianto","hex":"#f73b6a7A","correct":-1,"choice":-1,"rt":-1,"accuracy":1,"outcome":"-1","keys":[],"total_keys":0,"block":1,"trial":116,"stimulus":10,"robot":4,"valence":"lose","action":"no-go","sham":0,"trial_type":"pit-trial","trial_index":142,"time_elapsed":697578,"internal_node_id":"0.0-117.0","task_version":"battery-v0.2"},{"rune":"Y","rune_set":"elianto","hex":"#f73b6a7A","correct":32,"choice":32,"rt":605,"accuracy":1,"outcome":"-1","keys":[2105],"total_keys":1,"block":1,"trial":117,"stimulus":9,"robot":3,"valence":"lose","action":"go","sham":0,"trial_type":"pit-trial","trial_index":143,"time_elapsed":700885,"internal_node_id":"0.0-118.0","task_version":"battery-v0.2"},{"rune":"H","rune_set":"elianto","hex":"#f73b6a7A","correct":32,"choice":32,"rt":603,"accuracy":1,"outcome":"-10","keys":[2102],"total_keys":1,"block":1,"trial":118,"stimulus":8,"robot":3,"valence":"lose","action":"go","sham":1,"trial_type":"pit-trial","trial_index":144,"time_elapsed":704190,"internal_node_id":"0.0-119.0","task_version":"battery-v0.2"},{"rune":"M","rune_set":"elianto","hex":"#3366ff99","correct":-1,"choice":32,"rt":824,"accuracy":0,"outcome":"+1","keys":[2325],"total_keys":1,"block":1,"trial":119,"stimulus":11,"robot":2,"valence":"win","action":"no-go","sham":0,"trial_type":"pit-trial","trial_index":145,"time_elapsed":707718,"internal_node_id":"0.0-120.0","task_version":"battery-v0.2"},{"rune":"R","rune_set":"elianto","hex":"#f73b6a7A","correct":-1,"choice":-1,"rt":-1,"accuracy":1,"outcome":"-1","keys":[],"total_keys":0,"block":1,"trial":120,"stimulus":10,"robot":4,"valence":"lose","action":"no-go","sham":0,"trial_type":"pit-trial","trial_index":146,"time_elapsed":711720,"internal_node_id":"0.0-121.0","task_version":"battery-v0.2"},{"view_history":"[{\"page_index\":0,\"viewing_time\":8910},{\"page_index\":1,\"viewing_time\":2410}]","rt":11322,"trial_type":"pit-instructions","trial_index":147,"time_elapsed":723042,"internal_node_id":"0.0-122.0","task_version":"battery-v0.2"},{"rune":"D","rune_set":"elianto","hex":"#3366ff99","correct":32,"choice":32,"rt":514,"accuracy":1,"outcome":"+10","keys":[2015],"total_keys":1,"block":2,"trial":121,"stimulus":2,"robot":1,"valence":"win","action":"go","sham":0,"trial_type":"pit-trial","trial_index":148,"time_elapsed":726262,"internal_node_id":"0.0-123.0","task_version":"battery-v0.2"},{"rune":"J","rune_set":"elianto","hex":"#f73b6a7A","correct":-1,"choice":-1,"rt":-1,"accuracy":1,"outcome":"-1","keys":[],"total_keys":0,"block":2,"trial":122,"stimulus":1,"robot":4,"valence":"lose","action":"no-go","sham":0,"trial_type":"pit-trial","trial_index":149,"time_elapsed":730267,"internal_node_id":"0.0-124.0","task_version":"battery-v0.2"},{"rune":"K","rune_set":"elianto","hex":"#3366ff99","correct":-1,"choice":32,"rt":781,"accuracy":0,"outcome":"+1","keys":[2281],"total_keys":1,"block":2,"trial":123,"stimulus":3,"robot":2,"valence":"win","action":"no-go","sham":0,"trial_type":"pit-trial","trial_index":150,"time_elapsed":733750,"internal_node_id":"0.0-125.0","task_version":"battery-v0.2"},{"rune":"V","rune_set":"elianto","hex":"#f73b6a7A","correct":-1,"choice":-1,"rt":-1,"accuracy":1,"outcome":"-10","keys":[],"total_keys":0,"block":2,"trial":124,"stimulus":0,"robot":4,"valence":"lose","action":"no-go","sham":1,"trial_type":"pit-trial","trial_index":151,"time_elapsed":737755,"internal_node_id":"0.0-126.0","task_version":"battery-v0.2"},{"rune":"K","rune_set":"elianto","hex":"#3366ff99","correct":-1,"choice":32,"rt":772,"accuracy":0,"outcome":"+1","keys":[2273],"total_keys":1,"block":2,"trial":125,"stimulus":3,"robot":2,"valence":"win","action":"no-go","sham":0,"trial_type":"pit-trial","trial_index":152,"time_elapsed":741229,"internal_node_id":"0.0-127.0","task_version":"battery-v0.2"},{"rune":"V","rune_set":"elianto","hex":"#f73b6a7A","correct":-1,"choice":32,"rt":803,"accuracy":0,"outcome":"-10","keys":[2302],"total_keys":1,"block":2,"trial":126,"stimulus":0,"robot":4,"valence":"lose","action":"no-go","sham":0,"trial_type":"pit-trial","trial_index":153,"time_elapsed":744733,"internal_node_id":"0.0-128.0","task_version":"battery-v0.2"},{"rune":"D","rune_set":"elianto","hex":"#3366ff99","correct":32,"choice":32,"rt":642,"accuracy":1,"outcome":"+10","keys":[2142],"total_keys":1,"block":2,"trial":127,"stimulus":2,"robot":1,"valence":"win","action":"go","sham":0,"trial_type":"pit-trial","trial_index":154,"time_elapsed":748078,"internal_node_id":"0.0-129.0","task_version":"battery-v0.2"},{"rune":"J","rune_set":"elianto","hex":"#f73b6a7A","correct":-1,"choice":32,"rt":1025,"accuracy":0,"outcome":"-10","keys":[2526],"total_keys":1,"block":2,"trial":128,"stimulus":1,"robot":4,"valence":"lose","action":"no-go","sham":0,"trial_type":"pit-trial","trial_index":155,"time_elapsed":751806,"internal_node_id":"0.0-130.0","task_version":"battery-v0.2"},{"rune":"J","rune_set":"elianto","hex":"#f73b6a7A","correct":-1,"choice":-1,"rt":-1,"accuracy":1,"outcome":"-1","keys":[],"total_keys":0,"block":2,"trial":129,"stimulus":1,"robot":4,"valence":"lose","action":"no-go","sham":0,"trial_type":"pit-trial","trial_index":156,"time_elapsed":755809,"internal_node_id":"0.0-131.0","task_version":"battery-v0.2"},{"rune":"V","rune_set":"elianto","hex":"#f73b6a7A","correct":-1,"choice":32,"rt":910,"accuracy":0,"outcome":"-10","keys":[2411],"total_keys":1,"block":2,"trial":130,"stimulus":0,"robot":4,"valence":"lose","action":"no-go","sham":0,"trial_type":"pit-trial","trial_index":157,"time_elapsed":759422,"internal_node_id":"0.0-132.0","task_version":"battery-v0.2"},{"rune":"K","rune_set":"elianto","hex":"#3366ff99","correct":-1,"choice":32,"rt":1039,"accuracy":0,"outcome":"+10","keys":[2541],"total_keys":1,"block":2,"trial":131,"stimulus":3,"robot":2,"valence":"win","action":"no-go","sham":1,"trial_type":"pit-trial","trial_index":158,"time_elapsed":763166,"internal_node_id":"0.0-133.0","task_version":"battery-v0.2"},{"rune":"D","rune_set":"elianto","hex":"#3366ff99","correct":32,"choice":32,"rt":529,"accuracy":1,"outcome":"+10","keys":[2030,3093],"total_keys":2,"block":2,"trial":132,"stimulus":2,"robot":1,"valence":"win","action":"go","sham":0,"trial_type":"pit-trial","trial_index":159,"time_elapsed":766396,"internal_node_id":"0.0-134.0","task_version":"battery-v0.2"},{"rune":"J","rune_set":"elianto","hex":"#f73b6a7A","correct":-1,"choice":-1,"rt":-1,"accuracy":1,"outcome":"-1","keys":[],"total_keys":0,"block":2,"trial":133,"stimulus":1,"robot":4,"valence":"lose","action":"no-go","sham":0,"trial_type":"pit-trial","trial_index":160,"time_elapsed":770400,"internal_node_id":"0.0-135.0","task_version":"battery-v0.2"},{"rune":"D","rune_set":"elianto","hex":"#3366ff99","correct":32,"choice":32,"rt":830,"accuracy":1,"outcome":"+10","keys":[2332],"total_keys":1,"block":2,"trial":134,"stimulus":2,"robot":1,"valence":"win","action":"go","sham":0,"trial_type":"pit-trial","trial_index":161,"time_elapsed":773934,"internal_node_id":"0.0-136.0","task_version":"battery-v0.2"},{"rune":"K","rune_set":"elianto","hex":"#3366ff99","correct":-1,"choice":32,"rt":617,"accuracy":0,"outcome":"+1","keys":[2117],"total_keys":1,"block":2,"trial":135,"stimulus":3,"robot":2,"valence":"win","action":"no-go","sham":0,"trial_type":"pit-trial","trial_index":162,"time_elapsed":777253,"internal_node_id":"0.0-137.0","task_version":"battery-v0.2"},{"rune":"V","rune_set":"elianto","hex":"#f73b6a7A","correct":-1,"choice":-1,"rt":-1,"accuracy":1,"outcome":"-10","keys":[],"total_keys":0,"block":2,"trial":136,"stimulus":0,"robot":4,"valence":"lose","action":"no-go","sham":1,"trial_type":"pit-trial","trial_index":163,"time_elapsed":781256,"internal_node_id":"0.0-138.0","task_version":"battery-v0.2"},{"rune":"V","rune_set":"elianto","hex":"#f73b6a7A","correct":-1,"choice":-1,"rt":-1,"accuracy":1,"outcome":"-1","keys":[],"total_keys":0,"block":2,"trial":137,"stimulus":0,"robot":4,"valence":"lose","action":"no-go","sham":0,"trial_type":"pit-trial","trial_index":164,"time_elapsed":785259,"internal_node_id":"0.0-139.0","task_version":"battery-v0.2"},{"rune":"K","rune_set":"elianto","hex":"#3366ff99","correct":-1,"choice":32,"rt":803,"accuracy":0,"outcome":"+1","keys":[2304],"total_keys":1,"block":2,"trial":138,"stimulus":3,"robot":2,"valence":"win","action":"no-go","sham":0,"trial_type":"pit-trial","trial_index":165,"time_elapsed":788765,"internal_node_id":"0.0-140.0","task_version":"battery-v0.2"},{"rune":"D","rune_set":"elianto","hex":"#3366ff99","correct":32,"choice":-1,"rt":-1,"accuracy":0,"outcome":"+10","keys":[],"total_keys":0,"block":2,"trial":139,"stimulus":2,"robot":1,"valence":"win","action":"go","sham":1,"trial_type":"pit-trial","trial_index":166,"time_elapsed":792768,"internal_node_id":"0.0-141.0","task_version":"battery-v0.2"},{"rune":"J","rune_set":"elianto","hex":"#f73b6a7A","correct":-1,"choice":32,"rt":863,"accuracy":0,"outcome":"-1","keys":[2362],"total_keys":1,"block":2,"trial":140,"stimulus":1,"robot":4,"valence":"lose","action":"no-go","sham":1,"trial_type":"pit-trial","trial_index":167,"time_elapsed":796334,"internal_node_id":"0.0-142.0","task_version":"battery-v0.2"},{"rune":"K","rune_set":"elianto","hex":"#3366ff99","correct":-1,"choice":32,"rt":873,"accuracy":0,"outcome":"+1","keys":[2373],"total_keys":1,"block":2,"trial":141,"stimulus":3,"robot":2,"valence":"win","action":"no-go","sham":0,"trial_type":"pit-trial","trial_index":168,"time_elapsed":799909,"internal_node_id":"0.0-143.0","task_version":"battery-v0.2"},{"rune":"V","rune_set":"elianto","hex":"#f73b6a7A","correct":-1,"choice":-1,"rt":-1,"accuracy":1,"outcome":"-1","keys":[],"total_keys":0,"block":2,"trial":142,"stimulus":0,"robot":4,"valence":"lose","action":"no-go","sham":0,"trial_type":"pit-trial","trial_index":169,"time_elapsed":803912,"internal_node_id":"0.0-144.0","task_version":"battery-v0.2"},{"rune":"D","rune_set":"elianto","hex":"#3366ff99","correct":32,"choice":32,"rt":462,"accuracy":1,"outcome":"+10","keys":[1963,2099],"total_keys":2,"block":2,"trial":143,"stimulus":2,"robot":1,"valence":"win","action":"go","sham":0,"trial_type":"pit-trial","trial_index":170,"time_elapsed":807078,"internal_node_id":"0.0-145.0","task_version":"battery-v0.2"},{"rune":"J","rune_set":"elianto","hex":"#f73b6a7A","correct":-1,"choice":-1,"rt":-1,"accuracy":1,"outcome":"-1","keys":[],"total_keys":0,"block":2,"trial":144,"stimulus":1,"robot":4,"valence":"lose","action":"no-go","sham":0,"trial_type":"pit-trial","trial_index":171,"time_elapsed":811084,"internal_node_id":"0.0-146.0","task_version":"battery-v0.2"},{"rune":"J","rune_set":"elianto","hex":"#f73b6a7A","correct":-1,"choice":-1,"rt":-1,"accuracy":1,"outcome":"-10","keys":[],"total_keys":0,"block":2,"trial":145,"stimulus":1,"robot":4,"valence":"lose","action":"no-go","sham":1,"trial_type":"pit-trial","trial_index":172,"time_elapsed":815085,"internal_node_id":"0.0-147.0","task_version":"battery-v0.2"},{"rune":"D","rune_set":"elianto","hex":"#3366ff99","correct":32,"choice":32,"rt":465,"accuracy":1,"outcome":"+10","keys":[1965],"total_keys":1,"block":2,"trial":146,"stimulus":2,"robot":1,"valence":"win","action":"go","sham":0,"trial_type":"pit-trial","trial_index":173,"time_elapsed":818254,"internal_node_id":"0.0-148.0","task_version":"battery-v0.2"},{"rune":"K","rune_set":"elianto","hex":"#3366ff99","correct":-1,"choice":32,"rt":650,"accuracy":0,"outcome":"+1","keys":[2150],"total_keys":1,"block":2,"trial":147,"stimulus":3,"robot":2,"valence":"win","action":"no-go","sham":0,"trial_type":"pit-trial","trial_index":174,"time_elapsed":821605,"internal_node_id":"0.0-149.0","task_version":"battery-v0.2"},{"rune":"V","rune_set":"elianto","hex":"#f73b6a7A","correct":-1,"choice":-1,"rt":-1,"accuracy":1,"outcome":"-1","keys":[],"total_keys":0,"block":2,"trial":148,"stimulus":0,"robot":4,"valence":"lose","action":"no-go","sham":0,"trial_type":"pit-trial","trial_index":175,"time_elapsed":825608,"internal_node_id":"0.0-150.0","task_version":"battery-v0.2"},{"rune":"D","rune_set":"elianto","hex":"#3366ff99","correct":32,"choice":32,"rt":591,"accuracy":1,"outcome":"+10","keys":[2090],"total_keys":1,"block":2,"trial":149,"stimulus":2,"robot":1,"valence":"win","action":"go","sham":0,"trial_type":"pit-trial","trial_index":176,"time_elapsed":828901,"internal_node_id":"0.0-151.0","task_version":"battery-v0.2"},{"rune":"K","rune_set":"elianto","hex":"#3366ff99","correct":-1,"choice":32,"rt":529,"accuracy":0,"outcome":"+1","keys":[2030],"total_keys":1,"block":2,"trial":150,"stimulus":3,"robot":2,"valence":"win","action":"no-go","sham":0,"trial_type":"pit-trial","trial_index":177,"time_elapsed":832132,"internal_node_id":"0.0-152.0","task_version":"battery-v0.2"},{"rune":"J","rune_set":"elianto","hex":"#f73b6a7A","correct":-1,"choice":-1,"rt":-1,"accuracy":1,"outcome":"-1","keys":[],"total_keys":0,"block":2,"trial":151,"stimulus":1,"robot":4,"valence":"lose","action":"no-go","sham":0,"trial_type":"pit-trial","trial_index":178,"time_elapsed":836135,"internal_node_id":"0.0-153.0","task_version":"battery-v0.2"},{"rune":"V","rune_set":"elianto","hex":"#f73b6a7A","correct":-1,"choice":-1,"rt":-1,"accuracy":1,"outcome":"-1","keys":[],"total_keys":0,"block":2,"trial":152,"stimulus":0,"robot":4,"valence":"lose","action":"no-go","sham":0,"trial_type":"pit-trial","trial_index":179,"time_elapsed":840137,"internal_node_id":"0.0-154.0","task_version":"battery-v0.2"},{"rune":"K","rune_set":"elianto","hex":"#3366ff99","correct":-1,"choice":-1,"rt":-1,"accuracy":1,"outcome":"+10","keys":[],"total_keys":0,"block":2,"trial":153,"stimulus":3,"robot":2,"valence":"win","action":"no-go","sham":0,"trial_type":"pit-trial","trial_index":180,"time_elapsed":844141,"internal_node_id":"0.0-155.0","task_version":"battery-v0.2"},{"rune":"V","rune_set":"elianto","hex":"#f73b6a7A","correct":-1,"choice":-1,"rt":-1,"accuracy":1,"outcome":"-1","keys":[],"total_keys":0,"block":2,"trial":154,"stimulus":0,"robot":4,"valence":"lose","action":"no-go","sham":0,"trial_type":"pit-trial","trial_index":181,"time_elapsed":848143,"internal_node_id":"0.0-156.0","task_version":"battery-v0.2"},{"rune":"E","rune_set":"elianto","hex":"#f73b6a7A","correct":32,"choice":-1,"rt":-1,"accuracy":0,"outcome":"-10","keys":[],"total_keys":0,"block":2,"trial":155,"stimulus":4,"robot":3,"valence":"lose","action":"go","sham":0,"trial_type":"pit-trial","trial_index":182,"time_elapsed":852146,"internal_node_id":"0.0-157.0","task_version":"battery-v0.2"},{"rune":"D","rune_set":"elianto","hex":"#3366ff99","correct":32,"choice":32,"rt":771,"accuracy":1,"outcome":"+10","keys":[2273],"total_keys":1,"block":2,"trial":156,"stimulus":2,"robot":1,"valence":"win","action":"go","sham":0,"trial_type":"pit-trial","trial_index":183,"time_elapsed":855621,"internal_node_id":"0.0-158.0","task_version":"battery-v0.2"},{"rune":"D","rune_set":"elianto","hex":"#3366ff99","correct":32,"choice":32,"rt":505,"accuracy":1,"outcome":"+1","keys":[2006],"total_keys":1,"block":2,"trial":157,"stimulus":2,"robot":1,"valence":"win","action":"go","sham":1,"trial_type":"pit-trial","trial_index":184,"time_elapsed":858829,"internal_node_id":"0.0-159.0","task_version":"battery-v0.2"},{"rune":"V","rune_set":"elianto","hex":"#f73b6a7A","correct":-1,"choice":-1,"rt":-1,"accuracy":1,"outcome":"-1","keys":[],"total_keys":0,"block":2,"trial":158,"stimulus":0,"robot":4,"valence":"lose","action":"no-go","sham":0,"trial_type":"pit-trial","trial_index":185,"time_elapsed":862832,"internal_node_id":"0.0-160.0","task_version":"battery-v0.2"},{"rune":"K","rune_set":"elianto","hex":"#3366ff99","correct":-1,"choice":32,"rt":856,"accuracy":0,"outcome":"+1","keys":[2355],"total_keys":1,"block":2,"trial":159,"stimulus":3,"robot":2,"valence":"win","action":"no-go","sham":0,"trial_type":"pit-trial","trial_index":186,"time_elapsed":866389,"internal_node_id":"0.0-161.0","task_version":"battery-v0.2"},{"rune":"E","rune_set":"elianto","hex":"#f73b6a7A","correct":32,"choice":-1,"rt":-1,"accuracy":0,"outcome":"-10","keys":[],"total_keys":0,"block":2,"trial":160,"stimulus":4,"robot":3,"valence":"lose","action":"go","sham":0,"trial_type":"pit-trial","trial_index":187,"time_elapsed":870393,"internal_node_id":"0.0-162.0","task_version":"battery-v0.2"},{"rune":"S","rune_set":"elianto","hex":"#3366ff99","correct":32,"choice":32,"rt":524,"accuracy":1,"outcome":"+10","keys":[2026],"total_keys":1,"block":2,"trial":161,"stimulus":6,"robot":1,"valence":"win","action":"go","sham":0,"trial_type":"pit-trial","trial_index":188,"time_elapsed":873621,"internal_node_id":"0.0-163.0","task_version":"battery-v0.2"},{"rune":"W","rune_set":"elianto","hex":"#3366ff99","correct":-1,"choice":32,"rt":1120,"accuracy":0,"outcome":"+1","keys":[2621],"total_keys":1,"block":2,"trial":162,"stimulus":5,"robot":2,"valence":"win","action":"no-go","sham":0,"trial_type":"pit-trial","trial_index":189,"time_elapsed":877445,"internal_node_id":"0.0-164.0","task_version":"battery-v0.2"},{"rune":"E","rune_set":"elianto","hex":"#f73b6a7A","correct":32,"choice":-1,"rt":-1,"accuracy":0,"outcome":"-10","keys":[],"total_keys":0,"block":2,"trial":163,"stimulus":4,"robot":3,"valence":"lose","action":"go","sham":0,"trial_type":"pit-trial","trial_index":190,"time_elapsed":881448,"internal_node_id":"0.0-165.0","task_version":"battery-v0.2"},{"rune":"V","rune_set":"elianto","hex":"#f73b6a7A","correct":-1,"choice":32,"rt":733,"accuracy":0,"outcome":"-10","keys":[2233],"total_keys":1,"block":2,"trial":164,"stimulus":0,"robot":4,"valence":"lose","action":"no-go","sham":0,"trial_type":"pit-trial","trial_index":191,"time_elapsed":884884,"internal_node_id":"0.0-166.0","task_version":"battery-v0.2"},{"rune":"W","rune_set":"elianto","hex":"#3366ff99","correct":-1,"choice":32,"rt":602,"accuracy":0,"outcome":"+1","keys":[2103],"total_keys":1,"block":2,"trial":165,"stimulus":5,"robot":2,"valence":"win","action":"no-go","sham":0,"trial_type":"pit-trial","trial_index":192,"time_elapsed":888189,"internal_node_id":"0.0-167.0","task_version":"battery-v0.2"},{"rune":"E","rune_set":"elianto","hex":"#f73b6a7A","correct":32,"choice":-1,"rt":-1,"accuracy":0,"outcome":"-10","keys":[],"total_keys":0,"block":2,"trial":166,"stimulus":4,"robot":3,"valence":"lose","action":"go","sham":0,"trial_type":"pit-trial","trial_index":193,"time_elapsed":892193,"internal_node_id":"0.0-168.0","task_version":"battery-v0.2"},{"rune":"S","rune_set":"elianto","hex":"#3366ff99","correct":32,"choice":32,"rt":565,"accuracy":1,"outcome":"+1","keys":[2066],"total_keys":1,"block":2,"trial":167,"stimulus":6,"robot":1,"valence":"win","action":"go","sham":1,"trial_type":"pit-trial","trial_index":194,"time_elapsed":895460,"internal_node_id":"0.0-169.0","task_version":"battery-v0.2"},{"rune":"V","rune_set":"elianto","hex":"#f73b6a7A","correct":-1,"choice":-1,"rt":-1,"accuracy":1,"outcome":"-1","keys":[],"total_keys":0,"block":2,"trial":168,"stimulus":0,"robot":4,"valence":"lose","action":"no-go","sham":0,"trial_type":"pit-trial","trial_index":195,"time_elapsed":899465,"internal_node_id":"0.0-170.0","task_version":"battery-v0.2"},{"rune":"E","rune_set":"elianto","hex":"#f73b6a7A","correct":32,"choice":-1,"rt":-1,"accuracy":0,"outcome":"-1","keys":[],"total_keys":0,"block":2,"trial":169,"stimulus":4,"robot":3,"valence":"lose","action":"go","sham":1,"trial_type":"pit-trial","trial_index":196,"time_elapsed":903469,"internal_node_id":"0.0-171.0","task_version":"battery-v0.2"},{"rune":"P","rune_set":"elianto","hex":"#f73b6a7A","correct":-1,"choice":-1,"rt":-1,"accuracy":1,"outcome":"-1","keys":[],"total_keys":0,"block":2,"trial":170,"stimulus":7,"robot":4,"valence":"lose","action":"no-go","sham":0,"trial_type":"pit-trial","trial_index":197,"time_elapsed":907473,"internal_node_id":"0.0-172.0","task_version":"battery-v0.2"},{"rune":"W","rune_set":"elianto","hex":"#3366ff99","correct":-1,"choice":32,"rt":748,"accuracy":0,"outcome":"+1","keys":[2250],"total_keys":1,"block":2,"trial":171,"stimulus":5,"robot":2,"valence":"win","action":"no-go","sham":0,"trial_type":"pit-trial","trial_index":198,"time_elapsed":910924,"internal_node_id":"0.0-173.0","task_version":"battery-v0.2"},{"rune":"S","rune_set":"elianto","hex":"#3366ff99","correct":32,"choice":32,"rt":601,"accuracy":1,"outcome":"+10","keys":[2101],"total_keys":1,"block":2,"trial":172,"stimulus":6,"robot":1,"valence":"win","action":"go","sham":0,"trial_type":"pit-trial","trial_index":199,"time_elapsed":914227,"internal_node_id":"0.0-174.0","task_version":"battery-v0.2"},{"rune":"E","rune_set":"elianto","hex":"#f73b6a7A","correct":32,"choice":-1,"rt":-1,"accuracy":0,"outcome":"-10","keys":[],"total_keys":0,"block":2,"trial":173,"stimulus":4,"robot":3,"valence":"lose","action":"go","sham":0,"trial_type":"pit-trial","trial_index":200,"time_elapsed":918232,"internal_node_id":"0.0-175.0","task_version":"battery-v0.2"},{"rune":"W","rune_set":"elianto","hex":"#3366ff99","correct":-1,"choice":32,"rt":598,"accuracy":0,"outcome":"+1","keys":[2098],"total_keys":1,"block":2,"trial":174,"stimulus":5,"robot":2,"valence":"win","action":"no-go","sham":0,"trial_type":"pit-trial","trial_index":201,"time_elapsed":921533,"internal_node_id":"0.0-176.0","task_version":"battery-v0.2"},{"rune":"S","rune_set":"elianto","hex":"#3366ff99","correct":32,"choice":32,"rt":519,"accuracy":1,"outcome":"+10","keys":[2019],"total_keys":1,"block":2,"trial":175,"stimulus":6,"robot":1,"valence":"win","action":"go","sham":0,"trial_type":"pit-trial","trial_index":202,"time_elapsed":924756,"internal_node_id":"0.0-177.0","task_version":"battery-v0.2"},{"rune":"P","rune_set":"elianto","hex":"#f73b6a7A","correct":-1,"choice":-1,"rt":-1,"accuracy":1,"outcome":"-1","keys":[],"total_keys":0,"block":2,"trial":176,"stimulus":7,"robot":4,"valence":"lose","action":"no-go","sham":0,"trial_type":"pit-trial","trial_index":203,"time_elapsed":928760,"internal_node_id":"0.0-178.0","task_version":"battery-v0.2"},{"rune":"W","rune_set":"elianto","hex":"#3366ff99","correct":-1,"choice":32,"rt":453,"accuracy":0,"outcome":"+1","keys":[1953],"total_keys":1,"block":2,"trial":177,"stimulus":5,"robot":2,"valence":"win","action":"no-go","sham":0,"trial_type":"pit-trial","trial_index":204,"time_elapsed":931916,"internal_node_id":"0.0-179.0","task_version":"battery-v0.2"},{"rune":"E","rune_set":"elianto","hex":"#f73b6a7A","correct":32,"choice":-1,"rt":-1,"accuracy":0,"outcome":"-10","keys":[],"total_keys":0,"block":2,"trial":178,"stimulus":4,"robot":3,"valence":"lose","action":"go","sham":0,"trial_type":"pit-trial","trial_index":205,"time_elapsed":935921,"internal_node_id":"0.0-180.0","task_version":"battery-v0.2"},{"rune":"S","rune_set":"elianto","hex":"#3366ff99","correct":32,"choice":32,"rt":507,"accuracy":1,"outcome":"+10","keys":[2008],"total_keys":1,"block":2,"trial":179,"stimulus":6,"robot":1,"valence":"win","action":"go","sham":0,"trial_type":"pit-trial","trial_index":206,"time_elapsed":939133,"internal_node_id":"0.0-181.0","task_version":"battery-v0.2"},{"rune":"P","rune_set":"elianto","hex":"#f73b6a7A","correct":-1,"choice":-1,"rt":-1,"accuracy":1,"outcome":"-1","keys":[],"total_keys":0,"block":2,"trial":180,"stimulus":7,"robot":4,"valence":"lose","action":"no-go","sham":0,"trial_type":"pit-trial","trial_index":207,"time_elapsed":943136,"internal_node_id":"0.0-182.0","task_version":"battery-v0.2"},{"rune":"W","rune_set":"elianto","hex":"#3366ff99","correct":-1,"choice":32,"rt":725,"accuracy":0,"outcome":"+1","keys":[2225],"total_keys":1,"block":2,"trial":181,"stimulus":5,"robot":2,"valence":"win","action":"no-go","sham":0,"trial_type":"pit-trial","trial_index":208,"time_elapsed":946565,"internal_node_id":"0.0-183.0","task_version":"battery-v0.2"},{"rune":"S","rune_set":"elianto","hex":"#3366ff99","correct":32,"choice":32,"rt":591,"accuracy":1,"outcome":"+10","keys":[2093],"total_keys":1,"block":2,"trial":182,"stimulus":6,"robot":1,"valence":"win","action":"go","sham":0,"trial_type":"pit-trial","trial_index":209,"time_elapsed":949860,"internal_node_id":"0.0-184.0","task_version":"battery-v0.2"},{"rune":"P","rune_set":"elianto","hex":"#f73b6a7A","correct":-1,"choice":-1,"rt":-1,"accuracy":1,"outcome":"-1","keys":[],"total_keys":0,"block":2,"trial":183,"stimulus":7,"robot":4,"valence":"lose","action":"no-go","sham":0,"trial_type":"pit-trial","trial_index":210,"time_elapsed":953862,"internal_node_id":"0.0-185.0","task_version":"battery-v0.2"},{"rune":"E","rune_set":"elianto","hex":"#f73b6a7A","correct":32,"choice":-1,"rt":-1,"accuracy":0,"outcome":"-10","keys":[],"total_keys":0,"block":2,"trial":184,"stimulus":4,"robot":3,"valence":"lose","action":"go","sham":0,"trial_type":"pit-trial","trial_index":211,"time_elapsed":957865,"internal_node_id":"0.0-186.0","task_version":"battery-v0.2"},{"rune":"W","rune_set":"elianto","hex":"#3366ff99","correct":-1,"choice":32,"rt":635,"accuracy":0,"outcome":"+1","keys":[2136],"total_keys":1,"block":2,"trial":185,"stimulus":5,"robot":2,"valence":"win","action":"no-go","sham":0,"trial_type":"pit-trial","trial_index":212,"time_elapsed":961204,"internal_node_id":"0.0-187.0","task_version":"battery-v0.2"},{"rune":"S","rune_set":"elianto","hex":"#3366ff99","correct":32,"choice":32,"rt":522,"accuracy":1,"outcome":"+10","keys":[2022],"total_keys":1,"block":2,"trial":186,"stimulus":6,"robot":1,"valence":"win","action":"go","sham":0,"trial_type":"pit-trial","trial_index":213,"time_elapsed":964428,"internal_node_id":"0.0-188.0","task_version":"battery-v0.2"},{"rune":"P","rune_set":"elianto","hex":"#f73b6a7A","correct":-1,"choice":-1,"rt":-1,"accuracy":1,"outcome":"-1","keys":[],"total_keys":0,"block":2,"trial":187,"stimulus":7,"robot":4,"valence":"lose","action":"no-go","sham":0,"trial_type":"pit-trial","trial_index":214,"time_elapsed":968431,"internal_node_id":"0.0-189.0","task_version":"battery-v0.2"},{"rune":"E","rune_set":"elianto","hex":"#f73b6a7A","correct":32,"choice":-1,"rt":-1,"accuracy":0,"outcome":"-10","keys":[],"total_keys":0,"block":2,"trial":188,"stimulus":4,"robot":3,"valence":"lose","action":"go","sham":0,"trial_type":"pit-trial","trial_index":215,"time_elapsed":972433,"internal_node_id":"0.0-190.0","task_version":"battery-v0.2"},{"rune":"E","rune_set":"elianto","hex":"#f73b6a7A","correct":32,"choice":-1,"rt":-1,"accuracy":0,"outcome":"-10","keys":[],"total_keys":0,"block":2,"trial":189,"stimulus":4,"robot":3,"valence":"lose","action":"go","sham":0,"trial_type":"pit-trial","trial_index":216,"time_elapsed":976438,"internal_node_id":"0.0-191.0","task_version":"battery-v0.2"},{"rune":"S","rune_set":"elianto","hex":"#3366ff99","correct":32,"choice":32,"rt":630,"accuracy":1,"outcome":"+1","keys":[2132],"total_keys":1,"block":2,"trial":190,"stimulus":6,"robot":1,"valence":"win","action":"go","sham":1,"trial_type":"pit-trial","trial_index":217,"time_elapsed":979773,"internal_node_id":"0.0-192.0","task_version":"battery-v0.2"},{"rune":"P","rune_set":"elianto","hex":"#f73b6a7A","correct":-1,"choice":-1,"rt":-1,"accuracy":1,"outcome":"-10","keys":[],"total_keys":0,"block":2,"trial":191,"stimulus":7,"robot":4,"valence":"lose","action":"no-go","sham":1,"trial_type":"pit-trial","trial_index":218,"time_elapsed":983777,"internal_node_id":"0.0-193.0","task_version":"battery-v0.2"},{"rune":"W","rune_set":"elianto","hex":"#3366ff99","correct":-1,"choice":32,"rt":533,"accuracy":0,"outcome":"+1","keys":[2032],"total_keys":1,"block":2,"trial":192,"stimulus":5,"robot":2,"valence":"win","action":"no-go","sham":0,"trial_type":"pit-trial","trial_index":219,"time_elapsed":987013,"internal_node_id":"0.0-194.0","task_version":"battery-v0.2"},{"rune":"G","rune_set":"elianto","hex":"#3366ff99","correct":32,"choice":32,"rt":720,"accuracy":1,"outcome":"+10","keys":[2220],"total_keys":1,"block":2,"trial":193,"stimulus":8,"robot":1,"valence":"win","action":"go","sham":0,"trial_type":"pit-trial","trial_index":220,"time_elapsed":990437,"internal_node_id":"0.0-195.0","task_version":"battery-v0.2"},{"rune":"W","rune_set":"elianto","hex":"#3366ff99","correct":-1,"choice":32,"rt":552,"accuracy":0,"outcome":"+1","keys":[2053],"total_keys":1,"block":2,"trial":194,"stimulus":5,"robot":2,"valence":"win","action":"no-go","sham":0,"trial_type":"pit-trial","trial_index":221,"time_elapsed":993691,"internal_node_id":"0.0-196.0","task_version":"battery-v0.2"},{"rune":"P","rune_set":"elianto","hex":"#f73b6a7A","correct":-1,"choice":-1,"rt":-1,"accuracy":1,"outcome":"-1","keys":[],"total_keys":0,"block":2,"trial":195,"stimulus":7,"robot":4,"valence":"lose","action":"no-go","sham":0,"trial_type":"pit-trial","trial_index":222,"time_elapsed":997693,"internal_node_id":"0.0-197.0","task_version":"battery-v0.2"},{"rune":"A","rune_set":"elianto","hex":"#f73b6a7A","correct":32,"choice":32,"rt":831,"accuracy":1,"outcome":"-1","keys":[2332],"total_keys":1,"block":2,"trial":196,"stimulus":9,"robot":3,"valence":"lose","action":"go","sham":0,"trial_type":"pit-trial","trial_index":223,"time_elapsed":1001229,"internal_node_id":"0.0-198.0","task_version":"battery-v0.2"},{"rune":"W","rune_set":"elianto","hex":"#3366ff99","correct":-1,"choice":-1,"rt":-1,"accuracy":1,"outcome":"+10","keys":[],"total_keys":0,"block":2,"trial":197,"stimulus":5,"robot":2,"valence":"win","action":"no-go","sham":0,"trial_type":"pit-trial","trial_index":224,"time_elapsed":1005233,"internal_node_id":"0.0-199.0","task_version":"battery-v0.2"},{"rune":"P","rune_set":"elianto","hex":"#f73b6a7A","correct":-1,"choice":-1,"rt":-1,"accuracy":1,"outcome":"-1","keys":[2945],"total_keys":1,"block":2,"trial":198,"stimulus":7,"robot":4,"valence":"lose","action":"no-go","sham":0,"trial_type":"pit-trial","trial_index":225,"time_elapsed":1009235,"internal_node_id":"0.0-200.0","task_version":"battery-v0.2"},{"rune":"A","rune_set":"elianto","hex":"#f73b6a7A","correct":32,"choice":32,"rt":1034,"accuracy":1,"outcome":"-1","keys":[2534],"total_keys":1,"block":2,"trial":199,"stimulus":9,"robot":3,"valence":"lose","action":"go","sham":0,"trial_type":"pit-trial","trial_index":226,"time_elapsed":1012972,"internal_node_id":"0.0-201.0","task_version":"battery-v0.2"},{"rune":"G","rune_set":"elianto","hex":"#3366ff99","correct":32,"choice":32,"rt":1009,"accuracy":1,"outcome":"+10","keys":[2508],"total_keys":1,"block":2,"trial":200,"stimulus":8,"robot":1,"valence":"win","action":"go","sham":0,"trial_type":"pit-trial","trial_index":227,"time_elapsed":1016683,"internal_node_id":"0.0-202.0","task_version":"battery-v0.2"},{"rune":"P","rune_set":"elianto","hex":"#f73b6a7A","correct":-1,"choice":-1,"rt":-1,"accuracy":1,"outcome":"-1","keys":[],"total_keys":0,"block":2,"trial":201,"stimulus":7,"robot":4,"valence":"lose","action":"no-go","sham":0,"trial_type":"pit-trial","trial_index":228,"time_elapsed":1020686,"internal_node_id":"0.0-203.0","task_version":"battery-v0.2"},{"rune":"A","rune_set":"elianto","hex":"#f73b6a7A","correct":32,"choice":32,"rt":847,"accuracy":1,"outcome":"-1","keys":[2347],"total_keys":1,"block":2,"trial":202,"stimulus":9,"robot":3,"valence":"lose","action":"go","sham":0,"trial_type":"pit-trial","trial_index":229,"time_elapsed":1024237,"internal_node_id":"0.0-204.0","task_version":"battery-v0.2"},{"rune":"W","rune_set":"elianto","hex":"#3366ff99","correct":-1,"choice":-1,"rt":-1,"accuracy":1,"outcome":"+10","keys":[],"total_keys":0,"block":2,"trial":203,"stimulus":5,"robot":2,"valence":"win","action":"no-go","sham":0,"trial_type":"pit-trial","trial_index":230,"time_elapsed":1028241,"internal_node_id":"0.0-205.0","task_version":"battery-v0.2"},{"rune":"G","rune_set":"elianto","hex":"#3366ff99","correct":32,"choice":32,"rt":971,"accuracy":1,"outcome":"+1","keys":[2472],"total_keys":1,"block":2,"trial":204,"stimulus":8,"robot":1,"valence":"win","action":"go","sham":1,"trial_type":"pit-trial","trial_index":231,"time_elapsed":1031916,"internal_node_id":"0.0-206.0","task_version":"battery-v0.2"},{"rune":"W","rune_set":"elianto","hex":"#3366ff99","correct":-1,"choice":32,"rt":1287,"accuracy":0,"outcome":"+1","keys":[2789],"total_keys":1,"block":2,"trial":205,"stimulus":5,"robot":2,"valence":"win","action":"no-go","sham":0,"trial_type":"pit-trial","trial_index":232,"time_elapsed":1035907,"internal_node_id":"0.0-207.0","task_version":"battery-v0.2"},{"rune":"A","rune_set":"elianto","hex":"#f73b6a7A","correct":32,"choice":32,"rt":658,"accuracy":1,"outcome":"-1","keys":[2159],"total_keys":1,"block":2,"trial":206,"stimulus":9,"robot":3,"valence":"lose","action":"go","sham":0,"trial_type":"pit-trial","trial_index":233,"time_elapsed":1039268,"internal_node_id":"0.0-208.0","task_version":"battery-v0.2"},{"rune":"P","rune_set":"elianto","hex":"#f73b6a7A","correct":-1,"choice":32,"rt":922,"accuracy":0,"outcome":"-10","keys":[2422],"total_keys":1,"block":2,"trial":207,"stimulus":7,"robot":4,"valence":"lose","action":"no-go","sham":0,"trial_type":"pit-trial","trial_index":234,"time_elapsed":1042891,"internal_node_id":"0.0-209.0","task_version":"battery-v0.2"},{"rune":"G","rune_set":"elianto","hex":"#3366ff99","correct":32,"choice":32,"rt":601,"accuracy":1,"outcome":"+10","keys":[2101],"total_keys":1,"block":2,"trial":208,"stimulus":8,"robot":1,"valence":"win","action":"go","sham":0,"trial_type":"pit-trial","trial_index":235,"time_elapsed":1046195,"internal_node_id":"0.0-210.0","task_version":"battery-v0.2"},{"rune":"U","rune_set":"elianto","hex":"#3366ff99","correct":-1,"choice":32,"rt":921,"accuracy":0,"outcome":"+10","keys":[2422],"total_keys":1,"block":2,"trial":209,"stimulus":11,"robot":2,"valence":"win","action":"no-go","sham":1,"trial_type":"pit-trial","trial_index":236,"time_elapsed":1049818,"internal_node_id":"0.0-211.0","task_version":"battery-v0.2"},{"rune":"G","rune_set":"elianto","hex":"#3366ff99","correct":32,"choice":32,"rt":914,"accuracy":1,"outcome":"+10","keys":[2415],"total_keys":1,"block":2,"trial":210,"stimulus":8,"robot":1,"valence":"win","action":"go","sham":0,"trial_type":"pit-trial","trial_index":237,"time_elapsed":1053435,"internal_node_id":"0.0-212.0","task_version":"battery-v0.2"},{"rune":"A","rune_set":"elianto","hex":"#f73b6a7A","correct":32,"choice":32,"rt":969,"accuracy":1,"outcome":"-10","keys":[2469],"total_keys":1,"block":2,"trial":211,"stimulus":9,"robot":3,"valence":"lose","action":"go","sham":1,"trial_type":"pit-trial","trial_index":238,"time_elapsed":1057107,"internal_node_id":"0.0-213.0","task_version":"battery-v0.2"},{"rune":"L","rune_set":"elianto","hex":"#f73b6a7A","correct":32,"choice":32,"rt":714,"accuracy":1,"outcome":"-1","keys":[2214],"total_keys":1,"block":2,"trial":212,"stimulus":10,"robot":3,"valence":"lose","action":"go","sham":0,"trial_type":"pit-trial","trial_index":239,"time_elapsed":1060523,"internal_node_id":"0.0-214.0","task_version":"battery-v0.2"},{"rune":"G","rune_set":"elianto","hex":"#3366ff99","correct":32,"choice":32,"rt":577,"accuracy":1,"outcome":"+10","keys":[2079],"total_keys":1,"block":2,"trial":213,"stimulus":8,"robot":1,"valence":"win","action":"go","sham":0,"trial_type":"pit-trial","trial_index":240,"time_elapsed":1063804,"internal_node_id":"0.0-215.0","task_version":"battery-v0.2"},{"rune":"A","rune_set":"elianto","hex":"#f73b6a7A","correct":32,"choice":32,"rt":688,"accuracy":1,"outcome":"-1","keys":[2188],"total_keys":1,"block":2,"trial":214,"stimulus":9,"robot":3,"valence":"lose","action":"go","sham":0,"trial_type":"pit-trial","trial_index":241,"time_elapsed":1067197,"internal_node_id":"0.0-216.0","task_version":"battery-v0.2"},{"rune":"U","rune_set":"elianto","hex":"#3366ff99","correct":-1,"choice":32,"rt":952,"accuracy":0,"outcome":"+1","keys":[2452],"total_keys":1,"block":2,"trial":215,"stimulus":11,"robot":2,"valence":"win","action":"no-go","sham":0,"trial_type":"pit-trial","trial_index":242,"time_elapsed":1070851,"internal_node_id":"0.0-217.0","task_version":"battery-v0.2"},{"rune":"L","rune_set":"elianto","hex":"#f73b6a7A","correct":32,"choice":-1,"rt":-1,"accuracy":0,"outcome":"-10","keys":[],"total_keys":0,"block":2,"trial":216,"stimulus":10,"robot":3,"valence":"lose","action":"go","sham":0,"trial_type":"pit-trial","trial_index":243,"time_elapsed":1074854,"internal_node_id":"0.0-218.0","task_version":"battery-v0.2"},{"rune":"A","rune_set":"elianto","hex":"#f73b6a7A","correct":32,"choice":32,"rt":694,"accuracy":1,"outcome":"-1","keys":[2195],"total_keys":1,"block":2,"trial":217,"stimulus":9,"robot":3,"valence":"lose","action":"go","sham":0,"trial_type":"pit-trial","trial_index":244,"time_elapsed":1078252,"internal_node_id":"0.0-219.0","task_version":"battery-v0.2"},{"rune":"U","rune_set":"elianto","hex":"#3366ff99","correct":-1,"choice":32,"rt":903,"accuracy":0,"outcome":"+1","keys":[2404],"total_keys":1,"block":2,"trial":218,"stimulus":11,"robot":2,"valence":"win","action":"no-go","sham":0,"trial_type":"pit-trial","trial_index":245,"time_elapsed":1081859,"internal_node_id":"0.0-220.0","task_version":"battery-v0.2"},{"rune":"L","rune_set":"elianto","hex":"#f73b6a7A","correct":32,"choice":-1,"rt":-1,"accuracy":0,"outcome":"-10","keys":[],"total_keys":0,"block":2,"trial":219,"stimulus":10,"robot":3,"valence":"lose","action":"go","sham":0,"trial_type":"pit-trial","trial_index":246,"time_elapsed":1085860,"internal_node_id":"0.0-221.0","task_version":"battery-v0.2"},{"rune":"G","rune_set":"elianto","hex":"#3366ff99","correct":32,"choice":32,"rt":551,"accuracy":1,"outcome":"+10","keys":[2052],"total_keys":1,"block":2,"trial":220,"stimulus":8,"robot":1,"valence":"win","action":"go","sham":0,"trial_type":"pit-trial","trial_index":247,"time_elapsed":1089115,"internal_node_id":"0.0-222.0","task_version":"battery-v0.2"},{"rune":"G","rune_set":"elianto","hex":"#3366ff99","correct":32,"choice":32,"rt":754,"accuracy":1,"outcome":"+10","keys":[2253],"total_keys":1,"block":2,"trial":221,"stimulus":8,"robot":1,"valence":"win","action":"go","sham":0,"trial_type":"pit-trial","trial_index":248,"time_elapsed":1092572,"internal_node_id":"0.0-223.0","task_version":"battery-v0.2"},{"rune":"A","rune_set":"elianto","hex":"#f73b6a7A","correct":32,"choice":32,"rt":864,"accuracy":1,"outcome":"-1","keys":[2365],"total_keys":1,"block":2,"trial":222,"stimulus":9,"robot":3,"valence":"lose","action":"go","sham":0,"trial_type":"pit-trial","trial_index":249,"time_elapsed":1096138,"internal_node_id":"0.0-224.0","task_version":"battery-v0.2"},{"rune":"U","rune_set":"elianto","hex":"#3366ff99","correct":-1,"choice":-1,"rt":-1,"accuracy":1,"outcome":"+10","keys":[],"total_keys":0,"block":2,"trial":223,"stimulus":11,"robot":2,"valence":"win","action":"no-go","sham":0,"trial_type":"pit-trial","trial_index":250,"time_elapsed":1100140,"internal_node_id":"0.0-225.0","task_version":"battery-v0.2"},{"rune":"L","rune_set":"elianto","hex":"#f73b6a7A","correct":32,"choice":-1,"rt":-1,"accuracy":0,"outcome":"-10","keys":[],"total_keys":0,"block":2,"trial":224,"stimulus":10,"robot":3,"valence":"lose","action":"go","sham":0,"trial_type":"pit-trial","trial_index":251,"time_elapsed":1104144,"internal_node_id":"0.0-226.0","task_version":"battery-v0.2"},{"rune":"U","rune_set":"elianto","hex":"#3366ff99","correct":-1,"choice":32,"rt":579,"accuracy":0,"outcome":"+10","keys":[2080],"total_keys":1,"block":2,"trial":225,"stimulus":11,"robot":2,"valence":"win","action":"no-go","sham":1,"trial_type":"pit-trial","trial_index":252,"time_elapsed":1107427,"internal_node_id":"0.0-227.0","task_version":"battery-v0.2"},{"rune":"A","rune_set":"elianto","hex":"#f73b6a7A","correct":32,"choice":32,"rt":505,"accuracy":1,"outcome":"-1","keys":[2005],"total_keys":1,"block":2,"trial":226,"stimulus":9,"robot":3,"valence":"lose","action":"go","sham":0,"trial_type":"pit-trial","trial_index":253,"time_elapsed":1110634,"internal_node_id":"0.0-228.0","task_version":"battery-v0.2"},{"rune":"L","rune_set":"elianto","hex":"#f73b6a7A","correct":32,"choice":-1,"rt":-1,"accuracy":0,"outcome":"-1","keys":[],"total_keys":0,"block":2,"trial":227,"stimulus":10,"robot":3,"valence":"lose","action":"go","sham":1,"trial_type":"pit-trial","trial_index":254,"time_elapsed":1114638,"internal_node_id":"0.0-229.0","task_version":"battery-v0.2"},{"rune":"G","rune_set":"elianto","hex":"#3366ff99","correct":32,"choice":32,"rt":662,"accuracy":1,"outcome":"+10","keys":[2163],"total_keys":1,"block":2,"trial":228,"stimulus":8,"robot":1,"valence":"win","action":"go","sham":0,"trial_type":"pit-trial","trial_index":255,"time_elapsed":1118003,"internal_node_id":"0.0-230.0","task_version":"battery-v0.2"},{"rune":"A","rune_set":"elianto","hex":"#f73b6a7A","correct":32,"choice":32,"rt":624,"accuracy":1,"outcome":"-1","keys":[2125],"total_keys":1,"block":2,"trial":229,"stimulus":9,"robot":3,"valence":"lose","action":"go","sham":0,"trial_type":"pit-trial","trial_index":256,"time_elapsed":1121330,"internal_node_id":"0.0-231.0","task_version":"battery-v0.2"},{"rune":"G","rune_set":"elianto","hex":"#3366ff99","correct":32,"choice":32,"rt":793,"accuracy":1,"outcome":"+10","keys":[2294],"total_keys":1,"block":2,"trial":230,"stimulus":8,"robot":1,"valence":"win","action":"go","sham":0,"trial_type":"pit-trial","trial_index":257,"time_elapsed":1124826,"internal_node_id":"0.0-232.0","task_version":"battery-v0.2"},{"rune":"L","rune_set":"elianto","hex":"#f73b6a7A","correct":32,"choice":-1,"rt":-1,"accuracy":0,"outcome":"-10","keys":[],"total_keys":0,"block":2,"trial":231,"stimulus":10,"robot":3,"valence":"lose","action":"go","sham":0,"trial_type":"pit-trial","trial_index":258,"time_elapsed":1128829,"internal_node_id":"0.0-233.0","task_version":"battery-v0.2"},{"rune":"U","rune_set":"elianto","hex":"#3366ff99","correct":-1,"choice":-1,"rt":-1,"accuracy":1,"outcome":"+1","keys":[],"total_keys":0,"block":2,"trial":232,"stimulus":11,"robot":2,"valence":"win","action":"no-go","sham":1,"trial_type":"pit-trial","trial_index":259,"time_elapsed":1132834,"internal_node_id":"0.0-234.0","task_version":"battery-v0.2"},{"rune":"L","rune_set":"elianto","hex":"#f73b6a7A","correct":32,"choice":32,"rt":923,"accuracy":1,"outcome":"-1","keys":[2424],"total_keys":1,"block":2,"trial":233,"stimulus":10,"robot":3,"valence":"lose","action":"go","sham":0,"trial_type":"pit-trial","trial_index":260,"time_elapsed":1136461,"internal_node_id":"0.0-235.0","task_version":"battery-v0.2"},{"rune":"G","rune_set":"elianto","hex":"#3366ff99","correct":32,"choice":32,"rt":1046,"accuracy":1,"outcome":"+1","keys":[2547],"total_keys":1,"block":2,"trial":234,"stimulus":8,"robot":1,"valence":"win","action":"go","sham":1,"trial_type":"pit-trial","trial_index":261,"time_elapsed":1140212,"internal_node_id":"0.0-236.0","task_version":"battery-v0.2"},{"rune":"A","rune_set":"elianto","hex":"#f73b6a7A","correct":32,"choice":32,"rt":727,"accuracy":1,"outcome":"-10","keys":[2228],"total_keys":1,"block":2,"trial":235,"stimulus":9,"robot":3,"valence":"lose","action":"go","sham":1,"trial_type":"pit-trial","trial_index":262,"time_elapsed":1143643,"internal_node_id":"0.0-237.0","task_version":"battery-v0.2"},{"rune":"U","rune_set":"elianto","hex":"#3366ff99","correct":-1,"choice":-1,"rt":-1,"accuracy":1,"outcome":"+10","keys":[],"total_keys":0,"block":2,"trial":236,"stimulus":11,"robot":2,"valence":"win","action":"no-go","sham":0,"trial_type":"pit-trial","trial_index":263,"time_elapsed":1147646,"internal_node_id":"0.0-238.0","task_version":"battery-v0.2"},{"rune":"G","rune_set":"elianto","hex":"#3366ff99","correct":32,"choice":32,"rt":773,"accuracy":1,"outcome":"+10","keys":[2274],"total_keys":1,"block":2,"trial":237,"stimulus":8,"robot":1,"valence":"win","action":"go","sham":0,"trial_type":"pit-trial","trial_index":264,"time_elapsed":1151122,"internal_node_id":"0.0-239.0","task_version":"battery-v0.2"},{"rune":"L","rune_set":"elianto","hex":"#f73b6a7A","correct":32,"choice":32,"rt":1089,"accuracy":1,"outcome":"-1","keys":[2590],"total_keys":1,"block":2,"trial":238,"stimulus":10,"robot":3,"valence":"lose","action":"go","sham":0,"trial_type":"pit-trial","trial_index":265,"time_elapsed":1154915,"internal_node_id":"0.0-240.0","task_version":"battery-v0.2"},{"rune":"U","rune_set":"elianto","hex":"#3366ff99","correct":-1,"choice":32,"rt":929,"accuracy":0,"outcome":"+10","keys":[2429],"total_keys":1,"block":2,"trial":239,"stimulus":11,"robot":2,"valence":"win","action":"no-go","sham":1,"trial_type":"pit-trial","trial_index":266,"time_elapsed":1158547,"internal_node_id":"0.0-241.0","task_version":"battery-v0.2"},{"rune":"A","rune_set":"elianto","hex":"#f73b6a7A","correct":32,"choice":32,"rt":696,"accuracy":1,"outcome":"-1","keys":[2198],"total_keys":1,"block":2,"trial":240,"stimulus":9,"robot":3,"valence":"lose","action":"go","sham":0,"trial_type":"pit-trial","trial_index":267,"time_elapsed":1161948,"internal_node_id":"0.0-242.0","task_version":"battery-v0.2"},{"view_history":"[{\"page_index\":0,\"viewing_time\":2978}]","rt":2978,"trial_type":"pit-instructions","trial_index":268,"time_elapsed":1164926,"internal_node_id":"0.0-243.0","task_version":"battery-v0.2"},{"rt":16184,"responses":{"age":"50","gender-categorical":"Male","gender-free-response":"","ethnicity":"Not Hispanic or Latino","race":["White"],"language":"Yes","fluency":"Very well"},"survey":"demographics","trial_type":"survey-demo","trial_index":269,"time_elapsed":1181114,"internal_node_id":"0.0-244.0","task_version":"battery-v0.2"},{"rt":26495,"responses":{"difficulty":"1","fun":"4","clarity":"5","strategy":"I just tried to memorize colors and symbols.","feedback":""},"survey":"debrief","trial_type":"survey-debrief","trial_index":270,"time_elapsed":1207613,"internal_node_id":"0.0-245.0","task_version":"battery-v0.2","interactions":"[{\"event\":\"focus\",\"trial\":0,\"time\":4}]"}]