[{"view_history":"[{\"page_index\":0,\"viewing_time\":1820.9999999999127},{\"page_index\":1,\"viewing_time\":2676.99999999968},{\"page_index\":2,\"viewing_time\":1556.0000000004948},{\"page_index\":3,\"viewing_time\":8689.99999999869},{\"page_index\":4,\"viewing_time\":3886.9999999988067},{\"page_index\":5,\"viewing_time\":8506.000000001222},{\"page_index\":6,\"viewing_time\":21137.99999999901},{\"page_index\":7,\"viewing_time\":6247.999999999593},{\"page_index\":8,\"viewing_time\":24720.000000001164},{\"page_index\":9,\"viewing_time\":4639.999999999418}]","rt":83883.9999999982,"trial_type":"pit-instructions","trial_index":0,"time_elapsed":83909,"internal_node_id":"0.0-0.0-0.0","task_version":"battery-v0.2"},{"rune":"1","rune_set":"elianto","hex":"#3366ff99","correct":32,"choice":-1,"rt":-1,"accuracy":0,"outcome":"+1","keys":[1440.999999998894],"total_keys":1,"block":0,"practice":1,"trial_type":"pit-trial","trial_index":1,"time_elapsed":87913,"internal_node_id":"0.0-0.0-1.0-0.0","task_version":"battery-v0.2"},{"rune":"1","rune_set":"elianto","hex":"#3366ff99","correct":32,"choice":32,"rt":3.0000000006111804,"accuracy":1,"outcome":"+10","keys":[1504.000000000815],"total_keys":1,"block":0,"practice":1,"trial_type":"pit-trial","trial_index":2,"time_elapsed":90619,"internal_node_id":"0.0-0.0-1.1-0.1","task_version":"battery-v0.2"},{"rune":"1","rune_set":"elianto","hex":"#3366ff99","correct":32,"choice":32,"rt":101.99999999895226,"accuracy":1,"outcome":"+10","keys":[1613.0000000011933],"total_keys":1,"block":0,"practice":1,"trial_type":"pit-trial","trial_index":3,"time_elapsed":93434,"internal_node_id":"0.0-0.0-1.2-0.2","task_version":"battery-v0.2"},{"rune":"1","rune_set":"elianto","hex":"#3366ff99","correct":32,"choice":-1,"rt":-1,"accuracy":0,"outcome":"+1","keys":[1342.9999999971187],"total_keys":1,"block":0,"practice":1,"trial_type":"pit-trial","trial_index":4,"time_elapsed":97436,"internal_node_id":"0.0-0.0-1.3-0.3","task_version":"battery-v0.2"},{"rune":"1","rune_set":"elianto","hex":"#3366ff99","correct":32,"choice":32,"rt":129.99999999738066,"accuracy":1,"outcome":"+10","keys":[1628.0000000006112],"total_keys":1,"block":0,"practice":1,"trial_type":"pit-trial","trial_index":5,"time_elapsed":100267,"internal_node_id":"0.0-0.0-1.4-0.4","task_version":"battery-v0.2"},{"rune":"1","rune_set":"elianto","hex":"#3366ff99","correct":32,"choice":32,"rt":175.99999999947613,"accuracy":1,"outcome":"+10","keys":[1677.9999999998836],"total_keys":1,"block":0,"practice":1,"trial_type":"pit-trial","trial_index":6,"time_elapsed":103147,"internal_node_id":"0.0-0.0-1.5-0.5","task_version":"battery-v0.2"},{"rune":"1","rune_set":"elianto","hex":"#3366ff99","correct":32,"choice":32,"rt":191.99999999909778,"accuracy":1,"outcome":"+10","keys":[1692.9999999993015],"total_keys":1,"block":0,"practice":1,"trial_type":"pit-trial","trial_index":7,"time_elapsed":106042,"internal_node_id":"0.0-0.0-1.6-0.6","task_version":"battery-v0.2"},{"view_history":"[{\"page_index\":0,\"viewing_time\":5511.999999998807},{\"page_index\":1,\"viewing_time\":4088.999999999942}]","rt":9600.999999998749,"trial_type":"pit-instructions","trial_index":8,"time_elapsed":115644,"internal_node_id":"0.0-0.0-2.0","task_version":"battery-v0.2"},{"rune":"2","rune_set":"elianto","hex":"#3366ff99","correct":-1,"choice":-1,"rt":-1,"accuracy":1,"outcome":"+10","keys":[1276.9999999982247],"total_keys":1,"block":0,"practice":2,"trial_type":"pit-trial","trial_index":9,"time_elapsed":119645,"internal_node_id":"0.0-0.0-3.0-0.0","task_version":"battery-v0.2"},{"rune":"2","rune_set":"elianto","hex":"#3366ff99","correct":-1,"choice":-1,"rt":-1,"accuracy":1,"outcome":"+10","keys":[1419.9999999982538],"total_keys":1,"block":0,"practice":2,"trial_type":"pit-trial","trial_index":10,"time_elapsed":123647,"internal_node_id":"0.0-0.0-3.1-0.1","task_version":"battery-v0.2"},{"rune":"2","rune_set":"elianto","hex":"#3366ff99","correct":-1,"choice":-1,"rt":-1,"accuracy":1,"outcome":"+10","keys":[1418.99999999805],"total_keys":1,"block":0,"practice":2,"trial_type":"pit-trial","trial_index":11,"time_elapsed":127651,"internal_node_id":"0.0-0.0-3.2-0.2","task_version":"battery-v0.2"},{"rune":"2","rune_set":"elianto","hex":"#3366ff99","correct":-1,"choice":32,"rt":602.999999999156,"accuracy":0,"outcome":"+1","keys":[2102.999999999156],"total_keys":1,"block":0,"practice":2,"trial_type":"pit-trial","trial_index":12,"time_elapsed":130956,"internal_node_id":"0.0-0.0-3.3-0.3","task_version":"battery-v0.2"},{"rune":"2","rune_set":"elianto","hex":"#3366ff99","correct":-1,"choice":32,"rt":338.9999999999418,"accuracy":0,"outcome":"+1","keys":[1838.9999999999418],"total_keys":1,"block":0,"practice":2,"trial_type":"pit-trial","trial_index":13,"time_elapsed":133996,"internal_node_id":"0.0-0.0-3.4-0.4","task_version":"battery-v0.2"},{"rune":"2","rune_set":"elianto","hex":"#3366ff99","correct":-1,"choice":32,"rt":202.9999999977008,"accuracy":0,"outcome":"+1","keys":[1709.9999999991269],"total_keys":1,"block":0,"practice":2,"trial_type":"pit-trial","trial_index":14,"time_elapsed":136907,"internal_node_id":"0.0-0.0-3.5-0.5","task_version":"battery-v0.2"},{"rune":"2","rune_set":"elianto","hex":"#3366ff99","correct":-1,"choice":32,"rt":66.99999999909778,"accuracy":0,"outcome":"+1","keys":[1566.9999999990978],"total_keys":1,"block":0,"practice":2,"trial_type":"pit-trial","trial_index":15,"time_elapsed":139676,"internal_node_id":"0.0-0.0-3.6-0.6","task_version":"battery-v0.2"},{"rune":"2","rune_set":"elianto","hex":"#3366ff99","correct":-1,"choice":-1,"rt":-1,"accuracy":1,"outcome":"+10","keys":[1279.00000000227],"total_keys":1,"block":0,"practice":2,"trial_type":"pit-trial","trial_index":16,"time_elapsed":143676,"internal_node_id":"0.0-0.0-3.7-0.7","task_version":"battery-v0.2"},{"rune":"2","rune_set":"elianto","hex":"#3366ff99","correct":-1,"choice":-1,"rt":-1,"accuracy":1,"outcome":"+10","keys":[1309.000000001106],"total_keys":1,"block":0,"practice":2,"trial_type":"pit-trial","trial_index":17,"time_elapsed":147694,"internal_node_id":"0.0-0.0-3.8-0.8","task_version":"battery-v0.2"},{"rune":"2","rune_set":"elianto","hex":"#3366ff99","correct":-1,"choice":32,"rt":854.9999999995634,"accuracy":0,"outcome":"+1","keys":[1453.0000000013388,2365.0000000016007],"total_keys":2,"block":0,"practice":2,"trial_type":"pit-trial","trial_index":18,"time_elapsed":151260,"internal_node_id":"0.0-0.0-3.9-0.9","task_version":"battery-v0.2"},{"rune":"2","rune_set":"elianto","hex":"#3366ff99","correct":-1,"choice":32,"rt":595.0000000011642,"accuracy":0,"outcome":"+1","keys":[1199.0000000005239,2095.000000001164],"total_keys":2,"block":0,"practice":2,"trial_type":"pit-trial","trial_index":19,"time_elapsed":154556,"internal_node_id":"0.0-0.0-3.10-0.10","task_version":"battery-v0.2"},{"rune":"2","rune_set":"elianto","hex":"#3366ff99","correct":-1,"choice":32,"rt":49.999999999272404,"accuracy":0,"outcome":"+1","keys":[1549.9999999992724],"total_keys":1,"block":0,"practice":2,"trial_type":"pit-trial","trial_index":20,"time_elapsed":157307,"internal_node_id":"0.0-0.0-3.11-0.11","task_version":"battery-v0.2"},{"rune":"2","rune_set":"elianto","hex":"#3366ff99","correct":-1,"choice":-1,"rt":-1,"accuracy":1,"outcome":"+10","keys":[1166.9999999976426],"total_keys":1,"block":0,"practice":2,"trial_type":"pit-trial","trial_index":21,"time_elapsed":161308,"internal_node_id":"0.0-0.0-3.12-0.12","task_version":"battery-v0.2"},{"rune":"2","rune_set":"elianto","hex":"#3366ff99","correct":-1,"choice":32,"rt":307.0000000006985,"accuracy":0,"outcome":"+1","keys":[1807.0000000006985],"total_keys":1,"block":0,"practice":2,"trial_type":"pit-trial","trial_index":22,"time_elapsed":164316,"internal_node_id":"0.0-0.0-3.13-0.13","task_version":"battery-v0.2"},{"rune":"2","rune_set":"elianto","hex":"#3366ff99","correct":-1,"choice":32,"rt":1011.000000002241,"accuracy":0,"outcome":"+1","keys":[1388.9999999992142,2510.0000000020373],"total_keys":2,"block":0,"practice":2,"trial_type":"pit-trial","trial_index":23,"time_elapsed":168028,"internal_node_id":"0.0-0.0-3.14-0.14","task_version":"battery-v0.2"},{"rune":"2","rune_set":"elianto","hex":"#3366ff99","correct":-1,"choice":32,"rt":626.9999999967695,"accuracy":0,"outcome":"+1","keys":[2140.9999999996217],"total_keys":1,"block":0,"practice":2,"trial_type":"pit-trial","trial_index":24,"time_elapsed":171372,"internal_node_id":"0.0-0.0-3.15-0.15","task_version":"battery-v0.2"},{"rune":"2","rune_set":"elianto","hex":"#3366ff99","correct":-1,"choice":-1,"rt":-1,"accuracy":1,"outcome":"+10","keys":[1262.0000000024447],"total_keys":1,"block":0,"practice":2,"trial_type":"pit-trial","trial_index":25,"time_elapsed":175373,"internal_node_id":"0.0-0.0-3.16-0.16","task_version":"battery-v0.2"},{"rune":"2","rune_set":"elianto","hex":"#3366ff99","correct":-1,"choice":-1,"rt":-1,"accuracy":1,"outcome":"+10","keys":[1181.0000000004948],"total_keys":1,"block":0,"practice":2,"trial_type":"pit-trial","trial_index":26,"time_elapsed":179374,"internal_node_id":"0.0-0.0-3.17-0.17","task_version":"battery-v0.2"},{"rune":"2","rune_set":"elianto","hex":"#3366ff99","correct":-1,"choice":-1,"rt":-1,"accuracy":1,"outcome":"+10","keys":[1243.9999999987776],"total_keys":1,"block":0,"practice":2,"trial_type":"pit-trial","trial_index":27,"time_elapsed":183375,"internal_node_id":"0.0-0.0-3.18-0.18","task_version":"battery-v0.2"},{"view_history":"[{\"page_index\":0,\"viewing_time\":7518.000000000029},{\"page_index\":1,\"viewing_time\":7310.00000000131}]","rt":14828.000000001339,"trial_type":"pit-instructions","trial_index":28,"time_elapsed":198203,"internal_node_id":"0.0-0.0-4.0","task_version":"battery-v0.2"},{"rune":"3","rune_set":"elianto","hex":"#f73b6a7A","correct":-1,"choice":-1,"rt":-1,"accuracy":1,"outcome":"-1","keys":[],"total_keys":0,"block":0,"practice":3,"trial_type":"pit-trial","trial_index":29,"time_elapsed":202205,"internal_node_id":"0.0-0.0-5.0-0.0","task_version":"battery-v0.2"},{"rune":"3","rune_set":"elianto","hex":"#f73b6a7A","correct":-1,"choice":-1,"rt":-1,"accuracy":1,"outcome":"-1","keys":[],"total_keys":0,"block":0,"practice":3,"trial_type":"pit-trial","trial_index":30,"time_elapsed":206207,"internal_node_id":"0.0-0.0-5.1-0.1","task_version":"battery-v0.2"},{"rune":"3","rune_set":"elianto","hex":"#f73b6a7A","correct":-1,"choice":-1,"rt":-1,"accuracy":1,"outcome":"-1","keys":[],"total_keys":0,"block":0,"practice":3,"trial_type":"pit-trial","trial_index":31,"time_elapsed":210208,"internal_node_id":"0.0-0.0-5.2-0.2","task_version":"battery-v0.2"},{"rune":"3","rune_set":"elianto","hex":"#f73b6a7A","correct":-1,"choice":32,"rt":381.00000000122236,"accuracy":0,"outcome":"-10","keys":[1881.0000000012224],"total_keys":1,"block":0,"practice":3,"trial_type":"pit-trial","trial_index":32,"time_elapsed":213290,"internal_node_id":"0.0-0.0-5.3-0.3","task_version":"battery-v0.2"},{"rune":"3","rune_set":"elianto","hex":"#f73b6a7A","correct":-1,"choice":-1,"rt":-1,"accuracy":1,"outcome":"-1","keys":[],"total_keys":0,"block":0,"practice":3,"trial_type":"pit-trial","trial_index":33,"time_elapsed":217291,"internal_node_id":"0.0-0.0-5.4-0.4","task_version":"battery-v0.2"},{"rune":"3","rune_set":"elianto","hex":"#f73b6a7A","correct":-1,"choice":-1,"rt":-1,"accuracy":1,"outcome":"-1","keys":[],"total_keys":0,"block":0,"practice":3,"trial_type":"pit-trial","trial_index":34,"time_elapsed":221293,"internal_node_id":"0.0-0.0-5.5-0.5","task_version":"battery-v0.2"},{"rune":"3","rune_set":"elianto","hex":"#f73b6a7A","correct":-1,"choice":-1,"rt":-1,"accuracy":1,"outcome":"-1","keys":[],"total_keys":0,"block":0,"practice":3,"trial_type":"pit-trial","trial_index":35,"time_elapsed":225294,"internal_node_id":"0.0-0.0-5.6-0.6","task_version":"battery-v0.2"},{"view_history":"[{\"page_index\":0,\"viewing_time\":4731.999999999971},{\"page_index\":1,\"viewing_time\":5298.000000002503}]","rt":10030.000000002474,"trial_type":"pit-instructions","trial_index":36,"time_elapsed":235326,"internal_node_id":"0.0-0.0-6.0","task_version":"battery-v0.2"},{"rune":"4","rune_set":"elianto","hex":"#f73b6a7A","correct":32,"choice":-1,"rt":-1,"accuracy":0,"outcome":"-10","keys":[3723.999999998341],"total_keys":1,"block":0,"practice":4,"trial_type":"pit-trial","trial_index":37,"time_elapsed":239327,"internal_node_id":"0.0-0.0-7.0-0.0","task_version":"battery-v0.2"},{"rune":"4","rune_set":"elianto","hex":"#f73b6a7A","correct":32,"choice":32,"rt":285.00000000349246,"accuracy":1,"outcome":"-1","keys":[1788.0000000004657],"total_keys":1,"block":0,"practice":4,"trial_type":"pit-trial","trial_index":38,"time_elapsed":242317,"internal_node_id":"0.0-0.0-7.1-0.1","task_version":"battery-v0.2"},{"rune":"4","rune_set":"elianto","hex":"#f73b6a7A","correct":32,"choice":32,"rt":296.9999999986612,"accuracy":1,"outcome":"-1","keys":[1802.9999999998836],"total_keys":1,"block":0,"practice":4,"trial_type":"pit-trial","trial_index":39,"time_elapsed":245326,"internal_node_id":"0.0-0.0-7.2-0.2","task_version":"battery-v0.2"},{"rune":"4","rune_set":"elianto","hex":"#f73b6a7A","correct":32,"choice":32,"rt":238.999999997759,"accuracy":1,"outcome":"-1","keys":[1738.999999997759],"total_keys":1,"block":0,"practice":4,"trial_type":"pit-trial","trial_index":40,"time_elapsed":248271,"internal_node_id":"0.0-0.0-7.3-0.3","task_version":"battery-v0.2"},{"view_history":"[{\"page_index\":0,\"viewing_time\":1474.9999999985448},{\"page_index\":1,\"viewing_time\":4064.0000000021246},{\"page_index\":2,\"viewing_time\":18368.999999998778},{\"page_index\":3,\"viewing_time\":1288.0000000004657},{\"page_index\":4,\"viewing_time\":2055.000000000291},{\"page_index\":5,\"viewing_time\":1031.9999999992433}]","rt":28283.99999999962,"trial_type":"pit-instructions","trial_index":41,"time_elapsed":276557,"internal_node_id":"0.0-0.0-8.0","task_version":"battery-v0.2"},{"responses":["Press SPACE","+10","-1","True","True"],"num_errors":0,"rt":14294.999999998254,"trial_type":"pit-comprehension","trial_index":42,"time_elapsed":290855,"internal_node_id":"0.0-0.0-9.0","task_version":"battery-v0.2"},{"view_history":"[{\"page_index\":0,\"viewing_time\":1113.0000000012224},{\"page_index\":1,\"viewing_time\":2400.999999998021}]","rt":3513.9999999992433,"trial_type":"pit-instructions","trial_index":43,"time_elapsed":294373,"internal_node_id":"0.0-1.0","task_version":"battery-v0.2"},{"rune":"M","rune_set":"bacs1","hex":"#3366ff99","correct":-1,"choice":-1,"rt":-1,"accuracy":1,"outcome":"+1","keys":[1358.0000000001746],"total_keys":1,"block":1,"trial":1,"stimulus":3,"robot":2,"valence":"win","action":"no-go","sham":1,"trial_type":"pit-trial","trial_index":44,"time_elapsed":298382,"internal_node_id":"0.0-2.0","task_version":"battery-v0.2"},{"rune":"P","rune_set":"bacs1","hex":"#3366ff99","correct":32,"choice":-1,"rt":-1,"accuracy":0,"outcome":"+1","keys":[1452.99999999773,3371.999999999418],"total_keys":2,"block":1,"trial":2,"stimulus":2,"robot":1,"valence":"win","action":"go","sham":0,"trial_type":"pit-trial","trial_index":45,"time_elapsed":302383,"internal_node_id":"0.0-3.0","task_version":"battery-v0.2"},{"rune":"Y","rune_set":"bacs1","hex":"#f73b6a7A","correct":-1,"choice":-1,"rt":-1,"accuracy":1,"outcome":"-1","keys":[],"total_keys":0,"block":1,"trial":3,"stimulus":0,"robot":4,"valence":"lose","action":"no-go","sham":0,"trial_type":"pit-trial","trial_index":46,"time_elapsed":306390,"internal_node_id":"0.0-4.0","task_version":"battery-v0.2"},{"rune":"H","rune_set":"bacs1","hex":"#f73b6a7A","correct":-1,"choice":32,"rt":335.9999999993597,"accuracy":0,"outcome":"-10","keys":[1848.0000000018044],"total_keys":1,"block":1,"trial":4,"stimulus":1,"robot":4,"valence":"lose","action":"no-go","sham":0,"trial_type":"pit-trial","trial_index":47,"time_elapsed":309452,"internal_node_id":"0.0-5.0","task_version":"battery-v0.2"},{"rune":"Y","rune_set":"bacs1","hex":"#f73b6a7A","correct":-1,"choice":-1,"rt":-1,"accuracy":1,"outcome":"-1","keys":[],"total_keys":0,"block":1,"trial":5,"stimulus":0,"robot":4,"valence":"lose","action":"no-go","sham":0,"trial_type":"pit-trial","trial_index":48,"time_elapsed":313456,"internal_node_id":"0.0-6.0","task_version":"battery-v0.2"},{"rune":"P","rune_set":"bacs1","hex":"#3366ff99","correct":32,"choice":32,"rt":447.0000000001164,"accuracy":1,"outcome":"+10","keys":[1947.0000000001164],"total_keys":1,"block":1,"trial":6,"stimulus":2,"robot":1,"valence":"win","action":"go","sham":0,"trial_type":"pit-trial","trial_index":49,"time_elapsed":316604,"internal_node_id":"0.0-7.0","task_version":"battery-v0.2"},{"rune":"M","rune_set":"bacs1","hex":"#3366ff99","correct":-1,"choice":32,"rt":626.0000000001746,"accuracy":0,"outcome":"+1","keys":[2126.0000000001746],"total_keys":1,"block":1,"trial":7,"stimulus":3,"robot":2,"valence":"win","action":"no-go","sham":0,"trial_type":"pit-trial","trial_index":50,"time_elapsed":319935,"internal_node_id":"0.0-8.0","task_version":"battery-v0.2"},{"rune":"H","rune_set":"bacs1","hex":"#f73b6a7A","correct":-1,"choice":-1,"rt":-1,"accuracy":1,"outcome":"-10","keys":[],"total_keys":0,"block":1,"trial":8,"stimulus":1,"robot":4,"valence":"lose","action":"no-go","sham":1,"trial_type":"pit-trial","trial_index":51,"time_elapsed":323939,"internal_node_id":"0.0-9.0","task_version":"battery-v0.2"},{"rune":"H","rune_set":"bacs1","hex":"#f73b6a7A","correct":-1,"choice":32,"rt":651.0000000016298,"accuracy":0,"outcome":"-10","keys":[2151.00000000163],"total_keys":1,"block":1,"trial":9,"stimulus":1,"robot":4,"valence":"lose","action":"no-go","sham":0,"trial_type":"pit-trial","trial_index":52,"time_elapsed":327292,"internal_node_id":"0.0-10.0","task_version":"battery-v0.2"},{"rune":"M","rune_set":"bacs1","hex":"#3366ff99","correct":-1,"choice":32,"rt":1203.9999999979045,"accuracy":0,"outcome":"+1","keys":[2703.9999999979045],"total_keys":1,"block":1,"trial":10,"stimulus":3,"robot":2,"valence":"win","action":"no-go","sham":0,"trial_type":"pit-trial","trial_index":53,"time_elapsed":331198,"internal_node_id":"0.0-11.0","task_version":"battery-v0.2"},{"rune":"P","rune_set":"bacs1","hex":"#3366ff99","correct":32,"choice":32,"rt":302.9999999998836,"accuracy":1,"outcome":"+10","keys":[1802.9999999998836],"total_keys":1,"block":1,"trial":11,"stimulus":2,"robot":1,"valence":"win","action":"go","sham":0,"trial_type":"pit-trial","trial_index":54,"time_elapsed":334203,"internal_node_id":"0.0-12.0","task_version":"battery-v0.2"},{"rune":"Y","rune_set":"bacs1","hex":"#f73b6a7A","correct":-1,"choice":-1,"rt":-1,"accuracy":1,"outcome":"-1","keys":[],"total_keys":0,"block":1,"trial":12,"stimulus":0,"robot":4,"valence":"lose","action":"no-go","sham":0,"trial_type":"pit-trial","trial_index":55,"time_elapsed":338205,"internal_node_id":"0.0-13.0","task_version":"battery-v0.2"},{"rune":"M","rune_set":"bacs1","hex":"#3366ff99","correct":-1,"choice":32,"rt":879.0000000008149,"accuracy":0,"outcome":"+1","keys":[2379.000000000815],"total_keys":1,"block":1,"trial":13,"stimulus":3,"robot":2,"valence":"win","action":"no-go","sham":0,"trial_type":"pit-trial","trial_index":56,"time_elapsed":341787,"internal_node_id":"0.0-14.0","task_version":"battery-v0.2"},{"rune":"P","rune_set":"bacs1","hex":"#3366ff99","correct":32,"choice":32,"rt":371.9999999994179,"accuracy":1,"outcome":"+10","keys":[1871.999999999418],"total_keys":1,"block":1,"trial":14,"stimulus":2,"robot":1,"valence":"win","action":"go","sham":0,"trial_type":"pit-trial","trial_index":57,"time_elapsed":344861,"internal_node_id":"0.0-15.0","task_version":"battery-v0.2"},{"rune":"H","rune_set":"bacs1","hex":"#f73b6a7A","correct":-1,"choice":-1,"rt":-1,"accuracy":1,"outcome":"-1","keys":[],"total_keys":0,"block":1,"trial":15,"stimulus":1,"robot":4,"valence":"lose","action":"no-go","sham":0,"trial_type":"pit-trial","trial_index":58,"time_elapsed":348862,"internal_node_id":"0.0-16.0","task_version":"battery-v0.2"},{"rune":"Y","rune_set":"bacs1","hex":"#f73b6a7A","correct":-1,"choice":-1,"rt":-1,"accuracy":1,"outcome":"-1","keys":[],"total_keys":0,"block":1,"trial":16,"stimulus":0,"robot":4,"valence":"lose","action":"no-go","sham":0,"trial_type":"pit-trial","trial_index":59,"time_elapsed":352863,"internal_node_id":"0.0-17.0","task_version":"battery-v0.2"},{"rune":"Y","rune_set":"bacs1","hex":"#f73b6a7A","correct":-1,"choice":-1,"rt":-1,"accuracy":1,"outcome":"-1","keys":[],"total_keys":0,"block":1,"trial":17,"stimulus":0,"robot":4,"valence":"lose","action":"no-go","sham":0,"trial_type":"pit-trial","trial_index":60,"time_elapsed":356865,"internal_node_id":"0.0-18.0","task_version":"battery-v0.2"},{"rune":"H","rune_set":"bacs1","hex":"#f73b6a7A","correct":-1,"choice":-1,"rt":-1,"accuracy":1,"outcome":"-1","keys":[],"total_keys":0,"block":1,"trial":18,"stimulus":1,"robot":4,"valence":"lose","action":"no-go","sham":0,"trial_type":"pit-trial","trial_index":61,"time_elapsed":360870,"internal_node_id":"0.0-19.0","task_version":"battery-v0.2"},{"rune":"M","rune_set":"bacs1","hex":"#3366ff99","correct":-1,"choice":-1,"rt":-1,"accuracy":1,"outcome":"+10","keys":[],"total_keys":0,"block":1,"trial":19,"stimulus":3,"robot":2,"valence":"win","action":"no-go","sham":0,"trial_type":"pit-trial","trial_index":62,"time_elapsed":364871,"internal_node_id":"0.0-20.0","task_version":"battery-v0.2"},{"rune":"P","rune_set":"bacs1","hex":"#3366ff99","correct":32,"choice":32,"rt":391.9999999998254,"accuracy":1,"outcome":"+10","keys":[1891.9999999998254],"total_keys":1,"block":1,"trial":20,"stimulus":2,"robot":1,"valence":"win","action":"go","sham":0,"trial_type":"pit-trial","trial_index":63,"time_elapsed":367964,"internal_node_id":"0.0-21.0","task_version":"battery-v0.2"},{"rune":"P","rune_set":"bacs1","hex":"#3366ff99","correct":32,"choice":32,"rt":721.000000001397,"accuracy":1,"outcome":"+1","keys":[2221.000000001397],"total_keys":1,"block":1,"trial":21,"stimulus":2,"robot":1,"valence":"win","action":"go","sham":1,"trial_type":"pit-trial","trial_index":64,"time_elapsed":371387,"internal_node_id":"0.0-22.0","task_version":"battery-v0.2"},{"rune":"Y","rune_set":"bacs1","hex":"#f73b6a7A","correct":-1,"choice":-1,"rt":-1,"accuracy":1,"outcome":"-1","keys":[],"total_keys":0,"block":1,"trial":22,"stimulus":0,"robot":4,"valence":"lose","action":"no-go","sham":0,"trial_type":"pit-trial","trial_index":65,"time_elapsed":375388,"internal_node_id":"0.0-23.0","task_version":"battery-v0.2"},{"rune":"M","rune_set":"bacs1","hex":"#3366ff99","correct":-1,"choice":-1,"rt":-1,"accuracy":1,"outcome":"+1","keys":[],"total_keys":0,"block":1,"trial":23,"stimulus":3,"robot":2,"valence":"win","action":"no-go","sham":1,"trial_type":"pit-trial","trial_index":66,"time_elapsed":379389,"internal_node_id":"0.0-24.0","task_version":"battery-v0.2"},{"rune":"H","rune_set":"bacs1","hex":"#f73b6a7A","correct":-1,"choice":-1,"rt":-1,"accuracy":1,"outcome":"-1","keys":[],"total_keys":0,"block":1,"trial":24,"stimulus":1,"robot":4,"valence":"lose","action":"no-go","sham":0,"trial_type":"pit-trial","trial_index":67,"time_elapsed":383391,"internal_node_id":"0.0-25.0","task_version":"battery-v0.2"},{"rune":"H","rune_set":"bacs1","hex":"#f73b6a7A","correct":-1,"choice":-1,"rt":-1,"accuracy":1,"outcome":"-1","keys":[],"total_keys":0,"block":1,"trial":25,"stimulus":1,"robot":4,"valence":"lose","action":"no-go","sham":0,"trial_type":"pit-trial","trial_index":68,"time_elapsed":387392,"internal_node_id":"0.0-26.0","task_version":"battery-v0.2"},{"rune":"M","rune_set":"bacs1","hex":"#3366ff99","correct":-1,"choice":-1,"rt":-1,"accuracy":1,"outcome":"+10","keys":[],"total_keys":0,"block":1,"trial":26,"stimulus":3,"robot":2,"valence":"win","action":"no-go","sham":0,"trial_type":"pit-trial","trial_index":69,"time_elapsed":391394,"internal_node_id":"0.0-27.0","task_version":"battery-v0.2"},{"rune":"P","rune_set":"bacs1","hex":"#3366ff99","correct":32,"choice":32,"rt":347.99999999813735,"accuracy":1,"outcome":"+10","keys":[1847.9999999981374],"total_keys":1,"block":1,"trial":27,"stimulus":2,"robot":1,"valence":"win","action":"go","sham":0,"trial_type":"pit-trial","trial_index":70,"time_elapsed":394443,"internal_node_id":"0.0-28.0","task_version":"battery-v0.2"},{"rune":"Y","rune_set":"bacs1","hex":"#f73b6a7A","correct":-1,"choice":-1,"rt":-1,"accuracy":1,"outcome":"-1","keys":[],"total_keys":0,"block":1,"trial":28,"stimulus":0,"robot":4,"valence":"lose","action":"no-go","sham":0,"trial_type":"pit-trial","trial_index":71,"time_elapsed":398444,"internal_node_id":"0.0-29.0","task_version":"battery-v0.2"},{"rune":"Y","rune_set":"bacs1","hex":"#f73b6a7A","correct":-1,"choice":-1,"rt":-1,"accuracy":1,"outcome":"-10","keys":[],"total_keys":0,"block":1,"trial":29,"stimulus":0,"robot":4,"valence":"lose","action":"no-go","sham":1,"trial_type":"pit-trial","trial_index":72,"time_elapsed":402445,"internal_node_id":"0.0-30.0","task_version":"battery-v0.2"},{"rune":"P","rune_set":"bacs1","hex":"#3366ff99","correct":32,"choice":32,"rt":503.99999999720603,"accuracy":1,"outcome":"+10","keys":[2011.9999999988358],"total_keys":1,"block":1,"trial":30,"stimulus":2,"robot":1,"valence":"win","action":"go","sham":0,"trial_type":"pit-trial","trial_index":73,"time_elapsed":405660,"internal_node_id":"0.0-31.0","task_version":"battery-v0.2"},{"rune":"H","rune_set":"bacs1","hex":"#f73b6a7A","correct":-1,"choice":-1,"rt":-1,"accuracy":1,"outcome":"-1","keys":[],"total_keys":0,"block":1,"trial":31,"stimulus":1,"robot":4,"valence":"lose","action":"no-go","sham":0,"trial_type":"pit-trial","trial_index":74,"time_elapsed":409666,"internal_node_id":"0.0-32.0","task_version":"battery-v0.2"},{"rune":"M","rune_set":"bacs1","hex":"#3366ff99","correct":-1,"choice":-1,"rt":-1,"accuracy":1,"outcome":"+1","keys":[],"total_keys":0,"block":1,"trial":32,"stimulus":3,"robot":2,"valence":"win","action":"no-go","sham":1,"trial_type":"pit-trial","trial_index":75,"time_elapsed":413670,"internal_node_id":"0.0-33.0","task_version":"battery-v0.2"},{"rune":"P","rune_set":"bacs1","hex":"#3366ff99","correct":32,"choice":32,"rt":343.0000000007567,"accuracy":1,"outcome":"+10","keys":[1845.0000000011642],"total_keys":1,"block":1,"trial":33,"stimulus":2,"robot":1,"valence":"win","action":"go","sham":0,"trial_type":"pit-trial","trial_index":76,"time_elapsed":416716,"internal_node_id":"0.0-34.0","task_version":"battery-v0.2"},{"rune":"U","rune_set":"bacs1","hex":"#f73b6a7A","correct":32,"choice":-1,"rt":-1,"accuracy":0,"outcome":"-10","keys":[],"total_keys":0,"block":1,"trial":34,"stimulus":4,"robot":3,"valence":"lose","action":"go","sham":0,"trial_type":"pit-trial","trial_index":77,"time_elapsed":420719,"internal_node_id":"0.0-35.0","task_version":"battery-v0.2"},{"rune":"Y","rune_set":"bacs1","hex":"#f73b6a7A","correct":-1,"choice":-1,"rt":-1,"accuracy":1,"outcome":"-1","keys":[],"total_keys":0,"block":1,"trial":35,"stimulus":0,"robot":4,"valence":"lose","action":"no-go","sham":0,"trial_type":"pit-trial","trial_index":78,"time_elapsed":424721,"internal_node_id":"0.0-36.0","task_version":"battery-v0.2"},{"rune":"M","rune_set":"bacs1","hex":"#3366ff99","correct":-1,"choice":-1,"rt":-1,"accuracy":1,"outcome":"+10","keys":[],"total_keys":0,"block":1,"trial":36,"stimulus":3,"robot":2,"valence":"win","action":"no-go","sham":0,"trial_type":"pit-trial","trial_index":79,"time_elapsed":428722,"internal_node_id":"0.0-37.0","task_version":"battery-v0.2"},{"rune":"P","rune_set":"bacs1","hex":"#3366ff99","correct":32,"choice":32,"rt":435.00000000128057,"accuracy":1,"outcome":"+10","keys":[1944.999999999709],"total_keys":1,"block":1,"trial":37,"stimulus":2,"robot":1,"valence":"win","action":"go","sham":0,"trial_type":"pit-trial","trial_index":80,"time_elapsed":431869,"internal_node_id":"0.0-38.0","task_version":"battery-v0.2"},{"rune":"U","rune_set":"bacs1","hex":"#f73b6a7A","correct":32,"choice":32,"rt":592.0000000005821,"accuracy":1,"outcome":"-10","keys":[2093.0000000007567],"total_keys":1,"block":1,"trial":38,"stimulus":4,"robot":3,"valence":"lose","action":"go","sham":1,"trial_type":"pit-trial","trial_index":81,"time_elapsed":435164,"internal_node_id":"0.0-39.0","task_version":"battery-v0.2"},{"rune":"Y","rune_set":"bacs1","hex":"#f73b6a7A","correct":-1,"choice":-1,"rt":-1,"accuracy":1,"outcome":"-1","keys":[],"total_keys":0,"block":1,"trial":39,"stimulus":0,"robot":4,"valence":"lose","action":"no-go","sham":0,"trial_type":"pit-trial","trial_index":82,"time_elapsed":439166,"internal_node_id":"0.0-40.0","task_version":"battery-v0.2"},{"rune":"M","rune_set":"bacs1","hex":"#3366ff99","correct":-1,"choice":-1,"rt":-1,"accuracy":1,"outcome":"+10","keys":[],"total_keys":0,"block":1,"trial":40,"stimulus":3,"robot":2,"valence":"win","action":"no-go","sham":0,"trial_type":"pit-trial","trial_index":83,"time_elapsed":443167,"internal_node_id":"0.0-41.0","task_version":"battery-v0.2"},{"rune":"K","rune_set":"bacs1","hex":"#3366ff99","correct":32,"choice":32,"rt":718.9999999973224,"accuracy":1,"outcome":"+1","keys":[2218.9999999973224],"total_keys":1,"block":1,"trial":41,"stimulus":6,"robot":1,"valence":"win","action":"go","sham":1,"trial_type":"pit-trial","trial_index":84,"time_elapsed":446587,"internal_node_id":"0.0-42.0","task_version":"battery-v0.2"},{"rune":"Y","rune_set":"bacs1","hex":"#f73b6a7A","correct":-1,"choice":-1,"rt":-1,"accuracy":1,"outcome":"-10","keys":[],"total_keys":0,"block":1,"trial":42,"stimulus":0,"robot":4,"valence":"lose","action":"no-go","sham":1,"trial_type":"pit-trial","trial_index":85,"time_elapsed":450588,"internal_node_id":"0.0-43.0","task_version":"battery-v0.2"},{"rune":"S","rune_set":"bacs1","hex":"#3366ff99","correct":-1,"choice":32,"rt":689.9999999986612,"accuracy":0,"outcome":"+1","keys":[2189.999999998661],"total_keys":1,"block":1,"trial":43,"stimulus":5,"robot":2,"valence":"win","action":"no-go","sham":0,"trial_type":"pit-trial","trial_index":86,"time_elapsed":453980,"internal_node_id":"0.0-44.0","task_version":"battery-v0.2"},{"rune":"U","rune_set":"bacs1","hex":"#f73b6a7A","correct":32,"choice":-1,"rt":-1,"accuracy":0,"outcome":"-10","keys":[],"total_keys":0,"block":1,"trial":44,"stimulus":4,"robot":3,"valence":"lose","action":"go","sham":0,"trial_type":"pit-trial","trial_index":87,"time_elapsed":457981,"internal_node_id":"0.0-45.0","task_version":"battery-v0.2"},{"rune":"U","rune_set":"bacs1","hex":"#f73b6a7A","correct":32,"choice":32,"rt":737.0000000009895,"accuracy":1,"outcome":"-1","keys":[2237.0000000009895],"total_keys":1,"block":1,"trial":45,"stimulus":4,"robot":3,"valence":"lose","action":"go","sham":0,"trial_type":"pit-trial","trial_index":88,"time_elapsed":461419,"internal_node_id":"0.0-46.0","task_version":"battery-v0.2"},{"rune":"K","rune_set":"bacs1","hex":"#3366ff99","correct":32,"choice":32,"rt":658.9999999996508,"accuracy":1,"outcome":"+10","keys":[2158.9999999996508],"total_keys":1,"block":1,"trial":46,"stimulus":6,"robot":1,"valence":"win","action":"go","sham":0,"trial_type":"pit-trial","trial_index":89,"time_elapsed":464779,"internal_node_id":"0.0-47.0","task_version":"battery-v0.2"},{"rune":"Y","rune_set":"bacs1","hex":"#f73b6a7A","correct":-1,"choice":-1,"rt":-1,"accuracy":1,"outcome":"-1","keys":[],"total_keys":0,"block":1,"trial":47,"stimulus":0,"robot":4,"valence":"lose","action":"no-go","sham":0,"trial_type":"pit-trial","trial_index":90,"time_elapsed":468780,"internal_node_id":"0.0-48.0","task_version":"battery-v0.2"},{"rune":"S","rune_set":"bacs1","hex":"#3366ff99","correct":-1,"choice":32,"rt":563.0000000019209,"accuracy":0,"outcome":"+10","keys":[2063.000000001921],"total_keys":1,"block":1,"trial":48,"stimulus":5,"robot":2,"valence":"win","action":"no-go","sham":1,"trial_type":"pit-trial","trial_index":91,"time_elapsed":472045,"internal_node_id":"0.0-49.0","task_version":"battery-v0.2"},{"rune":"D","rune_set":"bacs1","hex":"#f73b6a7A","correct":-1,"choice":-1,"rt":-1,"accuracy":1,"outcome":"-1","keys":[],"total_keys":0,"block":1,"trial":49,"stimulus":7,"robot":4,"valence":"lose","action":"no-go","sham":0,"trial_type":"pit-trial","trial_index":92,"time_elapsed":476046,"internal_node_id":"0.0-50.0","task_version":"battery-v0.2"},{"rune":"U","rune_set":"bacs1","hex":"#f73b6a7A","correct":32,"choice":32,"rt":959.0000000025611,"accuracy":1,"outcome":"-1","keys":[2459.000000002561],"total_keys":1,"block":1,"trial":50,"stimulus":4,"robot":3,"valence":"lose","action":"go","sham":0,"trial_type":"pit-trial","trial_index":93,"time_elapsed":479707,"internal_node_id":"0.0-51.0","task_version":"battery-v0.2"},{"rune":"K","rune_set":"bacs1","hex":"#3366ff99","correct":32,"choice":32,"rt":497.99999999959255,"accuracy":1,"outcome":"+10","keys":[1997.9999999995925],"total_keys":1,"block":1,"trial":51,"stimulus":6,"robot":1,"valence":"win","action":"go","sham":0,"trial_type":"pit-trial","trial_index":94,"time_elapsed":482908,"internal_node_id":"0.0-52.0","task_version":"battery-v0.2"},{"rune":"S","rune_set":"bacs1","hex":"#3366ff99","correct":-1,"choice":32,"rt":483.00000000023283,"accuracy":0,"outcome":"+1","keys":[1983.0000000002328],"total_keys":1,"block":1,"trial":52,"stimulus":5,"robot":2,"valence":"win","action":"no-go","sham":0,"trial_type":"pit-trial","trial_index":95,"time_elapsed":486091,"internal_node_id":"0.0-53.0","task_version":"battery-v0.2"},{"rune":"D","rune_set":"bacs1","hex":"#f73b6a7A","correct":-1,"choice":-1,"rt":-1,"accuracy":1,"outcome":"-1","keys":[],"total_keys":0,"block":1,"trial":53,"stimulus":7,"robot":4,"valence":"lose","action":"no-go","sham":0,"trial_type":"pit-trial","trial_index":96,"time_elapsed":490092,"internal_node_id":"0.0-54.0","task_version":"battery-v0.2"},{"rune":"K","rune_set":"bacs1","hex":"#3366ff99","correct":32,"choice":32,"rt":515.9999999996508,"accuracy":1,"outcome":"+1","keys":[2028.9999999986612],"total_keys":1,"block":1,"trial":54,"stimulus":6,"robot":1,"valence":"win","action":"go","sham":1,"trial_type":"pit-trial","trial_index":97,"time_elapsed":493329,"internal_node_id":"0.0-55.0","task_version":"battery-v0.2"},{"rune":"S","rune_set":"bacs1","hex":"#3366ff99","correct":-1,"choice":32,"rt":483.0000000001746,"accuracy":0,"outcome":"+10","keys":[1991.0000000018044],"total_keys":1,"block":1,"trial":55,"stimulus":5,"robot":2,"valence":"win","action":"no-go","sham":1,"trial_type":"pit-trial","trial_index":98,"time_elapsed":496522,"internal_node_id":"0.0-56.0","task_version":"battery-v0.2"},{"rune":"U","rune_set":"bacs1","hex":"#f73b6a7A","correct":32,"choice":32,"rt":691.9999999990687,"accuracy":1,"outcome":"-1","keys":[2191.9999999990687],"total_keys":1,"block":1,"trial":56,"stimulus":4,"robot":3,"valence":"lose","action":"go","sham":0,"trial_type":"pit-trial","trial_index":99,"time_elapsed":499915,"internal_node_id":"0.0-57.0","task_version":"battery-v0.2"},{"rune":"D","rune_set":"bacs1","hex":"#f73b6a7A","correct":-1,"choice":-1,"rt":-1,"accuracy":1,"outcome":"-1","keys":[],"total_keys":0,"block":1,"trial":57,"stimulus":7,"robot":4,"valence":"lose","action":"no-go","sham":0,"trial_type":"pit-trial","trial_index":100,"time_elapsed":503918,"internal_node_id":"0.0-58.0","task_version":"battery-v0.2"},{"rune":"U","rune_set":"bacs1","hex":"#f73b6a7A","correct":32,"choice":32,"rt":495.9999999991851,"accuracy":1,"outcome":"-1","keys":[1995.999999999185],"total_keys":1,"block":1,"trial":58,"stimulus":4,"robot":3,"valence":"lose","action":"go","sham":0,"trial_type":"pit-trial","trial_index":101,"time_elapsed":507115,"internal_node_id":"0.0-59.0","task_version":"battery-v0.2"},{"rune":"K","rune_set":"bacs1","hex":"#3366ff99","correct":32,"choice":32,"rt":609.0000000003492,"accuracy":1,"outcome":"+10","keys":[2109.0000000003492],"total_keys":1,"block":1,"trial":59,"stimulus":6,"robot":1,"valence":"win","action":"go","sham":0,"trial_type":"pit-trial","trial_index":102,"time_elapsed":510427,"internal_node_id":"0.0-60.0","task_version":"battery-v0.2"},{"rune":"S","rune_set":"bacs1","hex":"#3366ff99","correct":-1,"choice":32,"rt":375,"accuracy":0,"outcome":"+1","keys":[1886.9999999988358],"total_keys":1,"block":1,"trial":60,"stimulus":5,"robot":2,"valence":"win","action":"no-go","sham":0,"trial_type":"pit-trial","trial_index":103,"time_elapsed":513515,"internal_node_id":"0.0-61.0","task_version":"battery-v0.2"},{"rune":"U","rune_set":"bacs1","hex":"#f73b6a7A","correct":32,"choice":32,"rt":450.0000000006985,"accuracy":1,"outcome":"-10","keys":[1950.0000000006985],"total_keys":1,"block":1,"trial":61,"stimulus":4,"robot":3,"valence":"lose","action":"go","sham":1,"trial_type":"pit-trial","trial_index":104,"time_elapsed":516666,"internal_node_id":"0.0-62.0","task_version":"battery-v0.2"},{"rune":"S","rune_set":"bacs1","hex":"#3366ff99","correct":-1,"choice":32,"rt":435.9999999979045,"accuracy":0,"outcome":"+10","keys":[1935.9999999979045],"total_keys":1,"block":1,"trial":62,"stimulus":5,"robot":2,"valence":"win","action":"no-go","sham":1,"trial_type":"pit-trial","trial_index":105,"time_elapsed":519803,"internal_node_id":"0.0-63.0","task_version":"battery-v0.2"},{"rune":"K","rune_set":"bacs1","hex":"#3366ff99","correct":32,"choice":32,"rt":366.9999999983702,"accuracy":1,"outcome":"+10","keys":[1869.9999999990105],"total_keys":1,"block":1,"trial":63,"stimulus":6,"robot":1,"valence":"win","action":"go","sham":0,"trial_type":"pit-trial","trial_index":106,"time_elapsed":522875,"internal_node_id":"0.0-64.0","task_version":"battery-v0.2"},{"rune":"D","rune_set":"bacs1","hex":"#f73b6a7A","correct":-1,"choice":32,"rt":658.9999999996508,"accuracy":0,"outcome":"-10","keys":[2157.999999999418],"total_keys":1,"block":1,"trial":64,"stimulus":7,"robot":4,"valence":"lose","action":"no-go","sham":0,"trial_type":"pit-trial","trial_index":107,"time_elapsed":526235,"internal_node_id":"0.0-65.0","task_version":"battery-v0.2"},{"rune":"K","rune_set":"bacs1","hex":"#3366ff99","correct":32,"choice":32,"rt":385.999999998603,"accuracy":1,"outcome":"+10","keys":[1885.999999998603],"total_keys":1,"block":1,"trial":65,"stimulus":6,"robot":1,"valence":"win","action":"go","sham":0,"trial_type":"pit-trial","trial_index":108,"time_elapsed":529323,"internal_node_id":"0.0-66.0","task_version":"battery-v0.2"},{"rune":"D","rune_set":"bacs1","hex":"#f73b6a7A","correct":-1,"choice":-1,"rt":-1,"accuracy":1,"outcome":"-1","keys":[],"total_keys":0,"block":1,"trial":66,"stimulus":7,"robot":4,"valence":"lose","action":"no-go","sham":0,"trial_type":"pit-trial","trial_index":109,"time_elapsed":533324,"internal_node_id":"0.0-67.0","task_version":"battery-v0.2"},{"rune":"U","rune_set":"bacs1","hex":"#f73b6a7A","correct":32,"choice":32,"rt":524.0000000011642,"accuracy":1,"outcome":"-1","keys":[2028.999999998603],"total_keys":1,"block":1,"trial":67,"stimulus":4,"robot":3,"valence":"lose","action":"go","sham":0,"trial_type":"pit-trial","trial_index":110,"time_elapsed":536555,"internal_node_id":"0.0-68.0","task_version":"battery-v0.2"},{"rune":"S","rune_set":"bacs1","hex":"#3366ff99","correct":-1,"choice":32,"rt":481.9999999998836,"accuracy":0,"outcome":"+1","keys":[1997.9999999995343],"total_keys":1,"block":1,"trial":68,"stimulus":5,"robot":2,"valence":"win","action":"no-go","sham":0,"trial_type":"pit-trial","trial_index":111,"time_elapsed":539755,"internal_node_id":"0.0-69.0","task_version":"battery-v0.2"},{"rune":"K","rune_set":"bacs1","hex":"#3366ff99","correct":32,"choice":32,"rt":379.0000000008149,"accuracy":1,"outcome":"+10","keys":[1885.999999998603],"total_keys":1,"block":1,"trial":69,"stimulus":6,"robot":1,"valence":"win","action":"go","sham":0,"trial_type":"pit-trial","trial_index":112,"time_elapsed":542843,"internal_node_id":"0.0-70.0","task_version":"battery-v0.2"},{"rune":"S","rune_set":"bacs1","hex":"#3366ff99","correct":-1,"choice":32,"rt":456.00000000197906,"accuracy":0,"outcome":"+1","keys":[1982],"total_keys":1,"block":1,"trial":70,"stimulus":5,"robot":2,"valence":"win","action":"no-go","sham":0,"trial_type":"pit-trial","trial_index":113,"time_elapsed":546026,"internal_node_id":"0.0-71.0","task_version":"battery-v0.2"},{"rune":"U","rune_set":"bacs1","hex":"#f73b6a7A","correct":32,"choice":32,"rt":594.0000000010477,"accuracy":1,"outcome":"-10","keys":[2094.0000000010477],"total_keys":1,"block":1,"trial":71,"stimulus":4,"robot":3,"valence":"lose","action":"go","sham":1,"trial_type":"pit-trial","trial_index":114,"time_elapsed":549323,"internal_node_id":"0.0-72.0","task_version":"battery-v0.2"},{"rune":"D","rune_set":"bacs1","hex":"#f73b6a7A","correct":-1,"choice":-1,"rt":-1,"accuracy":1,"outcome":"-1","keys":[],"total_keys":0,"block":1,"trial":72,"stimulus":7,"robot":4,"valence":"lose","action":"no-go","sham":0,"trial_type":"pit-trial","trial_index":115,"time_elapsed":553325,"internal_node_id":"0.0-73.0","task_version":"battery-v0.2"},{"rune":"D","rune_set":"bacs1","hex":"#f73b6a7A","correct":-1,"choice":-1,"rt":-1,"accuracy":1,"outcome":"-1","keys":[],"total_keys":0,"block":1,"trial":73,"stimulus":7,"robot":4,"valence":"lose","action":"no-go","sham":0,"trial_type":"pit-trial","trial_index":116,"time_elapsed":557326,"internal_node_id":"0.0-74.0","task_version":"battery-v0.2"},{"rune":"O","rune_set":"bacs1","hex":"#3366ff99","correct":32,"choice":32,"rt":400.99999999802094,"accuracy":1,"outcome":"+1","keys":[1899.999999997788],"total_keys":1,"block":1,"trial":74,"stimulus":8,"robot":1,"valence":"win","action":"go","sham":1,"trial_type":"pit-trial","trial_index":117,"time_elapsed":560428,"internal_node_id":"0.0-75.0","task_version":"battery-v0.2"},{"rune":"I","rune_set":"bacs1","hex":"#f73b6a7A","correct":32,"choice":-1,"rt":-1,"accuracy":0,"outcome":"-10","keys":[],"total_keys":0,"block":1,"trial":75,"stimulus":9,"robot":3,"valence":"lose","action":"go","sham":0,"trial_type":"pit-trial","trial_index":118,"time_elapsed":564429,"internal_node_id":"0.0-76.0","task_version":"battery-v0.2"},{"rune":"S","rune_set":"bacs1","hex":"#3366ff99","correct":-1,"choice":32,"rt":528.999999998603,"accuracy":0,"outcome":"+1","keys":[2028.999999998603],"total_keys":1,"block":1,"trial":76,"stimulus":5,"robot":2,"valence":"win","action":"no-go","sham":0,"trial_type":"pit-trial","trial_index":119,"time_elapsed":567659,"internal_node_id":"0.0-77.0","task_version":"battery-v0.2"},{"rune":"O","rune_set":"bacs1","hex":"#3366ff99","correct":32,"choice":32,"rt":595.0000000011642,"accuracy":1,"outcome":"+10","keys":[2095.000000001164],"total_keys":1,"block":1,"trial":77,"stimulus":8,"robot":1,"valence":"win","action":"go","sham":0,"trial_type":"pit-trial","trial_index":120,"time_elapsed":570955,"internal_node_id":"0.0-78.0","task_version":"battery-v0.2"},{"rune":"I","rune_set":"bacs1","hex":"#f73b6a7A","correct":32,"choice":32,"rt":1007.0000000015134,"accuracy":1,"outcome":"-10","keys":[2511.000000002212],"total_keys":1,"block":1,"trial":78,"stimulus":9,"robot":3,"valence":"lose","action":"go","sham":1,"trial_type":"pit-trial","trial_index":121,"time_elapsed":574668,"internal_node_id":"0.0-79.0","task_version":"battery-v0.2"},{"rune":"D","rune_set":"bacs1","hex":"#f73b6a7A","correct":-1,"choice":-1,"rt":-1,"accuracy":1,"outcome":"-1","keys":[],"total_keys":0,"block":1,"trial":79,"stimulus":7,"robot":4,"valence":"lose","action":"no-go","sham":0,"trial_type":"pit-trial","trial_index":122,"time_elapsed":578670,"internal_node_id":"0.0-80.0","task_version":"battery-v0.2"},{"rune":"S","rune_set":"bacs1","hex":"#3366ff99","correct":-1,"choice":32,"rt":544.0000000017462,"accuracy":0,"outcome":"+1","keys":[2044.0000000017462],"total_keys":1,"block":1,"trial":80,"stimulus":5,"robot":2,"valence":"win","action":"no-go","sham":0,"trial_type":"pit-trial","trial_index":123,"time_elapsed":581916,"internal_node_id":"0.0-81.0","task_version":"battery-v0.2"},{"rune":"I","rune_set":"bacs1","hex":"#f73b6a7A","correct":32,"choice":32,"rt":849.999999998603,"accuracy":1,"outcome":"-10","keys":[2349.999999998603],"total_keys":1,"block":1,"trial":81,"stimulus":9,"robot":3,"valence":"lose","action":"go","sham":1,"trial_type":"pit-trial","trial_index":124,"time_elapsed":585467,"internal_node_id":"0.0-82.0","task_version":"battery-v0.2"},{"rune":"S","rune_set":"bacs1","hex":"#3366ff99","correct":-1,"choice":-1,"rt":-1,"accuracy":1,"outcome":"+10","keys":[],"total_keys":0,"block":1,"trial":82,"stimulus":5,"robot":2,"valence":"win","action":"no-go","sham":0,"trial_type":"pit-trial","trial_index":125,"time_elapsed":589469,"internal_node_id":"0.0-83.0","task_version":"battery-v0.2"},{"rune":"D","rune_set":"bacs1","hex":"#f73b6a7A","correct":-1,"choice":-1,"rt":-1,"accuracy":1,"outcome":"-1","keys":[],"total_keys":0,"block":1,"trial":83,"stimulus":7,"robot":4,"valence":"lose","action":"no-go","sham":0,"trial_type":"pit-trial","trial_index":126,"time_elapsed":593471,"internal_node_id":"0.0-84.0","task_version":"battery-v0.2"},{"rune":"O","rune_set":"bacs1","hex":"#3366ff99","correct":32,"choice":32,"rt":591.9999999968568,"accuracy":1,"outcome":"+1","keys":[2091.999999996857],"total_keys":1,"block":1,"trial":84,"stimulus":8,"robot":1,"valence":"win","action":"go","sham":1,"trial_type":"pit-trial","trial_index":127,"time_elapsed":596764,"internal_node_id":"0.0-85.0","task_version":"battery-v0.2"},{"rune":"D","rune_set":"bacs1","hex":"#f73b6a7A","correct":-1,"choice":-1,"rt":-1,"accuracy":1,"outcome":"-1","keys":[],"total_keys":0,"block":1,"trial":85,"stimulus":7,"robot":4,"valence":"lose","action":"no-go","sham":0,"trial_type":"pit-trial","trial_index":128,"time_elapsed":600765,"internal_node_id":"0.0-86.0","task_version":"battery-v0.2"},{"rune":"S","rune_set":"bacs1","hex":"#3366ff99","correct":-1,"choice":-1,"rt":-1,"accuracy":1,"outcome":"+1","keys":[],"total_keys":0,"block":1,"trial":86,"stimulus":5,"robot":2,"valence":"win","action":"no-go","sham":1,"trial_type":"pit-trial","trial_index":129,"time_elapsed":604768,"internal_node_id":"0.0-87.0","task_version":"battery-v0.2"},{"rune":"I","rune_set":"bacs1","hex":"#f73b6a7A","correct":32,"choice":32,"rt":782.9999999995343,"accuracy":1,"outcome":"-1","keys":[2282.9999999995343],"total_keys":1,"block":1,"trial":87,"stimulus":9,"robot":3,"valence":"lose","action":"go","sham":0,"trial_type":"pit-trial","trial_index":130,"time_elapsed":608251,"internal_node_id":"0.0-88.0","task_version":"battery-v0.2"},{"rune":"O","rune_set":"bacs1","hex":"#3366ff99","correct":32,"choice":-1,"rt":-1,"accuracy":0,"outcome":"+1","keys":[],"total_keys":0,"block":1,"trial":88,"stimulus":8,"robot":1,"valence":"win","action":"go","sham":0,"trial_type":"pit-trial","trial_index":131,"time_elapsed":612252,"internal_node_id":"0.0-89.0","task_version":"battery-v0.2"},{"rune":"O","rune_set":"bacs1","hex":"#3366ff99","correct":32,"choice":-1,"rt":-1,"accuracy":0,"outcome":"+1","keys":[],"total_keys":0,"block":1,"trial":89,"stimulus":8,"robot":1,"valence":"win","action":"go","sham":0,"trial_type":"pit-trial","trial_index":132,"time_elapsed":616254,"internal_node_id":"0.0-90.0","task_version":"battery-v0.2"},{"rune":"I","rune_set":"bacs1","hex":"#f73b6a7A","correct":32,"choice":32,"rt":479.99999999953434,"accuracy":1,"outcome":"-1","keys":[1978.9999999993015],"total_keys":1,"block":1,"trial":90,"stimulus":9,"robot":3,"valence":"lose","action":"go","sham":0,"trial_type":"pit-trial","trial_index":133,"time_elapsed":619436,"internal_node_id":"0.0-91.0","task_version":"battery-v0.2"},{"rune":"G","rune_set":"bacs1","hex":"#f73b6a7A","correct":32,"choice":-1,"rt":-1,"accuracy":0,"outcome":"-10","keys":[],"total_keys":0,"block":1,"trial":91,"stimulus":10,"robot":3,"valence":"lose","action":"go","sham":0,"trial_type":"pit-trial","trial_index":134,"time_elapsed":623437,"internal_node_id":"0.0-92.0","task_version":"battery-v0.2"},{"rune":"N","rune_set":"bacs1","hex":"#3366ff99","correct":-1,"choice":32,"rt":817.000000002794,"accuracy":0,"outcome":"+1","keys":[2317.000000002794],"total_keys":1,"block":1,"trial":92,"stimulus":11,"robot":2,"valence":"win","action":"no-go","sham":0,"trial_type":"pit-trial","trial_index":135,"time_elapsed":626955,"internal_node_id":"0.0-93.0","task_version":"battery-v0.2"},{"rune":"G","rune_set":"bacs1","hex":"#f73b6a7A","correct":32,"choice":32,"rt":706.0000000019791,"accuracy":1,"outcome":"-1","keys":[2206.000000001979],"total_keys":1,"block":1,"trial":93,"stimulus":10,"robot":3,"valence":"lose","action":"go","sham":0,"trial_type":"pit-trial","trial_index":136,"time_elapsed":630363,"internal_node_id":"0.0-94.0","task_version":"battery-v0.2"},{"rune":"I","rune_set":"bacs1","hex":"#f73b6a7A","correct":32,"choice":32,"rt":1045.9999999983702,"accuracy":1,"outcome":"-10","keys":[2557.999999997206],"total_keys":1,"block":1,"trial":94,"stimulus":9,"robot":3,"valence":"lose","action":"go","sham":1,"trial_type":"pit-trial","trial_index":137,"time_elapsed":634123,"internal_node_id":"0.0-95.0","task_version":"battery-v0.2"},{"rune":"O","rune_set":"bacs1","hex":"#3366ff99","correct":32,"choice":-1,"rt":-1,"accuracy":0,"outcome":"+10","keys":[],"total_keys":0,"block":1,"trial":95,"stimulus":8,"robot":1,"valence":"win","action":"go","sham":1,"trial_type":"pit-trial","trial_index":138,"time_elapsed":638124,"internal_node_id":"0.0-96.0","task_version":"battery-v0.2"},{"rune":"N","rune_set":"bacs1","hex":"#3366ff99","correct":-1,"choice":32,"rt":864.000000001397,"accuracy":0,"outcome":"+10","keys":[2364.000000001397],"total_keys":1,"block":1,"trial":96,"stimulus":11,"robot":2,"valence":"win","action":"no-go","sham":1,"trial_type":"pit-trial","trial_index":139,"time_elapsed":641690,"internal_node_id":"0.0-97.0","task_version":"battery-v0.2"},{"rune":"G","rune_set":"bacs1","hex":"#f73b6a7A","correct":32,"choice":-1,"rt":-1,"accuracy":0,"outcome":"-10","keys":[],"total_keys":0,"block":1,"trial":97,"stimulus":10,"robot":3,"valence":"lose","action":"go","sham":0,"trial_type":"pit-trial","trial_index":140,"time_elapsed":645692,"internal_node_id":"0.0-98.0","task_version":"battery-v0.2"},{"rune":"N","rune_set":"bacs1","hex":"#3366ff99","correct":-1,"choice":32,"rt":512.9999999990687,"accuracy":0,"outcome":"+1","keys":[2012.9999999990687],"total_keys":1,"block":1,"trial":98,"stimulus":11,"robot":2,"valence":"win","action":"no-go","sham":0,"trial_type":"pit-trial","trial_index":141,"time_elapsed":648907,"internal_node_id":"0.0-99.0","task_version":"battery-v0.2"},{"rune":"O","rune_set":"bacs1","hex":"#3366ff99","correct":32,"choice":-1,"rt":-1,"accuracy":0,"outcome":"+1","keys":[],"total_keys":0,"block":1,"trial":99,"stimulus":8,"robot":1,"valence":"win","action":"go","sham":0,"trial_type":"pit-trial","trial_index":142,"time_elapsed":652914,"internal_node_id":"0.0-100.0","task_version":"battery-v0.2"},{"rune":"I","rune_set":"bacs1","hex":"#f73b6a7A","correct":32,"choice":32,"rt":888.9999999991851,"accuracy":1,"outcome":"-10","keys":[2389.999999999418],"total_keys":1,"block":1,"trial":100,"stimulus":9,"robot":3,"valence":"lose","action":"go","sham":1,"trial_type":"pit-trial","trial_index":143,"time_elapsed":656507,"internal_node_id":"0.0-101.0","task_version":"battery-v0.2"},{"rune":"O","rune_set":"bacs1","hex":"#3366ff99","correct":32,"choice":32,"rt":394.00000000023283,"accuracy":1,"outcome":"+10","keys":[1901.9999999981374],"total_keys":1,"block":1,"trial":101,"stimulus":8,"robot":1,"valence":"win","action":"go","sham":0,"trial_type":"pit-trial","trial_index":144,"time_elapsed":659611,"internal_node_id":"0.0-102.0","task_version":"battery-v0.2"},{"rune":"I","rune_set":"bacs1","hex":"#f73b6a7A","correct":32,"choice":32,"rt":483.00000000023283,"accuracy":1,"outcome":"-1","keys":[1983.0000000002328],"total_keys":1,"block":1,"trial":102,"stimulus":9,"robot":3,"valence":"lose","action":"go","sham":0,"trial_type":"pit-trial","trial_index":145,"time_elapsed":662795,"internal_node_id":"0.0-103.0","task_version":"battery-v0.2"},{"rune":"N","rune_set":"bacs1","hex":"#3366ff99","correct":-1,"choice":32,"rt":386.0000000022119,"accuracy":0,"outcome":"+1","keys":[1886.000000002212],"total_keys":1,"block":1,"trial":103,"stimulus":11,"robot":2,"valence":"win","action":"no-go","sham":0,"trial_type":"pit-trial","trial_index":146,"time_elapsed":665883,"internal_node_id":"0.0-104.0","task_version":"battery-v0.2"},{"rune":"G","rune_set":"bacs1","hex":"#f73b6a7A","correct":32,"choice":32,"rt":688.0000000018626,"accuracy":1,"outcome":"-1","keys":[2189.0000000020955],"total_keys":1,"block":1,"trial":104,"stimulus":10,"robot":3,"valence":"lose","action":"go","sham":0,"trial_type":"pit-trial","trial_index":147,"time_elapsed":669276,"internal_node_id":"0.0-105.0","task_version":"battery-v0.2"},{"rune":"G","rune_set":"bacs1","hex":"#f73b6a7A","correct":32,"choice":32,"rt":497.99999999965075,"accuracy":1,"outcome":"-1","keys":[1997.9999999996508],"total_keys":1,"block":1,"trial":105,"stimulus":10,"robot":3,"valence":"lose","action":"go","sham":0,"trial_type":"pit-trial","trial_index":148,"time_elapsed":672475,"internal_node_id":"0.0-106.0","task_version":"battery-v0.2"},{"rune":"O","rune_set":"bacs1","hex":"#3366ff99","correct":32,"choice":32,"rt":435.00000000128057,"accuracy":1,"outcome":"+1","keys":[1935.0000000012806],"total_keys":1,"block":1,"trial":106,"stimulus":8,"robot":1,"valence":"win","action":"go","sham":1,"trial_type":"pit-trial","trial_index":149,"time_elapsed":675612,"internal_node_id":"0.0-107.0","task_version":"battery-v0.2"},{"rune":"I","rune_set":"bacs1","hex":"#f73b6a7A","correct":32,"choice":32,"rt":417.9999999979045,"accuracy":1,"outcome":"-10","keys":[1917.9999999979045],"total_keys":1,"block":1,"trial":107,"stimulus":9,"robot":3,"valence":"lose","action":"go","sham":1,"trial_type":"pit-trial","trial_index":150,"time_elapsed":678732,"internal_node_id":"0.0-108.0","task_version":"battery-v0.2"},{"rune":"N","rune_set":"bacs1","hex":"#3366ff99","correct":-1,"choice":32,"rt":498.99999999976717,"accuracy":0,"outcome":"+10","keys":[1998.9999999997672],"total_keys":1,"block":1,"trial":108,"stimulus":11,"robot":2,"valence":"win","action":"no-go","sham":1,"trial_type":"pit-trial","trial_index":151,"time_elapsed":681932,"internal_node_id":"0.0-109.0","task_version":"battery-v0.2"},{"rune":"O","rune_set":"bacs1","hex":"#3366ff99","correct":32,"choice":32,"rt":368.99999999871943,"accuracy":1,"outcome":"+1","keys":[1868.9999999987194],"total_keys":1,"block":1,"trial":109,"stimulus":8,"robot":1,"valence":"win","action":"go","sham":1,"trial_type":"pit-trial","trial_index":152,"time_elapsed":685004,"internal_node_id":"0.0-110.0","task_version":"battery-v0.2"},{"rune":"I","rune_set":"bacs1","hex":"#f73b6a7A","correct":32,"choice":32,"rt":417.9999999977881,"accuracy":1,"outcome":"-10","keys":[1917.999999997788],"total_keys":1,"block":1,"trial":110,"stimulus":9,"robot":3,"valence":"lose","action":"go","sham":1,"trial_type":"pit-trial","trial_index":153,"time_elapsed":688123,"internal_node_id":"0.0-111.0","task_version":"battery-v0.2"},{"rune":"G","rune_set":"bacs1","hex":"#f73b6a7A","correct":32,"choice":32,"rt":610.0000000005821,"accuracy":1,"outcome":"-1","keys":[2110.000000000582],"total_keys":1,"block":1,"trial":111,"stimulus":10,"robot":3,"valence":"lose","action":"go","sham":0,"trial_type":"pit-trial","trial_index":154,"time_elapsed":691435,"internal_node_id":"0.0-112.0","task_version":"battery-v0.2"},{"rune":"N","rune_set":"bacs1","hex":"#3366ff99","correct":-1,"choice":32,"rt":340.0000000001164,"accuracy":0,"outcome":"+1","keys":[1840.0000000001164],"total_keys":1,"block":1,"trial":112,"stimulus":11,"robot":2,"valence":"win","action":"no-go","sham":0,"trial_type":"pit-trial","trial_index":155,"time_elapsed":694476,"internal_node_id":"0.0-113.0","task_version":"battery-v0.2"},{"rune":"N","rune_set":"bacs1","hex":"#3366ff99","correct":-1,"choice":-1,"rt":-1,"accuracy":1,"outcome":"+10","keys":[],"total_keys":0,"block":1,"trial":113,"stimulus":11,"robot":2,"valence":"win","action":"no-go","sham":0,"trial_type":"pit-trial","trial_index":156,"time_elapsed":698477,"internal_node_id":"0.0-114.0","task_version":"battery-v0.2"},{"rune":"I","rune_set":"bacs1","hex":"#f73b6a7A","correct":32,"choice":-1,"rt":-1,"accuracy":0,"outcome":"-10","keys":[],"total_keys":0,"block":1,"trial":114,"stimulus":9,"robot":3,"valence":"lose","action":"go","sham":0,"trial_type":"pit-trial","trial_index":157,"time_elapsed":702478,"internal_node_id":"0.0-115.0","task_version":"battery-v0.2"},{"rune":"G","rune_set":"bacs1","hex":"#f73b6a7A","correct":32,"choice":32,"rt":623.9999999997672,"accuracy":1,"outcome":"-1","keys":[2123.999999999767],"total_keys":1,"block":1,"trial":115,"stimulus":10,"robot":3,"valence":"lose","action":"go","sham":0,"trial_type":"pit-trial","trial_index":158,"time_elapsed":705804,"internal_node_id":"0.0-116.0","task_version":"battery-v0.2"},{"rune":"O","rune_set":"bacs1","hex":"#3366ff99","correct":32,"choice":-1,"rt":-1,"accuracy":0,"outcome":"+1","keys":[],"total_keys":0,"block":1,"trial":116,"stimulus":8,"robot":1,"valence":"win","action":"go","sham":0,"trial_type":"pit-trial","trial_index":159,"time_elapsed":709805,"internal_node_id":"0.0-117.0","task_version":"battery-v0.2"},{"rune":"O","rune_set":"bacs1","hex":"#3366ff99","correct":32,"choice":-1,"rt":-1,"accuracy":0,"outcome":"+1","keys":[],"total_keys":0,"block":1,"trial":117,"stimulus":8,"robot":1,"valence":"win","action":"go","sham":0,"trial_type":"pit-trial","trial_index":160,"time_elapsed":713806,"internal_node_id":"0.0-118.0","task_version":"battery-v0.2"},{"rune":"N","rune_set":"bacs1","hex":"#3366ff99","correct":-1,"choice":32,"rt":592.0000000005821,"accuracy":0,"outcome":"+1","keys":[2092.000000000582],"total_keys":1,"block":1,"trial":118,"stimulus":11,"robot":2,"valence":"win","action":"no-go","sham":0,"trial_type":"pit-trial","trial_index":161,"time_elapsed":717100,"internal_node_id":"0.0-119.0","task_version":"battery-v0.2"},{"rune":"G","rune_set":"bacs1","hex":"#f73b6a7A","correct":32,"choice":32,"rt":641.9999999997672,"accuracy":1,"outcome":"-1","keys":[2141.999999999767],"total_keys":1,"block":1,"trial":119,"stimulus":10,"robot":3,"valence":"lose","action":"go","sham":0,"trial_type":"pit-trial","trial_index":162,"time_elapsed":720443,"internal_node_id":"0.0-120.0","task_version":"battery-v0.2"},{"rune":"I","rune_set":"bacs1","hex":"#f73b6a7A","correct":32,"choice":32,"rt":1062.9999999982538,"accuracy":1,"outcome":"-1","keys":[2575.0000000006985],"total_keys":1,"block":1,"trial":120,"stimulus":9,"robot":3,"valence":"lose","action":"go","sham":0,"trial_type":"pit-trial","trial_index":163,"time_elapsed":724219,"internal_node_id":"0.0-121.0","task_version":"battery-v0.2"},{"view_history":"[{\"page_index\":0,\"viewing_time\":90063.99999999849},{\"page_index\":1,\"viewing_time\":1833.0000000024447}]","rt":91897.00000000093,"trial_type":"pit-instructions","trial_index":164,"time_elapsed":816118,"internal_node_id":"0.0-122.0","task_version":"battery-v0.2"},{"rune":"C","rune_set":"bacs1","hex":"#f73b6a7A","correct":-1,"choice":32,"rt":583.0000000024447,"accuracy":0,"outcome":"-10","keys":[2083.0000000024447],"total_keys":1,"block":2,"trial":121,"stimulus":2,"robot":4,"valence":"lose","action":"no-go","sham":0,"trial_type":"pit-trial","trial_index":165,"time_elapsed":819404,"internal_node_id":"0.0-123.0","task_version":"battery-v0.2"},{"rune":"L","rune_set":"bacs1","hex":"#3366ff99","correct":32,"choice":32,"rt":434.00000000116415,"accuracy":1,"outcome":"+10","keys":[1934.0000000011642],"total_keys":1,"block":2,"trial":122,"stimulus":1,"robot":1,"valence":"win","action":"go","sham":0,"trial_type":"pit-trial","trial_index":166,"time_elapsed":822540,"internal_node_id":"0.0-124.0","task_version":"battery-v0.2"},{"rune":"Q","rune_set":"bacs1","hex":"#3366ff99","correct":-1,"choice":32,"rt":593.9999999973224,"accuracy":0,"outcome":"+1","keys":[2093.9999999973224],"total_keys":1,"block":2,"trial":123,"stimulus":0,"robot":2,"valence":"win","action":"no-go","sham":0,"trial_type":"pit-trial","trial_index":167,"time_elapsed":825836,"internal_node_id":"0.0-125.0","task_version":"battery-v0.2"},{"rune":"A","rune_set":"bacs1","hex":"#3366ff99","correct":32,"choice":32,"rt":705.0000000017462,"accuracy":1,"outcome":"+10","keys":[2206.000000001979],"total_keys":1,"block":2,"trial":124,"stimulus":3,"robot":1,"valence":"win","action":"go","sham":0,"trial_type":"pit-trial","trial_index":168,"time_elapsed":829243,"internal_node_id":"0.0-126.0","task_version":"battery-v0.2"},{"rune":"L","rune_set":"bacs1","hex":"#3366ff99","correct":32,"choice":32,"rt":497.99999999953434,"accuracy":1,"outcome":"+10","keys":[1998.9999999997672],"total_keys":1,"block":2,"trial":125,"stimulus":1,"robot":1,"valence":"win","action":"go","sham":0,"trial_type":"pit-trial","trial_index":169,"time_elapsed":832443,"internal_node_id":"0.0-127.0","task_version":"battery-v0.2"},{"rune":"A","rune_set":"bacs1","hex":"#3366ff99","correct":32,"choice":32,"rt":452.00000000104774,"accuracy":1,"outcome":"+10","keys":[1984.0000000003492],"total_keys":1,"block":2,"trial":126,"stimulus":3,"robot":1,"valence":"win","action":"go","sham":0,"trial_type":"pit-trial","trial_index":170,"time_elapsed":835628,"internal_node_id":"0.0-128.0","task_version":"battery-v0.2"},{"rune":"C","rune_set":"bacs1","hex":"#f73b6a7A","correct":-1,"choice":-1,"rt":-1,"accuracy":1,"outcome":"-1","keys":[],"total_keys":0,"block":2,"trial":127,"stimulus":2,"robot":4,"valence":"lose","action":"no-go","sham":0,"trial_type":"pit-trial","trial_index":171,"time_elapsed":839629,"internal_node_id":"0.0-129.0","task_version":"battery-v0.2"},{"rune":"Q","rune_set":"bacs1","hex":"#3366ff99","correct":-1,"choice":32,"rt":594.0000000009313,"accuracy":0,"outcome":"+1","keys":[2094.0000000009313],"total_keys":1,"block":2,"trial":128,"stimulus":0,"robot":2,"valence":"win","action":"no-go","sham":0,"trial_type":"pit-trial","trial_index":172,"time_elapsed":842924,"internal_node_id":"0.0-130.0","task_version":"battery-v0.2"},{"rune":"L","rune_set":"bacs1","hex":"#3366ff99","correct":32,"choice":32,"rt":496.9999999993015,"accuracy":1,"outcome":"+1","keys":[1996.9999999993015],"total_keys":1,"block":2,"trial":129,"stimulus":1,"robot":1,"valence":"win","action":"go","sham":1,"trial_type":"pit-trial","trial_index":173,"time_elapsed":846123,"internal_node_id":"0.0-131.0","task_version":"battery-v0.2"},{"rune":"C","rune_set":"bacs1","hex":"#f73b6a7A","correct":-1,"choice":-1,"rt":-1,"accuracy":1,"outcome":"-1","keys":[],"total_keys":0,"block":2,"trial":130,"stimulus":2,"robot":4,"valence":"lose","action":"no-go","sham":0,"trial_type":"pit-trial","trial_index":174,"time_elapsed":850125,"internal_node_id":"0.0-132.0","task_version":"battery-v0.2"},{"rune":"Q","rune_set":"bacs1","hex":"#3366ff99","correct":-1,"choice":-1,"rt":-1,"accuracy":1,"outcome":"+10","keys":[],"total_keys":0,"block":2,"trial":131,"stimulus":0,"robot":2,"valence":"win","action":"no-go","sham":0,"trial_type":"pit-trial","trial_index":175,"time_elapsed":854126,"internal_node_id":"0.0-133.0","task_version":"battery-v0.2"},{"rune":"A","rune_set":"bacs1","hex":"#3366ff99","correct":32,"choice":32,"rt":577.0000000011642,"accuracy":1,"outcome":"+10","keys":[2077.000000001164],"total_keys":1,"block":2,"trial":132,"stimulus":3,"robot":1,"valence":"win","action":"go","sham":0,"trial_type":"pit-trial","trial_index":176,"time_elapsed":857404,"internal_node_id":"0.0-134.0","task_version":"battery-v0.2"},{"rune":"L","rune_set":"bacs1","hex":"#3366ff99","correct":32,"choice":32,"rt":511.0000000022119,"accuracy":1,"outcome":"+10","keys":[2013.0000000026776],"total_keys":1,"block":2,"trial":133,"stimulus":1,"robot":1,"valence":"win","action":"go","sham":0,"trial_type":"pit-trial","trial_index":177,"time_elapsed":860620,"internal_node_id":"0.0-135.0","task_version":"battery-v0.2"},{"rune":"C","rune_set":"bacs1","hex":"#f73b6a7A","correct":-1,"choice":-1,"rt":-1,"accuracy":1,"outcome":"-1","keys":[],"total_keys":0,"block":2,"trial":134,"stimulus":2,"robot":4,"valence":"lose","action":"no-go","sham":0,"trial_type":"pit-trial","trial_index":178,"time_elapsed":864622,"internal_node_id":"0.0-136.0","task_version":"battery-v0.2"},{"rune":"Q","rune_set":"bacs1","hex":"#3366ff99","correct":-1,"choice":-1,"rt":-1,"accuracy":1,"outcome":"+10","keys":[],"total_keys":0,"block":2,"trial":135,"stimulus":0,"robot":2,"valence":"win","action":"no-go","sham":0,"trial_type":"pit-trial","trial_index":179,"time_elapsed":868624,"internal_node_id":"0.0-137.0","task_version":"battery-v0.2"},{"rune":"A","rune_set":"bacs1","hex":"#3366ff99","correct":32,"choice":32,"rt":587.9999999996508,"accuracy":1,"outcome":"+10","keys":[2088.9999999998836],"total_keys":1,"block":2,"trial":136,"stimulus":3,"robot":1,"valence":"win","action":"go","sham":0,"trial_type":"pit-trial","trial_index":180,"time_elapsed":871916,"internal_node_id":"0.0-138.0","task_version":"battery-v0.2"},{"rune":"Q","rune_set":"bacs1","hex":"#3366ff99","correct":-1,"choice":-1,"rt":-1,"accuracy":1,"outcome":"+10","keys":[],"total_keys":0,"block":2,"trial":137,"stimulus":0,"robot":2,"valence":"win","action":"no-go","sham":0,"trial_type":"pit-trial","trial_index":181,"time_elapsed":875917,"internal_node_id":"0.0-139.0","task_version":"battery-v0.2"},{"rune":"C","rune_set":"bacs1","hex":"#f73b6a7A","correct":-1,"choice":-1,"rt":-1,"accuracy":1,"outcome":"-1","keys":[],"total_keys":0,"block":2,"trial":138,"stimulus":2,"robot":4,"valence":"lose","action":"no-go","sham":0,"trial_type":"pit-trial","trial_index":182,"time_elapsed":879918,"internal_node_id":"0.0-140.0","task_version":"battery-v0.2"},{"rune":"L","rune_set":"bacs1","hex":"#3366ff99","correct":32,"choice":32,"rt":448.00000000034925,"accuracy":1,"outcome":"+10","keys":[1948.0000000003492],"total_keys":1,"block":2,"trial":139,"stimulus":1,"robot":1,"valence":"win","action":"go","sham":0,"trial_type":"pit-trial","trial_index":183,"time_elapsed":883067,"internal_node_id":"0.0-141.0","task_version":"battery-v0.2"},{"rune":"A","rune_set":"bacs1","hex":"#3366ff99","correct":32,"choice":32,"rt":562.0000000017462,"accuracy":1,"outcome":"+1","keys":[2062.0000000017462],"total_keys":1,"block":2,"trial":140,"stimulus":3,"robot":1,"valence":"win","action":"go","sham":1,"trial_type":"pit-trial","trial_index":184,"time_elapsed":886332,"internal_node_id":"0.0-142.0","task_version":"battery-v0.2"},{"rune":"A","rune_set":"bacs1","hex":"#3366ff99","correct":32,"choice":32,"rt":444.99999999965075,"accuracy":1,"outcome":"+10","keys":[1950.0000000006985],"total_keys":1,"block":2,"trial":141,"stimulus":3,"robot":1,"valence":"win","action":"go","sham":0,"trial_type":"pit-trial","trial_index":185,"time_elapsed":889484,"internal_node_id":"0.0-143.0","task_version":"battery-v0.2"},{"rune":"C","rune_set":"bacs1","hex":"#f73b6a7A","correct":-1,"choice":-1,"rt":-1,"accuracy":1,"outcome":"-1","keys":[],"total_keys":0,"block":2,"trial":142,"stimulus":2,"robot":4,"valence":"lose","action":"no-go","sham":0,"trial_type":"pit-trial","trial_index":186,"time_elapsed":893485,"internal_node_id":"0.0-144.0","task_version":"battery-v0.2"},{"rune":"Q","rune_set":"bacs1","hex":"#3366ff99","correct":-1,"choice":-1,"rt":-1,"accuracy":1,"outcome":"+10","keys":[],"total_keys":0,"block":2,"trial":143,"stimulus":0,"robot":2,"valence":"win","action":"no-go","sham":0,"trial_type":"pit-trial","trial_index":187,"time_elapsed":897486,"internal_node_id":"0.0-145.0","task_version":"battery-v0.2"},{"rune":"L","rune_set":"bacs1","hex":"#3366ff99","correct":32,"choice":32,"rt":491.9999999983702,"accuracy":1,"outcome":"+10","keys":[1995.999999999185],"total_keys":1,"block":2,"trial":144,"stimulus":1,"robot":1,"valence":"win","action":"go","sham":0,"trial_type":"pit-trial","trial_index":188,"time_elapsed":900683,"internal_node_id":"0.0-146.0","task_version":"battery-v0.2"},{"rune":"Q","rune_set":"bacs1","hex":"#3366ff99","correct":-1,"choice":-1,"rt":-1,"accuracy":1,"outcome":"+10","keys":[],"total_keys":0,"block":2,"trial":145,"stimulus":0,"robot":2,"valence":"win","action":"no-go","sham":0,"trial_type":"pit-trial","trial_index":189,"time_elapsed":904685,"internal_node_id":"0.0-147.0","task_version":"battery-v0.2"},{"rune":"C","rune_set":"bacs1","hex":"#f73b6a7A","correct":-1,"choice":-1,"rt":-1,"accuracy":1,"outcome":"-1","keys":[],"total_keys":0,"block":2,"trial":146,"stimulus":2,"robot":4,"valence":"lose","action":"no-go","sham":0,"trial_type":"pit-trial","trial_index":190,"time_elapsed":908687,"internal_node_id":"0.0-148.0","task_version":"battery-v0.2"},{"rune":"L","rune_set":"bacs1","hex":"#3366ff99","correct":32,"choice":32,"rt":463.9999999998836,"accuracy":1,"outcome":"+10","keys":[1963.9999999998836],"total_keys":1,"block":2,"trial":147,"stimulus":1,"robot":1,"valence":"win","action":"go","sham":0,"trial_type":"pit-trial","trial_index":191,"time_elapsed":911852,"internal_node_id":"0.0-149.0","task_version":"battery-v0.2"},{"rune":"A","rune_set":"bacs1","hex":"#3366ff99","correct":32,"choice":32,"rt":625,"accuracy":1,"outcome":"+10","keys":[2125],"total_keys":1,"block":2,"trial":148,"stimulus":3,"robot":1,"valence":"win","action":"go","sham":0,"trial_type":"pit-trial","trial_index":192,"time_elapsed":915179,"internal_node_id":"0.0-150.0","task_version":"battery-v0.2"},{"rune":"Q","rune_set":"bacs1","hex":"#3366ff99","correct":-1,"choice":-1,"rt":-1,"accuracy":1,"outcome":"+10","keys":[],"total_keys":0,"block":2,"trial":149,"stimulus":0,"robot":2,"valence":"win","action":"no-go","sham":0,"trial_type":"pit-trial","trial_index":193,"time_elapsed":919181,"internal_node_id":"0.0-151.0","task_version":"battery-v0.2"},{"rune":"L","rune_set":"bacs1","hex":"#3366ff99","correct":32,"choice":32,"rt":559.9999999976717,"accuracy":1,"outcome":"+10","keys":[2059.9999999976717],"total_keys":1,"block":2,"trial":150,"stimulus":1,"robot":1,"valence":"win","action":"go","sham":0,"trial_type":"pit-trial","trial_index":194,"time_elapsed":922452,"internal_node_id":"0.0-152.0","task_version":"battery-v0.2"},{"rune":"C","rune_set":"bacs1","hex":"#f73b6a7A","correct":-1,"choice":-1,"rt":-1,"accuracy":1,"outcome":"-1","keys":[],"total_keys":0,"block":2,"trial":151,"stimulus":2,"robot":4,"valence":"lose","action":"no-go","sham":0,"trial_type":"pit-trial","trial_index":195,"time_elapsed":926453,"internal_node_id":"0.0-153.0","task_version":"battery-v0.2"},{"rune":"A","rune_set":"bacs1","hex":"#3366ff99","correct":32,"choice":32,"rt":489.99999999802094,"accuracy":1,"outcome":"+10","keys":[2004.9999999973224],"total_keys":1,"block":2,"trial":152,"stimulus":3,"robot":1,"valence":"win","action":"go","sham":0,"trial_type":"pit-trial","trial_index":196,"time_elapsed":929659,"internal_node_id":"0.0-154.0","task_version":"battery-v0.2"},{"rune":"A","rune_set":"bacs1","hex":"#3366ff99","correct":32,"choice":32,"rt":546.9999999987194,"accuracy":1,"outcome":"+10","keys":[2046.9999999987194],"total_keys":1,"block":2,"trial":153,"stimulus":3,"robot":1,"valence":"win","action":"go","sham":0,"trial_type":"pit-trial","trial_index":197,"time_elapsed":932907,"internal_node_id":"0.0-155.0","task_version":"battery-v0.2"},{"rune":"C","rune_set":"bacs1","hex":"#f73b6a7A","correct":-1,"choice":-1,"rt":-1,"accuracy":1,"outcome":"-1","keys":[],"total_keys":0,"block":2,"trial":154,"stimulus":2,"robot":4,"valence":"lose","action":"no-go","sham":0,"trial_type":"pit-trial","trial_index":198,"time_elapsed":936908,"internal_node_id":"0.0-156.0","task_version":"battery-v0.2"},{"rune":"F","rune_set":"bacs1","hex":"#3366ff99","correct":32,"choice":32,"rt":771.0000000006985,"accuracy":1,"outcome":"+1","keys":[2271.0000000006985],"total_keys":1,"block":2,"trial":155,"stimulus":4,"robot":1,"valence":"win","action":"go","sham":1,"trial_type":"pit-trial","trial_index":199,"time_elapsed":940380,"internal_node_id":"0.0-157.0","task_version":"battery-v0.2"},{"rune":"Q","rune_set":"bacs1","hex":"#3366ff99","correct":-1,"choice":-1,"rt":-1,"accuracy":1,"outcome":"+1","keys":[],"total_keys":0,"block":2,"trial":156,"stimulus":0,"robot":2,"valence":"win","action":"no-go","sham":1,"trial_type":"pit-trial","trial_index":200,"time_elapsed":944381,"internal_node_id":"0.0-158.0","task_version":"battery-v0.2"},{"rune":"F","rune_set":"bacs1","hex":"#3366ff99","correct":32,"choice":-1,"rt":-1,"accuracy":0,"outcome":"+1","keys":[],"total_keys":0,"block":2,"trial":157,"stimulus":4,"robot":1,"valence":"win","action":"go","sham":0,"trial_type":"pit-trial","trial_index":201,"time_elapsed":948382,"internal_node_id":"0.0-159.0","task_version":"battery-v0.2"},{"rune":"C","rune_set":"bacs1","hex":"#f73b6a7A","correct":-1,"choice":-1,"rt":-1,"accuracy":1,"outcome":"-1","keys":[],"total_keys":0,"block":2,"trial":158,"stimulus":2,"robot":4,"valence":"lose","action":"no-go","sham":0,"trial_type":"pit-trial","trial_index":202,"time_elapsed":952383,"internal_node_id":"0.0-160.0","task_version":"battery-v0.2"},{"rune":"Q","rune_set":"bacs1","hex":"#3366ff99","correct":-1,"choice":-1,"rt":-1,"accuracy":1,"outcome":"+1","keys":[],"total_keys":0,"block":2,"trial":159,"stimulus":0,"robot":2,"valence":"win","action":"no-go","sham":1,"trial_type":"pit-trial","trial_index":203,"time_elapsed":956385,"internal_node_id":"0.0-161.0","task_version":"battery-v0.2"},{"rune":"A","rune_set":"bacs1","hex":"#3366ff99","correct":32,"choice":32,"rt":510.0000000020955,"accuracy":1,"outcome":"+10","keys":[2010.0000000020955],"total_keys":1,"block":2,"trial":160,"stimulus":3,"robot":1,"valence":"win","action":"go","sham":0,"trial_type":"pit-trial","trial_index":204,"time_elapsed":959596,"internal_node_id":"0.0-162.0","task_version":"battery-v0.2"},{"rune":"F","rune_set":"bacs1","hex":"#3366ff99","correct":32,"choice":-1,"rt":-1,"accuracy":0,"outcome":"+1","keys":[],"total_keys":0,"block":2,"trial":161,"stimulus":4,"robot":1,"valence":"win","action":"go","sham":0,"trial_type":"pit-trial","trial_index":205,"time_elapsed":963597,"internal_node_id":"0.0-163.0","task_version":"battery-v0.2"},{"rune":"Q","rune_set":"bacs1","hex":"#3366ff99","correct":-1,"choice":-1,"rt":-1,"accuracy":1,"outcome":"+10","keys":[],"total_keys":0,"block":2,"trial":162,"stimulus":0,"robot":2,"valence":"win","action":"no-go","sham":0,"trial_type":"pit-trial","trial_index":206,"time_elapsed":967598,"internal_node_id":"0.0-164.0","task_version":"battery-v0.2"},{"rune":"E","rune_set":"bacs1","hex":"#f73b6a7A","correct":-1,"choice":32,"rt":847.9999999981374,"accuracy":0,"outcome":"-10","keys":[2347.9999999981374],"total_keys":1,"block":2,"trial":163,"stimulus":6,"robot":4,"valence":"lose","action":"no-go","sham":0,"trial_type":"pit-trial","trial_index":207,"time_elapsed":971148,"internal_node_id":"0.0-165.0","task_version":"battery-v0.2"},{"rune":"T","rune_set":"bacs1","hex":"#f73b6a7A","correct":32,"choice":32,"rt":733.9999999967404,"accuracy":1,"outcome":"-10","keys":[2237.9999999975553],"total_keys":1,"block":2,"trial":164,"stimulus":5,"robot":3,"valence":"lose","action":"go","sham":1,"trial_type":"pit-trial","trial_index":208,"time_elapsed":974587,"internal_node_id":"0.0-166.0","task_version":"battery-v0.2"},{"rune":"T","rune_set":"bacs1","hex":"#f73b6a7A","correct":32,"choice":-1,"rt":-1,"accuracy":0,"outcome":"-10","keys":[],"total_keys":0,"block":2,"trial":165,"stimulus":5,"robot":3,"valence":"lose","action":"go","sham":0,"trial_type":"pit-trial","trial_index":209,"time_elapsed":978588,"internal_node_id":"0.0-167.0","task_version":"battery-v0.2"},{"rune":"Q","rune_set":"bacs1","hex":"#3366ff99","correct":-1,"choice":-1,"rt":-1,"accuracy":1,"outcome":"+10","keys":[],"total_keys":0,"block":2,"trial":166,"stimulus":0,"robot":2,"valence":"win","action":"no-go","sham":0,"trial_type":"pit-trial","trial_index":210,"time_elapsed":982590,"internal_node_id":"0.0-168.0","task_version":"battery-v0.2"},{"rune":"E","rune_set":"bacs1","hex":"#f73b6a7A","correct":-1,"choice":-1,"rt":-1,"accuracy":1,"outcome":"-1","keys":[],"total_keys":0,"block":2,"trial":167,"stimulus":6,"robot":4,"valence":"lose","action":"no-go","sham":0,"trial_type":"pit-trial","trial_index":211,"time_elapsed":986592,"internal_node_id":"0.0-169.0","task_version":"battery-v0.2"},{"rune":"F","rune_set":"bacs1","hex":"#3366ff99","correct":32,"choice":-1,"rt":-1,"accuracy":0,"outcome":"+1","keys":[],"total_keys":0,"block":2,"trial":168,"stimulus":4,"robot":1,"valence":"win","action":"go","sham":0,"trial_type":"pit-trial","trial_index":212,"time_elapsed":990593,"internal_node_id":"0.0-170.0","task_version":"battery-v0.2"},{"rune":"E","rune_set":"bacs1","hex":"#f73b6a7A","correct":-1,"choice":-1,"rt":-1,"accuracy":1,"outcome":"-1","keys":[],"total_keys":0,"block":2,"trial":169,"stimulus":6,"robot":4,"valence":"lose","action":"no-go","sham":0,"trial_type":"pit-trial","trial_index":213,"time_elapsed":994595,"internal_node_id":"0.0-171.0","task_version":"battery-v0.2"},{"rune":"V","rune_set":"bacs1","hex":"#3366ff99","correct":-1,"choice":32,"rt":843.9999999973224,"accuracy":0,"outcome":"+1","keys":[2343.9999999973224],"total_keys":1,"block":2,"trial":170,"stimulus":7,"robot":2,"valence":"win","action":"no-go","sham":0,"trial_type":"pit-trial","trial_index":214,"time_elapsed":998139,"internal_node_id":"0.0-172.0","task_version":"battery-v0.2"},{"rune":"T","rune_set":"bacs1","hex":"#f73b6a7A","correct":32,"choice":-1,"rt":-1,"accuracy":0,"outcome":"-10","keys":[],"total_keys":0,"block":2,"trial":171,"stimulus":5,"robot":3,"valence":"lose","action":"go","sham":0,"trial_type":"pit-trial","trial_index":215,"time_elapsed":1002140,"internal_node_id":"0.0-173.0","task_version":"battery-v0.2"},{"rune":"F","rune_set":"bacs1","hex":"#3366ff99","correct":32,"choice":32,"rt":1067.9999999993015,"accuracy":1,"outcome":"+10","keys":[2572.000000000233],"total_keys":1,"block":2,"trial":172,"stimulus":4,"robot":1,"valence":"win","action":"go","sham":0,"trial_type":"pit-trial","trial_index":216,"time_elapsed":1005914,"internal_node_id":"0.0-174.0","task_version":"battery-v0.2"},{"rune":"F","rune_set":"bacs1","hex":"#3366ff99","correct":32,"choice":32,"rt":513.9999999991851,"accuracy":1,"outcome":"+1","keys":[2013.999999999185],"total_keys":1,"block":2,"trial":173,"stimulus":4,"robot":1,"valence":"win","action":"go","sham":1,"trial_type":"pit-trial","trial_index":217,"time_elapsed":1009131,"internal_node_id":"0.0-175.0","task_version":"battery-v0.2"},{"rune":"E","rune_set":"bacs1","hex":"#f73b6a7A","correct":-1,"choice":-1,"rt":-1,"accuracy":1,"outcome":"-1","keys":[],"total_keys":0,"block":2,"trial":174,"stimulus":6,"robot":4,"valence":"lose","action":"no-go","sham":0,"trial_type":"pit-trial","trial_index":218,"time_elapsed":1013132,"internal_node_id":"0.0-176.0","task_version":"battery-v0.2"},{"rune":"T","rune_set":"bacs1","hex":"#f73b6a7A","correct":32,"choice":32,"rt":579.9999999981374,"accuracy":1,"outcome":"-1","keys":[2079.9999999981374],"total_keys":1,"block":2,"trial":175,"stimulus":5,"robot":3,"valence":"lose","action":"go","sham":0,"trial_type":"pit-trial","trial_index":219,"time_elapsed":1016413,"internal_node_id":"0.0-177.0","task_version":"battery-v0.2"},{"rune":"V","rune_set":"bacs1","hex":"#3366ff99","correct":-1,"choice":32,"rt":783.9999999995343,"accuracy":0,"outcome":"+1","keys":[2282.999999999418],"total_keys":1,"block":2,"trial":176,"stimulus":7,"robot":2,"valence":"win","action":"no-go","sham":0,"trial_type":"pit-trial","trial_index":220,"time_elapsed":1019899,"internal_node_id":"0.0-178.0","task_version":"battery-v0.2"},{"rune":"V","rune_set":"bacs1","hex":"#3366ff99","correct":-1,"choice":32,"rt":443.99999999953434,"accuracy":0,"outcome":"+1","keys":[1943.9999999995343],"total_keys":1,"block":2,"trial":177,"stimulus":7,"robot":2,"valence":"win","action":"no-go","sham":0,"trial_type":"pit-trial","trial_index":221,"time_elapsed":1023050,"internal_node_id":"0.0-179.0","task_version":"battery-v0.2"},{"rune":"F","rune_set":"bacs1","hex":"#3366ff99","correct":32,"choice":32,"rt":664.999999997206,"accuracy":1,"outcome":"+1","keys":[2173.9999999990687],"total_keys":1,"block":2,"trial":178,"stimulus":4,"robot":1,"valence":"win","action":"go","sham":1,"trial_type":"pit-trial","trial_index":222,"time_elapsed":1026426,"internal_node_id":"0.0-180.0","task_version":"battery-v0.2"},{"rune":"E","rune_set":"bacs1","hex":"#f73b6a7A","correct":-1,"choice":-1,"rt":-1,"accuracy":1,"outcome":"-10","keys":[],"total_keys":0,"block":2,"trial":179,"stimulus":6,"robot":4,"valence":"lose","action":"no-go","sham":1,"trial_type":"pit-trial","trial_index":223,"time_elapsed":1030427,"internal_node_id":"0.0-181.0","task_version":"battery-v0.2"},{"rune":"T","rune_set":"bacs1","hex":"#f73b6a7A","correct":32,"choice":32,"rt":673.9999999990687,"accuracy":1,"outcome":"-1","keys":[2173.9999999990687],"total_keys":1,"block":2,"trial":180,"stimulus":5,"robot":3,"valence":"lose","action":"go","sham":0,"trial_type":"pit-trial","trial_index":224,"time_elapsed":1033803,"internal_node_id":"0.0-182.0","task_version":"battery-v0.2"},{"rune":"T","rune_set":"bacs1","hex":"#f73b6a7A","correct":32,"choice":32,"rt":577.0000000011642,"accuracy":1,"outcome":"-1","keys":[2078.0000000012806],"total_keys":1,"block":2,"trial":181,"stimulus":5,"robot":3,"valence":"lose","action":"go","sham":0,"trial_type":"pit-trial","trial_index":225,"time_elapsed":1037083,"internal_node_id":"0.0-183.0","task_version":"battery-v0.2"},{"rune":"V","rune_set":"bacs1","hex":"#3366ff99","correct":-1,"choice":-1,"rt":-1,"accuracy":1,"outcome":"+10","keys":[],"total_keys":0,"block":2,"trial":182,"stimulus":7,"robot":2,"valence":"win","action":"no-go","sham":0,"trial_type":"pit-trial","trial_index":226,"time_elapsed":1041084,"internal_node_id":"0.0-184.0","task_version":"battery-v0.2"},{"rune":"F","rune_set":"bacs1","hex":"#3366ff99","correct":32,"choice":32,"rt":656.9999999993015,"accuracy":1,"outcome":"+10","keys":[2156.9999999993015],"total_keys":1,"block":2,"trial":183,"stimulus":4,"robot":1,"valence":"win","action":"go","sham":0,"trial_type":"pit-trial","trial_index":227,"time_elapsed":1044442,"internal_node_id":"0.0-185.0","task_version":"battery-v0.2"},{"rune":"E","rune_set":"bacs1","hex":"#f73b6a7A","correct":-1,"choice":-1,"rt":-1,"accuracy":1,"outcome":"-1","keys":[],"total_keys":0,"block":2,"trial":184,"stimulus":6,"robot":4,"valence":"lose","action":"no-go","sham":0,"trial_type":"pit-trial","trial_index":228,"time_elapsed":1048443,"internal_node_id":"0.0-186.0","task_version":"battery-v0.2"},{"rune":"F","rune_set":"bacs1","hex":"#3366ff99","correct":32,"choice":32,"rt":434.0000000009313,"accuracy":1,"outcome":"+1","keys":[1934.0000000009313],"total_keys":1,"block":2,"trial":185,"stimulus":4,"robot":1,"valence":"win","action":"go","sham":1,"trial_type":"pit-trial","trial_index":229,"time_elapsed":1051579,"internal_node_id":"0.0-187.0","task_version":"battery-v0.2"},{"rune":"V","rune_set":"bacs1","hex":"#3366ff99","correct":-1,"choice":32,"rt":658.9999999997672,"accuracy":0,"outcome":"+1","keys":[2157.9999999995343],"total_keys":1,"block":2,"trial":186,"stimulus":7,"robot":2,"valence":"win","action":"no-go","sham":0,"trial_type":"pit-trial","trial_index":230,"time_elapsed":1054939,"internal_node_id":"0.0-188.0","task_version":"battery-v0.2"},{"rune":"T","rune_set":"bacs1","hex":"#f73b6a7A","correct":32,"choice":32,"rt":514.0000000030268,"accuracy":1,"outcome":"-1","keys":[2014.0000000030268],"total_keys":1,"block":2,"trial":187,"stimulus":5,"robot":3,"valence":"lose","action":"go","sham":0,"trial_type":"pit-trial","trial_index":231,"time_elapsed":1058155,"internal_node_id":"0.0-189.0","task_version":"battery-v0.2"},{"rune":"E","rune_set":"bacs1","hex":"#f73b6a7A","correct":-1,"choice":-1,"rt":-1,"accuracy":1,"outcome":"-1","keys":[],"total_keys":0,"block":2,"trial":188,"stimulus":6,"robot":4,"valence":"lose","action":"no-go","sham":0,"trial_type":"pit-trial","trial_index":232,"time_elapsed":1062156,"internal_node_id":"0.0-190.0","task_version":"battery-v0.2"},{"rune":"E","rune_set":"bacs1","hex":"#f73b6a7A","correct":-1,"choice":-1,"rt":-1,"accuracy":1,"outcome":"-10","keys":[],"total_keys":0,"block":2,"trial":189,"stimulus":6,"robot":4,"valence":"lose","action":"no-go","sham":1,"trial_type":"pit-trial","trial_index":233,"time_elapsed":1066157,"internal_node_id":"0.0-191.0","task_version":"battery-v0.2"},{"rune":"F","rune_set":"bacs1","hex":"#3366ff99","correct":32,"choice":32,"rt":535,"accuracy":1,"outcome":"+1","keys":[2046.0000000020955],"total_keys":1,"block":2,"trial":190,"stimulus":4,"robot":1,"valence":"win","action":"go","sham":1,"trial_type":"pit-trial","trial_index":234,"time_elapsed":1069404,"internal_node_id":"0.0-192.0","task_version":"battery-v0.2"},{"rune":"V","rune_set":"bacs1","hex":"#3366ff99","correct":-1,"choice":-1,"rt":-1,"accuracy":1,"outcome":"+10","keys":[],"total_keys":0,"block":2,"trial":191,"stimulus":7,"robot":2,"valence":"win","action":"no-go","sham":0,"trial_type":"pit-trial","trial_index":235,"time_elapsed":1073405,"internal_node_id":"0.0-193.0","task_version":"battery-v0.2"},{"rune":"T","rune_set":"bacs1","hex":"#f73b6a7A","correct":32,"choice":32,"rt":625,"accuracy":1,"outcome":"-1","keys":[2125],"total_keys":1,"block":2,"trial":192,"stimulus":5,"robot":3,"valence":"lose","action":"go","sham":0,"trial_type":"pit-trial","trial_index":236,"time_elapsed":1076731,"internal_node_id":"0.0-194.0","task_version":"battery-v0.2"},{"rune":"R","rune_set":"bacs1","hex":"#f73b6a7A","correct":32,"choice":32,"rt":1171.999999998603,"accuracy":1,"outcome":"-1","keys":[2671.999999998603],"total_keys":1,"block":2,"trial":193,"stimulus":8,"robot":3,"valence":"lose","action":"go","sham":0,"trial_type":"pit-trial","trial_index":237,"time_elapsed":1080604,"internal_node_id":"0.0-195.0","task_version":"battery-v0.2"},{"rune":"E","rune_set":"bacs1","hex":"#f73b6a7A","correct":-1,"choice":-1,"rt":-1,"accuracy":1,"outcome":"-1","keys":[],"total_keys":0,"block":2,"trial":194,"stimulus":6,"robot":4,"valence":"lose","action":"no-go","sham":0,"trial_type":"pit-trial","trial_index":238,"time_elapsed":1084610,"internal_node_id":"0.0-196.0","task_version":"battery-v0.2"},{"rune":"V","rune_set":"bacs1","hex":"#3366ff99","correct":-1,"choice":-1,"rt":-1,"accuracy":1,"outcome":"+10","keys":[],"total_keys":0,"block":2,"trial":195,"stimulus":7,"robot":2,"valence":"win","action":"no-go","sham":0,"trial_type":"pit-trial","trial_index":239,"time_elapsed":1088612,"internal_node_id":"0.0-197.0","task_version":"battery-v0.2"},{"rune":"F","rune_set":"bacs1","hex":"#3366ff99","correct":32,"choice":-1,"rt":-1,"accuracy":0,"outcome":"+1","keys":[],"total_keys":0,"block":2,"trial":196,"stimulus":4,"robot":1,"valence":"win","action":"go","sham":0,"trial_type":"pit-trial","trial_index":240,"time_elapsed":1092613,"internal_node_id":"0.0-198.0","task_version":"battery-v0.2"},{"rune":"F","rune_set":"bacs1","hex":"#3366ff99","correct":32,"choice":-1,"rt":-1,"accuracy":0,"outcome":"+1","keys":[],"total_keys":0,"block":2,"trial":197,"stimulus":4,"robot":1,"valence":"win","action":"go","sham":0,"trial_type":"pit-trial","trial_index":241,"time_elapsed":1096614,"internal_node_id":"0.0-199.0","task_version":"battery-v0.2"},{"rune":"E","rune_set":"bacs1","hex":"#f73b6a7A","correct":-1,"choice":-1,"rt":-1,"accuracy":1,"outcome":"-1","keys":[],"total_keys":0,"block":2,"trial":198,"stimulus":6,"robot":4,"valence":"lose","action":"no-go","sham":0,"trial_type":"pit-trial","trial_index":242,"time_elapsed":1100616,"internal_node_id":"0.0-200.0","task_version":"battery-v0.2"},{"rune":"R","rune_set":"bacs1","hex":"#f73b6a7A","correct":32,"choice":32,"rt":614.000000001397,"accuracy":1,"outcome":"-1","keys":[2114.9999999979045],"total_keys":1,"block":2,"trial":199,"stimulus":8,"robot":3,"valence":"lose","action":"go","sham":0,"trial_type":"pit-trial","trial_index":243,"time_elapsed":1103932,"internal_node_id":"0.0-201.0","task_version":"battery-v0.2"},{"rune":"V","rune_set":"bacs1","hex":"#3366ff99","correct":-1,"choice":-1,"rt":-1,"accuracy":1,"outcome":"+10","keys":[],"total_keys":0,"block":2,"trial":200,"stimulus":7,"robot":2,"valence":"win","action":"no-go","sham":0,"trial_type":"pit-trial","trial_index":244,"time_elapsed":1107933,"internal_node_id":"0.0-202.0","task_version":"battery-v0.2"},{"rune":"R","rune_set":"bacs1","hex":"#f73b6a7A","correct":32,"choice":32,"rt":623.9999999997672,"accuracy":1,"outcome":"-1","keys":[2123.999999999767],"total_keys":1,"block":2,"trial":201,"stimulus":8,"robot":3,"valence":"lose","action":"go","sham":0,"trial_type":"pit-trial","trial_index":245,"time_elapsed":1111260,"internal_node_id":"0.0-203.0","task_version":"battery-v0.2"},{"rune":"J","rune_set":"bacs1","hex":"#f73b6a7A","correct":32,"choice":32,"rt":734.0000000002328,"accuracy":1,"outcome":"-10","keys":[2238.000000001164],"total_keys":1,"block":2,"trial":202,"stimulus":9,"robot":3,"valence":"lose","action":"go","sham":1,"trial_type":"pit-trial","trial_index":246,"time_elapsed":1114699,"internal_node_id":"0.0-204.0","task_version":"battery-v0.2"},{"rune":"E","rune_set":"bacs1","hex":"#f73b6a7A","correct":-1,"choice":-1,"rt":-1,"accuracy":1,"outcome":"-1","keys":[],"total_keys":0,"block":2,"trial":203,"stimulus":6,"robot":4,"valence":"lose","action":"no-go","sham":0,"trial_type":"pit-trial","trial_index":247,"time_elapsed":1118700,"internal_node_id":"0.0-205.0","task_version":"battery-v0.2"},{"rune":"V","rune_set":"bacs1","hex":"#3366ff99","correct":-1,"choice":-1,"rt":-1,"accuracy":1,"outcome":"+10","keys":[],"total_keys":0,"block":2,"trial":204,"stimulus":7,"robot":2,"valence":"win","action":"no-go","sham":0,"trial_type":"pit-trial","trial_index":248,"time_elapsed":1122701,"internal_node_id":"0.0-206.0","task_version":"battery-v0.2"},{"rune":"J","rune_set":"bacs1","hex":"#f73b6a7A","correct":32,"choice":-1,"rt":-1,"accuracy":0,"outcome":"-10","keys":[],"total_keys":0,"block":2,"trial":205,"stimulus":9,"robot":3,"valence":"lose","action":"go","sham":0,"trial_type":"pit-trial","trial_index":249,"time_elapsed":1126703,"internal_node_id":"0.0-207.0","task_version":"battery-v0.2"},{"rune":"V","rune_set":"bacs1","hex":"#3366ff99","correct":-1,"choice":-1,"rt":-1,"accuracy":1,"outcome":"+10","keys":[],"total_keys":0,"block":2,"trial":206,"stimulus":7,"robot":2,"valence":"win","action":"no-go","sham":0,"trial_type":"pit-trial","trial_index":250,"time_elapsed":1130705,"internal_node_id":"0.0-208.0","task_version":"battery-v0.2"},{"rune":"R","rune_set":"bacs1","hex":"#f73b6a7A","correct":32,"choice":32,"rt":828.0000000011642,"accuracy":1,"outcome":"-1","keys":[2328.000000001164],"total_keys":1,"block":2,"trial":207,"stimulus":8,"robot":3,"valence":"lose","action":"go","sham":0,"trial_type":"pit-trial","trial_index":251,"time_elapsed":1134245,"internal_node_id":"0.0-209.0","task_version":"battery-v0.2"},{"rune":"E","rune_set":"bacs1","hex":"#f73b6a7A","correct":-1,"choice":-1,"rt":-1,"accuracy":1,"outcome":"-1","keys":[],"total_keys":0,"block":2,"trial":208,"stimulus":6,"robot":4,"valence":"lose","action":"no-go","sham":0,"trial_type":"pit-trial","trial_index":252,"time_elapsed":1138246,"internal_node_id":"0.0-210.0","task_version":"battery-v0.2"},{"rune":"J","rune_set":"bacs1","hex":"#f73b6a7A","correct":32,"choice":32,"rt":854.9999999995343,"accuracy":1,"outcome":"-1","keys":[2354.9999999995343],"total_keys":1,"block":2,"trial":209,"stimulus":9,"robot":3,"valence":"lose","action":"go","sham":0,"trial_type":"pit-trial","trial_index":253,"time_elapsed":1141802,"internal_node_id":"0.0-211.0","task_version":"battery-v0.2"},{"rune":"R","rune_set":"bacs1","hex":"#f73b6a7A","correct":32,"choice":32,"rt":513.9999999993015,"accuracy":1,"outcome":"-1","keys":[2013.9999999993015],"total_keys":1,"block":2,"trial":210,"stimulus":8,"robot":3,"valence":"lose","action":"go","sham":0,"trial_type":"pit-trial","trial_index":254,"time_elapsed":1145019,"internal_node_id":"0.0-212.0","task_version":"battery-v0.2"},{"rune":"B","rune_set":"bacs1","hex":"#3366ff99","correct":-1,"choice":32,"rt":689.999999998603,"accuracy":0,"outcome":"+1","keys":[2188.99999999837],"total_keys":1,"block":2,"trial":211,"stimulus":11,"robot":2,"valence":"win","action":"no-go","sham":0,"trial_type":"pit-trial","trial_index":255,"time_elapsed":1148410,"internal_node_id":"0.0-213.0","task_version":"battery-v0.2"},{"rune":"Z","rune_set":"bacs1","hex":"#f73b6a7A","correct":-1,"choice":32,"rt":693.9999999995343,"accuracy":0,"outcome":"-10","keys":[2207.999999998836],"total_keys":1,"block":2,"trial":212,"stimulus":10,"robot":4,"valence":"lose","action":"no-go","sham":0,"trial_type":"pit-trial","trial_index":256,"time_elapsed":1151819,"internal_node_id":"0.0-214.0","task_version":"battery-v0.2"},{"rune":"J","rune_set":"bacs1","hex":"#f73b6a7A","correct":32,"choice":32,"rt":707.0000000020955,"accuracy":1,"outcome":"-10","keys":[2207.0000000020955],"total_keys":1,"block":2,"trial":213,"stimulus":9,"robot":3,"valence":"lose","action":"go","sham":1,"trial_type":"pit-trial","trial_index":257,"time_elapsed":1155227,"internal_node_id":"0.0-215.0","task_version":"battery-v0.2"},{"rune":"R","rune_set":"bacs1","hex":"#f73b6a7A","correct":32,"choice":32,"rt":592.0000000006985,"accuracy":1,"outcome":"-1","keys":[2093.0000000009313],"total_keys":1,"block":2,"trial":214,"stimulus":8,"robot":3,"valence":"lose","action":"go","sham":0,"trial_type":"pit-trial","trial_index":258,"time_elapsed":1158523,"internal_node_id":"0.0-216.0","task_version":"battery-v0.2"},{"rune":"B","rune_set":"bacs1","hex":"#3366ff99","correct":-1,"choice":32,"rt":628.0000000006985,"accuracy":0,"outcome":"+1","keys":[2142],"total_keys":1,"block":2,"trial":215,"stimulus":11,"robot":2,"valence":"win","action":"no-go","sham":0,"trial_type":"pit-trial","trial_index":259,"time_elapsed":1161866,"internal_node_id":"0.0-217.0","task_version":"battery-v0.2"},{"rune":"Z","rune_set":"bacs1","hex":"#f73b6a7A","correct":-1,"choice":-1,"rt":-1,"accuracy":1,"outcome":"-1","keys":[],"total_keys":0,"block":2,"trial":216,"stimulus":10,"robot":4,"valence":"lose","action":"no-go","sham":0,"trial_type":"pit-trial","trial_index":260,"time_elapsed":1165868,"internal_node_id":"0.0-218.0","task_version":"battery-v0.2"},{"rune":"R","rune_set":"bacs1","hex":"#f73b6a7A","correct":32,"choice":32,"rt":654.0000000023283,"accuracy":1,"outcome":"-1","keys":[2154.0000000023283],"total_keys":1,"block":2,"trial":217,"stimulus":8,"robot":3,"valence":"lose","action":"go","sham":0,"trial_type":"pit-trial","trial_index":261,"time_elapsed":1169227,"internal_node_id":"0.0-219.0","task_version":"battery-v0.2"},{"rune":"J","rune_set":"bacs1","hex":"#f73b6a7A","correct":32,"choice":-1,"rt":-1,"accuracy":0,"outcome":"-1","keys":[],"total_keys":0,"block":2,"trial":218,"stimulus":9,"robot":3,"valence":"lose","action":"go","sham":1,"trial_type":"pit-trial","trial_index":262,"time_elapsed":1173229,"internal_node_id":"0.0-220.0","task_version":"battery-v0.2"},{"rune":"B","rune_set":"bacs1","hex":"#3366ff99","correct":-1,"choice":-1,"rt":-1,"accuracy":1,"outcome":"+10","keys":[],"total_keys":0,"block":2,"trial":219,"stimulus":11,"robot":2,"valence":"win","action":"no-go","sham":0,"trial_type":"pit-trial","trial_index":263,"time_elapsed":1177231,"internal_node_id":"0.0-221.0","task_version":"battery-v0.2"},{"rune":"Z","rune_set":"bacs1","hex":"#f73b6a7A","correct":-1,"choice":-1,"rt":-1,"accuracy":1,"outcome":"-1","keys":[],"total_keys":0,"block":2,"trial":220,"stimulus":10,"robot":4,"valence":"lose","action":"no-go","sham":0,"trial_type":"pit-trial","trial_index":264,"time_elapsed":1181232,"internal_node_id":"0.0-222.0","task_version":"battery-v0.2"},{"rune":"B","rune_set":"bacs1","hex":"#3366ff99","correct":-1,"choice":-1,"rt":-1,"accuracy":1,"outcome":"+10","keys":[],"total_keys":0,"block":2,"trial":221,"stimulus":11,"robot":2,"valence":"win","action":"no-go","sham":0,"trial_type":"pit-trial","trial_index":265,"time_elapsed":1185235,"internal_node_id":"0.0-223.0","task_version":"battery-v0.2"},{"rune":"Z","rune_set":"bacs1","hex":"#f73b6a7A","correct":-1,"choice":-1,"rt":-1,"accuracy":1,"outcome":"-1","keys":[],"total_keys":0,"block":2,"trial":222,"stimulus":10,"robot":4,"valence":"lose","action":"no-go","sham":0,"trial_type":"pit-trial","trial_index":266,"time_elapsed":1189236,"internal_node_id":"0.0-224.0","task_version":"battery-v0.2"},{"rune":"R","rune_set":"bacs1","hex":"#f73b6a7A","correct":32,"choice":32,"rt":744.9999999990687,"accuracy":1,"outcome":"-1","keys":[2245.9999999993015],"total_keys":1,"block":2,"trial":223,"stimulus":8,"robot":3,"valence":"lose","action":"go","sham":0,"trial_type":"pit-trial","trial_index":267,"time_elapsed":1192684,"internal_node_id":"0.0-225.0","task_version":"battery-v0.2"},{"rune":"J","rune_set":"bacs1","hex":"#f73b6a7A","correct":32,"choice":-1,"rt":-1,"accuracy":0,"outcome":"-10","keys":[],"total_keys":0,"block":2,"trial":224,"stimulus":9,"robot":3,"valence":"lose","action":"go","sham":0,"trial_type":"pit-trial","trial_index":268,"time_elapsed":1196685,"internal_node_id":"0.0-226.0","task_version":"battery-v0.2"},{"rune":"R","rune_set":"bacs1","hex":"#f73b6a7A","correct":32,"choice":32,"rt":879.999999997206,"accuracy":1,"outcome":"-1","keys":[2379.999999997206],"total_keys":1,"block":2,"trial":225,"stimulus":8,"robot":3,"valence":"lose","action":"go","sham":0,"trial_type":"pit-trial","trial_index":269,"time_elapsed":1200268,"internal_node_id":"0.0-227.0","task_version":"battery-v0.2"},{"rune":"Z","rune_set":"bacs1","hex":"#f73b6a7A","correct":-1,"choice":-1,"rt":-1,"accuracy":1,"outcome":"-1","keys":[],"total_keys":0,"block":2,"trial":226,"stimulus":10,"robot":4,"valence":"lose","action":"no-go","sham":0,"trial_type":"pit-trial","trial_index":270,"time_elapsed":1204269,"internal_node_id":"0.0-228.0","task_version":"battery-v0.2"},{"rune":"B","rune_set":"bacs1","hex":"#3366ff99","correct":-1,"choice":-1,"rt":-1,"accuracy":1,"outcome":"+1","keys":[],"total_keys":0,"block":2,"trial":227,"stimulus":11,"robot":2,"valence":"win","action":"no-go","sham":1,"trial_type":"pit-trial","trial_index":271,"time_elapsed":1208270,"internal_node_id":"0.0-229.0","task_version":"battery-v0.2"},{"rune":"J","rune_set":"bacs1","hex":"#f73b6a7A","correct":32,"choice":-1,"rt":-1,"accuracy":0,"outcome":"-10","keys":[],"total_keys":0,"block":2,"trial":228,"stimulus":9,"robot":3,"valence":"lose","action":"go","sham":0,"trial_type":"pit-trial","trial_index":272,"time_elapsed":1212271,"internal_node_id":"0.0-230.0","task_version":"battery-v0.2"},{"rune":"B","rune_set":"bacs1","hex":"#3366ff99","correct":-1,"choice":-1,"rt":-1,"accuracy":1,"outcome":"+10","keys":[],"total_keys":0,"block":2,"trial":229,"stimulus":11,"robot":2,"valence":"win","action":"no-go","sham":0,"trial_type":"pit-trial","trial_index":273,"time_elapsed":1216273,"internal_node_id":"0.0-231.0","task_version":"battery-v0.2"},{"rune":"Z","rune_set":"bacs1","hex":"#f73b6a7A","correct":-1,"choice":-1,"rt":-1,"accuracy":1,"outcome":"-1","keys":[],"total_keys":0,"block":2,"trial":230,"stimulus":10,"robot":4,"valence":"lose","action":"no-go","sham":0,"trial_type":"pit-trial","trial_index":274,"time_elapsed":1220275,"internal_node_id":"0.0-232.0","task_version":"battery-v0.2"},{"rune":"J","rune_set":"bacs1","hex":"#f73b6a7A","correct":32,"choice":-1,"rt":-1,"accuracy":0,"outcome":"-10","keys":[],"total_keys":0,"block":2,"trial":231,"stimulus":9,"robot":3,"valence":"lose","action":"go","sham":0,"trial_type":"pit-trial","trial_index":275,"time_elapsed":1224277,"internal_node_id":"0.0-233.0","task_version":"battery-v0.2"},{"rune":"R","rune_set":"bacs1","hex":"#f73b6a7A","correct":32,"choice":32,"rt":680.9999999969732,"accuracy":1,"outcome":"-1","keys":[2197.000000000233],"total_keys":1,"block":2,"trial":232,"stimulus":8,"robot":3,"valence":"lose","action":"go","sham":0,"trial_type":"pit-trial","trial_index":276,"time_elapsed":1227676,"internal_node_id":"0.0-234.0","task_version":"battery-v0.2"},{"rune":"R","rune_set":"bacs1","hex":"#f73b6a7A","correct":32,"choice":-1,"rt":-1,"accuracy":0,"outcome":"-10","keys":[],"total_keys":0,"block":2,"trial":233,"stimulus":8,"robot":3,"valence":"lose","action":"go","sham":0,"trial_type":"pit-trial","trial_index":277,"time_elapsed":1231678,"internal_node_id":"0.0-235.0","task_version":"battery-v0.2"},{"rune":"J","rune_set":"bacs1","hex":"#f73b6a7A","correct":32,"choice":-1,"rt":-1,"accuracy":0,"outcome":"-10","keys":[],"total_keys":0,"block":2,"trial":234,"stimulus":9,"robot":3,"valence":"lose","action":"go","sham":0,"trial_type":"pit-trial","trial_index":278,"time_elapsed":1235680,"internal_node_id":"0.0-236.0","task_version":"battery-v0.2"},{"rune":"Z",