[{"view_history":"[{\"page_index\":0,\"viewing_time\":2898.0000000447035},{\"page_index\":1,\"viewing_time\":1461.0000000102445},{\"page_index\":2,\"viewing_time\":1576.0000000009313},{\"page_index\":3,\"viewing_time\":1706.99999993667},{\"page_index\":4,\"viewing_time\":2185.0000000558794},{\"page_index\":5,\"viewing_time\":1192.9999999701977},{\"page_index\":6,\"viewing_time\":1439.0000000130385},{\"page_index\":7,\"viewing_time\":3060.9999999869615},{\"page_index\":8,\"viewing_time\":1422.000000020489},{\"page_index\":9,\"viewing_time\":10976.000000024214}]","rt":27922.00000002049,"trial_type":"pit-instructions","trial_index":0,"time_elapsed":27963,"internal_node_id":"0.0-0.0-0.0","task_version":"battery-v0.2"},{"rune":"1","rune_set":"elianto","hex":"#3366ff99","correct":32,"choice":-1,"rt":-1,"accuracy":0,"outcome":"+1","keys":[],"total_keys":0,"block":0,"practice":1,"trial_type":"pit-trial","trial_index":1,"time_elapsed":31989,"internal_node_id":"0.0-0.0-1.0-0.0","task_version":"battery-v0.2"},{"rune":"1","rune_set":"elianto","hex":"#3366ff99","correct":32,"choice":-1,"rt":-1,"accuracy":0,"outcome":"+1","keys":[],"total_keys":0,"block":0,"practice":1,"trial_type":"pit-trial","trial_index":2,"time_elapsed":36003,"internal_node_id":"0.0-0.0-1.1-0.1","task_version":"battery-v0.2"},{"rune":"1","rune_set":"elianto","hex":"#3366ff99","correct":32,"choice":-1,"rt":-1,"accuracy":0,"outcome":"+1","keys":[],"total_keys":0,"block":0,"practice":1,"trial_type":"pit-trial","trial_index":3,"time_elapsed":40008,"internal_node_id":"0.0-0.0-1.2-0.2","task_version":"battery-v0.2"},{"rune":"1","rune_set":"elianto","hex":"#3366ff99","correct":32,"choice":-1,"rt":-1,"accuracy":0,"outcome":"+1","keys":[],"total_keys":0,"block":0,"practice":1,"trial_type":"pit-trial","trial_index":4,"time_elapsed":44012,"internal_node_id":"0.0-0.0-1.3-0.3","task_version":"battery-v0.2"},{"rune":"1","rune_set":"elianto","hex":"#3366ff99","correct":32,"choice":-1,"rt":-1,"accuracy":0,"outcome":"+1","keys":[],"total_keys":0,"block":0,"practice":1,"trial_type":"pit-trial","trial_index":5,"time_elapsed":48014,"internal_node_id":"0.0-0.0-1.4-0.4","task_version":"battery-v0.2"},{"rune":"1","rune_set":"elianto","hex":"#3366ff99","correct":32,"choice":-1,"rt":-1,"accuracy":0,"outcome":"+1","keys":[],"total_keys":0,"block":0,"practice":1,"trial_type":"pit-trial","trial_index":6,"time_elapsed":52025,"internal_node_id":"0.0-0.0-1.5-0.5","task_version":"battery-v0.2"},{"rune":"1","rune_set":"elianto","hex":"#3366ff99","correct":32,"choice":-1,"rt":-1,"accuracy":0,"outcome":"+1","keys":[],"total_keys":0,"block":0,"practice":1,"trial_type":"pit-trial","trial_index":7,"time_elapsed":56045,"internal_node_id":"0.0-0.0-1.6-0.6","task_version":"battery-v0.2"},{"rune":"1","rune_set":"elianto","hex":"#3366ff99","correct":32,"choice":-1,"rt":-1,"accuracy":0,"outcome":"+1","keys":[],"total_keys":0,"block":0,"practice":1,"trial_type":"pit-trial","trial_index":8,"time_elapsed":60051,"internal_node_id":"0.0-0.0-1.7-0.7","task_version":"battery-v0.2"},{"rune":"1","rune_set":"elianto","hex":"#3366ff99","correct":32,"choice":-1,"rt":-1,"accuracy":0,"outcome":"+1","keys":[],"total_keys":0,"block":0,"practice":1,"trial_type":"pit-trial","trial_index":9,"time_elapsed":64061,"internal_node_id":"0.0-0.0-1.8-0.8","task_version":"battery-v0.2"},{"rune":"1","rune_set":"elianto","hex":"#3366ff99","correct":32,"choice":-1,"rt":-1,"accuracy":0,"outcome":"+1","keys":[],"total_keys":0,"block":0,"practice":1,"trial_type":"pit-trial","trial_index":10,"time_elapsed":68068,"internal_node_id":"0.0-0.0-1.9-0.9","task_version":"battery-v0.2"},{"rune":"1","rune_set":"elianto","hex":"#3366ff99","correct":32,"choice":-1,"rt":-1,"accuracy":0,"outcome":"+1","keys":[],"total_keys":0,"block":0,"practice":1,"trial_type":"pit-trial","trial_index":11,"time_elapsed":72074,"internal_node_id":"0.0-0.0-1.10-0.10","task_version":"battery-v0.2"},{"rune":"1","rune_set":"elianto","hex":"#3366ff99","correct":32,"choice":-1,"rt":-1,"accuracy":0,"outcome":"+1","keys":[],"total_keys":0,"block":0,"practice":1,"trial_type":"pit-trial","trial_index":12,"time_elapsed":76083,"internal_node_id":"0.0-0.0-1.11-0.11","task_version":"battery-v0.2"},{"rune":"1","rune_set":"elianto","hex":"#3366ff99","correct":32,"choice":-1,"rt":-1,"accuracy":0,"outcome":"+1","keys":[],"total_keys":0,"block":0,"practice":1,"trial_type":"pit-trial","trial_index":13,"time_elapsed":80088,"internal_node_id":"0.0-0.0-1.12-0.12","task_version":"battery-v0.2"},{"rune":"1","rune_set":"elianto","hex":"#3366ff99","correct":32,"choice":-1,"rt":-1,"accuracy":0,"outcome":"+1","keys":[],"total_keys":0,"block":0,"practice":1,"trial_type":"pit-trial","trial_index":14,"time_elapsed":84092,"internal_node_id":"0.0-0.0-1.13-0.13","task_version":"battery-v0.2"},{"rune":"1","rune_set":"elianto","hex":"#3366ff99","correct":32,"choice":-1,"rt":-1,"accuracy":0,"outcome":"+1","keys":[],"total_keys":0,"block":0,"practice":1,"trial_type":"pit-trial","trial_index":15,"time_elapsed":88098,"internal_node_id":"0.0-0.0-1.14-0.14","task_version":"battery-v0.2"},{"rune":"1","rune_set":"elianto","hex":"#3366ff99","correct":32,"choice":-1,"rt":-1,"accuracy":0,"outcome":"+1","keys":[],"total_keys":0,"block":0,"practice":1,"trial_type":"pit-trial","trial_index":16,"time_elapsed":92103,"internal_node_id":"0.0-0.0-1.15-0.15","task_version":"battery-v0.2"},{"rune":"1","rune_set":"elianto","hex":"#3366ff99","correct":32,"choice":-1,"rt":-1,"accuracy":0,"outcome":"+1","keys":[],"total_keys":0,"block":0,"practice":1,"trial_type":"pit-trial","trial_index":17,"time_elapsed":96114,"internal_node_id":"0.0-0.0-1.16-0.16","task_version":"battery-v0.2"},{"rune":"1","rune_set":"elianto","hex":"#3366ff99","correct":32,"choice":-1,"rt":-1,"accuracy":0,"outcome":"+1","keys":[],"total_keys":0,"block":0,"practice":1,"trial_type":"pit-trial","trial_index":18,"time_elapsed":100116,"internal_node_id":"0.0-0.0-1.17-0.17","task_version":"battery-v0.2"},{"rune":"1","rune_set":"elianto","hex":"#3366ff99","correct":32,"choice":-1,"rt":-1,"accuracy":0,"outcome":"+1","keys":[],"total_keys":0,"block":0,"practice":1,"trial_type":"pit-trial","trial_index":19,"time_elapsed":104118,"internal_node_id":"0.0-0.0-1.18-0.18","task_version":"battery-v0.2"},{"rune":"1","rune_set":"elianto","hex":"#3366ff99","correct":32,"choice":-1,"rt":-1,"accuracy":0,"outcome":"+1","keys":[],"total_keys":0,"block":0,"practice":1,"trial_type":"pit-trial","trial_index":20,"time_elapsed":108121,"internal_node_id":"0.0-0.0-1.19-0.19","task_version":"battery-v0.2"},{"rune":"1","rune_set":"elianto","hex":"#3366ff99","correct":32,"choice":-1,"rt":-1,"accuracy":0,"outcome":"+1","keys":[],"total_keys":0,"block":0,"practice":1,"trial_type":"pit-trial","trial_index":21,"time_elapsed":112124,"internal_node_id":"0.0-0.0-1.20-0.20","task_version":"battery-v0.2"},{"rune":"1","rune_set":"elianto","hex":"#3366ff99","correct":32,"choice":-1,"rt":-1,"accuracy":0,"outcome":"+1","keys":[],"total_keys":0,"block":0,"practice":1,"trial_type":"pit-trial","trial_index":22,"time_elapsed":116129,"internal_node_id":"0.0-0.0-1.21-0.21","task_version":"battery-v0.2"},{"rune":"1","rune_set":"elianto","hex":"#3366ff99","correct":32,"choice":-1,"rt":-1,"accuracy":0,"outcome":"+1","keys":[],"total_keys":0,"block":0,"practice":1,"trial_type":"pit-trial","trial_index":23,"time_elapsed":120144,"internal_node_id":"0.0-0.0-1.22-0.22","task_version":"battery-v0.2"},{"rune":"1","rune_set":"elianto","hex":"#3366ff99","correct":32,"choice":-1,"rt":-1,"accuracy":0,"outcome":"+1","keys":[],"total_keys":0,"block":0,"practice":1,"trial_type":"pit-trial","trial_index":24,"time_elapsed":124152,"internal_node_id":"0.0-0.0-1.23-0.23","task_version":"battery-v0.2"},{"rune":"1","rune_set":"elianto","hex":"#3366ff99","correct":32,"choice":-1,"rt":-1,"accuracy":0,"outcome":"+1","keys":[],"total_keys":0,"block":0,"practice":1,"trial_type":"pit-trial","trial_index":25,"time_elapsed":128180,"internal_node_id":"0.0-0.0-1.24-0.24","task_version":"battery-v0.2"},{"rune":"1","rune_set":"elianto","hex":"#3366ff99","correct":32,"choice":-1,"rt":-1,"accuracy":0,"outcome":"+1","keys":[],"total_keys":0,"block":0,"practice":1,"trial_type":"pit-trial","trial_index":26,"time_elapsed":132195,"internal_node_id":"0.0-0.0-1.25-0.25","task_version":"battery-v0.2"},{"rune":"1","rune_set":"elianto","hex":"#3366ff99","correct":32,"choice":-1,"rt":-1,"accuracy":0,"outcome":"+1","keys":[],"total_keys":0,"block":0,"practice":1,"trial_type":"pit-trial","trial_index":27,"time_elapsed":136214,"internal_node_id":"0.0-0.0-1.26-0.26","task_version":"battery-v0.2"},{"rune":"1","rune_set":"elianto","hex":"#3366ff99","correct":32,"choice":-1,"rt":-1,"accuracy":0,"outcome":"+1","keys":[],"total_keys":0,"block":0,"practice":1,"trial_type":"pit-trial","trial_index":28,"time_elapsed":140222,"internal_node_id":"0.0-0.0-1.27-0.27","task_version":"battery-v0.2"},{"rune":"1","rune_set":"elianto","hex":"#3366ff99","correct":32,"choice":-1,"rt":-1,"accuracy":0,"outcome":"+1","keys":[],"total_keys":0,"block":0,"practice":1,"trial_type":"pit-trial","trial_index":29,"time_elapsed":144225,"internal_node_id":"0.0-0.0-1.28-0.28","task_version":"battery-v0.2"},{"rune":"1","rune_set":"elianto","hex":"#3366ff99","correct":32,"choice":-1,"rt":-1,"accuracy":0,"outcome":"+1","keys":[],"total_keys":0,"block":0,"practice":1,"trial_type":"pit-trial","trial_index":30,"time_elapsed":148227,"internal_node_id":"0.0-0.0-1.29-0.29","task_version":"battery-v0.2"},{"rune":"1","rune_set":"elianto","hex":"#3366ff99","correct":32,"choice":-1,"rt":-1,"accuracy":0,"outcome":"+1","keys":[],"total_keys":0,"block":0,"practice":1,"trial_type":"pit-trial","trial_index":31,"time_elapsed":152246,"internal_node_id":"0.0-0.0-1.30-0.30","task_version":"battery-v0.2"},{"rune":"1","rune_set":"elianto","hex":"#3366ff99","correct":32,"choice":-1,"rt":-1,"accuracy":0,"outcome":"+1","keys":[],"total_keys":0,"block":0,"practice":1,"trial_type":"pit-trial","trial_index":32,"time_elapsed":156254,"internal_node_id":"0.0-0.0-1.31-0.31","task_version":"battery-v0.2"},{"rune":"1","rune_set":"elianto","hex":"#3366ff99","correct":32,"choice":-1,"rt":-1,"accuracy":0,"outcome":"+1","keys":[],"total_keys":0,"block":0,"practice":1,"trial_type":"pit-trial","trial_index":33,"time_elapsed":160260,"internal_node_id":"0.0-0.0-1.32-0.32","task_version":"battery-v0.2"},{"rune":"1","rune_set":"elianto","hex":"#3366ff99","correct":32,"choice":-1,"rt":-1,"accuracy":0,"outcome":"+1","keys":[],"total_keys":0,"block":0,"practice":1,"trial_type":"pit-trial","trial_index":34,"time_elapsed":164264,"internal_node_id":"0.0-0.0-1.33-0.33","task_version":"battery-v0.2"},{"rune":"1","rune_set":"elianto","hex":"#3366ff99","correct":32,"choice":-1,"rt":-1,"accuracy":0,"outcome":"+1","keys":[],"total_keys":0,"block":0,"practice":1,"trial_type":"pit-trial","trial_index":35,"time_elapsed":168275,"internal_node_id":"0.0-0.0-1.34-0.34","task_version":"battery-v0.2"},{"rune":"1","rune_set":"elianto","hex":"#3366ff99","correct":32,"choice":-1,"rt":-1,"accuracy":0,"outcome":"+1","keys":[],"total_keys":0,"block":0,"practice":1,"trial_type":"pit-trial","trial_index":36,"time_elapsed":172281,"internal_node_id":"0.0-0.0-1.35-0.35","task_version":"battery-v0.2"},{"rune":"1","rune_set":"elianto","hex":"#3366ff99","correct":32,"choice":-1,"rt":-1,"accuracy":0,"outcome":"+1","keys":[],"total_keys":0,"block":0,"practice":1,"trial_type":"pit-trial","trial_index":37,"time_elapsed":176287,"internal_node_id":"0.0-0.0-1.36-0.36","task_version":"battery-v0.2"},{"rune":"1","rune_set":"elianto","hex":"#3366ff99","correct":32,"choice":-1,"rt":-1,"accuracy":0,"outcome":"+1","keys":[],"total_keys":0,"block":0,"practice":1,"trial_type":"pit-trial","trial_index":38,"time_elapsed":180292,"internal_node_id":"0.0-0.0-1.37-0.37","task_version":"battery-v0.2"},{"rune":"1","rune_set":"elianto","hex":"#3366ff99","correct":32,"choice":-1,"rt":-1,"accuracy":0,"outcome":"+1","keys":[],"total_keys":0,"block":0,"practice":1,"trial_type":"pit-trial","trial_index":39,"time_elapsed":184330,"internal_node_id":"0.0-0.0-1.38-0.38","task_version":"battery-v0.2"},{"rune":"1","rune_set":"elianto","hex":"#3366ff99","correct":32,"choice":-1,"rt":-1,"accuracy":0,"outcome":"+1","keys":[],"total_keys":0,"block":0,"practice":1,"trial_type":"pit-trial","trial_index":40,"time_elapsed":188341,"internal_node_id":"0.0-0.0-1.39-0.39","task_version":"battery-v0.2"},{"rune":"1","rune_set":"elianto","hex":"#3366ff99","correct":32,"choice":-1,"rt":-1,"accuracy":0,"outcome":"+1","keys":[],"total_keys":0,"block":0,"practice":1,"trial_type":"pit-trial","trial_index":41,"time_elapsed":192352,"internal_node_id":"0.0-0.0-1.40-0.40","task_version":"battery-v0.2"},{"rune":"1","rune_set":"elianto","hex":"#3366ff99","correct":32,"choice":-1,"rt":-1,"accuracy":0,"outcome":"+1","keys":[],"total_keys":0,"block":0,"practice":1,"trial_type":"pit-trial","trial_index":42,"time_elapsed":196369,"internal_node_id":"0.0-0.0-1.41-0.41","task_version":"battery-v0.2"},{"rune":"1","rune_set":"elianto","hex":"#3366ff99","correct":32,"choice":-1,"rt":-1,"accuracy":0,"outcome":"+1","keys":[],"total_keys":0,"block":0,"practice":1,"trial_type":"pit-trial","trial_index":43,"time_elapsed":200387,"internal_node_id":"0.0-0.0-1.42-0.42","task_version":"battery-v0.2"},{"rune":"1","rune_set":"elianto","hex":"#3366ff99","correct":32,"choice":-1,"rt":-1,"accuracy":0,"outcome":"+1","keys":[],"total_keys":0,"block":0,"practice":1,"trial_type":"pit-trial","trial_index":44,"time_elapsed":204393,"internal_node_id":"0.0-0.0-1.43-0.43","task_version":"battery-v0.2"},{"rune":"1","rune_set":"elianto","hex":"#3366ff99","correct":32,"choice":-1,"rt":-1,"accuracy":0,"outcome":"+1","keys":[],"total_keys":0,"block":0,"practice":1,"trial_type":"pit-trial","trial_index":45,"time_elapsed":208397,"internal_node_id":"0.0-0.0-1.44-0.44","task_version":"battery-v0.2"},{"rune":"1","rune_set":"elianto","hex":"#3366ff99","correct":32,"choice":-1,"rt":-1,"accuracy":0,"outcome":"+1","keys":[],"total_keys":0,"block":0,"practice":1,"trial_type":"pit-trial","trial_index":46,"time_elapsed":212414,"internal_node_id":"0.0-0.0-1.45-0.45","task_version":"battery-v0.2"},{"rune":"1","rune_set":"elianto","hex":"#3366ff99","correct":32,"choice":-1,"rt":-1,"accuracy":0,"outcome":"+1","keys":[],"total_keys":0,"block":0,"practice":1,"trial_type":"pit-trial","trial_index":47,"time_elapsed":216418,"internal_node_id":"0.0-0.0-1.46-0.46","task_version":"battery-v0.2"},{"rune":"1","rune_set":"elianto","hex":"#3366ff99","correct":32,"choice":-1,"rt":-1,"accuracy":0,"outcome":"+1","keys":[],"total_keys":0,"block":0,"practice":1,"trial_type":"pit-trial","trial_index":48,"time_elapsed":220426,"internal_node_id":"0.0-0.0-1.47-0.47","task_version":"battery-v0.2"},{"rune":"1","rune_set":"elianto","hex":"#3366ff99","correct":32,"choice":-1,"rt":-1,"accuracy":0,"outcome":"+1","keys":[],"total_keys":0,"block":0,"practice":1,"trial_type":"pit-trial","trial_index":49,"time_elapsed":224430,"internal_node_id":"0.0-0.0-1.48-0.48","task_version":"battery-v0.2"},{"rune":"1","rune_set":"elianto","hex":"#3366ff99","correct":32,"choice":-1,"rt":-1,"accuracy":0,"outcome":"+1","keys":[],"total_keys":0,"block":0,"practice":1,"trial_type":"pit-trial","trial_index":50,"time_elapsed":228431,"internal_node_id":"0.0-0.0-1.49-0.49","task_version":"battery-v0.2"},{"rune":"1","rune_set":"elianto","hex":"#3366ff99","correct":32,"choice":-1,"rt":-1,"accuracy":0,"outcome":"+1","keys":[],"total_keys":0,"block":0,"practice":1,"trial_type":"pit-trial","trial_index":51,"time_elapsed":232433,"internal_node_id":"0.0-0.0-1.50-0.50","task_version":"battery-v0.2"},{"rune":"1","rune_set":"elianto","hex":"#3366ff99","correct":32,"choice":-1,"rt":-1,"accuracy":0,"outcome":"+1","keys":[],"total_keys":0,"block":0,"practice":1,"trial_type":"pit-trial","trial_index":52,"time_elapsed":236438,"internal_node_id":"0.0-0.0-1.51-0.51","task_version":"battery-v0.2"},{"rune":"1","rune_set":"elianto","hex":"#3366ff99","correct":32,"choice":-1,"rt":-1,"accuracy":0,"outcome":"+1","keys":[],"total_keys":0,"block":0,"practice":1,"trial_type":"pit-trial","trial_index":53,"time_elapsed":240443,"internal_node_id":"0.0-0.0-1.52-0.52","task_version":"battery-v0.2"},{"rune":"1","rune_set":"elianto","hex":"#3366ff99","correct":32,"choice":-1,"rt":-1,"accuracy":0,"outcome":"+1","keys":[],"total_keys":0,"block":0,"practice":1,"trial_type":"pit-trial","trial_index":54,"time_elapsed":244447,"internal_node_id":"0.0-0.0-1.53-0.53","task_version":"battery-v0.2"},{"rune":"1","rune_set":"elianto","hex":"#3366ff99","correct":32,"choice":-1,"rt":-1,"accuracy":0,"outcome":"+1","keys":[],"total_keys":0,"block":0,"practice":1,"trial_type":"pit-trial","trial_index":55,"time_elapsed":248448,"internal_node_id":"0.0-0.0-1.54-0.54","task_version":"battery-v0.2"},{"rune":"1","rune_set":"elianto","hex":"#3366ff99","correct":32,"choice":-1,"rt":-1,"accuracy":0,"outcome":"+1","keys":[],"total_keys":0,"block":0,"practice":1,"trial_type":"pit-trial","trial_index":56,"time_elapsed":252456,"internal_node_id":"0.0-0.0-1.55-0.55","task_version":"battery-v0.2"},{"rune":"1","rune_set":"elianto","hex":"#3366ff99","correct":32,"choice":-1,"rt":-1,"accuracy":0,"outcome":"+1","keys":[],"total_keys":0,"block":0,"practice":1,"trial_type":"pit-trial","trial_index":57,"time_elapsed":256467,"internal_node_id":"0.0-0.0-1.56-0.56","task_version":"battery-v0.2"},{"rune":"1","rune_set":"elianto","hex":"#3366ff99","correct":32,"choice":-1,"rt":-1,"accuracy":0,"outcome":"+1","keys":[],"total_keys":0,"block":0,"practice":1,"trial_type":"pit-trial","trial_index":58,"time_elapsed":260467,"internal_node_id":"0.0-0.0-1.57-0.57","task_version":"battery-v0.2"},{"rune":"1","rune_set":"elianto","hex":"#3366ff99","correct":32,"choice":-1,"rt":-1,"accuracy":0,"outcome":"+1","keys":[],"total_keys":0,"block":0,"practice":1,"trial_type":"pit-trial","trial_index":59,"time_elapsed":264471,"internal_node_id":"0.0-0.0-1.58-0.58","task_version":"battery-v0.2"},{"rune":"1","rune_set":"elianto","hex":"#3366ff99","correct":32,"choice":-1,"rt":-1,"accuracy":0,"outcome":"+1","keys":[],"total_keys":0,"block":0,"practice":1,"trial_type":"pit-trial","trial_index":60,"time_elapsed":268475,"internal_node_id":"0.0-0.0-1.59-0.59","task_version":"battery-v0.2"},{"rune":"1","rune_set":"elianto","hex":"#3366ff99","correct":32,"choice":-1,"rt":-1,"accuracy":0,"outcome":"+1","keys":[],"total_keys":0,"block":0,"practice":1,"trial_type":"pit-trial","trial_index":61,"time_elapsed":272482,"internal_node_id":"0.0-0.0-1.60-0.60","task_version":"battery-v0.2"},{"rune":"1","rune_set":"elianto","hex":"#3366ff99","correct":32,"choice":-1,"rt":-1,"accuracy":0,"outcome":"+1","keys":[],"total_keys":0,"block":0,"practice":1,"trial_type":"pit-trial","trial_index":62,"time_elapsed":276489,"internal_node_id":"0.0-0.0-1.61-0.61","task_version":"battery-v0.2"},{"rune":"1","rune_set":"elianto","hex":"#3366ff99","correct":32,"choice":-1,"rt":-1,"accuracy":0,"outcome":"+1","keys":[],"total_keys":0,"block":0,"practice":1,"trial_type":"pit-trial","trial_index":63,"time_elapsed":280498,"internal_node_id":"0.0-0.0-1.62-0.62","task_version":"battery-v0.2"},{"rune":"1","rune_set":"elianto","hex":"#3366ff99","correct":32,"choice":-1,"rt":-1,"accuracy":0,"outcome":"+1","keys":[],"total_keys":0,"block":0,"practice":1,"trial_type":"pit-trial","trial_index":64,"time_elapsed":284507,"internal_node_id":"0.0-0.0-1.63-0.63","task_version":"battery-v0.2"},{"rune":"1","rune_set":"elianto","hex":"#3366ff99","correct":32,"choice":-1,"rt":-1,"accuracy":0,"outcome":"+1","keys":[],"total_keys":0,"block":0,"practice":1,"trial_type":"pit-trial","trial_index":65,"time_elapsed":288516,"internal_node_id":"0.0-0.0-1.64-0.64","task_version":"battery-v0.2"},{"rune":"1","rune_set":"elianto","hex":"#3366ff99","correct":32,"choice":-1,"rt":-1,"accuracy":0,"outcome":"+1","keys":[],"total_keys":0,"block":0,"practice":1,"trial_type":"pit-trial","trial_index":66,"time_elapsed":292520,"internal_node_id":"0.0-0.0-1.65-0.65","task_version":"battery-v0.2"},{"rune":"1","rune_set":"elianto","hex":"#3366ff99","correct":32,"choice":-1,"rt":-1,"accuracy":0,"outcome":"+1","keys":[],"total_keys":0,"block":0,"practice":1,"trial_type":"pit-trial","trial_index":67,"time_elapsed":296531,"internal_node_id":"0.0-0.0-1.66-0.66","task_version":"battery-v0.2"},{"rune":"1","rune_set":"elianto","hex":"#3366ff99","correct":32,"choice":-1,"rt":-1,"accuracy":0,"outcome":"+1","keys":[],"total_keys":0,"block":0,"practice":1,"trial_type":"pit-trial","trial_index":68,"time_elapsed":300540,"internal_node_id":"0.0-0.0-1.67-0.67","task_version":"battery-v0.2"},{"rune":"1","rune_set":"elianto","hex":"#3366ff99","correct":32,"choice":-1,"rt":-1,"accuracy":0,"outcome":"+1","keys":[],"total_keys":0,"block":0,"practice":1,"trial_type":"pit-trial","trial_index":69,"time_elapsed":304563,"internal_node_id":"0.0-0.0-1.68-0.68","task_version":"battery-v0.2"},{"rune":"1","rune_set":"elianto","hex":"#3366ff99","correct":32,"choice":-1,"rt":-1,"accuracy":0,"outcome":"+1","keys":[],"total_keys":0,"block":0,"practice":1,"trial_type":"pit-trial","trial_index":70,"time_elapsed":308575,"internal_node_id":"0.0-0.0-1.69-0.69","task_version":"battery-v0.2"},{"rune":"1","rune_set":"elianto","hex":"#3366ff99","correct":32,"choice":-1,"rt":-1,"accuracy":0,"outcome":"+1","keys":[],"total_keys":0,"block":0,"practice":1,"trial_type":"pit-trial","trial_index":71,"time_elapsed":312579,"internal_node_id":"0.0-0.0-1.70-0.70","task_version":"battery-v0.2"},{"rune":"1","rune_set":"elianto","hex":"#3366ff99","correct":32,"choice":-1,"rt":-1,"accuracy":0,"outcome":"+1","keys":[],"total_keys":0,"block":0,"practice":1,"trial_type":"pit-trial","trial_index":72,"time_elapsed":316589,"internal_node_id":"0.0-0.0-1.71-0.71","task_version":"battery-v0.2"},{"rune":"1","rune_set":"elianto","hex":"#3366ff99","correct":32,"choice":-1,"rt":-1,"accuracy":0,"outcome":"+1","keys":[],"total_keys":0,"block":0,"practice":1,"trial_type":"pit-trial","trial_index":73,"time_elapsed":320593,"internal_node_id":"0.0-0.0-1.72-0.72","task_version":"battery-v0.2"},{"rune":"1","rune_set":"elianto","hex":"#3366ff99","correct":32,"choice":-1,"rt":-1,"accuracy":0,"outcome":"+1","keys":[],"total_keys":0,"block":0,"practice":1,"trial_type":"pit-trial","trial_index":74,"time_elapsed":324618,"internal_node_id":"0.0-0.0-1.73-0.73","task_version":"battery-v0.2"},{"rune":"1","rune_set":"elianto","hex":"#3366ff99","correct":32,"choice":-1,"rt":-1,"accuracy":0,"outcome":"+1","keys":[],"total_keys":0,"block":0,"practice":1,"trial_type":"pit-trial","trial_index":75,"time_elapsed":328618,"internal_node_id":"0.0-0.0-1.74-0.74","task_version":"battery-v0.2"},{"rune":"1","rune_set":"elianto","hex":"#3366ff99","correct":32,"choice":-1,"rt":-1,"accuracy":0,"outcome":"+1","keys":[],"total_keys":0,"block":0,"practice":1,"trial_type":"pit-trial","trial_index":76,"time_elapsed":332624,"internal_node_id":"0.0-0.0-1.75-0.75","task_version":"battery-v0.2"},{"rune":"1","rune_set":"elianto","hex":"#3366ff99","correct":32,"choice":-1,"rt":-1,"accuracy":0,"outcome":"+1","keys":[],"total_keys":0,"block":0,"practice":1,"trial_type":"pit-trial","trial_index":77,"time_elapsed":336643,"internal_node_id":"0.0-0.0-1.76-0.76","task_version":"battery-v0.2"},{"rune":"1","rune_set":"elianto","hex":"#3366ff99","correct":32,"choice":-1,"rt":-1,"accuracy":0,"outcome":"+1","keys":[],"total_keys":0,"block":0,"practice":1,"trial_type":"pit-trial","trial_index":78,"time_elapsed":340660,"internal_node_id":"0.0-0.0-1.77-0.77","task_version":"battery-v0.2"},{"rune":"1","rune_set":"elianto","hex":"#3366ff99","correct":32,"choice":-1,"rt":-1,"accuracy":0,"outcome":"+1","keys":[],"total_keys":0,"block":0,"practice":1,"trial_type":"pit-trial","trial_index":79,"time_elapsed":344664,"internal_node_id":"0.0-0.0-1.78-0.78","task_version":"battery-v0.2"},{"rune":"1","rune_set":"elianto","hex":"#3366ff99","correct":32,"choice":-1,"rt":-1,"accuracy":0,"outcome":"+1","keys":[],"total_keys":0,"block":0,"practice":1,"trial_type":"pit-trial","trial_index":80,"time_elapsed":348666,"internal_node_id":"0.0-0.0-1.79-0.79","task_version":"battery-v0.2"},{"rune":"1","rune_set":"elianto","hex":"#3366ff99","correct":32,"choice":-1,"rt":-1,"accuracy":0,"outcome":"+1","keys":[],"total_keys":0,"block":0,"practice":1,"trial_type":"pit-trial","trial_index":81,"time_elapsed":352698,"internal_node_id":"0.0-0.0-1.80-0.80","task_version":"battery-v0.2"},{"rune":"1","rune_set":"elianto","hex":"#3366ff99","correct":32,"choice":-1,"rt":-1,"accuracy":0,"outcome":"+1","keys":[],"total_keys":0,"block":0,"practice":1,"trial_type":"pit-trial","trial_index":82,"time_elapsed":356706,"internal_node_id":"0.0-0.0-1.81-0.81","task_version":"battery-v0.2"},{"rune":"1","rune_set":"elianto","hex":"#3366ff99","correct":32,"choice":-1,"rt":-1,"accuracy":0,"outcome":"+1","keys":[],"total_keys":0,"block":0,"practice":1,"trial_type":"pit-trial","trial_index":83,"time_elapsed":360716,"internal_node_id":"0.0-0.0-1.82-0.82","task_version":"battery-v0.2"},{"rune":"1","rune_set":"elianto","hex":"#3366ff99","correct":32,"choice":-1,"rt":-1,"accuracy":0,"outcome":"+1","keys":[],"total_keys":0,"block":0,"practice":1,"trial_type":"pit-trial","trial_index":84,"time_elapsed":364727,"internal_node_id":"0.0-0.0-1.83-0.83","task_version":"battery-v0.2"},{"rune":"1","rune_set":"elianto","hex":"#3366ff99","correct":32,"choice":-1,"rt":-1,"accuracy":0,"outcome":"+1","keys":[],"total_keys":0,"block":0,"practice":1,"trial_type":"pit-trial","trial_index":85,"time_elapsed":368735,"internal_node_id":"0.0-0.0-1.84-0.84","task_version":"battery-v0.2"},{"rune":"1","rune_set":"elianto","hex":"#3366ff99","correct":32,"choice":-1,"rt":-1,"accuracy":0,"outcome":"+1","keys":[],"total_keys":0,"block":0,"practice":1,"trial_type":"pit-trial","trial_index":86,"time_elapsed":372745,"internal_node_id":"0.0-0.0-1.85-0.85","task_version":"battery-v0.2"},{"rune":"1","rune_set":"elianto","hex":"#3366ff99","correct":32,"choice":-1,"rt":-1,"accuracy":0,"outcome":"+1","keys":[],"total_keys":0,"block":0,"practice":1,"trial_type":"pit-trial","trial_index":87,"time_elapsed":376766,"internal_node_id":"0.0-0.0-1.86-0.86","task_version":"battery-v0.2"},{"rune":"1","rune_set":"elianto","hex":"#3366ff99","correct":32,"choice":-1,"rt":-1,"accuracy":0,"outcome":"+1","keys":[],"total_keys":0,"block":0,"practice":1,"trial_type":"pit-trial","trial_index":88,"time_elapsed":380773,"internal_node_id":"0.0-0.0-1.87-0.87","task_version":"battery-v0.2"},{"rune":"1","rune_set":"elianto","hex":"#3366ff99","correct":32,"choice":-1,"rt":-1,"accuracy":0,"outcome":"+1","keys":[],"total_keys":0,"block":0,"practice":1,"trial_type":"pit-trial","trial_index":89,"time_elapsed":384810,"internal_node_id":"0.0-0.0-1.88-0.88","task_version":"battery-v0.2"},{"rune":"1","rune_set":"elianto","hex":"#3366ff99","correct":32,"choice":-1,"rt":-1,"accuracy":0,"outcome":"+1","keys":[],"total_keys":0,"block":0,"practice":1,"trial_type":"pit-trial","trial_index":90,"time_elapsed":388813,"internal_node_id":"0.0-0.0-1.89-0.89","task_version":"battery-v0.2"},{"rune":"1","rune_set":"elianto","hex":"#3366ff99","correct":32,"choice":-1,"rt":-1,"accuracy":0,"outcome":"+1","keys":[],"total_keys":0,"block":0,"practice":1,"trial_type":"pit-trial","trial_index":91,"time_elapsed":392851,"internal_node_id":"0.0-0.0-1.90-0.90","task_version":"battery-v0.2"},{"rune":"1","rune_set":"elianto","hex":"#3366ff99","correct":32,"choice":-1,"rt":-1,"accuracy":0,"outcome":"+1","keys":[],"total_keys":0,"block":0,"practice":1,"trial_type":"pit-trial","trial_index":92,"time_elapsed":396858,"internal_node_id":"0.0-0.0-1.91-0.91","task_version":"battery-v0.2"},{"rune":"1","rune_set":"elianto","hex":"#3366ff99","correct":32,"choice":-1,"rt":-1,"accuracy":0,"outcome":"+1","keys":[],"total_keys":0,"block":0,"practice":1,"trial_type":"pit-trial","trial_index":93,"time_elapsed":400873,"internal_node_id":"0.0-0.0-1.92-0.92","task_version":"battery-v0.2"},{"rune":"1","rune_set":"elianto","hex":"#3366ff99","correct":32,"choice":-1,"rt":-1,"accuracy":0,"outcome":"+1","keys":[],"total_keys":0,"block":0,"practice":1,"trial_type":"pit-trial","trial_index":94,"time_elapsed":404880,"internal_node_id":"0.0-0.0-1.93-0.93","task_version":"battery-v0.2"},{"rune":"1","rune_set":"elianto","hex":"#3366ff99","correct":32,"choice":-1,"rt":-1,"accuracy":0,"outcome":"+1","keys":[],"total_keys":0,"block":0,"practice":1,"trial_type":"pit-trial","trial_index":95,"time_elapsed":408881,"internal_node_id":"0.0-0.0-1.94-0.94","task_version":"battery-v0.2"},{"rune":"1","rune_set":"elianto","hex":"#3366ff99","correct":32,"choice":-1,"rt":-1,"accuracy":0,"outcome":"+1","keys":[],"total_keys":0,"block":0,"practice":1,"trial_type":"pit-trial","trial_index":96,"time_elapsed":412886,"internal_node_id":"0.0-0.0-1.95-0.95","task_version":"battery-v0.2"},{"rune":"1","rune_set":"elianto","hex":"#3366ff99","correct":32,"choice":-1,"rt":-1,"accuracy":0,"outcome":"+1","keys":[],"total_keys":0,"block":0,"practice":1,"trial_type":"pit-trial","trial_index":97,"time_elapsed":416932,"internal_node_id":"0.0-0.0-1.96-0.96","task_version":"battery-v0.2"},{"rune":"1","rune_set":"elianto","hex":"#3366ff99","correct":32,"choice":-1,"rt":-1,"accuracy":0,"outcome":"+1","keys":[],"total_keys":0,"block":0,"practice":1,"trial_type":"pit-trial","trial_index":98,"time_elapsed":420940,"internal_node_id":"0.0-0.0-1.97-0.97","task_version":"battery-v0.2"},{"rune":"1","rune_set":"elianto","hex":"#3366ff99","correct":32,"choice":-1,"rt":-1,"accuracy":0,"outcome":"+1","keys":[],"total_keys":0,"block":0,"practice":1,"trial_type":"pit-trial","trial_index":99,"time_elapsed":424954,"internal_node_id":"0.0-0.0-1.98-0.98","task_version":"battery-v0.2"},{"rune":"1","rune_set":"elianto","hex":"#3366ff99","correct":32,"choice":-1,"rt":-1,"accuracy":0,"outcome":"+1","keys":[],"total_keys":0,"block":0,"practice":1,"trial_type":"pit-trial","trial_index":100,"time_elapsed":428956,"internal_node_id":"0.0-0.0-1.99-0.99","task_version":"battery-v0.2"},{"rune":"1","rune_set":"elianto","hex":"#3366ff99","correct":32,"choice":-1,"rt":-1,"accuracy":0,"outcome":"+1","keys":[],"total_keys":0,"block":0,"practice":1,"trial_type":"pit-trial","trial_index":101,"time_elapsed":434071,"internal_node_id":"0.0-0.0-1.100-0.100","task_version":"battery-v0.2"},{"rune":"1","rune_set":"elianto","hex":"#3366ff99","correct":32,"choice":-1,"rt":-1,"accuracy":0,"outcome":"+1","keys":[],"total_keys":0,"block":0,"practice":1,"trial_type":"pit-trial","trial_index":102,"time_elapsed":439049,"internal_node_id":"0.0-0.0-1.101-0.101","task_version":"battery-v0.2"},{"rune":"1","rune_set":"elianto","hex":"#3366ff99","correct":32,"choice":-1,"rt":-1,"accuracy":0,"outcome":"+1","keys":[],"total_keys":0,"block":0,"practice":1,"trial_type":"pit-trial","trial_index":103,"time_elapsed":443052,"internal_node_id":"0.0-0.0-1.102-0.102","task_version":"battery-v0.2"},{"rune":"1","rune_set":"elianto","hex":"#3366ff99","correct":32,"choice":-1,"rt":-1,"accuracy":0,"outcome":"+1","keys":[],"total_keys":0,"block":0,"practice":1,"trial_type":"pit-trial","trial_index":104,"time_elapsed":447058,"internal_node_id":"0.0-0.0-1.103-0.103","task_version":"battery-v0.2"},{"rune":"1","rune_set":"elianto","hex":"#3366ff99","correct":32,"choice":-1,"rt":-1,"accuracy":0,"outcome":"+1","keys":[],"total_keys":0,"block":0,"practice":1,"trial_type":"pit-trial","trial_index":105,"time_elapsed":451073,"internal_node_id":"0.0-0.0-1.104-0.104","task_version":"battery-v0.2"},{"rune":"1","rune_set":"elianto","hex":"#3366ff99","correct":32,"choice":-1,"rt":-1,"accuracy":0,"outcome":"+1","keys":[],"total_keys":0,"block":0,"practice":1,"trial_type":"pit-trial","trial_index":106,"time_elapsed":455078,"internal_node_id":"0.0-0.0-1.105-0.105","task_version":"battery-v0.2"},{"rune":"1","rune_set":"elianto","hex":"#3366ff99","correct":32,"choice":-1,"rt":-1,"accuracy":0,"outcome":"+1","keys":[],"total_keys":0,"block":0,"practice":1,"trial_type":"pit-trial","trial_index":107,"time_elapsed":459083,"internal_node_id":"0.0-0.0-1.106-0.106","task_version":"battery-v0.2"},{"rune":"1","rune_set":"elianto","hex":"#3366ff99","correct":32,"choice":-1,"rt":-1,"accuracy":0,"outcome":"+1","keys":[],"total_keys":0,"block":0,"practice":1,"trial_type":"pit-trial","trial_index":108,"time_elapsed":463086,"internal_node_id":"0.0-0.0-1.107-0.107","task_version":"battery-v0.2"},{"rune":"1","rune_set":"elianto","hex":"#3366ff99","correct":32,"choice":-1,"rt":-1,"accuracy":0,"outcome":"+1","keys":[],"total_keys":0,"block":0,"practice":1,"trial_type":"pit-trial","trial_index":109,"time_elapsed":467090,"internal_node_id":"0.0-0.0-1.108-0.108","task_version":"battery-v0.2"},{"rune":"1","rune_set":"elianto","hex":"#3366ff99","correct":32,"choice":-1,"rt":-1,"accuracy":0,"outcome":"+1","keys":[],"total_keys":0,"block":0,"practice":1,"trial_type":"pit-trial","trial_index":110,"time_elapsed":471094,"internal_node_id":"0.0-0.0-1.109-0.109","task_version":"battery-v0.2"},{"rune":"1","rune_set":"elianto","hex":"#3366ff99","correct":32,"choice":-1,"rt":-1,"accuracy":0,"outcome":"+1","keys":[],"total_keys":0,"block":0,"practice":1,"trial_type":"pit-trial","trial_index":111,"time_elapsed":475100,"internal_node_id":"0.0-0.0-1.110-0.110","task_version":"battery-v0.2"},{"rune":"1","rune_set":"elianto","hex":"#3366ff99","correct":32,"choice":-1,"rt":-1,"accuracy":0,"outcome":"+1","keys":[],"total_keys":0,"block":0,"practice":1,"trial_type":"pit-trial","trial_index":112,"time_elapsed":479112,"internal_node_id":"0.0-0.0-1.111-0.111","task_version":"battery-v0.2"},{"rune":"1","rune_set":"elianto","hex":"#3366ff99","correct":32,"choice":-1,"rt":-1,"accuracy":0,"outcome":"+1","keys":[],"total_keys":0,"block":0,"practice":1,"trial_type":"pit-trial","trial_index":113,"time_elapsed":483122,"internal_node_id":"0.0-0.0-1.112-0.112","task_version":"battery-v0.2"},{"rune":"1","rune_set":"elianto","hex":"#3366ff99","correct":32,"choice":-1,"rt":-1,"accuracy":0,"outcome":"+1","keys":[],"total_keys":0,"block":0,"practice":1,"trial_type":"pit-trial","trial_index":114,"time_elapsed":487129,"internal_node_id":"0.0-0.0-1.113-0.113","task_version":"battery-v0.2"},{"rune":"1","rune_set":"elianto","hex":"#3366ff99","correct":32,"choice":-1,"rt":-1,"accuracy":0,"outcome":"+1","keys":[],"total_keys":0,"block":0,"practice":1,"trial_type":"pit-trial","trial_index":115,"time_elapsed":491132,"internal_node_id":"0.0-0.0-1.114-0.114","task_version":"battery-v0.2"},{"rune":"1","rune_set":"elianto","hex":"#3366ff99","correct":32,"choice":-1,"rt":-1,"accuracy":0,"outcome":"+1","keys":[],"total_keys":0,"block":0,"practice":1,"trial_type":"pit-trial","trial_index":116,"time_elapsed":495134,"internal_node_id":"0.0-0.0-1.115-0.115","task_version":"battery-v0.2"},{"rune":"1","rune_set":"elianto","hex":"#3366ff99","correct":32,"choice":-1,"rt":-1,"accuracy":0,"outcome":"+1","keys":[],"total_keys":0,"block":0,"practice":1,"trial_type":"pit-trial","trial_index":117,"time_elapsed":499163,"internal_node_id":"0.0-0.0-1.116-0.116","task_version":"battery-v0.2"},{"rune":"1","rune_set":"elianto","hex":"#3366ff99","correct":32,"choice":-1,"rt":-1,"accuracy":0,"outcome":"+1","keys":[],"total_keys":0,"block":0,"practice":1,"trial_type":"pit-trial","trial_index":118,"time_elapsed":503168,"internal_node_id":"0.0-0.0-1.117-0.117","task_version":"battery-v0.2"},{"rune":"1","rune_set":"elianto","hex":"#3366ff99","correct":32,"choice":-1,"rt":-1,"accuracy":0,"outcome":"+1","keys":[],"total_keys":0,"block":0,"practice":1,"trial_type":"pit-trial","trial_index":119,"time_elapsed":507477,"internal_node_id":"0.0-0.0-1.118-0.118","task_version":"battery-v0.2"},{"rune":"1","rune_set":"elianto","hex":"#3366ff99","correct":32,"choice":-1,"rt":-1,"accuracy":0,"outcome":"+1","keys":[],"total_keys":0,"block":0,"practice":1,"trial_type":"pit-trial","trial_index":120,"time_elapsed":512288,"internal_node_id":"0.0-0.0-1.119-0.119","task_version":"battery-v0.2"},{"rune":"1","rune_set":"elianto","hex":"#3366ff99","correct":32,"choice":-1,"rt":-1,"accuracy":0,"outcome":"+1","keys":[],"total_keys":0,"block":0,"practice":1,"trial_type":"pit-trial","trial_index":121,"time_elapsed":516321,"internal_node_id":"0.0-0.0-1.120-0.120","task_version":"battery-v0.2"},{"rune":"1","rune_set":"elianto","hex":"#3366ff99","correct":32,"choice":-1,"rt":-1,"accuracy":0,"outcome":"+1","keys":[],"total_keys":0,"block":0,"practice":1,"trial_type":"pit-trial","trial_index":122,"time_elapsed":520365,"internal_node_id":"0.0-0.0-1.121-0.121","task_version":"battery-v0.2"},{"rune":"1","rune_set":"elianto","hex":"#3366ff99","correct":32,"choice":-1,"rt":-1,"accuracy":0,"outcome":"+1","keys":[3819.9999999487773],"total_keys":1,"block":0,"practice":1,"trial_type":"pit-trial","trial_index":123,"time_elapsed":524366,"internal_node_id":"0.0-0.0-1.122-0.122","task_version":"battery-v0.2"},{"rune":"1","rune_set":"elianto","hex":"#3366ff99","correct":32,"choice":32,"rt":570.0000000651926,"accuracy":1,"outcome":"+10","keys":[608.9999999385327,2070.9999999962747,2204.9999999580905],"total_keys":3,"block":0,"practice":1,"trial_type":"pit-trial","trial_index":124,"time_elapsed":527642,"internal_node_id":"0.0-0.0-1.123-0.123","task_version":"battery-v0.2"},{"rune":"1","rune_set":"elianto","hex":"#3366ff99","correct":32,"choice":32,"rt":429.9999999348074,"accuracy":1,"outcome":"+10","keys":[1363.0000000121072,1513.9999999664724,1943.9999999012798,2372.999999905005,2520.9999999497086],"total_keys":5,"block":0,"practice":1,"trial_type":"pit-trial","trial_index":125,"time_elapsed":530793,"internal_node_id":"0.0-0.0-1.124-0.124","task_version":"battery-v0.2"},{"rune":"1","rune_set":"elianto","hex":"#3366ff99","correct":32,"choice":-1,"rt":-1,"accuracy":0,"outcome":"+1","keys":[],"total_keys":0,"block":0,"practice":1,"trial_type":"pit-trial","trial_index":126,"time_elapsed":534805,"internal_node_id":"0.0-0.0-1.125-0.125","task_version":"battery-v0.2"},{"rune":"1","rune_set":"elianto","hex":"#3366ff99","correct":32,"choice":32,"rt":251.00000004749745,"accuracy":1,"outcome":"+10","keys":[1770.9999999497086,2096.000000019558,2246.000000042841],"total_keys":3,"block":0,"practice":1,"trial_type":"pit-trial","trial_index":127,"time_elapsed":537782,"internal_node_id":"0.0-0.0-1.126-0.126","task_version":"battery-v0.2"},{"rune":"1","rune_set":"elianto","hex":"#3366ff99","correct":32,"choice":32,"rt":315.00000006053597,"accuracy":1,"outcome":"+10","keys":[1815.000000060536,1951.0000000009313],"total_keys":2,"block":0,"practice":1,"trial_type":"pit-trial","trial_index":128,"time_elapsed":540808,"internal_node_id":"0.0-0.0-1.127-0.127","task_version":"battery-v0.2"},{"rune":"1","rune_set":"elianto","hex":"#3366ff99","correct":32,"choice":32,"rt":71.99999992735684,"accuracy":1,"outcome":"+10","keys":[1585.9999998938292,2062.999999965541,2292.9999999469146],"total_keys":3,"block":0,"practice":1,"trial_type":"pit-trial","trial_index":129,"time_elapsed":543607,"internal_node_id":"0.0-0.0-1.128-0.128","task_version":"battery-v0.2"},{"view_history":"[{\"page_index\":0,\"viewing_time\":4719.99999997206},{\"page_index\":1,\"viewing_time\":2162.999999942258}]","rt":6883.999999961816,"trial_type":"pit-instructions","trial_index":130,"time_elapsed":550499,"internal_node_id":"0.0-0.0-2.0","task_version":"battery-v0.2"},{"rune":"2","rune_set":"elianto","hex":"#3366ff99","correct":-1,"choice":32,"rt":91.00000001490116,"accuracy":0,"outcome":"+1","keys":[1597.0000000670552,2055.0000000512227,2182.0000000298023,2378.000000026077],"total_keys":4,"block":0,"practice":2,"trial_type":"pit-trial","trial_index":131,"time_elapsed":553299,"internal_node_id":"0.0-0.0-3.0-0.0","task_version":"battery-v0.2"},{"rune":"2","rune_set":"elianto","hex":"#3366ff99","correct":-1,"choice":32,"rt":91.00000001490116,"accuracy":0,"outcome":"+1","keys":[1266.9999999925494,1424.9999999301508,1591.9999999459833],"total_keys":3,"block":0,"practice":2,"trial_type":"pit-trial","trial_index":132,"time_elapsed":556097,"internal_node_id":"0.0-0.0-3.1-0.1","task_version":"battery-v0.2"},{"rune":"2","rune_set":"elianto","hex":"#3366ff99","correct":-1,"choice":32,"rt":52.99999995622784,"accuracy":0,"outcome":"+1","keys":[131.00000005215406,317.00000003911555,1375,1554.0000000037253,1791.0000000847504,2006.000000052154,2320.0000000651926],"total_keys":7,"block":0,"practice":2,"trial_type":"pit-trial","trial_index":133,"time_elapsed":558861,"internal_node_id":"0.0-0.0-3.2-0.2","task_version":"battery-v0.2"},{"rune":"2","rune_set":"elianto","hex":"#3366ff99","correct":-1,"choice":32,"rt":2.0000000949949026,"accuracy":0,"outcome":"+1","keys":[1363.0000000121072,1537.0000000111759,1728.000000002794,2664.9999999208376],"total_keys":4,"block":0,"practice":2,"trial_type":"pit-trial","trial_index":134,"time_elapsed":561602,"internal_node_id":"0.0-0.0-3.3-0.3","task_version":"battery-v0.2"},{"rune":"2","rune_set":"elianto","hex":"#3366ff99","correct":-1,"choice":32,"rt":250.99999993108213,"accuracy":0,"outcome":"+1","keys":[1762.999999918975,1917.9999999469146,2082.9999999841675,2603.000000002794],"total_keys":4,"block":0,"practice":2,"trial_type":"pit-trial","trial_index":135,"time_elapsed":564568,"internal_node_id":"0.0-0.0-3.4-0.4","task_version":"battery-v0.2"},{"rune":"2","rune_set":"elianto","hex":"#3366ff99","correct":-1,"choice":32,"rt":429.0000000037253,"accuracy":0,"outcome":"+1","keys":[1288.0000000586733,1465.000000083819,1929.0000000037253,2621.999999973923,2802.0000000251457],"total_keys":5,"block":0,"practice":2,"trial_type":"pit-trial","trial_index":136,"time_elapsed":567703,"internal_node_id":"0.0-0.0-3.5-0.5","task_version":"battery-v0.2"},{"rune":"2","rune_set":"elianto","hex":"#3366ff99","correct":-1,"choice":32,"rt":158.99999998509884,"accuracy":0,"outcome":"+1","keys":[1314.0000000130385,1483.0000000074506,1660.9999999636784,2086.0000000102445,2324.0000000223517,2481.000000028871,2642.9999999236315],"total_keys":7,"block":0,"practice":2,"trial_type":"pit-trial","trial_index":137,"time_elapsed":570570,"internal_node_id":"0.0-0.0-3.6-0.6","task_version":"battery-v0.2"},{"rune":"2","rune_set":"elianto","hex":"#3366ff99","correct":-1,"choice":32,"rt":46.00000008940697,"accuracy":0,"outcome":"+1","keys":[1427.0000000251457,1552.0000000251457,1733.0000000074506,2260.9999999403954],"total_keys":4,"block":0,"practice":2,"trial_type":"pit-trial","trial_index":138,"time_elapsed":573330,"internal_node_id":"0.0-0.0-3.7-0.7","task_version":"battery-v0.2"},{"rune":"2","rune_set":"elianto","hex":"#3366ff99","correct":-1,"choice":-1,"rt":-1,"accuracy":1,"outcome":"+10","keys":[],"total_keys":0,"block":0,"practice":2,"trial_type":"pit-trial","trial_index":139,"time_elapsed":577338,"internal_node_id":"0.0-0.0-3.8-0.8","task_version":"battery-v0.2"},{"rune":"2","rune_set":"elianto","hex":"#3366ff99","correct":-1,"choice":-1,"rt":-1,"accuracy":1,"outcome":"+10","keys":[],"total_keys":0,"block":0,"practice":2,"trial_type":"pit-trial","trial_index":140,"time_elapsed":581341,"internal_node_id":"0.0-0.0-3.9-0.9","task_version":"battery-v0.2"},{"rune":"2","rune_set":"elianto","hex":"#3366ff99","correct":-1,"choice":-1,"rt":-1,"accuracy":1,"outcome":"+10","keys":[],"total_keys":0,"block":0,"practice":2,"trial_type":"pit-trial","trial_index":141,"time_elapsed":585351,"internal_node_id":"0.0-0.0-3.10-0.10","task_version":"battery-v0.2"},{"view_history":"[{\"page_index\":0,\"viewing_time\":6587.000000057742},{\"page_index\":1,\"viewing_time\":1324.9999999534339}]","rt":7927.000000025146,"trial_type":"pit-instructions","trial_index":142,"time_elapsed":593282,"internal_node_id":"0.0-0.0-4.0","task_version":"battery-v0.2"},{"rune":"3","rune_set":"elianto","hex":"#f73b6a7A","correct":-1,"choice":32,"rt":50.00000004656613,"accuracy":0,"outcome":"-10","keys":[1550.9999999776483,1981.9999999599531],"total_keys":2,"block":0,"practice":3,"trial_type":"pit-trial","trial_index":143,"time_elapsed":596052,"internal_node_id":"0.0-0.0-5.0-0.0","task_version":"battery-v0.2"},{"rune":"3","rune_set":"elianto","hex":"#f73b6a7A","correct":-1,"choice":-1,"rt":-1,"accuracy":1,"outcome":"-1","keys":[],"total_keys":0,"block":0,"practice":3,"trial_type":"pit-trial","trial_index":144,"time_elapsed":600057,"internal_node_id":"0.0-0.0-5.1-0.1","task_version":"battery-v0.2"},{"rune":"3","rune_set":"elianto","hex":"#f73b6a7A","correct":-1,"choice":-1,"rt":-1,"accuracy":1,"outcome":"-1","keys":[],"total_keys":0,"block":0,"practice":3,"trial_type":"pit-trial","trial_index":145,"time_elapsed":604075,"internal_node_id":"0.0-0.0-5.2-0.2","task_version":"battery-v0.2"},{"rune":"3","rune_set":"elianto","hex":"#f73b6a7A","correct":-1,"choice":-1,"rt":-1,"accuracy":1,"outcome":"-1","keys":[],"total_keys":0,"block":0,"practice":3,"trial_type":"pit-trial","trial_index":146,"time_elapsed":608083,"internal_node_id":"0.0-0.0-5.3-0.3","task_version":"battery-v0.2"},{"view_history":"[{\"page_index\":0,\"viewing_time\":2410.0000000325963},{\"page_index\":1,\"viewing_time\":763.0000000353903}]","rt":3173.9999999990687,"trial_type":"pit-instructions","trial_index":147,"time_elapsed":611257,"internal_node_id":"0.0-0.0-6.0","task_version":"battery-v0.2"},{"rune":"4","rune_set":"elianto","hex":"#f73b6a7A","correct":32,"choice":32,"rt":436.9999999180436,"accuracy":1,"outcome":"-1","keys":[1942.9999999701977],"total_keys":1,"block":0,"practice":4,"trial_type":"pit-trial","trial_index":148,"time_elapsed":614404,"internal_node_id":"0.0-0.0-7.0-0.0","task_version":"battery-v0.2"},{"rune":"4","rune_set":"elianto","hex":"#f73b6a7A","correct":32,"choice":32,"rt":575.0000000698492,"accuracy":1,"outcome":"-1","keys":[2097.000000067055],"total_keys":1,"block":0,"practice":4,"trial_type":"pit-trial","trial_index":149,"time_elapsed":617706,"internal_node_id":"0.0-0.0-7.1-0.1","task_version":"battery-v0.2"},{"rune":"4","rune_set":"elianto","hex":"#f73b6a7A","correct":32,"choice":32,"rt":6.999999983236194,"accuracy":1,"outcome":"-1","keys":[498.99999995250255,1528.9999999804422],"total_keys":2,"block":0,"practice":4,"trial_type":"pit-trial","trial_index":150,"time_elapsed":620441,"internal_node_id":"0.0-0.0-7.2-0.2","task_version":"battery-v0.2"},{"rune":"4","rune_set":"elianto","hex":"#f73b6a7A","correct":32,"choice":-1,"rt":-1,"accuracy":0,"outcome":"-10","keys":[],"total_keys":0,"block":0,"practice":4,"trial_type":"pit-trial","trial_index":151,"time_elapsed":624449,"internal_node_id":"0.0-0.0-7.3-0.3","task_version":"battery-v0.2"},{"rune":"4","rune_set":"elianto","hex":"#f73b6a7A","correct":32,"choice":-1,"rt":-1,"accuracy":0,"outcome":"-10","keys":[],"total_keys":0,"block":0,"practice":4,"trial_type":"pit-trial","trial_index":152,"time_elapsed":628464,"internal_node_id":"0.0-0.0-7.4-0.4","task_version":"battery-v0.2"},{"rune":"4","rune_set":"elianto","hex":"#f73b6a7A","correct":32,"choice":-1,"rt":-1,"accuracy":0,"outcome":"-10","keys":[],"total_keys":0,"block":0,"practice":4,"trial_type":"pit-trial","trial_index":153,"time_elapsed":632484,"internal_node_id":"0.0-0.0-7.5-0.5","task_version":"battery-v0.2"},{"rune":"4","rune_set":"elianto","hex":"#f73b6a7A","correct":32,"choice":-1,"rt":-1,"accuracy":0,"outcome":"-10","keys":[],"total_keys":0,"block":0,"practice":4,"trial_type":"pit-trial","trial_index":154,"time_elapsed":636493,"internal_node_id":"0.0-0.0-7.6-0.6","task_version":"battery-v0.2"},{"rune":"4","rune_set":"elianto","hex":"#f73b6a7A","correct":32,"choice":32,"rt":922.9999999515712,"accuracy":1,"outcome":"-1","keys":[2427.0000000251457],"total_keys":1,"block":0,"practice":4,"trial_type":"pit-trial","trial_index":155,"time_elapsed":640126,"internal_node_id":"0.0-0.0-7.7-0.7","task_version":"battery-v0.2"},{"rune":"4","rune_set":"elianto","hex":"#f73b6a7A","correct":32,"choice":32,"rt":920.0000000419095,"accuracy":1,"outcome":"-1","keys":[2417.9999999469146],"total_keys":1,"block":0,"practice":4,"trial_type":"pit-trial","trial_index":156,"time_elapsed":643747,"internal_node_id":"0.0-0.0-7.8-0.8","task_version":"battery-v0.2"},{"rune":"4","rune_set":"elianto","hex":"#f73b6a7A","correct":32,"choice":-1,"rt":-1,"accuracy":0,"outcome":"-10","keys":[],"total_keys":0,"block":0,"practice":4,"trial_type":"pit-trial","trial_index":157,"time_elapsed":647773,"internal_node_id":"0.0-0.0-7.9-0.9","task_version":"battery-v0.2"},{"rune":"4","rune_set":"elianto","hex":"#f73b6a7A","correct":32,"choice":32,"rt":1274.9999999068677,"accuracy":1,"outcome":"-1","keys":[2758.0000000307336],"total_keys":1,"block":0,"practice":4,"trial_type":"pit-trial","trial_index":158,"time_elapsed":651757,"internal_node_id":"0.0-0.0-7.10-0.10","task_version":"battery-v0.2"},{"rune":"4","rune_set":"elianto","hex":"#f73b6a7A","correct":32,"choice":32,"rt":1126.0000000474975,"accuracy":1,"outcome":"-1","keys":[2650.999999954365],"total_keys":1,"block":0,"practice":4,"trial_type":"pit-trial","trial_index":159,"time_elapsed":655611,"internal_node_id":"0.0-0.0-7.11-0.11","task_version":"battery-v0.2"},{"rune":"4","rune_set":"elianto","hex":"#f73b6a7A","correct":32,"choice":32,"rt":836.9999999413267,"accuracy":1,"outcome":"-1","keys":[2344.9999999720603],"total_keys":1,"block":0,"practice":4,"trial_type":"pit-trial","trial_index":160,"time_elapsed":659184,"internal_node_id":"0.0-0.0-7.12-0.12","task_version":"battery-v0.2"},{"view_history":"[{\"page_index\":0,\"viewing_time\":38214.00000003632},{\"page_index\":1,\"viewing_time\":3944.9999999487773},{\"page_index\":2,\"viewing_time\":1545.0000000419095},{\"page_index\":3,\"viewing_time\":974.9999999767169},{\"page_index\":4,\"viewing_time\":792.0000000158325},{\"page_index\":5,\"viewing_time\":822.9999999748543}]","rt":46295.00000004191,"trial_type":"pit-instructions","trial_index":161,"time_elapsed":705482,"internal_node_id":"0.0-0.0-8.0","task_version":"battery-v0.2"},{"responses":["Press SPACE","+10","-1","True","False"],"num_errors":1,"rt":18277.000000001863,"trial_type":"pit-comprehension","trial_index":162,"time_elapsed":723772,"internal_node_id":"0.0-0.0-9.0","task_version":"battery-v0.2"},{"view_history":"[{\"page_index\":0,\"viewing_time\":2077.000000048429},{\"page_index\":1,\"viewing_time\":2094.9999999720603}]","rt":4172.000000020489,"trial_type":"pit-instructions","trial_index":163,"time_elapsed":727951,"internal_node_id":"0.0-1.0","task_version":"battery-v0.2"},{"rune":"Y","rune_set":"bacs2","hex":"#3366ff99","correct":-1,"choice":32,"rt":239.00000005960464,"accuracy":0,"outcome":"+1","keys":[1739.9999999906868],"total_keys":1,"block":1,"trial":1,"stimulus":0,"robot":2,"valence":"win","action":"no-go","sham":0,"trial_type":"pit-trial","trial_index":164,"time_elapsed":730905,"internal_node_id":"0.0-2.0","task_version":"battery-v0.2"},{"rune":"H","rune_set":"bacs2","hex":"#3366ff99","correct":32,"choice":32,"rt":794.9999999254942,"accuracy":1,"outcome":"+10","keys":[1310.9999999869615,2295.9999999729916],"total_keys":2,"block":1,"trial":2,"stimulus":3,"robot":1,"valence":"win","action":"go","sham":0,"trial_type":"pit-trial","trial_index":165,"time_elapsed":734402,"internal_node_id":"0.0-3.0","task_version":"battery-v0.2"},{"rune":"T","rune_set":"bacs2","hex":"#3366ff99","correct":32,"choice":32,"rt":452.0000000484288,"accuracy":1,"outcome":"+10","keys":[1260.0000000093132,1955.0000000745058],"total_keys":2,"block":1,"trial":3,"stimulus":1,"robot":1,"valence":"win","action":"go","sham":0,"trial_type":"pit-trial","trial_index":166,"time_elapsed":737558,"internal_node_id":"0.0-4.0","task_version":"battery-v0.2"},{"rune":"Q","rune_set":"bacs2","hex":"#f73b6a7A","correct":-1,"choice":32,"rt":938.0000000819564,"accuracy":0,"outcome":"-10","keys":[1358.0000000074506,2452.000000048429],"total_keys":2,"block":1,"trial":4,"stimulus":2,"robot":4,"valence":"lose","action":"no-go","sham":0,"trial_type":"pit-trial","trial_index":167,"time_elapsed":741211,"internal_node_id":"0.0-5.0","task_version":"battery-v0.2"},{"rune":"Q","rune_set":"bacs2","hex":"#f73b6a7A","correct":-1,"choice":-1,"rt":-1,"accuracy":1,"outcome":"-1","keys":[1469.9999999720603,3351.9999999552965],"total_keys":2,"block":1,"trial":5,"stimulus":2,"robot":4,"valence":"lose","action":"no-go","sham":0,"trial_type":"pit-trial","trial_index":168,"time_elapsed":745226,"internal_node_id":"0.0-6.0","task_version":"battery-v0.2"},{"rune":"H","rune_set":"bacs2","hex":"#3366ff99","correct":32,"choice":32,"rt":466.9999999459833,"accuracy":1,"outcome":"+10","keys":[1358.9999999385327,1985.9999999171123],"total_keys":2,"block":1,"trial":6,"stimulus":3,"robot":1,"valence":"win","action":"go","sham":0,"trial_type":"pit-trial","trial_index":169,"time_elapsed":749080,"internal_node_id":"0.0-7.0","task_version":"battery-v0.2"},{"rune":"T","rune_set":"bacs2","hex":"#3366ff99","correct":32,"choice":32,"rt":654.0000000968575,"accuracy":1,"outcome":"+10","keys":[2161.0000000800937],"total_keys":1,"block":1,"trial":7,"stimulus":1,"robot":1,"valence":"win","action":"go","sham":0,"trial_type":"pit-trial","trial_index":170,"time_elapsed":752445,"internal_node_id":"0.0-8.0","task_version":"battery-v0.2"},{"rune":"Y","rune_set":"bacs2","hex":"#3366ff99","correct":-1,"choice":32,"rt":831.9999999366701,"accuracy":0,"outcome":"+1","keys":[1365.999999921769,2350.999999907799],"total_keys":2,"block":1,"trial":8,"stimulus":0,"robot":2,"valence":"win","action":"no-go","sham":0,"trial_type":"pit-trial","trial_index":171,"time_elapsed":756002,"internal_node_id":"0.0-9.0","task_version":"battery-v0.2"},{"rune":"H","rune_set":"bacs2","hex":"#3366ff99","correct":32,"choice":32,"rt":425.00000004656613,"accuracy":1,"outcome":"+10","keys":[1346.0000000195578,1925.0000000465661],"total_keys":2,"block":1,"trial":9,"stimulus":3,"robot":1,"valence":"win","action":"go","sham":0,"trial_type":"pit-trial","trial_index":172,"time_elapsed":759130,"internal_node_id":"0.0-10.0","task_version":"battery-v0.2"},{"rune":"Q","rune_set":"bacs2","hex":"#f73b6a7A","correct":-1,"choice":32,"rt":113.0000000121072,"accuracy":0,"outcome":"-1","keys":[1628.9999999571592],"total_keys":1,"block":1,"trial":10,"stimulus":2,"robot":4,"valence":"lose","action":"no-go","sham":1,"trial_type":"pit-trial","trial_index":173,"time_elapsed":761964,"internal_node_id":"0.0-11.0","task_version":"battery-v0.2"},{"rune":"Y","rune_set":"bacs2","hex":"#3366ff99","correct":-1,"choice":32,"rt":625,"accuracy":0,"outcome":"+10","keys":[797.0000000204891,1378.000000026077,2125],"total_keys":3,"block":1,"trial":11,"stimulus":0,"robot":2,"valence":"win","action":"no-go","sham":1,"trial_type":"pit-trial","trial_index":174,"time_elapsed":765291,"internal_node_id":"0.0-12.0","task_version":"battery-v0.2"},{"rune":"T","rune_set":"bacs2","hex":"#3366ff99","correct":32,"choice":32,"rt":885.0000000093132,"accuracy":1,"outcome":"+10","keys":[396.99999999720603,1356.000000028871,2398.0000000447035],"total_keys":3,"block":1,"trial":12,"stimulus":1,"robot":1,"valence":"win","action":"go","sham":0,"trial_type":"pit-trial","trial_index":175,"time_elapsed":768894,"internal_node_id":"0.0-13.0","task_version":"battery-v0.2"},{"rune":"H","rune_set":"bacs2","hex":"#3366ff99","correct":32,"choice":32,"rt":74.99999995343387,"accuracy":1,"outcome":"+1","keys":[978.9999999338761,1583.9999999152496],"total_keys":2,"block":1,"trial":13,"stimulus":3,"robot":1,"valence":"win","action":"go","sham":1,"trial_type":"pit-trial","trial_index":176,"time_elapsed":771688,"internal_node_id":"0.0-14.0","task_version":"battery-v0.2"},{"rune":"Q","rune_set":"bacs2","hex":"#f73b6a7A","correct":-1,"choice":-1,"rt":-1,"accuracy":1,"outcome":"-1","keys":[185.99999998696148,1351.9999999552965,3453.999999910593],"total_keys":3,"block":1,"trial":14,"stimulus":2,"robot":4,"valence":"lose","action":"no-go","sham":0,"trial_type":"pit-trial","trial_index":177,"time_elapsed":775691,"internal_node_id":"0.0-15.0","task_version":"battery-v0.2"},{"rune":"Y","rune_set":"bacs2","hex":"#3366ff99","correct":-1,"choice":32,"rt":65.9999999916181,"accuracy":0,"outcome":"+1","keys":[1594.0000000409782],"total_keys":1,"block":1,"trial":15,"stimulus":0,"robot":2,"valence":"win","action":"no-go","sham":0,"trial_type":"pit-trial","trial_index":178,"time_elapsed":778494,"internal_node_id":"0.0-16.0","task_version":"battery-v0.2"},{"rune":"T","rune_set":"bacs2","hex":"#3366ff99","correct":32,"choice":32,"rt":184.0000000083819,"accuracy":1,"outcome":"+10","keys":[905.0000000279397,1711.9999999413267],"total_keys":2,"block":1,"trial":16,"stimulus":1,"robot":1,"valence":"win","action":"go","sham":0,"trial_type":"pit-trial","trial_index":179,"time_elapsed":781410,"internal_node_id":"0.0-17.0","task_version":"battery-v0.2"},{"rune":"Q","rune_set":"bacs2","hex":"#f73b6a7A","correct":-1,"choice":32,"rt":1.0000000474974513,"accuracy":0,"outcome":"-10","keys":[1503.000000026077],"total_keys":1,"block":1,"trial":17,"stimulus":2,"robot":4,"valence":"lose","action":"no-go","sham":0,"trial_type":"pit-trial","trial_index":180,"time_elapsed":784114,"internal_node_id":"0.0-18.0","task_version":"battery-v0.2"},{"rune":"T","rune_set":"bacs2","hex":"#3366ff99","correct":32,"choice":-1,"rt":-1,"accuracy":0,"outcome":"+1","keys":[1474.999999976717],"total_keys":1,"block":1,"trial":18,"stimulus":1,"robot":1,"valence":"win","action":"go","sham":0,"trial_type":"pit-trial","trial_index":181,"time_elapsed":788122,"internal_node_id":"0.0-19.0","task_version":"battery-v0.2"},{"rune":"Y","rune_set":"bacs2","hex":"#3366ff99","correct":-1,"choice":32,"rt":562.0000000344589,"accuracy":0,"outcome":"+1","keys":[94.99999997206032,2062.999999965541],"total_keys":2,"block":1,"trial":19,"stimulus":0,"robot":2,"valence":"win","action":"no-go","sham":0,"trial_type":"pit-trial","trial_index":182,"time_elapsed":791389,"internal_node_id":"0.0-20.0","task_version":"battery-v0.2"},{"rune":"H","rune_set":"bacs2","hex":"#3366ff99","correct":32,"choice":32,"rt":0,"accuracy":1,"outcome":"+10","keys":[401.0000000707805,1330.0000000745058,1501.9999999785796],"total_keys":3,"block":1,"trial":20,"stimulus":3,"robot":1,"valence":"win","action":"go","sham":0,"trial_type":"pit-trial","trial_index":183,"time_elapsed":794095,"internal_node_id":"0.0-21.0","task_version":"battery-v0.2"},{"rune":"H","rune_set":"bacs2","hex":"#3366ff99","correct":32,"choice":32,"rt":25.999999954365194,"accuracy":1,"outcome":"+1","keys":[1061.9999999180436,1530.9999999590218,2671.999999904074],"total_keys":3,"block":1,"trial":21,"stimulus":3,"robot":1,"valence":"win","action":"go","sham":1,"trial_type":"pit-trial","trial_index":184,"time_elapsed":796830,"internal_node_id":"0.0-22.0","task_version":"battery-v0.2"},{"rune":"T","rune_set":"bacs2","hex":"#3366ff99","correct":32,"choice":32,"rt":998.0000000214204,"accuracy":1,"outcome":"+10","keys":[1103.999999933876,1233.9999999385327,2520.0000000186265],"total_keys":3,"block":1,"trial":22,"stimulus":1,"robot":1,"valence":"win","action":"go","sham":0,"trial_type":"pit-trial","trial_index":185,"time_elapsed":800552,"internal_node_id":"0.0-23.0","task_version":"battery-v0.2"},{"rune":"Y","rune_set":"bacs2","hex":"#3366ff99","correct":-1,"choice":32,"rt":432.0000000298023,"accuracy":0,"outcome":"+1","keys":[1214.9999999674037,1937.000000034459],"total_keys":2,"block":1,"trial":23,"stimulus":0,"robot":2,"valence":"win","action":"no-go","sham":0,"trial_type":"pit-trial","trial_index":186,"time_elapsed":803690,"internal_node_id":"0.0-24.0","task_version":"battery-v0.2"},{"rune":"Q","rune_set":"bacs2","hex":"#f73b6a7A","correct":-1,"choice":-1,"rt":-1,"accuracy":1,"outcome":"-1","keys":[422.0000000204891,1483.0000000074506,3341.9999999459833],"total_keys":3,"block":1,"trial":24,"stimulus":2,"robot":4,"valence":"lose","action":"no-go","sham":0,"trial_type":"pit-trial","trial_index":187,"time_elapsed":807692,"internal_node_id":"0.0-25.0","task_version":"battery-v0.2"},{"rune":"Q","rune_set":"bacs2","hex":"#f73b6a7A","correct":-1,"choice":32,"rt":139.0000000828877,"accuracy":0,"outcome":"-10","keys":[1643.0000000400469],"total_keys":1,"block":1,"trial":25,"stimulus":2,"robot":4,"valence":"lose","action":"no-go","sham":0,"trial_type":"pit-trial","trial_index":188,"time_elapsed":810538,"internal_node_id":"0.0-26.0","task_version":"battery-v0.2"},{"rune":"H","rune_set":"bacs2","hex":"#3366ff99","correct":32,"choice":32,"rt":625.9999999310821,"accuracy":1,"outcome":"+10","keys":[824.0000000223517,2125.999999931082],"total_keys":2,"block":1,"trial":26,"stimulus":3,"robot":1,"valence":"win","action":"go","sham":0,"trial_type":"pit-trial","trial_index":189,"time_elapsed":813892,"internal_node_id":"0.0-27.0","task_version":"battery-v0.2"},{"rune":"T","rune_set":"bacs2","hex":"#3366ff99","correct":32,"choice":32,"rt":50.99999997764826,"accuracy":1,"outcome":"+10","keys":[1557.9999999608845,2630.9999999357387],"total_keys":2,"block":1,"trial":27,"stimulus":1,"robot":1,"valence":"win","action":"go","sham":0,"trial_type":"pit-trial","trial_index":190,"time_elapsed":816659,"internal_node_id":"0.0-28.0","task_version":"battery-v0.2"},{"rune":"Y","rune_set":"bacs2","hex":"#3366ff99","correct":-1,"choice":32,"rt":576.0000000009313,"accuracy":0,"outcome":"+10","keys":[934.0000000083819,2077.000000048429,2807.0000000298023],"total_keys":3,"block":1,"trial":28,"stimulus":0,"robot":2,"valence":"win","action":"no-go","sham":1,"trial_type":"pit-trial","trial_index":191,"time_elapsed":819937,"internal_node_id":"0.0-29.0","task_version":"battery-v0.2"},{"rune":"Y","rune_set":"bacs2","hex":"#3366ff99","correct":-1,"choice":32,"rt":277.9999999329448,"accuracy":0,"outcome":"+1","keys":[809.0000000083819,1789.9999999208376,2606.999999959953],"total_keys":3,"block":1,"trial":29,"stimulus":0,"robot":2,"valence":"win","action":"no-go","sham":0,"trial_type":"pit-trial","trial_index":192,"time_elapsed":822932,"internal_node_id":"0.0-30.0","task_version":"battery-v0.2"},{"rune":"Q","rune_set":"bacs2","hex":"#f73b6a7A","correct":-1,"choice":-1,"rt":-1,"accuracy":1,"outcome":"-1","keys":[393.00000004004687,1310.9999999869615,3540.999999968335],"total_keys":3,"block":1,"trial":30,"stimulus":2,"robot":4,"valence":"lose","action":"no-go","sham":0,"trial_type":"pit-trial","trial_index":193,"time_elapsed":826936,"internal_node_id":"0.0-31.0","task_version":"battery-v0.2"},{"rune":"H","rune_set":"bacs2","hex":"#3366ff99","correct":32,"choice":32,"rt":165.0000000372529,"accuracy":1,"outcome":"+10","keys":[750,1668.999999994412,2589.9999999674037],"total_keys":3,"block":1,"trial":31,"stimulus":3,"robot":1,"valence":"win","action":"go","sham":0,"trial_type":"pit-trial","trial_index":194,"time_elapsed":829816,"internal_node_id":"0.0-32.0","task_version":"battery-v0.2"},{"rune":"T","rune_set":"bacs2","hex":"#3366ff99","correct":32,"choice":32,"rt":869.9999999953434,"accuracy":1,"outcome":"+10","keys":[687.0000000344589,1458.0000001005828,2371.000000042841],"total_keys":3,"block":1,"trial":32,"stimulus":1,"robot":1,"valence":"win","action":"go","sham":0,"trial_type":"pit-trial","trial_index":195,"time_elapsed":833390,"internal_node_id":"0.0-33.0","task_version":"battery-v0.2"},{"rune":"H","rune_set":"bacs2","hex":"#3366ff99","correct":32,"choice":32,"rt":32.00000000651926,"accuracy":1,"outcome":"+10","keys":[928.0000000726432,1538.0000000586733],"total_keys":2,"block":1,"trial":33,"stimulus":3,"robot":1,"valence":"win","action":"go","sham":0,"trial_type":"pit-trial","trial_index":196,"time_elapsed":836131,"internal_node_id":"0.0-34.0","task_version":"battery-v0.2"},{"rune":"Q","rune_set":"bacs2","hex":"#f73b6a7A","correct":-1,"choice":32,"rt":201.00000000093132,"accuracy":0,"outcome":"-10","keys":[867.9999999003485,1710.9999998938292],"total_keys":2,"block":1,"trial":34,"stimulus":2,"robot":4,"valence":"lose","action":"no-go","sham":0,"trial_type":"pit-trial","trial_index":197,"time_elapsed":839055,"internal_node_id":"0.0-35.0","task_version":"battery-v0.2"},{"rune":"E","rune_set":"bacs2","hex":"#3366ff99","correct":32,"choice":32,"rt":330.9999998891726,"accuracy":1,"outcome":"+10","keys":[725.9999999077991,1830.9999998891726],"total_keys":2,"block":1,"trial":35,"stimulus":4,"robot":1,"valence":"win","action":"go","sham":0,"trial_type":"pit-trial","trial_index":198,"time_elapsed":842095,"internal_node_id":"0.0-36.0","task_version":"battery-v0.2"},{"rune":"Y","rune_set":"bacs2","hex":"#3366ff99","correct":-1,"choice":32,"rt":296.00000008940697,"accuracy":0,"outcome":"+1","keys":[282.00000000651926,1796.000000089407],"total_keys":2,"block":1,"trial":36,"stimulus":0,"robot":2,"valence":"win","action":"no-go","sham":0,"trial_type":"pit-trial","trial_index":199,"time_elapsed":845098,"internal_node_id":"0.0-37.0","task_version":"battery-v0.2"},{"rune":"Q","rune_set":"bacs2","hex":"#f73b6a7A","correct":-1,"choice":32,"rt":104.99999998137355,"accuracy":0,"outcome":"-10","keys":[631.0000000521541,1606.000000028871,2581.000000005588],"total_keys":3,"block":1,"trial":37,"stimulus":2,"robot":4,"valence":"lose","action":"no-go","sham":0,"trial_type":"pit-trial","trial_index":200,"time_elapsed":847908,"internal_node_id":"0.0-38.0","task_version":"battery-v0.2"},{"rune":"Y","rune_set":"bacs2","hex":"#3366ff99","correct":-1,"choice":32,"rt":52.00000002514571,"accuracy":0,"outcome":"+1","keys":[887.9999999189749,1552.9999999562278],"total_keys":2,"block":1,"trial":38,"stimulus":0,"robot":2,"valence":"win","action":"no-go","sham":0,"trial_type":"pit-trial","trial_index":201,"time_elapsed":850666,"internal_node_id":"0.0-39.0","task_version":"battery-v0.2"},{"rune":"E","rune_set":"bacs2","hex":"#3366ff99","correct":32,"choice":32,"rt":6.999999983236194,"accuracy":1,"outcome":"+10","keys":[1517.9999999236315],"total_keys":1,"block":1,"trial":39,"stimulus":4,"robot":1,"valence":"win","action":"go","sham":0,"trial_type":"pit-trial","trial_index":202,"time_elapsed":853398,"internal_node_id":"0.0-40.0","task_version":"battery-v0.2"},{"rune":"H","rune_set":"bacs2","hex":"#3366ff99","correct":32,"choice":32,"rt":169.9999999254942,"accuracy":1,"outcome":"+1","keys":[800.0000000465661,1670.9999999729916],"total_keys":2,"block":1,"trial":40,"stimulus":3,"robot":1,"valence":"win","action":"go","sham":1,"trial_type":"pit-trial","trial_index":203,"time_elapsed":856272,"internal_node_id":"0.0-41.0","task_version":"battery-v0.2"},{"rune":"C","rune_set":"bacs2","hex":"#f73b6a7A","correct":32,"choice":32,"rt":296.9999999040738,"accuracy":1,"outcome":"-10","keys":[1809.000000008382],"total_keys":1,"block":1,"trial":41,"stimulus":5,"robot":3,"valence":"lose","action":"go","sham":1,"trial_type":"pit-trial","trial_index":204,"time_elapsed":859283,"internal_node_id":"0.0-42.0","task_version":"battery-v0.2"},{"rune":"O","rune_set":"bacs2","hex":"#f73b6a7A","correct":-1,"choice":-1,"rt":-1,"accuracy":1,"outcome":"-1","keys":[3540.000000037253],"total_keys":1,"block":1,"trial":42,"stimulus":6,"robot":4,"valence":"lose","action":"no-go","sham":0,"trial_type":"pit-trial","trial_index":205,"time_elapsed":863291,"internal_node_id":"0.0-43.0","task_version":"battery-v0.2"},{"rune":"E","rune_set":"bacs2","hex":"#3366ff99","correct":32,"choice":32,"rt":1199.0000000223517,"accuracy":1,"outcome":"+10","keys":[2701.9999999320135],"total_keys":1,"block":1,"trial":43,"stimulus":4,"robot":1,"valence":"win","action":"go","sham":0,"trial_type":"pit-trial","trial_index":206,"time_elapsed":867199,"internal_node_id":"0.0-44.0","task_version":"battery-v0.2"},{"rune":"Y","rune_set":"bacs2","hex":"#3366ff99","correct":-1,"choice":32,"rt":33.99999998509884,"accuracy":0,"outcome":"+1","keys":[1569.9999999487773],"total_keys":1,"block":1,"trial":44,"stimulus":0,"robot":2,"valence":"win","action":"no-go","sham":0,"trial_type":"pit-trial","trial_index":207,"time_elapsed":869998,"internal_node_id":"0.0-45.0","task_version":"battery-v0.2"},{"rune":"Y","rune_set":"bacs2","hex":"#3366ff99","correct":-1,"choice":32,"rt":85.99999989382923,"accuracy":0,"outcome":"+1","keys":[1596.99999995064],"total_keys":1,"block":1,"trial":45,"stimulus":0,"robot":2,"valence":"win","action":"no-go","sham":0,"trial_type":"pit-trial","trial_index":208,"time_elapsed":872797,"internal_node_id":"0.0-46.0","task_version":"battery-v0.2"},{"rune":"O","rune_set":"bacs2","hex":"#f73b6a7A","correct":-1,"choice":32,"rt":447.9999999748543,"accuracy":0,"outcome":"-1","keys":[2011.9999999878928],"total_keys":1,"block":1,"trial":46,"stimulus":6,"robot":4,"valence":"lose","action":"no-go","sham":1,"trial_type":"pit-trial","trial_index":209,"time_elapsed":876015,"internal_node_id":"0.0-47.0","task_version":"battery-v0.2"},{"rune":"E","rune_set":"bacs2","hex":"#3366ff99","correct":32,"choice":-1,"rt":-1,"accuracy":0,"outcome":"+10","keys":[1386.0000000568107,3190.000000060536],"total_keys":2,"block":1,"trial":47,"stimulus":4,"robot":1,"valence":"win","action":"go","sham":1,"trial_type":"pit-trial","trial_index":210,"time_elapsed":880025,"internal_node_id":"0.0-48.0","task_version":"battery-v0.2"},{"rune":"C","rune_set":"bacs2","hex":"#f73b6a7A","correct":32,"choice":-1,"rt":-1,"accuracy":0,"outcome":"-10","keys":[824.0000000223517,1520.9999999497086,2920.9999999729916],"total_keys":3,"block":1,"trial":48,"stimulus":5,"robot":3,"valence":"lose","action":"go","sham":0,"trial_type":"pit-trial","trial_index":211,"time_elapsed":884035,"internal_node_id":"0.0-49.0","task_version":"battery-v0.2"},{"rune":"E","rune_set":"bacs2","hex":"#3366ff99","correct":32,"choice":32,"rt":1245.9999999264255,"accuracy":1,"outcome":"+10","keys":[241.00000003818423,1155.9999999590218,2746.999999973923],"total_keys":3,"block":1,"trial":49,"stimulus":4,"robot":1,"valence":"win","action":"go","sham":0,"trial_type":"pit-trial","trial_index":212,"time_elapsed":887988,"internal_node_id":"0.0-50.0","task_version":"battery-v0.2"},{"rune":"C","rune_set":"bacs2","hex":"#f73b6a7A","correct":32,"choice":32,"rt":591.9999999459833,"accuracy":1,"outcome":"-1","keys":[702.9999999795109,2098.9999999292195],"total_keys":2,"block":1,"trial":50,"stimulus":5,"robot":3,"valence":"lose","action":"go","sham":0,"trial_type":"pit-trial","trial_index":213,"time_elapsed":891305,"internal_node_id":"0.0-51.0","task_version":"battery-v0.2"},{"rune":"G","rune_set":"bacs2","hex":"#3366ff99","correct":-1,"choice":-1,"rt":-1,"accuracy":1,"outcome":"+10","keys":[],"total_keys":0,"block":1,"trial":51,"stimulus":7,"robot":2,"valence":"win","action":"no-go","sham":0,"trial_type":"pit-trial","trial_index":214,"time_elapsed":897050,"internal_node_id":"0.0-52.0","task_version":"battery-v0.2"},{"rune":"O","rune_set":"bacs2","hex":"#f73b6a7A","correct":-1,"choice":-1,"rt":-1,"accuracy":1,"outcome":"-10","keys":[],"total_keys":0,"block":1,"trial":52,"stimulus":6,"robot":4,"valence":"lose","action":"no-go","sham":1,"trial_type":"pit-trial","trial_index":215,"time_elapsed":901502,"internal_node_id":"0.0-53.0","task_version":"battery-v0.2"},{"rune":"E","rune_set":"bacs2","hex":"#3366ff99","correct":32,"choice":32,"rt":598.9999999292195,"accuracy":1,"outcome":"+10","keys":[306.999999913387,773.9999999757856,2105.9999999124557],"total_keys":3,"block":1,"trial":53,"stimulus":4,"robot":1,"valence":"win","action":"go","sham":0,"trial_type":"pit-trial","trial_index":216,"time_elapsed":904825,"internal_node_id":"0.0-54.0","task_version":"battery-v0.2"},{"rune":"G","rune_set":"bacs2","hex":"#3366ff99","correct":-1,"choice":-1,"rt":-1,"accuracy":1,"outcome":"+10","keys":[1386.9999999878928,3690.999999991618],"total_keys":2,"block":1,"trial":54,"stimulus":7,"robot":2,"valence":"win","action":"no-go","sham":0,"trial_type":"pit-trial","trial_index":217,"time_elapsed":908841,"internal_node_id":"0.0-55.0","task_version":"battery-v0.2"},{"rune":"O","rune_set":"bacs2","hex":"#f73b6a7A","correct":-1,"choice":32,"rt":243.99999994784594,"accuracy":0,"outcome":"-10","keys":[1766.0000000614673],"total_keys":1,"block":1,"trial":55,"stimulus":6,"robot":4,"valence":"lose","action":"no-go","sham":0,"trial_type":"pit-trial","trial_index":218,"time_elapsed":911807,"internal_node_id":"0.0-56.0","task_version":"battery-v0.2"},{"rune":"C","rune_set":"bacs2","hex":"#f73b6a7A","correct":32,"choice":-1,"rt":-1,"accuracy":0,"outcome":"-1","keys":[709.000000031665],"total_keys":1,"block":1,"trial":56,"stimulus":5,"robot":3,"valence":"lose","action":"go","sham":1,"trial_type":"pit-trial","trial_index":219,"time_elapsed":915812,"internal_node_id":"0.0-57.0","task_version":"battery-v0.2"},{"rune":"O","rune_set":"bacs2","hex":"#f73b6a7A","correct":-1,"choice":-1,"rt":-1,"accuracy":1,"outcome":"-10","keys":[516.9999999925494,1386.0000000568107,2969.9999999720603],"total_keys":3,"block":1,"trial":57,"stimulus":6,"robot":4,"valence":"lose","action":"no-go","sham":1,"trial_type":"pit-trial","trial_index":220,"time_elapsed":919822,"internal_node_id":"0.0-58.0","task_version":"battery-v0.2"},{"rune":"G","rune_set":"bacs2","hex":"#3366ff99","correct":-1,"choice":32,"rt":62.999999965541065,"accuracy":0,"outcome":"+1","keys":[1564.0000000130385],"total_keys":1,"block":1,"trial":58,"stimulus":7,"robot":2,"valence":"win","action":"no-go","sham":0,"trial_type":"pit-trial","trial_index":221,"time_elapsed":922591,"internal_node_id":"0.0-59.0","task_version":"battery-v0.2"},{"rune":"C","rune_set":"bacs2","hex":"#f73b6a7A","correct":32,"choice":32,"rt":164.99999992083758,"accuracy":1,"outcome":"-1","keys":[1670.9999999729916],"total_keys":1,"block":1,"trial":59,"stimulus":5,"robot":3,"valence":"lose","action":"go","sham":0,"trial_type":"pit-trial","trial_index":222,"time_elapsed":925469,"internal_node_id":"0.0-60.0","task_version":"battery-v0.2"},{"rune":"E","rune_set":"bacs2","hex":"#3366ff99","correct":32,"choice":-1,"rt":-1,"accuracy":0,"outcome":"+1","keys":[3188.0000000819564],"total_keys":1,"block":1,"trial":60,"stimulus":4,"robot":1,"valence":"win","action":"go","sham":0,"trial_type":"pit-trial","trial_index":223,"time_elapsed":929476,"internal_node_id":"0.0-61.0","task_version":"battery-v0.2"},{"rune":"C","rune_set":"bacs2","hex":"#f73b6a7A","correct":32,"choice":32,"rt":442.9999999701977,"accuracy":1,"outcome":"-1","keys":[1976.0000000242144],"total_keys":1,"block":1,"trial":61,"stimulus":5,"robot":3,"valence":"lose","action":"go","sham":0,"trial_type":"pit-trial","trial_index":224,"time_elapsed":932655,"internal_node_id":"0.0-62.0","task_version":"battery-v0.2"},{"rune":"O","rune_set":"bacs2","hex":"#f73b6a7A","correct":-1,"choice":32,"rt":557.9999999608845,"accuracy":0,"outcome":"-10","keys":[2058.9999998919666],"total_keys":1,"block":1,"trial":62,"stimulus":6,"robot":4,"valence":"lose","action":"no-go","sham":0,"trial_type":"pit-trial","trial_index":225,"time_elapsed":935918,"internal_node_id":"0.0-63.0","task_version":"battery-v0.2"},{"rune":"G","rune_set":"bacs2","hex":"#3366ff99","correct":-1,"choice":32,"rt":1064.0000000130385,"accuracy":0,"outcome":"+10","keys":[2567.0000000391155],"total_keys":1,"block":1,"trial":63,"stimulus":7,"robot":2,"valence":"win","action":"no-go","sham":1,"trial_type":"pit-trial","trial_index":226,"time_elapsed":939694,"internal_node_id":"0.0-64.0","task_version":"battery-v0.2"},{"rune":"E","rune_set":"bacs2","hex":"#3366ff99","correct":32,"choice":-1,"rt":-1,"accuracy":0,"outcome":"+1","keys":[934.999999939464,2940.999999991618],"total_keys":2,"block":1,"trial":64,"stimulus":4,"robot":1,"valence":"win","action":"go","sham":0,"trial_type":"pit-trial","trial_index":227,"time_elapsed":943701,"internal_node_id":"0.0-65.0","task_version":"battery-v0.2"},{"rune":"G","rune_set":"bacs2","hex":"#3366ff99","correct":-1,"choice":32,"rt":717.0000000623986,"accuracy":0,"outcome":"+1","keys":[1173.9999999990687,2222.9999999981374],"total_keys":2,"block":1,"trial":65,"stimulus":7,"robot":2,"valence":"win","action":"no-go","sham":0,"trial_type":"pit-trial","trial_index":228,"time_elapsed":947125,"internal_node_id":"0.0-66.0","task_version":"battery-v0.2"},{"rune":"E","rune_set":"bacs2","hex":"#3366ff99","correct":32,"choice":32,"rt":15.000000013969839,"accuracy":1,"outcome":"+10","keys":[294.9999999254942,1532.9999999376014],"total_keys":2,"block":1,"trial":66,"stimulus":4,"robot":1,"valence":"win","action":"go","sham":0,"trial_type":"pit-trial","trial_index":229,"time_elapsed":949859,"internal_node_id":"0.0-67.0","task_version":"battery-v0.2"},{"rune":"C","rune_set":"bacs2","hex":"#f73b6a7A","correct":32,"choice":32,"rt":152.00000000186265,"accuracy":1,"outcome":"-1","keys":[1653.9999999804422],"total_keys":1,"block":1,"trial":67,"stimulus":5,"robot":3,"valence":"lose","action":"go","sham":0,"trial_type":"pit-trial","trial_index":230,"time_elapsed":952713,"internal_node_id":"0.0-68.0","task_version":"battery-v0.2"},{"rune":"O","rune_set":"bacs2","hex":"#f73b6a7A","correct":-1,"choice":-1,"rt":-1,"accuracy":1,"outcome":"-1","keys":[1398.9999999757856],"total_keys":1,"block":1,"trial":68,"stimulus":6,"robot":4,"valence":"lose","action":"no-go","sham":0,"trial_type":"pit-trial","trial_index":231,"time_elapsed":956719,"internal_node_id":"0.0-69.0","task_version":"battery-v0.2"},{"rune":"C","rune_set":"bacs2","hex":"#f73b6a7A","correct":32,"choice":-1,"rt":-1,"accuracy":0,"outcome":"-10","keys":[3242.0000000856817],"total_keys":1,"block":1,"trial":69,"stimulus":5,"robot":3,"valence":"lose","action":"go","sham":0,"trial_type":"pit-trial","trial_index":232,"time_elapsed":960727,"internal_node_id":"0.0-70.0","task_version":"battery-v0.2"},{"rune":"O","rune_set":"bacs2","hex":"#f73b6a7A","correct":-1,"choice":32,"rt":717.9999999934807,"accuracy":0,"outcome":"-10","keys":[2238.9999999431893],"total_keys":1,"block":1,"trial":70,"stimulus":6,"robot":4,"valence":"lose","action":"no-go","sham":0,"trial_type":"pit-trial","trial_index":233,"time_elapsed":964169,"internal_node_id":"0.0-71.0","task_version":"battery-v0.2"},{"rune":"E","rune_set":"bacs2","hex":"#3366ff99","correct":32,"choice":32,"rt":763.9999999664724,"accuracy":1,"outcome":"+10","keys":[2265.00000001397],"total_keys":1,"block":1,"trial":71,"stimulus":4,"robot":1,"valence":"win","action":"go","sham":0,"trial_type":"pit-trial","trial_index":234,"time_elapsed":967636,"internal_node_id":"0.0-72.0","task_version":"battery-v0.2"},{"rune":"G","rune_set":"bacs2","hex":"#3366ff99","correct":-1,"choice":-1,"rt":-1,"accuracy":1,"outcome":"+10","keys":[366.0000000381842,1280.0000000279397],"total_keys":2,"block":1,"trial":72,"stimulus":7,"robot":2,"valence":"win","action":"no-go","sham":0,"trial_type":"pit-trial","trial_index":235,"time_elapsed":971640,"internal_node_id":"0.0-73.0","task_version":"battery-v0.2"},{"rune":"O","rune_set":"bacs2","hex":"#f73b6a7A","correct":-1,"choice":32,"rt":777.9999999329448,"accuracy":0,"outcome":"-10","keys":[20.00000001862645,1390.0000000139698,2287.000000011176],"total_keys":3,"block":1,"trial":73,"stimulus":6,"robot":4,"valence":"lose","action":"no-go","sham":0,"trial_type":"pit-trial","trial_index":236,"time_elapsed":975139,"internal_node_id":"0.0-74.0","task_version":"battery-v0.2"},{"rune":"E","rune_set":"bacs2","hex":"#3366ff99","correct":32,"choice":-1,"rt":-1,"accuracy":0,"outcome":"+1","keys":[1400.000000023283,2888.0000000353903],"total_keys":2,"block":1,"trial":74,"stimulus":4,"robot":1,"valence":"win","action":"go","sham":0,"trial_type":"pit-trial","trial_index":237,"time_elapsed":979143,"internal_node_id":"0.0-75.0","task_version":"battery-v0.2"},{"rune":"G","rune_set":"bacs2","hex":"#3366ff99","correct":-1,"choice":32,"rt":89.99999996740371,"accuracy":0,"outcome":"+1","keys":[1630.9999999357387],"total_keys":1,"block":1,"trial":75,"stimulus":7,"robot":2,"valence":"win","action":"no-go","sham":0,"trial_type":"pit-trial","trial_index":238,"time_elapsed":981986,"internal_node_id":"0.0-76.0","task_version":"battery-v0.2"},{"rune":"Z","rune_set":"bacs2","hex":"#f73b6a7A","correct":32,"choice":32,"rt":391.9999999925494,"accuracy":1,"outcome":"-1","keys":[782.9999999376014,1895.0000000186265],"total_keys":2,"block":1,"trial":76,"stimulus":8,"robot":3,"valence":"lose","action":"go","sham":0,"trial_type":"pit-trial","trial_index":239,"time_elapsed":985087,"internal_node_id":"0.0-77.0","task_version":"battery-v0.2"},{"rune":"G","rune_set":"bacs2","hex":"#3366ff99","correct":-1,"choice":32,"rt":601.9999999552965,"accuracy":0,"outcome":"+1","keys":[2103.000000002794],"total_keys":1,"block":1,"trial":77,"stimulus":7,"robot":2,"valence":"win","action":"no-go","sham":0,"trial_type":"pit-trial","trial_index":240,"time_elapsed":988391,"internal_node_id":"0.0-78.0","task_version":"battery-v0.2"},{"rune":"E","rune_set":"bacs2","hex":"#3366ff99","correct":32,"choice":32,"rt":140.99999994505197,"accuracy":1,"outcome":"+1","keys":[989.0000000596046,1673.9999999990687],"total_keys":2,"block":1,"trial":78,"stimulus":4,"robot":1,"valence":"win","action":"go","sham":1,"trial_type":"pit-trial","trial_index":241,"time_elapsed":991270,"internal_node_id":"0.0-79.0","task_version":"battery-v0.2"},{"rune":"O","rune_set":"bacs2","hex":"#f73b6a7A","correct":-1,"choice":32,"rt":1175.9999999776483,"accuracy":0,"outcome":"-10","keys":[1485.0000001024455,2677.0000000251457],"total_keys":2,"block":1,"trial":79,"stimulus":6,"robot":4,"valence":"lose","action":"no-go","sham":0,"trial_type":"pit-trial","trial_index":242,"time_elapsed":995147,"internal_node_id":"0.0-80.0","task_version":"battery-v0.2"},{"rune":"Z","rune_set":"bacs2","hex":"#f73b6a7A","correct":32,"choice":32,"rt":621.999999973923,"accuracy":1,"outcome":"-1","keys":[2123.9999999525025],"total_keys":1,"block":1,"trial":80,"stimulus":8,"robot":3,"valence":"lose","action":"go","sham":0,"trial_type":"pit-trial","trial_index":243,"time_elapsed":998472,"internal_node_id":"0.0-81.0","task_version":"battery-v0.2"},{"rune":"O","rune_set":"bacs2","hex":"#f73b6a7A","correct":-1,"choice":-1,"rt":-1,"accuracy":1,"outcome":"-1","keys":[3457.9999999841675],"total_keys":1,"block":1,"trial":81,"stimulus":6,"robot":4,"valence":"lose","action":"no-go","sham":0,"trial_type":"pit-trial","trial_index":244,"time_elapsed":1002476,"internal_node_id":"0.0-82.0","task_version":"battery-v0.2"},{"rune":"X","rune_set":"bacs2","hex":"#f73b6a7A","correct":32,"choice":-1,"rt":-1,"accuracy":0,"outcome":"-10","keys":[3375.999999931082],"total_keys":1,"block":1,"trial":82,"stimulus":9,"robot":3,"valence":"lose","action":"go","sham":0,"trial_type":"pit-trial","trial_index":245,"time_elapsed":1006481,"internal_node_id":"0.0-83.0","task_version":"battery-v0.2"},{"rune":"Z","rune_set":"bacs2","hex":"#f73b6a7A","correct":32,"choice":32,"rt":105.99999991245568,"accuracy":1,"outcome":"-1","keys":[1609.9999999860302],"total_keys":1,"block":1,"trial":83,"stimulus":8,"robot":3,"valence":"lose","action":"go","sham":0,"trial_type":"pit-trial","trial_index":246,"time_elapsed":1009302,"internal_node_id":"0.0-84.0","task_version":"battery-v0.2"},{"rune":"G","rune_set":"bacs2","hex":"#3366ff99","correct":-1,"choice":-1,"rt":-1,"accuracy":1,"outcome":"+10","keys":[1129.0000000735745,3204.0000000270084],"total_keys":2,"block":1,"trial":84,"stimulus":7,"robot":2,"valence":"win","action":"no-go","sham":0,"trial_type":"pit-trial","trial_index":247,"time_elapsed":1013303,"internal_node_id":"0.0-85.0","task_version":"battery-v0.2"},{"rune":"Z","rune_set":"bacs2","hex":"#f73b6a7A","correct":32,"choice":-1,"rt":-1,"accuracy":0,"outcome":"-10","keys":[1293.999999994412,3297.000000020489],"total_keys":2,"block":1,"trial":85,"stimulus":8,"robot":3,"valence":"lose","action":"go","sham":0,"trial_type":"pit-trial","trial_index":248,"time_elapsed":1017309,"internal_node_id":"0.0-86.0","task_version":"battery-v0.2"},{"rune":"G","rune_set":"bacs2","hex":"#3366ff99","correct":-1,"choice":32,"rt":76.00000000093132,"accuracy":0,"outcome":"+1","keys":[1588.0000001052395],"total_keys":1,"block":1,"trial":86,"stimulus":7,"robot":2,"valence":"win","action":"no-go","sham":0,"trial_type":"pit-trial","trial_index":249,"time_elapsed":1020113,"internal_node_id":"0.0-87.0","task_version":"battery-v0.2"},{"rune":"O","rune_set":"bacs2","hex":"#f73b6a7A","correct":-1,"choice":-1,"rt":-1,"accuracy":1,"outcome":"-1","keys":[1369.9999999953434,3219.9999999720603],"total_keys":2,"block":1,"trial":87,"stimulus":6,"robot":4,"valence":"lose","action":"no-go","sham":0,"trial_type":"pit-trial","trial_index":250,"time_elapsed":1024116,"internal_node_id":"0.0-88.0","task_version":"battery-v0.2"},{"rune":"X","rune_set":"bacs2","hex":"#f73b6a7A","correct":32,"choice":32,"rt":381.00000005215406,"accuracy":1,"outcome":"-1","keys":[1882.0000000996515],"total_keys":1,"block":1,"trial":88,"stimulus":9,"robot":3,"valence":"lose","action":"go","sham":0,"trial_type":"pit-trial","trial_index":251,"time_elapsed":1027201,"internal_node_id":"0.0-89.0","task_version":"battery-v0.2"},{"rune":"J","rune_set":"bacs2","hex":"#3366ff99","correct":-1,"choice":32,"rt":93.99999992456287,"accuracy":0,"outcome":"+1","keys":[1593.9999999245629],"total_keys":1,"block":1,"trial":89,"stimulus":11,"robot":2,"valence":"win","action":"no-go","sham":0,"trial_type":"pit-trial","trial_index":252,"time_elapsed":1030001,"internal_node_id":"0.0-90.0","task_version":"battery-v0.2"},{"rune":"Z","rune_set":"bacs2","hex":"#f73b6a7A","correct":32,"choice":32,"rt":265.99999994505197,"accuracy":1,"outcome":"-1","keys":[817.9999999701977,1766.9999999925494],"total_keys":2,"block":1,"trial":90,"stimulus":8,"robot":3,"valence":"lose","action":"go","sham":0,"trial_type":"pit-trial","trial_index":253,"time_elapsed":1032971,"internal_node_id":"0.0-91.0","task_version":"battery-v0.2"},{"rune":"W","rune_set":"bacs2","hex":"#f73b6a7A","correct":-1,"choice":32,"rt":305.99999998230487,"accuracy":0,"outcome":"-1","keys":[410.0000000325963,1809.000000008382],"total_keys":2,"block":1,"trial":91,"stimulus":10,"robot":4,"valence":"lose","action":"no-go","sham":1,"trial_type":"pit-trial","trial_index":254,"time_elapsed":1035983,"internal_node_id":"0.0-92.0","task_version":"battery-v0.2"},{"rune":"X","rune_set":"bacs2","hex":"#f73b6a7A","correct":32,"choice":-1,"rt":-1,"accuracy":0,"outcome":"-10","keys":[288.99999998975545,1282.0000000065193,2998.0000000214204],"total_keys":3,"block":1,"trial":92,"stimulus":9,"robot":3,"valence":"lose","action":"go","sham":0,"trial_type":"pit-trial","trial_index":255,"time_elapsed":1040007,"internal_node_id":"0.0-93.0","task_version":"battery-v0.2"},{"rune":"Z","rune_set":"bacs2","hex":"#f73b6a7A","correct":32,"choice":32,"rt":447.00000004377216,"accuracy":1,"outcome":"-1","keys":[1947.0000000437722],"total_keys":1,"block":1,"trial":93,"stimulus":8,"robot":3,"valence":"lose","action":"go","sham":0,"trial_type":"pit-trial","trial_index":256,"time_elapsed":1043157,"internal_node_id":"0.0-94.0","task_version":"battery-v0.2"},{"rune":"J","rune_set":"bacs2","hex":"#3366ff99","correct":-1,"choice":32,"rt":77.00000004842877,"accuracy":0,"outcome":"+10","keys":[1020.0000000186265,1583.9999999152496],"total_keys":2,"block":1,"trial":94,"stimulus":11,"robot":2,"valence":"win","action":"no-go","sham":1,"trial_type":"pit-trial","trial_index":257,"time_elapsed":1045946,"internal_node_id":"0.0-95.0","task_version":"battery-v0.2"},{"rune":"W","rune_set":"bacs2","hex":"#f73b6a7A","correct":-1,"choice":32,"rt":827.9999999795109,"accuracy":0,"outcome":"-10","keys":[1488.9999999431893,2339.9999999674037],"total_keys":2,"block":1,"trial":95,"stimulus":10,"robot":4,"valence":"lose","action":"no-go","sham":0,"trial_type":"pit-trial","trial_index":258,"time_elapsed":1049489,"internal_node_id":"0.0-96.0","task_version":"battery-v0.2"},{"rune":"X","rune_set":"bacs2","hex":"#f73b6a7A","correct":32,"choice":-1,"rt":-1,"accuracy":0,"outcome":"-10","keys":[2917.9999999469146],"total_keys":1,"block":1,"trial":96,"stimulus":9,"robot":3,"valence":"lose","action":"go","sham":0,"trial_type":"pit-trial","trial_index":259,"time_elapsed":1053500,"internal_node_id":"0.0-97.0","task_version":"battery-v0.2"},{"rune":"Z","rune_set":"bacs2","hex":"#f73b6a7A","correct":32,"choice":32,"rt":1074.0000000223517,"accuracy":1,"outcome":"-1","keys":[1438.9999998966232,2619.9999999953434],"total_keys":2,"block":1,"trial":97,"stimulus":8,"robot":3,"valence":"lose","action":"go","sham":0,"trial_type":"pit-trial","trial_index":260,"time_elapsed":1057330,"internal_node_id":"0.0-98.0","task_version":"battery-v0.2"},{"rune":"W","rune_set":"bacs2","hex":"#f73b6a7A","correct":-1,"choice":32,"rt":251.99999997857958,"accuracy":0,"outcome":"-10","keys":[1012.9999999189749,1750],"total_keys":2,"block":1,"trial":98,"stimulus":10,"robot":4,"valence":"lose","action":"no-go","sham":0,"trial_type":"pit-trial","trial_index":261,"time_elapsed":1060284,"internal_node_id":"0.0-99.0","task_version":"battery-v0.2"},{"rune":"J","rune_set":"bacs2","hex":"#3366ff99","correct":-1,"choice":32,"rt":216.9999999459833,"accuracy":0,"outcome":"+10","keys":[427.99999995622784,1723.9999999292195],"total_keys":2,"block":1,"trial":99,"stimulus":11,"robot":2,"valence":"win","action":"no-go","sham":1,"trial_type":"pit-trial","trial_index":262,"time_elapsed":1063215,"internal_node_id":"0.0-100.0","task_version":"battery-v0.2"},{"rune":"X","rune_set":"bacs2","hex":"#f73b6a7A","correct":32,"choice":32,"rt":293.00000006332994,"accuracy":1,"outcome":"-1","keys":[1804.0000000037253,2851.9999999552965],"total_keys":2,"block":1,"trial":100,"stimulus":9,"robot":3,"valence":"lose","action":"go","sham":0,"trial_type":"pit-trial","trial_index":263,"time_elapsed":1066228,"internal_node_id":"0.0-101.0","task_version":"battery-v0.2"},{"rune":"Z","rune_set":"bacs2","hex":"#f73b6a7A","correct":32,"choice":32,"rt":40.99999996833503,"accuracy":1,"outcome":"-1","keys":[1567.9999999701977],"total_keys":1,"block":1,"trial":101,"stimulus":8,"robot":3,"valence":"lose","action":"go","sham":0,"trial_type":"pit-trial","trial_index":264,"time_elapsed":1068999,"internal_node_id":"0.0-102.0","task_version":"battery-v0.2"},{"rune":"W","rune_set":"bacs2","hex":"#f73b6a7A","correct":-1,"choice":32,"rt":347.0000000670552,"accuracy":0,"outcome":"-10","keys":[1077.0000000484288,1867.0000000856817],"total_keys":2,"block":1,"trial":102,"stimulus":10,"robot":4,"valence":"lose","action":"no-go","sham":0,"trial_type":"pit-trial","trial_index":265,"time_elapsed":1072074,"internal_node_id":"0.0-103.0","task_version":"battery-v0.2"},{"rune":"X","rune_set":"bacs2","hex":"#f73b6a7A","correct":32,"choice":32,"rt":67.99999997019768,"accuracy":1,"outcome":"-1","keys":[1595.9999999031425],"total_keys":1,"block":1,"trial":103,"stimulus":9,"robot":3,"valence":"lose","action":"go","sham":0,"trial_type":"pit-trial","trial_index":266,"time_elapsed":1074874,"internal_node_id":"0.0-104.0","task_version":"battery-v0.2"},{"rune":"J","rune_set":"bacs2","hex":"#3366ff99","correct":-1,"choice":-1,"rt":-1,"accuracy":1,"outcome":"+10","keys":[554.0000000037253],"total_keys":1,"block":1,"trial":104,"stimulus":11,"robot":2,"valence":"win","action":"no-go","sham":0,"trial_type":"pit-trial","trial_index":267,"time_elapsed":1078875,"internal_node_id":"0.0-105.0","task_version":"battery-v0.2"},{"rune":"X","rune_set":"bacs2","hex":"#f73b6a7A","correct":32,"choice":32,"rt":1247.0000000903383,"accuracy":1,"outcome":"-1","keys":[55.99999998230487,2749.000000068918],"total_keys":2,"block":1,"trial":105,"stimulus":9,"robot":3,"valence":"lose","action":"go","sham":0,"trial_type":"pit-trial","trial_index":268,"time_elapsed":1082835,"internal_node_id":"0.0-106.0","task_version":"battery-v0.2"},{"rune":"J","rune_set":"bacs2","hex":"#3366ff99","correct":-1,"choice":-1,"rt":-1,"accuracy":1,"outcome":"+10","keys":[1150.9999999543652,2991.9999999692664],"total_keys":2,"block":1,"trial":106,"stimulus":11,"robot":2,"valence":"win","action":"no-go","sham":0,"trial_type":"pit-trial","trial_index":269,"time_elapsed":1086844,"internal_node_id":"0.0-107.0","task_version":"battery-v0.2"},{"rune":"Z","rune_set":"bacs2","hex":"#f73b6a7A","correct":32,"choice":32,"rt":687.9999999655411,"accuracy":1,"outcome":"-1","keys":[1500.9999999310821,2189.9999999441206],"total_keys":2,"block":1,"trial":107,"stimulus":8,"robot":3,"valence":"lose","action":"go","sham":0,"trial_type":"pit-trial","trial_index":270,"time_elapsed":1090247,"internal_node_id":"0.0-108.0","task_version":"battery-v0.2"},{"rune":"W","rune_set":"bacs2","hex":"#f73b6a7A","correct":-1,"choice":32,"rt":810.0000000558794,"accuracy":0,"outcome":"-1","keys":[2312.000000034459],"total_keys":1,"block":1,"trial":108,"stimulus":10,"robot":4,"valence":"lose","action":"no-go","sham":1,"trial_type":"pit-trial","trial_index":271,"time_elapsed":1093764,"internal_node_id":"0.0-109.0","task_version":"battery-v0.2"},{"rune":"J","rune_set":"bacs2","hex":"#3366ff99","correct":-1,"choice":32,"rt":284.99999991618097,"accuracy":0,"outcome":"+1","keys":[710.0000000791624,1787.0000000111759],"total_keys":2,"block":1,"trial":109,"stimulus":11,"robot":2,"valence":"win","action":"no-go","sham":0,"trial_type":"pit-trial","trial_index":272,"time_elapsed":1096754,"internal_node_id":"0.0-110.0","task_version":"battery-v0.2"},{"rune":"W","rune_set":"bacs2","hex":"#f73b6a7A","correct":-1,"choice":32,"rt":45.000000041909516,"accuracy":0,"outcome":"-10","keys":[120.99999992642552,1547.000000020489],"total_keys":2,"block":1,"trial":110,"stimulus":10,"robot":4,"valence":"lose","action":"no-go","sham":0,"trial_type":"pit-trial","trial_index":273,"time_elapsed":1099515,"internal_node_id":"0.0-111.0","task_version":"battery-v0.2"},{"rune":"X","rune_set":"bacs2","hex":"#f73b6a7A","correct":32,"choice":32,"rt":619.0000000642613,"accuracy":1,"outcome":"-1","keys":[2121.000000042841],"total_keys":1,"block":1,"trial":111,"stimulus":9,"robot":3,"valence":"lose","action":"go","sham":0,"trial_type":"pit-trial","trial_index":274,"time_elapsed":1102850,"internal_node_id":"0.0-112.0","task_version":"battery-v0.2"},{"rune":"Z","rune_set":"bacs2","hex":"#f73b6a7A","correct":32,"choice":32,"rt":237.99999989569187,"accuracy":1,"outcome":"-1","keys":[1745.9999999264255],"total_keys":1,"block":1,"trial":112,"stimulus":8,"robot":3,"valence":"lose","action":"go","sham":0,"trial_type":"pit-trial","trial_index":275,"time_elapsed":1105807,"internal_node_id":"0.0-113.0","task_version":"battery-v0.2"},{"rune":"J","rune_set":"bacs2","hex":"#3366ff99","correct":-1,"choice":-1,"rt":-1,"accuracy":1,"outcome":"+10","keys":[1439.0000000130385,3454.0000000270084],"total_keys":2,"block":1,"trial":113,"stimulus":11,"robot":2,"valence":"win","action":"no-go","sham":0,"trial_type":"pit-trial","trial_index":276,"time_elapsed":1109816,"internal_node_id":"0.0-114.0","task_version":"battery-v0.2"},{"rune":"W","rune_set":"bacs2","hex":"#f73b6a7A","correct":-1,"choice":32,"rt":120.99999992642552,"accuracy":0,"outcome":"-10","keys":[1674.9999999301508],"total_keys":1,"block":1,"trial":114,"stimulus":10,"robot":4,"valence":"lose","action":"no-go","sham":0,"trial_type":"pit-trial","trial_index":277,"time_elapsed":1112695,"internal_node_id":"0.0-115.0","task_version":"battery-v0.2"},{"rune":"X","rune_set":"bacs2","hex":"#f73b6a7A","correct":32,"choice":32,"rt":907.0000000065193,"accuracy":1,"outcome":"-1","keys":[589.0000000363216,2408.0000000540167],"total_keys":2,"block":1,"trial":115,"stimulus":9,"robot":3,"valence":"lose","action":"go","sham":0,"trial_type":"pit-trial","trial_index":278,"time_elapsed":1116307,"internal_node_id":"0.0-116.0","task_version":"battery-v0.2"},{"rune":"Z","rune_set":"bacs2","hex":"#f73b6a7A","correct":32,"choice":32,"rt":858.9999999385327,"accuracy":1,"outcome":"-10","keys":[846.0000000195578,1488.9999999431893,2378.999999957159],"total_keys":3,"block":1,"trial":116,"stimulus":8,"robot":3,"valence":"lose","action":"go","sham":1,"trial_type":"pit-trial","trial_index":279,"time_elapsed":1119888,"internal_node_id":"0.0-117.0","task_version":"battery-v0.2"},{"rune":"X","rune_set":"bacs2","hex":"#f73b6a7A","correct":32,"choice":32,"rt":665.0000000372529,"accuracy":1,"outcome":"-1","keys":[2165.000000037253],"total_keys":1,"block":1,"trial":117,"stimulus":9,"robot":3,"valence":"lose","action":"go","sham":0,"trial_type":"pit-trial","trial_index":280,"time_elapsed":1123256,"internal_node_id":"0.0-118.0","task_version":"battery-v0.2"},{"rune":"J","rune_set":"bacs2","hex":"#3366ff99","correct":-1,"choice":32,"rt":683.0000000772998,"accuracy":0,"outcome":"+1","keys":[1287.999999942258,2199.0000000223517],"total_keys":2,"block":1,"trial":118,"stimulus":11,"robot":2,"valence":"win","action":"no-go","sham":0,"trial_type":"pit-trial","trial_index":281,"time_elapsed":1126656,"internal_node_id":"0.0-119.0","task_version":"battery-v0.2"},{"rune":"Z","rune_set":"bacs2","hex":"#f73b6a7A","correct":32,"choice":32,"rt":481.99999995995313,"accuracy":1,"outcome":"-1","keys":[1045.0000000419095,1989.9999999906868],"total_keys":2,"block":1,"trial":119,"stimulus":8,"robot":3,"valence":"lose","action":"go","sham":0,"trial_type":"pit-trial","trial_index":282,"time_elapsed":1129850,"internal_node_id":"0.0-120.0","task_version":"battery-v0.2"},{"rune":"W","rune_set":"bacs2","hex":"#f73b6a7A","correct":-1,"choice":-1,"rt":-1,"accuracy":1,"outcome":"-10","keys":[1441.9999999227002,3597.9999999981374],"total_keys":2,"block":1,"trial":120,"stimulus":10,"robot":4,"valence":"lose","action":"no-go","sham":1,"trial_type":"pit-trial","trial_index":283,"time_elapsed":1133869,"internal_node_id":"0.0-121.0","task_version":"battery-v0.2"},{"view_history":"[{\"page_index\":0,\"viewing_time\":3341.000000014901},{\"page_index\":1,\"viewing_time\":1772.9999999282882}]","rt":5113.999999943189,"trial_type":"pit-instructions","trial_index":284,"time_elapsed":1138983,"internal_node_id":"0.0-122.0","task_version":"battery-v0.2"},{"rune":"F","rune_set":"bacs2","hex":"#f73b6a7A","correct":-1,"choice":-1,"rt":-1,"accuracy":1,"outcome":"-1","keys":[942.0000000391155,1457.9999999841675,3165.000000037253],"total_keys":3,"block":2,"trial":121,"stimulus":1,"robot":4,"valence":"lose","action":"no-go","sham":0,"trial_type":"pit-trial","trial_index":285,"time_elapsed":1142992,"internal_node_id":"0.0-123.0","task_version":"battery-v0.2"},{"rune":"U","rune_set":"bacs2","hex":"#3366ff99","correct":-1,"choice":32,"rt":798.9999999990687,"accuracy":0,"outcome":"+1","keys":[2300.000000046566,3462.000000057742],"total_keys":2,"block":2,"trial":122,"stimulus":3,"robot":2,"valence":"win","action":"no-go","sham":0,"trial_type":"pit-trial","trial_index":286,"time_elapsed":1146496,"internal_node_id":"0.0-124.0","task_version":"battery-v0.2"},{"rune":"A","rune_set":"bacs2","hex":"#3366ff99","correct":32,"choice":32,"rt":407.00000000651926,"accuracy":1,"outcome":"+10","keys":[1253.000000026077,1908.0000000540167,2601.9999999552965],"total_keys":3,"block":2,"trial":123,"stimulus":2,"robot":1,"valence":"win","action":"go","sham":0,"trial_type":"pit-trial","trial_index":287,"time_elapsed":1149616,"internal_node_id":"0.0-125.0","task_version":"battery-v0.2"},{"rune":"N","rune_set":"bacs2","hex":"#f73b6a7A","correct":-1,"choice":32,"rt":729.9999999813735,"accuracy":0,"outcome":"-10","keys":[896.0000000661239,2248.0000000214204],"total_keys":2,"block":2,"trial":124,"stimulus":0,"robot":4,"valence":"lose","action":"no-go","sham":0,"trial_type":"pit-trial","trial_index":288,"time_elapsed":1153084,"internal_node_id":"0.0-126.0","task_version":"battery-v0.2"},{"rune":"A","rune_set":"bacs2","hex":"#3366ff99","correct":32,"choice":-1,"rt":-1,"accuracy":0,"outcome":"+10","keys":[773.9999999757856],"total_keys":1,"block":2,"trial":125,"stimulus":2,"robot":1,"valence":"win","action":"go","sham":1,"trial_type":"pit-trial","trial_index":289,"time_elapsed":1157088,"internal_node_id":"0.0-127.0","task_version":"battery-v0.2"},{"rune":"N","rune_set":"bacs2","hex":"#f73b6a7A","correct":-1,"choice":32,"rt":167.00000001583248,"accuracy":0,"outcome":"-10","keys":[1672.9999999515712],"total_keys":1,"block":2,"trial":126,"stimulus":0,"robot":4,"valence":"lose","action":"no-go","sham":0,"trial_type":"pit-trial","trial_index":290,"time_elapsed":1159962,"internal_node_id":"0.0-128.0","task_version":"battery-v0.2"},{"rune":"F","rune_set":"bacs2","hex":"#f73b6a7A","correct":-1,"choice":-1,"rt":-1,"accuracy":1,"outcome":"-1","keys":[1486.9999999646097,2976.9999999552965],"total_keys":2,"block":2,"trial":127,"stimulus":1,"robot":4,"valence":"lose","acti