[{"view_history":"[{\"page_index\":0,\"viewing_time\":2295.0550001114607},{\"page_index\":1,\"viewing_time\":133391.28999994136},{\"page_index\":2,\"viewing_time\":15055.42999994941},{\"page_index\":3,\"viewing_time\":78.99000006727874},{\"page_index\":4,\"viewing_time\":1210.190000012517},{\"page_index\":3,\"viewing_time\":2666.105000069365},{\"page_index\":4,\"viewing_time\":3045.0049999635667},{\"page_index\":5,\"viewing_time\":2395.7999998237938},{\"page_index\":6,\"viewing_time\":4610.960000194609},{\"page_index\":7,\"viewing_time\":6096.075000008568},{\"page_index\":8,\"viewing_time\":3304.9599998630583},{\"page_index\":9,\"viewing_time\":31.854999950155616}]","rt":174182.35000013374,"trial_type":"pit-instructions","trial_index":0,"time_elapsed":174194,"internal_node_id":"0.0-0.0-0.0","task_version":"battery-v0.2"},{"rune":"1","rune_set":"elianto","hex":"#3366ff99","correct":32,"choice":32,"rt":643.9499999396503,"accuracy":1,"outcome":"+10","keys":[2144.7900000493973],"total_keys":1,"block":0,"practice":1,"trial_type":"pit-trial","trial_index":1,"time_elapsed":177541,"internal_node_id":"0.0-0.0-1.0-0.0","task_version":"battery-v0.2"},{"rune":"1","rune_set":"elianto","hex":"#3366ff99","correct":32,"choice":32,"rt":422.42499999701977,"accuracy":1,"outcome":"+10","keys":[1923.7849998753518],"total_keys":1,"block":0,"practice":1,"trial_type":"pit-trial","trial_index":2,"time_elapsed":180668,"internal_node_id":"0.0-0.0-1.1-0.1","task_version":"battery-v0.2"},{"rune":"1","rune_set":"elianto","hex":"#3366ff99","correct":32,"choice":32,"rt":345.13500006869435,"accuracy":1,"outcome":"+10","keys":[1845.2849998138845],"total_keys":1,"block":0,"practice":1,"trial_type":"pit-trial","trial_index":3,"time_elapsed":183717,"internal_node_id":"0.0-0.0-1.2-0.2","task_version":"battery-v0.2"},{"rune":"1","rune_set":"elianto","hex":"#3366ff99","correct":32,"choice":32,"rt":345.8400000818074,"accuracy":1,"outcome":"+10","keys":[1847.1199998166412],"total_keys":1,"block":0,"practice":1,"trial_type":"pit-trial","trial_index":4,"time_elapsed":186773,"internal_node_id":"0.0-0.0-1.3-0.3","task_version":"battery-v0.2"},{"view_history":"[{\"page_index\":0,\"viewing_time\":2644.554999889806},{\"page_index\":1,\"viewing_time\":2925.719999941066}]","rt":5570.519999833778,"trial_type":"pit-instructions","trial_index":5,"time_elapsed":192345,"internal_node_id":"0.0-0.0-2.0","task_version":"battery-v0.2"},{"rune":"2","rune_set":"elianto","hex":"#3366ff99","correct":-1,"choice":32,"rt":338.83000002242625,"accuracy":0,"outcome":"+1","keys":[1839.8900001775473],"total_keys":1,"block":0,"practice":2,"trial_type":"pit-trial","trial_index":6,"time_elapsed":195389,"internal_node_id":"0.0-0.0-3.0-0.0","task_version":"battery-v0.2"},{"rune":"2","rune_set":"elianto","hex":"#3366ff99","correct":-1,"choice":32,"rt":245.74499996379018,"accuracy":0,"outcome":"+1","keys":[1746.409999905154],"total_keys":1,"block":0,"practice":2,"trial_type":"pit-trial","trial_index":7,"time_elapsed":198342,"internal_node_id":"0.0-0.0-3.1-0.1","task_version":"battery-v0.2"},{"rune":"2","rune_set":"elianto","hex":"#3366ff99","correct":-1,"choice":32,"rt":349.19500001706183,"accuracy":0,"outcome":"+1","keys":[1850.4800000227988],"total_keys":1,"block":0,"practice":2,"trial_type":"pit-trial","trial_index":8,"time_elapsed":201398,"internal_node_id":"0.0-0.0-3.2-0.2","task_version":"battery-v0.2"},{"rune":"2","rune_set":"elianto","hex":"#3366ff99","correct":-1,"choice":32,"rt":316.22999999672174,"accuracy":0,"outcome":"+1","keys":[1817.4000000581145],"total_keys":1,"block":0,"practice":2,"trial_type":"pit-trial","trial_index":9,"time_elapsed":204421,"internal_node_id":"0.0-0.0-3.3-0.3","task_version":"battery-v0.2"},{"rune":"2","rune_set":"elianto","hex":"#3366ff99","correct":-1,"choice":32,"rt":176.70499999076128,"accuracy":0,"outcome":"+1","keys":[1677.8649999760091],"total_keys":1,"block":0,"practice":2,"trial_type":"pit-trial","trial_index":10,"time_elapsed":207305,"internal_node_id":"0.0-0.0-3.4-0.4","task_version":"battery-v0.2"},{"rune":"2","rune_set":"elianto","hex":"#3366ff99","correct":-1,"choice":32,"rt":169.79499999433756,"accuracy":0,"outcome":"+1","keys":[1670.8899999503046],"total_keys":1,"block":0,"practice":2,"trial_type":"pit-trial","trial_index":11,"time_elapsed":210181,"internal_node_id":"0.0-0.0-3.5-0.5","task_version":"battery-v0.2"},{"rune":"2","rune_set":"elianto","hex":"#3366ff99","correct":-1,"choice":32,"rt":174.57500007003546,"accuracy":0,"outcome":"+1","keys":[1675.7900000084192],"total_keys":1,"block":0,"practice":2,"trial_type":"pit-trial","trial_index":12,"time_elapsed":213062,"internal_node_id":"0.0-0.0-3.6-0.6","task_version":"battery-v0.2"},{"rune":"2","rune_set":"elianto","hex":"#3366ff99","correct":-1,"choice":32,"rt":228.82000007666647,"accuracy":0,"outcome":"+1","keys":[1730.1799999549985],"total_keys":1,"block":0,"practice":2,"trial_type":"pit-trial","trial_index":13,"time_elapsed":215997,"internal_node_id":"0.0-0.0-3.7-0.7","task_version":"battery-v0.2"},{"rune":"2","rune_set":"elianto","hex":"#3366ff99","correct":-1,"choice":32,"rt":157.20000001601875,"accuracy":0,"outcome":"+1","keys":[1658.32499996759],"total_keys":1,"block":0,"practice":2,"trial_type":"pit-trial","trial_index":14,"time_elapsed":218859,"internal_node_id":"0.0-0.0-3.8-0.8","task_version":"battery-v0.2"},{"rune":"2","rune_set":"elianto","hex":"#3366ff99","correct":-1,"choice":-1,"rt":-1,"accuracy":1,"outcome":"+10","keys":[1332.494999980554,2851.395000005141],"total_keys":2,"block":0,"practice":2,"trial_type":"pit-trial","trial_index":15,"time_elapsed":222865,"internal_node_id":"0.0-0.0-3.9-0.9","task_version":"battery-v0.2"},{"rune":"2","rune_set":"elianto","hex":"#3366ff99","correct":-1,"choice":32,"rt":594.3550001829863,"accuracy":0,"outcome":"+1","keys":[2095.8899999968708],"total_keys":1,"block":0,"practice":2,"trial_type":"pit-trial","trial_index":16,"time_elapsed":226165,"internal_node_id":"0.0-0.0-3.10-0.10","task_version":"battery-v0.2"},{"rune":"2","rune_set":"elianto","hex":"#3366ff99","correct":-1,"choice":32,"rt":430.2349998615682,"accuracy":0,"outcome":"+1","keys":[1931.455000070855],"total_keys":1,"block":0,"practice":2,"trial_type":"pit-trial","trial_index":17,"time_elapsed":229300,"internal_node_id":"0.0-0.0-3.11-0.11","task_version":"battery-v0.2"},{"rune":"2","rune_set":"elianto","hex":"#3366ff99","correct":-1,"choice":32,"rt":323.6100000794977,"accuracy":0,"outcome":"+1","keys":[1828.0249999370426],"total_keys":1,"block":0,"practice":2,"trial_type":"pit-trial","trial_index":18,"time_elapsed":232333,"internal_node_id":"0.0-0.0-3.12-0.12","task_version":"battery-v0.2"},{"rune":"2","rune_set":"elianto","hex":"#3366ff99","correct":-1,"choice":32,"rt":173.6749999690801,"accuracy":0,"outcome":"+1","keys":[1674.2699998430908],"total_keys":1,"block":0,"practice":2,"trial_type":"pit-trial","trial_index":19,"time_elapsed":235212,"internal_node_id":"0.0-0.0-3.13-0.13","task_version":"battery-v0.2"},{"rune":"2","rune_set":"elianto","hex":"#3366ff99","correct":-1,"choice":32,"rt":271.59999986179173,"accuracy":0,"outcome":"+1","keys":[1772.3900000564754],"total_keys":1,"block":0,"practice":2,"trial_type":"pit-trial","trial_index":20,"time_elapsed":238189,"internal_node_id":"0.0-0.0-3.14-0.14","task_version":"battery-v0.2"},{"rune":"2","rune_set":"elianto","hex":"#3366ff99","correct":-1,"choice":32,"rt":389.19999985955656,"accuracy":0,"outcome":"+1","keys":[1890.6450001522899],"total_keys":1,"block":0,"practice":2,"trial_type":"pit-trial","trial_index":21,"time_elapsed":241284,"internal_node_id":"0.0-0.0-3.15-0.15","task_version":"battery-v0.2"},{"rune":"2","rune_set":"elianto","hex":"#3366ff99","correct":-1,"choice":32,"rt":391.38000016100705,"accuracy":0,"outcome":"+1","keys":[1891.7099998798221],"total_keys":1,"block":0,"practice":2,"trial_type":"pit-trial","trial_index":22,"time_elapsed":244382,"internal_node_id":"0.0-0.0-3.16-0.16","task_version":"battery-v0.2"},{"rune":"2","rune_set":"elianto","hex":"#3366ff99","correct":-1,"choice":32,"rt":277.2649999242276,"accuracy":0,"outcome":"+1","keys":[1778.3099999651313],"total_keys":1,"block":0,"practice":2,"trial_type":"pit-trial","trial_index":23,"time_elapsed":247364,"internal_node_id":"0.0-0.0-3.17-0.17","task_version":"battery-v0.2"},{"rune":"2","rune_set":"elianto","hex":"#3366ff99","correct":-1,"choice":32,"rt":95.14000010676682,"accuracy":0,"outcome":"+1","keys":[1595.8600000012666],"total_keys":1,"block":0,"practice":2,"trial_type":"pit-trial","trial_index":24,"time_elapsed":250166,"internal_node_id":"0.0-0.0-3.18-0.18","task_version":"battery-v0.2"},{"rune":"2","rune_set":"elianto","hex":"#3366ff99","correct":-1,"choice":32,"rt":405.2049999590963,"accuracy":0,"outcome":"+1","keys":[1906.5350000746548],"total_keys":1,"block":0,"practice":2,"trial_type":"pit-trial","trial_index":25,"time_elapsed":253277,"internal_node_id":"0.0-0.0-3.19-0.19","task_version":"battery-v0.2"},{"rune":"2","rune_set":"elianto","hex":"#3366ff99","correct":-1,"choice":32,"rt":238.24999993667006,"accuracy":0,"outcome":"+1","keys":[1738.7399999424815],"total_keys":1,"block":0,"practice":2,"trial_type":"pit-trial","trial_index":26,"time_elapsed":256220,"internal_node_id":"0.0-0.0-3.20-0.20","task_version":"battery-v0.2"},{"rune":"2","rune_set":"elianto","hex":"#3366ff99","correct":-1,"choice":32,"rt":321.9550000503659,"accuracy":0,"outcome":"+1","keys":[1822.5600000005215],"total_keys":1,"block":0,"practice":2,"trial_type":"pit-trial","trial_index":27,"time_elapsed":259245,"internal_node_id":"0.0-0.0-3.21-0.21","task_version":"battery-v0.2"},{"rune":"2","rune_set":"elianto","hex":"#3366ff99","correct":-1,"choice":32,"rt":277.1899998188019,"accuracy":0,"outcome":"+1","keys":[1778.5600000061095],"total_keys":1,"block":0,"practice":2,"trial_type":"pit-trial","trial_index":28,"time_elapsed":262229,"internal_node_id":"0.0-0.0-3.22-0.22","task_version":"battery-v0.2"},{"rune":"2","rune_set":"elianto","hex":"#3366ff99","correct":-1,"choice":32,"rt":302.4449998047203,"accuracy":0,"outcome":"+1","keys":[1803.8099999539554],"total_keys":1,"block":0,"practice":2,"trial_type":"pit-trial","trial_index":29,"time_elapsed":265236,"internal_node_id":"0.0-0.0-3.23-0.23","task_version":"battery-v0.2"},{"rune":"2","rune_set":"elianto","hex":"#3366ff99","correct":-1,"choice":32,"rt":344.2250001244247,"accuracy":0,"outcome":"+1","keys":[1845.6800000276417],"total_keys":1,"block":0,"practice":2,"trial_type":"pit-trial","trial_index":30,"time_elapsed":268285,"internal_node_id":"0.0-0.0-3.24-0.24","task_version":"battery-v0.2"},{"rune":"2","rune_set":"elianto","hex":"#3366ff99","correct":-1,"choice":32,"rt":509.71500016748905,"accuracy":0,"outcome":"+1","keys":[2010.3599999565631],"total_keys":1,"block":0,"practice":2,"trial_type":"pit-trial","trial_index":31,"time_elapsed":271499,"internal_node_id":"0.0-0.0-3.25-0.25","task_version":"battery-v0.2"},{"rune":"2","rune_set":"elianto","hex":"#3366ff99","correct":-1,"choice":32,"rt":633.4550001192838,"accuracy":0,"outcome":"+1","keys":[2134.624999947846],"total_keys":1,"block":0,"practice":2,"trial_type":"pit-trial","trial_index":32,"time_elapsed":274839,"internal_node_id":"0.0-0.0-3.26-0.26","task_version":"battery-v0.2"},{"rune":"2","rune_set":"elianto","hex":"#3366ff99","correct":-1,"choice":32,"rt":397.0049999188632,"accuracy":0,"outcome":"+1","keys":[1897.8449997957796],"total_keys":1,"block":0,"practice":2,"trial_type":"pit-trial","trial_index":33,"time_elapsed":277942,"internal_node_id":"0.0-0.0-3.27-0.27","task_version":"battery-v0.2"},{"rune":"2","rune_set":"elianto","hex":"#3366ff99","correct":-1,"choice":32,"rt":509.4600000884384,"accuracy":0,"outcome":"+1","keys":[2010.844999924302],"total_keys":1,"block":0,"practice":2,"trial_type":"pit-trial","trial_index":34,"time_elapsed":281162,"internal_node_id":"0.0-0.0-3.28-0.28","task_version":"battery-v0.2"},{"rune":"2","rune_set":"elianto","hex":"#3366ff99","correct":-1,"choice":32,"rt":352.22000000067055,"accuracy":0,"outcome":"+1","keys":[1853.4950001630932],"total_keys":1,"block":0,"practice":2,"trial_type":"pit-trial","trial_index":35,"time_elapsed":284220,"internal_node_id":"0.0-0.0-3.29-0.29","task_version":"battery-v0.2"},{"rune":"2","rune_set":"elianto","hex":"#3366ff99","correct":-1,"choice":32,"rt":276.91999985836446,"accuracy":0,"outcome":"+1","keys":[1778.7599998991936],"total_keys":1,"block":0,"practice":2,"trial_type":"pit-trial","trial_index":36,"time_elapsed":287205,"internal_node_id":"0.0-0.0-3.30-0.30","task_version":"battery-v0.2"},{"rune":"2","rune_set":"elianto","hex":"#3366ff99","correct":-1,"choice":32,"rt":278.25999981723726,"accuracy":0,"outcome":"+1","keys":[1779.5250001363456],"total_keys":1,"block":0,"practice":2,"trial_type":"pit-trial","trial_index":37,"time_elapsed":290189,"internal_node_id":"0.0-0.0-3.31-0.31","task_version":"battery-v0.2"},{"rune":"2","rune_set":"elianto","hex":"#3366ff99","correct":-1,"choice":32,"rt":252.779999980703,"accuracy":0,"outcome":"+1","keys":[1754.4799998868257],"total_keys":1,"block":0,"practice":2,"trial_type":"pit-trial","trial_index":38,"time_elapsed":293149,"internal_node_id":"0.0-0.0-3.32-0.32","task_version":"battery-v0.2"},{"rune":"2","rune_set":"elianto","hex":"#3366ff99","correct":-1,"choice":32,"rt":421.5150000527501,"accuracy":0,"outcome":"+1","keys":[1922.1099999267608],"total_keys":1,"block":0,"practice":2,"trial_type":"pit-trial","trial_index":39,"time_elapsed":296276,"internal_node_id":"0.0-0.0-3.33-0.33","task_version":"battery-v0.2"},{"rune":"2","rune_set":"elianto","hex":"#3366ff99","correct":-1,"choice":32,"rt":231.20999988168478,"accuracy":0,"outcome":"+1","keys":[1732.3350000660866],"total_keys":1,"block":0,"practice":2,"trial_type":"pit-trial","trial_index":40,"time_elapsed":299214,"internal_node_id":"0.0-0.0-3.34-0.34","task_version":"battery-v0.2"},{"rune":"2","rune_set":"elianto","hex":"#3366ff99","correct":-1,"choice":32,"rt":381.27500005066395,"accuracy":0,"outcome":"+1","keys":[1882.6900001149625],"total_keys":1,"block":0,"practice":2,"trial_type":"pit-trial","trial_index":41,"time_elapsed":302301,"internal_node_id":"0.0-0.0-3.35-0.35","task_version":"battery-v0.2"},{"rune":"2","rune_set":"elianto","hex":"#3366ff99","correct":-1,"choice":32,"rt":437.4550001230091,"accuracy":0,"outcome":"+1","keys":[1938.3600000292063],"total_keys":1,"block":0,"practice":2,"trial_type":"pit-trial","trial_index":42,"time_elapsed":305444,"internal_node_id":"0.0-0.0-3.36-0.36","task_version":"battery-v0.2"},{"rune":"2","rune_set":"elianto","hex":"#3366ff99","correct":-1,"choice":32,"rt":390.2499999385327,"accuracy":0,"outcome":"+1","keys":[1890.7550000585616],"total_keys":1,"block":0,"practice":2,"trial_type":"pit-trial","trial_index":43,"time_elapsed":308539,"internal_node_id":"0.0-0.0-3.37-0.37","task_version":"battery-v0.2"},{"rune":"2","rune_set":"elianto","hex":"#3366ff99","correct":-1,"choice":32,"rt":361.4949998445809,"accuracy":0,"outcome":"+1","keys":[1862.510000122711],"total_keys":1,"block":0,"practice":2,"trial_type":"pit-trial","trial_index":44,"time_elapsed":311605,"internal_node_id":"0.0-0.0-3.38-0.38","task_version":"battery-v0.2"},{"rune":"2","rune_set":"elianto","hex":"#3366ff99","correct":-1,"choice":32,"rt":518.6199999880046,"accuracy":0,"outcome":"+1","keys":[2018.879999872297],"total_keys":1,"block":0,"practice":2,"trial_type":"pit-trial","trial_index":45,"time_elapsed":314829,"internal_node_id":"0.0-0.0-3.39-0.39","task_version":"battery-v0.2"},{"rune":"2","rune_set":"elianto","hex":"#3366ff99","correct":-1,"choice":32,"rt":397.88999990560114,"accuracy":0,"outcome":"+1","keys":[1899.2449999786913],"total_keys":1,"block":0,"practice":2,"trial_type":"pit-trial","trial_index":46,"time_elapsed":317933,"internal_node_id":"0.0-0.0-3.40-0.40","task_version":"battery-v0.2"},{"rune":"2","rune_set":"elianto","hex":"#3366ff99","correct":-1,"choice":32,"rt":238.94000006839633,"accuracy":0,"outcome":"+1","keys":[1739.6849999204278],"total_keys":1,"block":0,"practice":2,"trial_type":"pit-trial","trial_index":47,"time_elapsed":320876,"internal_node_id":"0.0-0.0-3.41-0.41","task_version":"battery-v0.2"},{"rune":"2","rune_set":"elianto","hex":"#3366ff99","correct":-1,"choice":32,"rt":1195.2100000344217,"accuracy":0,"outcome":"+1","keys":[2696.5599998366088],"total_keys":1,"block":0,"practice":2,"trial_type":"pit-trial","trial_index":48,"time_elapsed":324781,"internal_node_id":"0.0-0.0-3.42-0.42","task_version":"battery-v0.2"},{"rune":"2","rune_set":"elianto","hex":"#3366ff99","correct":-1,"choice":-1,"rt":-1,"accuracy":1,"outcome":"+10","keys":[],"total_keys":0,"block":0,"practice":2,"trial_type":"pit-trial","trial_index":49,"time_elapsed":328785,"internal_node_id":"0.0-0.0-3.43-0.43","task_version":"battery-v0.2"},{"rune":"2","rune_set":"elianto","hex":"#3366ff99","correct":-1,"choice":-1,"rt":-1,"accuracy":1,"outcome":"+10","keys":[],"total_keys":0,"block":0,"practice":2,"trial_type":"pit-trial","trial_index":50,"time_elapsed":332790,"internal_node_id":"0.0-0.0-3.44-0.44","task_version":"battery-v0.2"},{"rune":"2","rune_set":"elianto","hex":"#3366ff99","correct":-1,"choice":-1,"rt":-1,"accuracy":1,"outcome":"+10","keys":[],"total_keys":0,"block":0,"practice":2,"trial_type":"pit-trial","trial_index":51,"time_elapsed":336795,"internal_node_id":"0.0-0.0-3.45-0.45","task_version":"battery-v0.2"},{"view_history":"[{\"page_index\":0,\"viewing_time\":11194.88999992609},{\"page_index\":1,\"viewing_time\":30.784999951720238}]","rt":11225.919999880716,"trial_type":"pit-instructions","trial_index":52,"time_elapsed":348024,"internal_node_id":"0.0-0.0-4.0","task_version":"battery-v0.2"},{"rune":"3","rune_set":"elianto","hex":"#f73b6a7A","correct":-1,"choice":32,"rt":524.2099999450147,"accuracy":0,"outcome":"-10","keys":[2025.425000116229],"total_keys":1,"block":0,"practice":3,"trial_type":"pit-trial","trial_index":53,"time_elapsed":351253,"internal_node_id":"0.0-0.0-5.0-0.0","task_version":"battery-v0.2"},{"rune":"3","rune_set":"elianto","hex":"#f73b6a7A","correct":-1,"choice":-1,"rt":-1,"accuracy":1,"outcome":"-1","keys":[],"total_keys":0,"block":0,"practice":3,"trial_type":"pit-trial","trial_index":54,"time_elapsed":355259,"internal_node_id":"0.0-0.0-5.1-0.1","task_version":"battery-v0.2"},{"rune":"3","rune_set":"elianto","hex":"#f73b6a7A","correct":-1,"choice":-1,"rt":-1,"accuracy":1,"outcome":"-1","keys":[],"total_keys":0,"block":0,"practice":3,"trial_type":"pit-trial","trial_index":55,"time_elapsed":359266,"internal_node_id":"0.0-0.0-5.2-0.2","task_version":"battery-v0.2"},{"rune":"3","rune_set":"elianto","hex":"#f73b6a7A","correct":-1,"choice":-1,"rt":-1,"accuracy":1,"outcome":"-1","keys":[],"total_keys":0,"block":0,"practice":3,"trial_type":"pit-trial","trial_index":56,"time_elapsed":363271,"internal_node_id":"0.0-0.0-5.3-0.3","task_version":"battery-v0.2"},{"view_history":"[{\"page_index\":0,\"viewing_time\":1996.7700000852346},{\"page_index\":1,\"viewing_time\":2048.0399997904897}]","rt":4045.050000073388,"trial_type":"pit-instructions","trial_index":57,"time_elapsed":367317,"internal_node_id":"0.0-0.0-6.0","task_version":"battery-v0.2"},{"rune":"4","rune_set":"elianto","hex":"#f73b6a7A","correct":32,"choice":-1,"rt":-1,"accuracy":0,"outcome":"-10","keys":[],"total_keys":0,"block":0,"practice":4,"trial_type":"pit-trial","trial_index":58,"time_elapsed":371321,"internal_node_id":"0.0-0.0-7.0-0.0","task_version":"battery-v0.2"},{"rune":"4","rune_set":"elianto","hex":"#f73b6a7A","correct":32,"choice":32,"rt":961.6549999918789,"accuracy":1,"outcome":"-1","keys":[2462.3449998907745],"total_keys":1,"block":0,"practice":4,"trial_type":"pit-trial","trial_index":59,"time_elapsed":374990,"internal_node_id":"0.0-0.0-7.1-0.1","task_version":"battery-v0.2"},{"rune":"4","rune_set":"elianto","hex":"#f73b6a7A","correct":32,"choice":32,"rt":502.53499997779727,"accuracy":1,"outcome":"-1","keys":[2003.78999998793],"total_keys":1,"block":0,"practice":4,"trial_type":"pit-trial","trial_index":60,"time_elapsed":378197,"internal_node_id":"0.0-0.0-7.2-0.2","task_version":"battery-v0.2"},{"rune":"4","rune_set":"elianto","hex":"#f73b6a7A","correct":32,"choice":32,"rt":715.4600000940263,"accuracy":1,"outcome":"-1","keys":[2216.994999907911],"total_keys":1,"block":0,"practice":4,"trial_type":"pit-trial","trial_index":61,"time_elapsed":381618,"internal_node_id":"0.0-0.0-7.3-0.3","task_version":"battery-v0.2"},{"view_history":"[{\"page_index\":0,\"viewing_time\":1672.3149998579174},{\"page_index\":1,\"viewing_time\":2451.7749999649823},{\"page_index\":2,\"viewing_time\":2032.0650001522154},{\"page_index\":3,\"viewing_time\":1486.9549998547882},{\"page_index\":4,\"viewing_time\":1479.0950000751764},{\"page_index\":5,\"viewing_time\":1795.6799999810755}]","rt":10918.180000036955,"trial_type":"pit-instructions","trial_index":62,"time_elapsed":392538,"internal_node_id":"0.0-0.0-8.0","task_version":"battery-v0.2"},{"responses":["Press SPACE","+10","-1","True","True"],"num_errors":0,"rt":18314.990000100806,"trial_type":"pit-comprehension","trial_index":63,"time_elapsed":410855,"internal_node_id":"0.0-0.0-9.0","task_version":"battery-v0.2"},{"view_history":"[{\"page_index\":0,\"viewing_time\":3952.470000134781},{\"page_index\":1,\"viewing_time\":2119.895000010729}]","rt":6072.645000182092,"trial_type":"pit-instructions","trial_index":64,"time_elapsed":416931,"internal_node_id":"0.0-1.0","task_version":"battery-v0.2"},{"rune":"U","rune_set":"elianto","hex":"#3366ff99","correct":-1,"choice":32,"rt":462.16499991714954,"accuracy":0,"outcome":"+1","keys":[1963.5600000619888],"total_keys":1,"block":1,"trial":1,"stimulus":0,"robot":2,"valence":"win","action":"no-go","sham":0,"trial_type":"pit-trial","trial_index":65,"time_elapsed":420098,"internal_node_id":"0.0-2.0","task_version":"battery-v0.2"},{"rune":"G","rune_set":"elianto","hex":"#3366ff99","correct":32,"choice":32,"rt":432.37000005319715,"accuracy":1,"outcome":"+10","keys":[1933.6749999783933],"total_keys":1,"block":1,"trial":2,"stimulus":3,"robot":1,"valence":"win","action":"go","sham":0,"trial_type":"pit-trial","trial_index":66,"time_elapsed":423235,"internal_node_id":"0.0-3.0","task_version":"battery-v0.2"},{"rune":"A","rune_set":"elianto","hex":"#f73b6a7A","correct":-1,"choice":-1,"rt":-1,"accuracy":1,"outcome":"-1","keys":[],"total_keys":0,"block":1,"trial":3,"stimulus":2,"robot":4,"valence":"lose","action":"no-go","sham":0,"trial_type":"pit-trial","trial_index":67,"time_elapsed":427242,"internal_node_id":"0.0-4.0","task_version":"battery-v0.2"},{"rune":"L","rune_set":"elianto","hex":"#3366ff99","correct":32,"choice":32,"rt":456.66999998502433,"accuracy":1,"outcome":"+10","keys":[1957.9750001430511],"total_keys":1,"block":1,"trial":4,"stimulus":1,"robot":1,"valence":"win","action":"go","sham":0,"trial_type":"pit-trial","trial_index":68,"time_elapsed":430405,"internal_node_id":"0.0-5.0","task_version":"battery-v0.2"},{"rune":"L","rune_set":"elianto","hex":"#3366ff99","correct":32,"choice":32,"rt":428.3950000535697,"accuracy":1,"outcome":"+10","keys":[1929.4950000476092],"total_keys":1,"block":1,"trial":5,"stimulus":1,"robot":1,"valence":"win","action":"go","sham":0,"trial_type":"pit-trial","trial_index":69,"time_elapsed":433539,"internal_node_id":"0.0-6.0","task_version":"battery-v0.2"},{"rune":"U","rune_set":"elianto","hex":"#3366ff99","correct":-1,"choice":32,"rt":615.7450000755489,"accuracy":0,"outcome":"+1","keys":[2116.5000000037253],"total_keys":1,"block":1,"trial":6,"stimulus":0,"robot":2,"valence":"win","action":"no-go","sham":0,"trial_type":"pit-trial","trial_index":70,"time_elapsed":436861,"internal_node_id":"0.0-7.0","task_version":"battery-v0.2"},{"rune":"A","rune_set":"elianto","hex":"#f73b6a7A","correct":-1,"choice":-1,"rt":-1,"accuracy":1,"outcome":"-1","keys":[],"total_keys":0,"block":1,"trial":7,"stimulus":2,"robot":4,"valence":"lose","action":"no-go","sham":0,"trial_type":"pit-trial","trial_index":71,"time_elapsed":440865,"internal_node_id":"0.0-8.0","task_version":"battery-v0.2"},{"rune":"G","rune_set":"elianto","hex":"#3366ff99","correct":32,"choice":32,"rt":529.7300000675023,"accuracy":1,"outcome":"+1","keys":[2030.3100000601262],"total_keys":1,"block":1,"trial":8,"stimulus":3,"robot":1,"valence":"win","action":"go","sham":1,"trial_type":"pit-trial","trial_index":72,"time_elapsed":444100,"internal_node_id":"0.0-9.0","task_version":"battery-v0.2"},{"rune":"L","rune_set":"elianto","hex":"#3366ff99","correct":32,"choice":32,"rt":479.76500005461276,"accuracy":1,"outcome":"+10","keys":[1980.56499985978],"total_keys":1,"block":1,"trial":9,"stimulus":1,"robot":1,"valence":"win","action":"go","sham":0,"trial_type":"pit-trial","trial_index":73,"time_elapsed":447285,"internal_node_id":"0.0-10.0","task_version":"battery-v0.2"},{"rune":"U","rune_set":"elianto","hex":"#3366ff99","correct":-1,"choice":-1,"rt":-1,"accuracy":1,"outcome":"+10","keys":[],"total_keys":0,"block":1,"trial":10,"stimulus":0,"robot":2,"valence":"win","action":"no-go","sham":0,"trial_type":"pit-trial","trial_index":74,"time_elapsed":451291,"internal_node_id":"0.0-11.0","task_version":"battery-v0.2"},{"rune":"A","rune_set":"elianto","hex":"#f73b6a7A","correct":-1,"choice":-1,"rt":-1,"accuracy":1,"outcome":"-10","keys":[],"total_keys":0,"block":1,"trial":11,"stimulus":2,"robot":4,"valence":"lose","action":"no-go","sham":1,"trial_type":"pit-trial","trial_index":75,"time_elapsed":455298,"internal_node_id":"0.0-12.0","task_version":"battery-v0.2"},{"rune":"G","rune_set":"elianto","hex":"#3366ff99","correct":32,"choice":-1,"rt":-1,"accuracy":0,"outcome":"+10","keys":[],"total_keys":0,"block":1,"trial":12,"stimulus":3,"robot":1,"valence":"win","action":"go","sham":1,"trial_type":"pit-trial","trial_index":76,"time_elapsed":459302,"internal_node_id":"0.0-13.0","task_version":"battery-v0.2"},{"rune":"G","rune_set":"elianto","hex":"#3366ff99","correct":32,"choice":-1,"rt":-1,"accuracy":0,"outcome":"+1","keys":[],"total_keys":0,"block":1,"trial":13,"stimulus":3,"robot":1,"valence":"win","action":"go","sham":0,"trial_type":"pit-trial","trial_index":77,"time_elapsed":463305,"internal_node_id":"0.0-14.0","task_version":"battery-v0.2"},{"rune":"A","rune_set":"elianto","hex":"#f73b6a7A","correct":-1,"choice":32,"rt":728.0200000386685,"accuracy":0,"outcome":"-10","keys":[2229.2249999009073],"total_keys":1,"block":1,"trial":14,"stimulus":2,"robot":4,"valence":"lose","action":"no-go","sham":0,"trial_type":"pit-trial","trial_index":78,"time_elapsed":466743,"internal_node_id":"0.0-15.0","task_version":"battery-v0.2"},{"rune":"U","rune_set":"elianto","hex":"#3366ff99","correct":-1,"choice":-1,"rt":-1,"accuracy":1,"outcome":"+1","keys":[],"total_keys":0,"block":1,"trial":15,"stimulus":0,"robot":2,"valence":"win","action":"no-go","sham":1,"trial_type":"pit-trial","trial_index":79,"time_elapsed":470750,"internal_node_id":"0.0-16.0","task_version":"battery-v0.2"},{"rune":"L","rune_set":"elianto","hex":"#3366ff99","correct":32,"choice":32,"rt":317.1849998179823,"accuracy":1,"outcome":"+10","keys":[1817.9900001268834],"total_keys":1,"block":1,"trial":16,"stimulus":1,"robot":1,"valence":"win","action":"go","sham":0,"trial_type":"pit-trial","trial_index":80,"time_elapsed":473772,"internal_node_id":"0.0-17.0","task_version":"battery-v0.2"},{"rune":"A","rune_set":"elianto","hex":"#f73b6a7A","correct":-1,"choice":32,"rt":622.9399999137968,"accuracy":0,"outcome":"-10","keys":[2123.4699999913573],"total_keys":1,"block":1,"trial":17,"stimulus":2,"robot":4,"valence":"lose","action":"no-go","sham":0,"trial_type":"pit-trial","trial_index":81,"time_elapsed":477100,"internal_node_id":"0.0-18.0","task_version":"battery-v0.2"},{"rune":"G","rune_set":"elianto","hex":"#3366ff99","correct":32,"choice":-1,"rt":-1,"accuracy":0,"outcome":"+1","keys":[],"total_keys":0,"block":1,"trial":18,"stimulus":3,"robot":1,"valence":"win","action":"go","sham":0,"trial_type":"pit-trial","trial_index":82,"time_elapsed":481106,"internal_node_id":"0.0-19.0","task_version":"battery-v0.2"},{"rune":"L","rune_set":"elianto","hex":"#3366ff99","correct":32,"choice":32,"rt":313.1000001449138,"accuracy":1,"outcome":"+10","keys":[1814.1149999573827],"total_keys":1,"block":1,"trial":19,"stimulus":1,"robot":1,"valence":"win","action":"go","sham":0,"trial_type":"pit-trial","trial_index":83,"time_elapsed":484124,"internal_node_id":"0.0-20.0","task_version":"battery-v0.2"},{"rune":"U","rune_set":"elianto","hex":"#3366ff99","correct":-1,"choice":32,"rt":566.9100000523031,"accuracy":0,"outcome":"+1","keys":[2067.934999940917],"total_keys":1,"block":1,"trial":20,"stimulus":0,"robot":2,"valence":"win","action":"no-go","sham":0,"trial_type":"pit-trial","trial_index":84,"time_elapsed":487397,"internal_node_id":"0.0-21.0","task_version":"battery-v0.2"},{"rune":"L","rune_set":"elianto","hex":"#3366ff99","correct":32,"choice":32,"rt":446.1300000548363,"accuracy":1,"outcome":"+10","keys":[1946.4849999640137],"total_keys":1,"block":1,"trial":21,"stimulus":1,"robot":1,"valence":"win","action":"go","sham":0,"trial_type":"pit-trial","trial_index":85,"time_elapsed":490548,"internal_node_id":"0.0-22.0","task_version":"battery-v0.2"},{"rune":"G","rune_set":"elianto","hex":"#3366ff99","correct":32,"choice":32,"rt":343.40499993413687,"accuracy":1,"outcome":"+10","keys":[1845.0299999676645],"total_keys":1,"block":1,"trial":22,"stimulus":3,"robot":1,"valence":"win","action":"go","sham":0,"trial_type":"pit-trial","trial_index":86,"time_elapsed":493598,"internal_node_id":"0.0-23.0","task_version":"battery-v0.2"},{"rune":"A","rune_set":"elianto","hex":"#f73b6a7A","correct":-1,"choice":32,"rt":627.1999999880791,"accuracy":0,"outcome":"-10","keys":[2128.3500001300126],"total_keys":1,"block":1,"trial":23,"stimulus":2,"robot":4,"valence":"lose","action":"no-go","sham":0,"trial_type":"pit-trial","trial_index":87,"time_elapsed":496932,"internal_node_id":"0.0-24.0","task_version":"battery-v0.2"},{"rune":"U","rune_set":"elianto","hex":"#3366ff99","correct":-1,"choice":32,"rt":440.645000198856,"accuracy":0,"outcome":"+10","keys":[1940.805000020191],"total_keys":1,"block":1,"trial":24,"stimulus":0,"robot":2,"valence":"win","action":"no-go","sham":1,"trial_type":"pit-trial","trial_index":88,"time_elapsed":500078,"internal_node_id":"0.0-25.0","task_version":"battery-v0.2"},{"rune":"U","rune_set":"elianto","hex":"#3366ff99","correct":-1,"choice":32,"rt":347.6500001270324,"accuracy":0,"outcome":"+1","keys":[1847.9349999688566],"total_keys":1,"block":1,"trial":25,"stimulus":0,"robot":2,"valence":"win","action":"no-go","sham":0,"trial_type":"pit-trial","trial_index":89,"time_elapsed":503133,"internal_node_id":"0.0-26.0","task_version":"battery-v0.2"},{"rune":"A","rune_set":"elianto","hex":"#f73b6a7A","correct":-1,"choice":-1,"rt":-1,"accuracy":1,"outcome":"-10","keys":[],"total_keys":0,"block":1,"trial":26,"stimulus":2,"robot":4,"valence":"lose","action":"no-go","sham":1,"trial_type":"pit-trial","trial_index":90,"time_elapsed":507139,"internal_node_id":"0.0-27.0","task_version":"battery-v0.2"},{"rune":"L","rune_set":"elianto","hex":"#3366ff99","correct":32,"choice":32,"rt":417.53499978221953,"accuracy":1,"outcome":"+10","keys":[1917.989999987185],"total_keys":1,"block":1,"trial":27,"stimulus":1,"robot":1,"valence":"win","action":"go","sham":0,"trial_type":"pit-trial","trial_index":91,"time_elapsed":510263,"internal_node_id":"0.0-28.0","task_version":"battery-v0.2"},{"rune":"G","rune_set":"elianto","hex":"#3366ff99","correct":32,"choice":32,"rt":491.37500021606684,"accuracy":1,"outcome":"+10","keys":[1992.9199998732656],"total_keys":1,"block":1,"trial":28,"stimulus":3,"robot":1,"valence":"win","action":"go","sham":0,"trial_type":"pit-trial","trial_index":92,"time_elapsed":513460,"internal_node_id":"0.0-29.0","task_version":"battery-v0.2"},{"rune":"A","rune_set":"elianto","hex":"#f73b6a7A","correct":-1,"choice":32,"rt":704.2899997904897,"accuracy":0,"outcome":"-1","keys":[2204.58500017412],"total_keys":1,"block":1,"trial":29,"stimulus":2,"robot":4,"valence":"lose","action":"no-go","sham":1,"trial_type":"pit-trial","trial_index":93,"time_elapsed":516870,"internal_node_id":"0.0-30.0","task_version":"battery-v0.2"},{"rune":"G","rune_set":"elianto","hex":"#3366ff99","correct":32,"choice":32,"rt":579.8599999397993,"accuracy":1,"outcome":"+1","keys":[2080.8699999470264],"total_keys":1,"block":1,"trial":30,"stimulus":3,"robot":1,"valence":"win","action":"go","sham":1,"trial_type":"pit-trial","trial_index":94,"time_elapsed":520156,"internal_node_id":"0.0-31.0","task_version":"battery-v0.2"},{"rune":"U","rune_set":"elianto","hex":"#3366ff99","correct":-1,"choice":32,"rt":448.16499995067716,"accuracy":0,"outcome":"+1","keys":[1948.6550001893193],"total_keys":1,"block":1,"trial":31,"stimulus":0,"robot":2,"valence":"win","action":"no-go","sham":0,"trial_type":"pit-trial","trial_index":95,"time_elapsed":523311,"internal_node_id":"0.0-32.0","task_version":"battery-v0.2"},{"rune":"L","rune_set":"elianto","hex":"#3366ff99","correct":32,"choice":32,"rt":292.6549999974668,"accuracy":1,"outcome":"+10","keys":[1792.7500000223517],"total_keys":1,"block":1,"trial":32,"stimulus":1,"robot":1,"valence":"win","action":"go","sham":0,"trial_type":"pit-trial","trial_index":96,"time_elapsed":526310,"internal_node_id":"0.0-33.0","task_version":"battery-v0.2"},{"rune":"U","rune_set":"elianto","hex":"#3366ff99","correct":-1,"choice":-1,"rt":-1,"accuracy":1,"outcome":"+10","keys":[],"total_keys":0,"block":1,"trial":33,"stimulus":0,"robot":2,"valence":"win","action":"no-go","sham":0,"trial_type":"pit-trial","trial_index":97,"time_elapsed":530317,"internal_node_id":"0.0-34.0","task_version":"battery-v0.2"},{"rune":"P","rune_set":"elianto","hex":"#3366ff99","correct":32,"choice":32,"rt":767.2399999573827,"accuracy":1,"outcome":"+10","keys":[2267.865000059828],"total_keys":1,"block":1,"trial":34,"stimulus":4,"robot":1,"valence":"win","action":"go","sham":0,"trial_type":"pit-trial","trial_index":98,"time_elapsed":533789,"internal_node_id":"0.0-35.0","task_version":"battery-v0.2"},{"rune":"G","rune_set":"elianto","hex":"#3366ff99","correct":32,"choice":-1,"rt":-1,"accuracy":0,"outcome":"+10","keys":[],"total_keys":0,"block":1,"trial":35,"stimulus":3,"robot":1,"valence":"win","action":"go","sham":1,"trial_type":"pit-trial","trial_index":99,"time_elapsed":537793,"internal_node_id":"0.0-36.0","task_version":"battery-v0.2"},{"rune":"A","rune_set":"elianto","hex":"#f73b6a7A","correct":-1,"choice":32,"rt":611.3400000613183,"accuracy":0,"outcome":"-1","keys":[2111.80999991484],"total_keys":1,"block":1,"trial":36,"stimulus":2,"robot":4,"valence":"lose","action":"no-go","sham":1,"trial_type":"pit-trial","trial_index":100,"time_elapsed":541108,"internal_node_id":"0.0-37.0","task_version":"battery-v0.2"},{"rune":"P","rune_set":"elianto","hex":"#3366ff99","correct":32,"choice":32,"rt":472.1150000113994,"accuracy":1,"outcome":"+10","keys":[1973.4800001606345],"total_keys":1,"block":1,"trial":37,"stimulus":4,"robot":1,"valence":"win","action":"go","sham":0,"trial_type":"pit-trial","trial_index":101,"time_elapsed":544284,"internal_node_id":"0.0-38.0","task_version":"battery-v0.2"},{"rune":"G","rune_set":"elianto","hex":"#3366ff99","correct":32,"choice":32,"rt":445.890000090003,"accuracy":1,"outcome":"+10","keys":[1946.9749999698251],"total_keys":1,"block":1,"trial":38,"stimulus":3,"robot":1,"valence":"win","action":"go","sham":0,"trial_type":"pit-trial","trial_index":102,"time_elapsed":547436,"internal_node_id":"0.0-39.0","task_version":"battery-v0.2"},{"rune":"A","rune_set":"elianto","hex":"#f73b6a7A","correct":-1,"choice":32,"rt":577.4050001055002,"accuracy":0,"outcome":"-10","keys":[2077.735000057146],"total_keys":1,"block":1,"trial":39,"stimulus":2,"robot":4,"valence":"lose","action":"no-go","sham":0,"trial_type":"pit-trial","trial_index":103,"time_elapsed":550717,"internal_node_id":"0.0-40.0","task_version":"battery-v0.2"},{"rune":"U","rune_set":"elianto","hex":"#3366ff99","correct":-1,"choice":32,"rt":388.86000006459653,"accuracy":0,"outcome":"+1","keys":[1889.7800000850111],"total_keys":1,"block":1,"trial":40,"stimulus":0,"robot":2,"valence":"win","action":"no-go","sham":0,"trial_type":"pit-trial","trial_index":104,"time_elapsed":553813,"internal_node_id":"0.0-41.0","task_version":"battery-v0.2"},{"rune":"S","rune_set":"elianto","hex":"#f73b6a7A","correct":32,"choice":32,"rt":574.50499990955,"accuracy":1,"outcome":"-1","keys":[2075.195000041276],"total_keys":1,"block":1,"trial":41,"stimulus":5,"robot":3,"valence":"lose","action":"go","sham":0,"trial_type":"pit-trial","trial_index":105,"time_elapsed":557094,"internal_node_id":"0.0-42.0","task_version":"battery-v0.2"},{"rune":"W","rune_set":"elianto","hex":"#f73b6a7A","correct":-1,"choice":32,"rt":463.1499999668449,"accuracy":0,"outcome":"-1","keys":[1964.6499999798834],"total_keys":1,"block":1,"trial":42,"stimulus":6,"robot":4,"valence":"lose","action":"no-go","sham":1,"trial_type":"pit-trial","trial_index":106,"time_elapsed":560264,"internal_node_id":"0.0-43.0","task_version":"battery-v0.2"},{"rune":"U","rune_set":"elianto","hex":"#3366ff99","correct":-1,"choice":-1,"rt":-1,"accuracy":1,"outcome":"+10","keys":[],"total_keys":0,"block":1,"trial":43,"stimulus":0,"robot":2,"valence":"win","action":"no-go","sham":0,"trial_type":"pit-trial","trial_index":107,"time_elapsed":564270,"internal_node_id":"0.0-44.0","task_version":"battery-v0.2"},{"rune":"P","rune_set":"elianto","hex":"#3366ff99","correct":32,"choice":32,"rt":619.5300000254065,"accuracy":1,"outcome":"+10","keys":[2120.8250001072884],"total_keys":1,"block":1,"trial":44,"stimulus":4,"robot":1,"valence":"win","action":"go","sham":0,"trial_type":"pit-trial","trial_index":108,"time_elapsed":567596,"internal_node_id":"0.0-45.0","task_version":"battery-v0.2"},{"rune":"U","rune_set":"elianto","hex":"#3366ff99","correct":-1,"choice":-1,"rt":-1,"accuracy":1,"outcome":"+1","keys":[],"total_keys":0,"block":1,"trial":45,"stimulus":0,"robot":2,"valence":"win","action":"no-go","sham":1,"trial_type":"pit-trial","trial_index":109,"time_elapsed":571600,"internal_node_id":"0.0-46.0","task_version":"battery-v0.2"},{"rune":"S","rune_set":"elianto","hex":"#f73b6a7A","correct":32,"choice":32,"rt":561.3599999342114,"accuracy":1,"outcome":"-1","keys":[2062.41500005126],"total_keys":1,"block":1,"trial":46,"stimulus":5,"robot":3,"valence":"lose","action":"go","sham":0,"trial_type":"pit-trial","trial_index":110,"time_elapsed":574868,"internal_node_id":"0.0-47.0","task_version":"battery-v0.2"},{"rune":"W","rune_set":"elianto","hex":"#f73b6a7A","correct":-1,"choice":32,"rt":415.32999998889863,"accuracy":0,"outcome":"-1","keys":[1916.410000063479],"total_keys":1,"block":1,"trial":47,"stimulus":6,"robot":4,"valence":"lose","action":"no-go","sham":1,"trial_type":"pit-trial","trial_index":111,"time_elapsed":577988,"internal_node_id":"0.0-48.0","task_version":"battery-v0.2"},{"rune":"P","rune_set":"elianto","hex":"#3366ff99","correct":32,"choice":32,"rt":613.7249998282641,"accuracy":1,"outcome":"+10","keys":[2115.084999939427],"total_keys":1,"block":1,"trial":48,"stimulus":4,"robot":1,"valence":"win","action":"go","sham":0,"trial_type":"pit-trial","trial_index":112,"time_elapsed":581308,"internal_node_id":"0.0-49.0","task_version":"battery-v0.2"},{"rune":"E","rune_set":"elianto","hex":"#3366ff99","correct":-1,"choice":32,"rt":470.8449998870492,"accuracy":0,"outcome":"+10","keys":[1971.8150000553578],"total_keys":1,"block":1,"trial":49,"stimulus":7,"robot":2,"valence":"win","action":"no-go","sham":1,"trial_type":"pit-trial","trial_index":113,"time_elapsed":584484,"internal_node_id":"0.0-50.0","task_version":"battery-v0.2"},{"rune":"P","rune_set":"elianto","hex":"#3366ff99","correct":32,"choice":32,"rt":470.6500000320375,"accuracy":1,"outcome":"+10","keys":[1972.1349999308586],"total_keys":1,"block":1,"trial":50,"stimulus":4,"robot":1,"valence":"win","action":"go","sham":0,"trial_type":"pit-trial","trial_index":114,"time_elapsed":587661,"internal_node_id":"0.0-51.0","task_version":"battery-v0.2"},{"rune":"W","rune_set":"elianto","hex":"#f73b6a7A","correct":-1,"choice":32,"rt":494.33499993756413,"accuracy":0,"outcome":"-10","keys":[1995.1500000897795],"total_keys":1,"block":1,"trial":51,"stimulus":6,"robot":4,"valence":"lose","action":"no-go","sham":0,"trial_type":"pit-trial","trial_index":115,"time_elapsed":590860,"internal_node_id":"0.0-52.0","task_version":"battery-v0.2"},{"rune":"S","rune_set":"elianto","hex":"#f73b6a7A","correct":32,"choice":32,"rt":472.9200000874698,"accuracy":1,"outcome":"-10","keys":[1973.215000005439],"total_keys":1,"block":1,"trial":52,"stimulus":5,"robot":3,"valence":"lose","action":"go","sham":1,"trial_type":"pit-trial","trial_index":116,"time_elapsed":594035,"internal_node_id":"0.0-53.0","task_version":"battery-v0.2"},{"rune":"E","rune_set":"elianto","hex":"#3366ff99","correct":-1,"choice":32,"rt":337.620000122115,"accuracy":0,"outcome":"+1","keys":[1838.3899999316782],"total_keys":1,"block":1,"trial":53,"stimulus":7,"robot":2,"valence":"win","action":"no-go","sham":0,"trial_type":"pit-trial","trial_index":117,"time_elapsed":597076,"internal_node_id":"0.0-54.0","task_version":"battery-v0.2"},{"rune":"P","rune_set":"elianto","hex":"#3366ff99","correct":32,"choice":32,"rt":326.49500016123056,"accuracy":1,"outcome":"+10","keys":[1827.1900000981987],"total_keys":1,"block":1,"trial":54,"stimulus":4,"robot":1,"valence":"win","action":"go","sham":0,"trial_type":"pit-trial","trial_index":118,"time_elapsed":600108,"internal_node_id":"0.0-55.0","task_version":"battery-v0.2"},{"rune":"S","rune_set":"elianto","hex":"#f73b6a7A","correct":32,"choice":32,"rt":548.3049999456853,"accuracy":1,"outcome":"-1","keys":[2051.885000197217],"total_keys":1,"block":1,"trial":55,"stimulus":5,"robot":3,"valence":"lose","action":"go","sham":0,"trial_type":"pit-trial","trial_index":119,"time_elapsed":603362,"internal_node_id":"0.0-56.0","task_version":"battery-v0.2"},{"rune":"W","rune_set":"elianto","hex":"#f73b6a7A","correct":-1,"choice":32,"rt":257.44000007398427,"accuracy":0,"outcome":"-1","keys":[1758.6999998893589],"total_keys":1,"block":1,"trial":56,"stimulus":6,"robot":4,"valence":"lose","action":"no-go","sham":1,"trial_type":"pit-trial","trial_index":120,"time_elapsed":606324,"internal_node_id":"0.0-57.0","task_version":"battery-v0.2"},{"rune":"S","rune_set":"elianto","hex":"#f73b6a7A","correct":32,"choice":32,"rt":518.9900000113994,"accuracy":1,"outcome":"-1","keys":[2020.6299999263138],"total_keys":1,"block":1,"trial":57,"stimulus":5,"robot":3,"valence":"lose","action":"go","sham":0,"trial_type":"pit-trial","trial_index":121,"time_elapsed":609548,"internal_node_id":"0.0-58.0","task_version":"battery-v0.2"},{"rune":"E","rune_set":"elianto","hex":"#3366ff99","correct":-1,"choice":32,"rt":447.2399998921901,"accuracy":0,"outcome":"+1","keys":[1948.3799999579787],"total_keys":1,"block":1,"trial":58,"stimulus":7,"robot":2,"valence":"win","action":"no-go","sham":0,"trial_type":"pit-trial","trial_index":122,"time_elapsed":612700,"internal_node_id":"0.0-59.0","task_version":"battery-v0.2"},{"rune":"P","rune_set":"elianto","hex":"#3366ff99","correct":32,"choice":32,"rt":441.9650000054389,"accuracy":1,"outcome":"+1","keys":[1942.479999968782],"total_keys":1,"block":1,"trial":59,"stimulus":4,"robot":1,"valence":"win","action":"go","sham":1,"trial_type":"pit-trial","trial_index":123,"time_elapsed":615846,"internal_node_id":"0.0-60.0","task_version":"battery-v0.2"},{"rune":"W","rune_set":"elianto","hex":"#f73b6a7A","correct":-1,"choice":32,"rt":711.2650000490248,"accuracy":0,"outcome":"-10","keys":[2212.125000078231],"total_keys":1,"block":1,"trial":60,"stimulus":6,"robot":4,"valence":"lose","action":"no-go","sham":0,"trial_type":"pit-trial","trial_index":124,"time_elapsed":619262,"internal_node_id":"0.0-61.0","task_version":"battery-v0.2"},{"rune":"E","rune_set":"elianto","hex":"#3366ff99","correct":-1,"choice":-1,"rt":-1,"accuracy":1,"outcome":"+10","keys":[],"total_keys":0,"block":1,"trial":61,"stimulus":7,"robot":2,"valence":"win","action":"no-go","sham":0,"trial_type":"pit-trial","trial_index":125,"time_elapsed":623267,"internal_node_id":"0.0-62.0","task_version":"battery-v0.2"},{"rune":"S","rune_set":"elianto","hex":"#f73b6a7A","correct":32,"choice":32,"rt":456.1100001446903,"accuracy":1,"outcome":"-1","keys":[1956.7299999762326],"total_keys":1,"block":1,"trial":62,"stimulus":5,"robot":3,"valence":"lose","action":"go","sham":0,"trial_type":"pit-trial","trial_index":126,"time_elapsed":626428,"internal_node_id":"0.0-63.0","task_version":"battery-v0.2"},{"rune":"W","rune_set":"elianto","hex":"#f73b6a7A","correct":-1,"choice":32,"rt":582.3650001548231,"accuracy":0,"outcome":"-10","keys":[2082.814999856055],"total_keys":1,"block":1,"trial":63,"stimulus":6,"robot":4,"valence":"lose","action":"no-go","sham":0,"trial_type":"pit-trial","trial_index":127,"time_elapsed":629714,"internal_node_id":"0.0-64.0","task_version":"battery-v0.2"},{"rune":"P","rune_set":"elianto","hex":"#3366ff99","correct":32,"choice":32,"rt":441.1400000099093,"accuracy":1,"outcome":"+1","keys":[1942.3099998384714],"total_keys":1,"block":1,"trial":64,"stimulus":4,"robot":1,"valence":"win","action":"go","sham":1,"trial_type":"pit-trial","trial_index":128,"time_elapsed":632865,"internal_node_id":"0.0-65.0","task_version":"battery-v0.2"},{"rune":"E","rune_set":"elianto","hex":"#3366ff99","correct":-1,"choice":32,"rt":489.0050000976771,"accuracy":0,"outcome":"+10","keys":[1993.1300000753254],"total_keys":1,"block":1,"trial":65,"stimulus":7,"robot":2,"valence":"win","action":"no-go","sham":1,"trial_type":"pit-trial","trial_index":129,"time_elapsed":636061,"internal_node_id":"0.0-66.0","task_version":"battery-v0.2"},{"rune":"W","rune_set":"elianto","hex":"#f73b6a7A","correct":-1,"choice":32,"rt":495.0349999126047,"accuracy":0,"outcome":"-10","keys":[1996.7199999373406],"total_keys":1,"block":1,"trial":66,"stimulus":6,"robot":4,"valence":"lose","action":"no-go","sham":0,"trial_type":"pit-trial","trial_index":130,"time_elapsed":639260,"internal_node_id":"0.0-67.0","task_version":"battery-v0.2"},{"rune":"S","rune_set":"elianto","hex":"#f73b6a7A","correct":32,"choice":32,"rt":551.390000153333,"accuracy":1,"outcome":"-10","keys":[2051.9149999599904],"total_keys":1,"block":1,"trial":67,"stimulus":5,"robot":3,"valence":"lose","action":"go","sham":1,"trial_type":"pit-trial","trial_index":131,"time_elapsed":642515,"internal_node_id":"0.0-68.0","task_version":"battery-v0.2"},{"rune":"P","rune_set":"elianto","hex":"#3366ff99","correct":32,"choice":32,"rt":448.39999987743795,"accuracy":1,"outcome":"+10","keys":[1949.6499998494983],"total_keys":1,"block":1,"trial":68,"stimulus":4,"robot":1,"valence":"win","action":"go","sham":0,"trial_type":"pit-trial","trial_index":132,"time_elapsed":645667,"internal_node_id":"0.0-69.0","task_version":"battery-v0.2"},{"rune":"S","rune_set":"elianto","hex":"#f73b6a7A","correct":32,"choice":32,"rt":542.4599999096245,"accuracy":1,"outcome":"-1","keys":[2043.040000135079],"total_keys":1,"block":1,"trial":69,"stimulus":5,"robot":3,"valence":"lose","action":"go","sham":0,"trial_type":"pit-trial","trial_index":133,"time_elapsed":648914,"internal_node_id":"0.0-70.0","task_version":"battery-v0.2"},{"rune":"W","rune_set":"elianto","hex":"#f73b6a7A","correct":-1,"choice":-1,"rt":-1,"accuracy":1,"outcome":"-1","keys":[],"total_keys":0,"block":1,"trial":70,"stimulus":6,"robot":4,"valence":"lose","action":"no-go","sham":0,"trial_type":"pit-trial","trial_index":134,"time_elapsed":652919,"internal_node_id":"0.0-71.0","task_version":"battery-v0.2"},{"rune":"E","rune_set":"elianto","hex":"#3366ff99","correct":-1,"choice":32,"rt":459.73500004038215,"accuracy":0,"outcome":"+1","keys":[1961.054999846965],"total_keys":1,"block":1,"trial":71,"stimulus":7,"robot":2,"valence":"win","action":"no-go","sham":0,"trial_type":"pit-trial","trial_index":135,"time_elapsed":656082,"internal_node_id":"0.0-72.0","task_version":"battery-v0.2"},{"rune":"P","rune_set":"elianto","hex":"#3366ff99","correct":32,"choice":32,"rt":313.4850000496954,"accuracy":1,"outcome":"+10","keys":[1814.4499999471009],"total_keys":1,"block":1,"trial":72,"stimulus":4,"robot":1,"valence":"win","action":"go","sham":0,"trial_type":"pit-trial","trial_index":136,"time_elapsed":659099,"internal_node_id":"0.0-73.0","task_version":"battery-v0.2"},{"rune":"W","rune_set":"elianto","hex":"#f73b6a7A","correct":-1,"choice":-1,"rt":-1,"accuracy":1,"outcome":"-1","keys":[],"total_keys":0,"block":1,"trial":73,"stimulus":6,"robot":4,"valence":"lose","action":"no-go","sham":0,"trial_type":"pit-trial","trial_index":137,"time_elapsed":663116,"internal_node_id":"0.0-74.0","task_version":"battery-v0.2"},{"rune":"E","rune_set":"elianto","hex":"#3366ff99","correct":-1,"choice":-1,"rt":-1,"accuracy":1,"outcome":"+10","keys":[],"total_keys":0,"block":1,"trial":74,"stimulus":7,"robot":2,"valence":"win","action":"no-go","sham":0,"trial_type":"pit-trial","trial_index":138,"time_elapsed":667121,"internal_node_id":"0.0-75.0","task_version":"battery-v0.2"},{"rune":"P","rune_set":"elianto","hex":"#3366ff99","correct":32,"choice":32,"rt":439.0249999705702,"accuracy":1,"outcome":"+10","keys":[1940.5650000553578],"total_keys":1,"block":1,"trial":75,"stimulus":4,"robot":1,"valence":"win","action":"go","sham":0,"trial_type":"pit-trial","trial_index":139,"time_elapsed":670267,"internal_node_id":"0.0-76.0","task_version":"battery-v0.2"},{"rune":"K","rune_set":"elianto","hex":"#f73b6a7A","correct":32,"choice":32,"rt":504.3049999512732,"accuracy":1,"outcome":"-10","keys":[2005.7899998500943],"total_keys":1,"block":1,"trial":76,"stimulus":8,"robot":3,"valence":"lose","action":"go","sham":1,"trial_type":"pit-trial","trial_index":140,"time_elapsed":673476,"internal_node_id":"0.0-77.0","task_version":"battery-v0.2"},{"rune":"E","rune_set":"elianto","hex":"#3366ff99","correct":-1,"choice":-1,"rt":-1,"accuracy":1,"outcome":"+10","keys":[],"total_keys":0,"block":1,"trial":77,"stimulus":7,"robot":2,"valence":"win","action":"no-go","sham":0,"trial_type":"pit-trial","trial_index":141,"time_elapsed":677480,"internal_node_id":"0.0-78.0","task_version":"battery-v0.2"},{"rune":"K","rune_set":"elianto","hex":"#f73b6a7A","correct":32,"choice":-1,"rt":-1,"accuracy":0,"outcome":"-10","keys":[],"total_keys":0,"block":1,"trial":78,"stimulus":8,"robot":3,"valence":"lose","action":"go","sham":0,"trial_type":"pit-trial","trial_index":142,"time_elapsed":681495,"internal_node_id":"0.0-79.0","task_version":"battery-v0.2"},{"rune":"P","rune_set":"elianto","hex":"#3366ff99","correct":32,"choice":32,"rt":658.0399998929352,"accuracy":1,"outcome":"+10","keys":[2159.7299999557436],"total_keys":1,"block":1,"trial":79,"stimulus":4,"robot":1,"valence":"win","action":"go","sham":0,"trial_type":"pit-trial","trial_index":143,"time_elapsed":684859,"internal_node_id":"0.0-80.0","task_version":"battery-v0.2"},{"rune":"W","rune_set":"elianto","hex":"#f73b6a7A","correct":-1,"choice":-1,"rt":-1,"accuracy":1,"outcome":"-1","keys":[],"total_keys":0,"block":1,"trial":80,"stimulus":6,"robot":4,"valence":"lose","action":"no-go","sham":0,"trial_type":"pit-trial","trial_index":144,"time_elapsed":688865,"internal_node_id":"0.0-81.0","task_version":"battery-v0.2"},{"rune":"W","rune_set":"elianto","hex":"#f73b6a7A","correct":-1,"choice":-1,"rt":-1,"accuracy":1,"outcome":"-10","keys":[],"total_keys":0,"block":1,"trial":81,"stimulus":6,"robot":4,"valence":"lose","action":"no-go","sham":1,"trial_type":"pit-trial","trial_index":145,"time_elapsed":692874,"internal_node_id":"0.0-82.0","task_version":"battery-v0.2"},{"rune":"D","rune_set":"elianto","hex":"#f73b6a7A","correct":32,"choice":32,"rt":674.315000185743,"accuracy":1,"outcome":"-10","keys":[2175.3249999601394],"total_keys":1,"block":1,"trial":82,"stimulus":9,"robot":3,"valence":"lose","action":"go","sham":1,"trial_type":"pit-trial","trial_index":146,"time_elapsed":696253,"internal_node_id":"0.0-83.0","task_version":"battery-v0.2"},{"rune":"E","rune_set":"elianto","hex":"#3366ff99","correct":-1,"choice":-1,"rt":-1,"accuracy":1,"outcome":"+10","keys":[],"total_keys":0,"block":1,"trial":83,"stimulus":7,"robot":2,"valence":"win","action":"no-go","sham":0,"trial_type":"pit-trial","trial_index":147,"time_elapsed":700257,"internal_node_id":"0.0-84.0","task_version":"battery-v0.2"},{"rune":"K","rune_set":"elianto","hex":"#f73b6a7A","correct":32,"choice":-1,"rt":-1,"accuracy":0,"outcome":"-10","keys":[],"total_keys":0,"block":1,"trial":84,"stimulus":8,"robot":3,"valence":"lose","action":"go","sham":0,"trial_type":"pit-trial","trial_index":148,"time_elapsed":704262,"internal_node_id":"0.0-85.0","task_version":"battery-v0.2"},{"rune":"K","rune_set":"elianto","hex":"#f73b6a7A","correct":32,"choice":-1,"rt":-1,"accuracy":0,"outcome":"-10","keys":[],"total_keys":0,"block":1,"trial":85,"stimulus":8,"robot":3,"valence":"lose","action":"go","sham":0,"trial_type":"pit-trial","trial_index":149,"time_elapsed":708264,"internal_node_id":"0.0-86.0","task_version":"battery-v0.2"},{"rune":"W","rune_set":"elianto","hex":"#f73b6a7A","correct":-1,"choice":-1,"rt":-1,"accuracy":1,"outcome":"-1","keys":[],"total_keys":0,"block":1,"trial":86,"stimulus":6,"robot":4,"valence":"lose","action":"no-go","sham":0,"trial_type":"pit-trial","trial_index":150,"time_elapsed":712273,"internal_node_id":"0.0-87.0","task_version":"battery-v0.2"},{"rune":"D","rune_set":"elianto","hex":"#f73b6a7A","correct":32,"choice":32,"rt":641.3249999750406,"accuracy":1,"outcome":"-10","keys":[2142.42499996908],"total_keys":1,"block":1,"trial":87,"stimulus":9,"robot":3,"valence":"lose","action":"go","sham":1,"trial_type":"pit-trial","trial_index":151,"time_elapsed":715620,"internal_node_id":"0.0-88.0","task_version":"battery-v0.2"},{"rune":"E","rune_set":"elianto","hex":"#3366ff99","correct":-1,"choice":-1,"rt":-1,"accuracy":1,"outcome":"+10","keys":[],"total_keys":0,"block":1,"trial":88,"stimulus":7,"robot":2,"valence":"win","action":"no-go","sham":0,"trial_type":"pit-trial","trial_index":152,"time_elapsed":719624,"internal_node_id":"0.0-89.0","task_version":"battery-v0.2"},{"rune":"V","rune_set":"elianto","hex":"#3366ff99","correct":-1,"choice":32,"rt":659.8350000567734,"accuracy":0,"outcome":"+1","keys":[2160.905000055209],"total_keys":1,"block":1,"trial":89,"stimulus":11,"robot":2,"valence":"win","action":"no-go","sham":0,"trial_type":"pit-trial","trial_index":153,"time_elapsed":722987,"internal_node_id":"0.0-90.0","task_version":"battery-v0.2"},{"rune":"K","rune_set":"elianto","hex":"#f73b6a7A","correct":32,"choice":32,"rt":912.0100000873208,"accuracy":1,"outcome":"-1","keys":[2412.9299998749048],"total_keys":1,"block":1,"trial":90,"stimulus":8,"robot":3,"valence":"lose","action":"go","sham":0,"trial_type":"pit-trial","trial_index":154,"time_elapsed":726604,"internal_node_id":"0.0-91.0","task_version":"battery-v0.2"},{"rune":"J","rune_set":"elianto","hex":"#f73b6a7A","correct":-1,"choice":32,"rt":495.714999968186,"accuracy":0,"outcome":"-10","keys":[1996.650000102818],"total_keys":1,"block":1,"trial":91,"stimulus":10,"robot":4,"valence":"lose","action":"no-go","sham":0,"trial_type":"pit-trial","trial_index":155,"time_elapsed":729805,"internal_node_id":"0.0-92.0","task_version":"battery-v0.2"},{"rune":"D","rune_set":"elianto","hex":"#f73b6a7A","correct":32,"choice":32,"rt":973.5149999614805,"accuracy":1,"outcome":"-1","keys":[2474.754999857396],"total_keys":1,"block":1,"trial":92,"stimulus":9,"robot":3,"valence":"lose","action":"go","sham":0,"trial_type":"pit-trial","trial_index":156,"time_elapsed":733484,"internal_node_id":"0.0-93.0","task_version":"battery-v0.2"},{"rune":"D","rune_set":"elianto","hex":"#f73b6a7A","correct":32,"choice":32,"rt":533.9099999982864,"accuracy":1,"outcome":"-1","keys":[2035.7200000435114],"total_keys":1,"block":1,"trial":93,"stimulus":9,"robot":3,"valence":"lose","action":"go","sham":0,"trial_type":"pit-trial","trial_index":157,"time_elapsed":736723,"internal_node_id":"0.0-94.0","task_version":"battery-v0.2"},{"rune":"K","rune_set":"elianto","hex":"#f73b6a7A","correct":32,"choice":-1,"rt":-1,"accuracy":0,"outcome":"-10","keys":[],"total_keys":0,"block":1,"trial":94,"stimulus":8,"robot":3,"valence":"lose","action":"go","sham":0,"trial_type":"pit-trial","trial_index":158,"time_elapsed":740727,"internal_node_id":"0.0-95.0","task_version":"battery-v0.2"},{"rune":"J","rune_set":"elianto","hex":"#f73b6a7A","correct":-1,"choice":-1,"rt":-1,"accuracy":1,"outcome":"-1","keys":[],"total_keys":0,"block":1,"trial":95,"stimulus":10,"robot":4,"valence":"lose","action":"no-go","sham":0,"trial_type":"pit-trial","trial_index":159,"time_elapsed":744730,"internal_node_id":"0.0-96.0","task_version":"battery-v0.2"},{"rune":"V","rune_set":"elianto","hex":"#3366ff99","correct":-1,"choice":-1,"rt":-1,"accuracy":1,"outcome":"+10","keys":[],"total_keys":0,"block":1,"trial":96,"stimulus":11,"robot":2,"valence":"win","action":"no-go","sham":0,"trial_type":"pit-trial","trial_index":160,"time_elapsed":748735,"internal_node_id":"0.0-97.0","task_version":"battery-v0.2"},{"rune":"J","rune_set":"elianto","hex":"#f73b6a7A","correct":-1,"choice":32,"rt":797.6650001946837,"accuracy":0,"outcome":"-10","keys":[2299.044999992475],"total_keys":1,"block":1,"trial":97,"stimulus":10,"robot":4,"valence":"lose","action":"no-go","sham":0,"trial_type":"pit-trial","trial_index":161,"time_elapsed":752236,"internal_node_id":"0.0-98.0","task_version":"battery-v0.2"},{"rune":"V","rune_set":"elianto","hex":"#3366ff99","correct":-1,"choice":-1,"rt":-1,"accuracy":1,"outcome":"+10","keys":[],"total_keys":0,"block":1,"trial":98,"stimulus":11,"robot":2,"valence":"win","action":"no-go","sham":0,"trial_type":"pit-trial","trial_index":162,"time_elapsed":756239,"internal_node_id":"0.0-99.0","task_version":"battery-v0.2"},{"rune":"K","rune_set":"elianto","hex":"#f73b6a7A","correct":32,"choice":32,"rt":780.1800000015646,"accuracy":1,"outcome":"-1","keys":[2281.184999970719],"total_keys":1,"block":1,"trial":99,"stimulus":8,"robot":3,"valence":"lose","action":"go","sham":0,"trial_type":"pit-trial","trial_index":163,"time_elapsed":759723,"internal_node_id":"0.0-100.0","task_version":"battery-v0.2"},{"rune":"D","rune_set":"elianto","hex":"#f73b6a7A","correct":32,"choice":32,"rt":1049.7350001242012,"accuracy":1,"outcome":"-1","keys":[2550.340000074357],"total_keys":1,"block":1,"trial":100,"stimulus":9,"robot":3,"valence":"lose","action":"go","sham":0,"trial_type":"pit-trial","trial_index":164,"time_elapsed":763477,"internal_node_id":"0.0-101.0","task_version":"battery-v0.2"},{"rune":"V","rune_set":"elianto","hex":"#3366ff99","correct":-1,"choice":-1,"rt":-1,"accuracy":1,"outcome":"+1","keys":[],"total_keys":0,"block":1,"trial":101,"stimulus":11,"robot":2,"valence":"win","action":"no-go","sham":1,"trial_type":"pit-trial","trial_index":165,"time_elapsed":767480,"internal_node_id":"0.0-102.0","task_version":"battery-v0.2"},{"rune":"J","rune_set":"elianto","hex":"#f73b6a7A","correct":-1,"choice":-1,"rt":-1,"accuracy":1,"outcome":"-1","keys":[],"total_keys":0,"block":1,"trial":102,"stimulus":10,"robot":4,"valence":"lose","action":"no-go","sham":0,"trial_type":"pit-trial","trial_index":166,"time_elapsed":771485,"internal_node_id":"0.0-103.0","task_version":"battery-v0.2"},{"rune":"K","rune_set":"elianto","hex":"#f73b6a7A","correct":32,"choice":32,"rt":683.6700001731515,"accuracy":1,"outcome":"-1","keys":[2184.974999865517],"total_keys":1,"block":1,"trial":103,"stimulus":8,"robot":3,"valence":"lose","action":"go","sham":0,"trial_type":"pit-trial","trial_index":167,"time_elapsed":774874,"internal_node_id":"0.0-104.0","task_version":"battery-v0.2"},{"rune":"D","rune_set":"elianto","hex":"#f73b6a7A","correct":32,"choice":-1,"rt":-1,"accuracy":0,"outcome":"-10","keys":[],"total_keys":0,"block":1,"trial":104,"stimulus":9,"robot":3,"valence":"lose","action":"go","sham":0,"trial_type":"pit-trial","trial_index":168,"time_elapsed":778877,"internal_node_id":"0.0-105.0","task_version":"battery-v0.2"},{"rune":"J","rune_set":"elianto","hex":"#f73b6a7A","correct":-1,"choice":-1,"rt":-1,"accuracy":1,"outcome":"-1","keys":[],"total_keys":0,"block":1,"trial":105,"stimulus":10,"robot":4,"valence":"lose","action":"no-go","sham":0,"trial_type":"pit-trial","trial_index":169,"time_elapsed":782881,"internal_node_id":"0.0-106.0","task_version":"battery-v0.2"},{"rune":"V","rune_set":"elianto","hex":"#3366ff99","correct":-1,"choice":-1,"rt":-1,"accuracy":1,"outcome":"+10","keys":[],"total_keys":0,"block":1,"trial":106,"stimulus":11,"robot":2,"valence":"win","action":"no-go","sham":0,"trial_type":"pit-trial","trial_index":170,"time_elapsed":786885,"internal_node_id":"0.0-107.0","task_version":"battery-v0.2"},{"rune":"D","rune_set":"elianto","hex":"#f73b6a7A","correct":32,"choice":-1,"rt":-1,"accuracy":0,"outcome":"-10","keys":[],"total_keys":0,"block":1,"trial":107,"stimulus":9,"robot":3,"valence":"lose","action":"go","sham":0,"trial_type":"pit-trial","trial_index":171,"time_elapsed":790887,"internal_node_id":"0.0-108.0","task_version":"battery-v0.2"},{"rune":"K","rune_set":"elianto","hex":"#f73b6a7A","correct":32,"choice":32,"rt":931.1250001192093,"accuracy":1,"outcome":"-1","keys":[2433.0299999564886],"total_keys":1,"block":1,"trial":108,"stimulus":8,"robot":3,"valence":"lose","action":"go","sham":0,"trial_type":"pit-trial","trial_index":172,"time_elapsed":794523,"internal_node_id":"0.0-109.0","task_version":"battery-v0.2"},{"rune":"V","rune_set":"elianto","hex":"#3366ff99","correct":-1,"choice":-1,"rt":-1,"accuracy":1,"outcome":"+10","keys":[],"total_keys":0,"block":1,"trial":109,"stimulus":11,"robot":2,"valence":"win","action":"no-go","sham":0,"trial_type":"pit-trial","trial_index":173,"time_elapsed":798529,"internal_node_id":"0.0-110.0","task_version":"battery-v0.2"},{"rune":"J","rune_set":"elianto","hex":"#f73b6a7A","correct":-1,"choice":32,"rt":777.8199999593198,"accuracy":0,"outcome":"-10","keys":[2278.64500018768],"total_keys":1,"block":1,"trial":110,"stimulus":10,"robot":4,"valence":"lose","action":"no-go","sham":0,"trial_type":"pit-trial","trial_index":174,"time_elapsed":802011,"internal_node_id":"0.0-111.0","task_version":"battery-v0.2"},{"rune":"K","rune_set":"elianto","hex":"#f73b6a7A","correct":32,"choice":-1,"rt":-1,"accuracy":0,"outcome":"-1","keys":[],"total_keys":0,"block":1,"trial":111,"stimulus":8,"robot":3,"valence":"lose","action":"go","sham":1,"trial_type":"pit-trial","trial_index":175,"time_elapsed":806015,"internal_node_id":"0.0-112.0","task_version":"battery-v0.2"},{"rune":"D","rune_set":"elianto","hex":"#f73b6a7A","correct":32,"choice":32,"rt":937.3149999883026,"accuracy":1,"outcome":"-1","keys":[2439.049999928102],"total_keys":1,"block":1,"trial":112,"stimulus":9,"robot":3,"valence":"lose","action":"go","sham":0,"trial_type":"pit-trial","trial_index":176,"time_elapsed":809660,"internal_node_id":"0.0-113.0","task_version":"battery-v0.2"},{"rune":"K","rune_set":"elianto","hex":"#f73b6a7A","correct":32,"choice":-1,"rt":-1,"accuracy":0,"outcome":"-10","keys":[],"total_keys":0,"block":1,"trial":113,"stimulus":8,"robot":3,"valence":"lose","action":"go","sham":0,"trial_type":"pit-trial","trial_index":177,"time_elapsed":813665,"internal_node_id":"0.0-114.0","task_version":"battery-v0.2"},{"rune":"J","rune_set":"elianto","hex":"#f73b6a7A","correct":-1,"choice":-1,"rt":-1,"accuracy":1,"outcome":"-10","keys":[],"total_keys":0,"block":1,"trial":114,"stimulus":10,"robot":4,"valence":"lose","action":"no-go","sham":1,"trial_type":"pit-trial","trial_index":178,"time_elapsed":817673,"internal_node_id":"0.0-115.0","task_version":"battery-v0.2"},{"rune":"D","rune_set":"elianto","hex":"#f73b6a7A","correct":32,"choice":-1,"rt":-1,"accuracy":0,"outcome":"-10","keys":[],"total_keys":0,"block":1,"trial":115,"stimulus":9,"robot":3,"valence":"lose","action":"go","sham":0,"trial_type":"pit-trial","trial_index":179,"time_elapsed":821678,"internal_node_id":"0.0-116.0","task_version":"battery-v0.2"},{"rune":"V","rune_set":"elianto","hex":"#3366ff99","correct":-1,"choice":-1,"rt":-1,"accuracy":1,"outcome":"+10","keys":[],"total_keys":0,"block":1,"trial":116,"stimulus":11,"robot":2,"valence":"win","action":"no-go","sham":0,"trial_type":"pit-trial","trial_index":180,"time_elapsed":825684,"internal_node_id":"0.0-117.0","task_version":"battery-v0.2"},{"rune":"D","rune_set":"elianto","hex":"#f73b6a7A","correct":32,"choice":32,"rt":407.6549999881536,"accuracy":1,"outcome":"-1","keys":[1908.534999936819],"total_keys":1,"block":1,"trial":117,"stimulus":9,"robot":3,"valence":"lose","action":"go","sham":0,"trial_type":"pit-trial","trial_index":181,"time_elapsed":828796,"internal_node_id":"0.0-118.0","task_version":"battery-v0.2"},{"rune":"K","rune_set":"elianto","hex":"#f73b6a7A","correct":32,"choice":32,"rt":286.79500008001924,"accuracy":1,"outcome":"-1","keys":[1786.8650001473725],"total_keys":1,"block":1,"trial":118,"stimulus":8,"robot":3,"valence":"lose","action":"go","sham":0,"trial_type":"pit-trial","trial_index":182,"time_elapsed":831787,"internal_node_id":"0.0-119.0","task_version":"battery-v0.2"},{"rune":"V","rune_set":"elianto","hex":"#3366ff99","correct":-1,"choice":-1,"rt":-1,"accuracy":1,"outcome":"+1","keys":[],"total_keys":0,"block":1,"trial":119,"stimulus":11,"robot":2,"valence":"win","action":"no-go","sham":1,"trial_type":"pit-trial","trial_index":183,"time_elapsed":835792,"internal_node_id":"0.0-120.0","task_version":"battery-v0.2"},{"rune":"J","rune_set":"elianto","hex":"#f73b6a7A","correct":-1,"choice":32,"rt":387.20500003546476,"accuracy":0,"outcome":"-10","keys":[1889.0150000806898],"total_keys":1,"block":1,"trial":120,"stimulus":10,"robot":4,"valence":"lose","action":"no-go","sham":0,"trial_type":"pit-trial","trial_index":184,"time_elapsed":838884,"internal_node_id":"0.0-121.0","task_version":"battery-v0.2"},{"view_history":"[{\"page_index\":0,\"viewing_time\":34864.150000037625},{\"page_index\":1,\"viewing_time\":1479.914999799803}]","rt":36344.31999991648,"trial_type":"pit-instructions","trial_index":185,"time_elapsed":875229,"internal_node_id":"0.0-122.0","task_version":"battery-v0.2"},{"rune":"F","rune_set":"elianto","hex":"#3366ff99","correct":32,"choice":32,"rt":463.59500009566545,"accuracy":1,"outcome":"+10","keys":[1964.170000050217],"total_keys":1,"block":2,"trial":121,"stimulus":2,"robot":1,"valence":"win","action":"go","sham":0,"trial_type":"pit-trial","trial_index":186,"time_elapsed":878397,"internal_node_id":"0.0-123.0","task_version":"battery-v0.2"},{"rune":"N","rune_set":"elianto","hex":"#f73b6a7A","correct":-1,"choice":32,"rt":652.910000178963,"accuracy":0,"outcome":"-10","keys":[2153.619999997318],"total_keys":1,"block":2,"trial":122,"stimulus":1,"robot":4,"valence":"lose","action":"no-go","sham":0,"trial_type":"pit-trial","trial_index":187,"time_elapsed":881755,"internal_node_id":"0.0-124.0","task_version":"battery-v0.2"},{"rune":"X","rune_set":"elianto","hex":"#3366ff99","correct":-1,"choice":32,"rt":368.58000000938773,"accuracy":0,"outcome":"+10","keys":[1869.1749998833984],"total_keys":1,"block":2,"trial":123,"stimulus":3,"robot":2,"valence":"win","action":"no-go","sham":1,"trial_type":"pit-trial","trial_index":188,"time_elapsed":884828,"internal_node_id":"0.0-125.0","task_version":"battery-v0.2"},{"rune":"Q","rune_set":"elianto","hex":"#f73b6a7A","correct":-1,"choice":-1,"rt":-1,"accuracy":1,"outcome":"-1","keys":[],"total_keys":0,"block":2,"trial":124,"stimulus":0,"robot":4,"valence":"lose","action":"no-go","sham":0,"trial_type":"pit-trial","trial_index":189,"time_elapsed":888832,"internal_node_id":"0.0-126.0","task_version":"battery-v0.2"},{"rune":"F","rune_set":"elianto","hex":"#3366ff99","correct":32,"choice":32,"rt":397.08500006236136,"accuracy":1,"outcome":"+10","keys":[1898.0950000695884],"total_keys":1,"block":2,"trial":125,"stimulus":2,"robot":1,"valence":"win","action":"go","sham":0,"trial_type":"pit-trial","trial_index":190,"time_elapsed":891932,"internal_node_id":"0.0-127.0","task_version":"battery-v0.2"},{"rune":"N","rune_set":"elianto","hex":"#f73b6a7A","correct":-1,"choice":-1,"rt":-1,"accuracy":1,"outcome":"-10","keys":[],"total_keys":0,"block":2,"trial":126,"stimulus":1,"robot":4,"valence":"lose","action":"no-go","sham":1,"trial_type":"pit-trial","trial_index":191,"time_elapsed":895936,"internal_node_id":"0.0-128.0","task_version":"battery-v0.2"},{"rune":"Q","rune_set":"elianto","hex":"#f73b6a7A","correct":-1,"choice":-1,"rt":-1,"accuracy":1,"outcome":"-10","keys":[],"total_keys":0,"block":2,"trial":127,"stimulus":0,"robot":4,"valence":"lose","action":"no-go","sham":1,"trial_type":"pit-trial","trial_index":192,"time_elapsed":899940,"internal_node_id":"0.0-129.0","task_version":"battery-v0.2"},{"rune":"X","rune_set":"elianto","hex":"#3366ff99","correct":-1,"choice":32,"rt":390.004999935627,"accuracy":0,"outcome":"+10","keys":[1890.6950000673532],"total_keys":1,"block":2,"trial":128,"stimulus":3,"robot":2,"valence":"win","action":"no-go","sham":1,"trial_type":"pit-trial","trial_index":193,"time_elapsed":903035,"internal_node_id":"0.0-130.0","task_version":"battery-v0.2"},{"rune":"X","rune_set":"elianto","hex":"#3366ff99","correct":-1,"choice":32,"rt":376.105000032112,"accuracy":0,"outcome":"+1","keys":[1877.2299999836832],"total_keys":1,"block":2,"trial":129,"stimulus":3,"robot":2,"valence":"win","action":"no-go","sham":0,"trial_type":"pit-trial","trial_index":194,"time_elapsed":906115,"internal_node_id":"0.0-131.0","task_version":"battery-v0.2"},{"rune":"F","rune_set":"elianto","hex":"#3366ff99","correct":32,"choice":32,"rt":615.8400001004338,"accuracy":1,"outcome":"+10","keys":[2116.8549999129027],"total_keys":1,"block":2,"trial":130,"stimulus":2,"robot":1,"valence":"win","action":"go","sham":0,"trial_type":"pit-trial","trial_index":195,"time_elapsed":909435,"internal_node_id":"0.0-132.0","task_version":"battery-v0.2"},{"rune":"Q","rune_set":"elianto","hex":"#f73b6a7A","correct":-1,"choice":-1,"rt":-1,"accuracy":1,"outcome":"-1","keys":[],"total_keys":0,"block":2,"trial":131,"stimulus":0,"robot":4,"valence":"lose","action":"no-go","sham":0,"trial_type":"pit-trial","trial_index":196,"time_elapsed":913437,"internal_node_id":"0.0-133.0","task_version":"battery-v0.2"},{"rune":"N","rune_set":"elianto","hex":"#f73b6a7A","correct":-1,"choice":32,"rt":710.9099999070168,"accuracy":0,"outcome":"-10","keys":[2211.505000013858],"total_keys":1,"block":2,"trial":132,"stimulus":1,"robot":4,"valence":"lose","action":"no-go","sham":0,"trial_type":"pit-trial","trial_index":197,"time_elapsed":916851,"internal_node_id":"0.0-134.0","task_version":"battery-v0.2"},{"rune":"Q","rune_set":"elianto","hex":"#f73b6a7A","correct":-1,"choice":-1,"rt":-1,"accuracy":1,"outcome":"-1","keys":[],"total_keys":0,"block":2,"trial":133,"stimulus":0,"robot":4,"valence":"lose","action":"no-go","sham":0,"trial_type":"pit-trial","trial_index":198,"time_elapsed":920856,"internal_node_id":"0.0-135.0","task_version":"battery-v0.2"},{"rune":"N","rune_set":"elianto","hex":"#f73b6a7A","correct":-1,"choice":-1,"rt":-1,"accuracy":1,"outcome":"-10","keys":[],"total_keys":0,"block":2,"trial":134,"stimulus":1,"robot":4,"valence":"lose","action":"no-go","sham":1,"trial_type":"pit-trial","trial_index":199,"time_elapsed":924862,"internal_node_id":"0.0-136.0","task_version":"battery-v0.2"},{"rune":"X","rune_set":"elianto","hex":"#3366ff99","correct":-1,"choice":32,"rt":571.5499999932945,"accuracy":0,"outcome":"+1","keys":[2072.9399998672307],"total_keys":1,"block":2,"trial":135,"stimulus":3,"robot":2,"valence":"win","action":"no-go","sham":0,"trial_type":"pit-trial","trial_index":200,"time_elapsed":928139,"internal_node_id":"0.0-137.0","task_version":"battery-v0.2"},{"rune":"F","rune_set":"elianto","hex":"#3366ff99","correct":32,"choice":32,"rt":633.6300000548363,"accuracy":1,"outcome":"+1","keys":[2134.2349997721612],"total_keys":1,"block":2,"trial":136,"stimulus":2,"robot":1,"valence":"win","action":"go","sham":1,"trial_type":"pit-trial","trial_index":201,"time_elapsed":931476,"internal_node_id":"0.0-138.0","task_version":"battery-v0.2"},{"rune":"X","rune_set":"elianto","hex":"#3366ff99","correct":-1,"choice":32,"rt":511.739999987185,"accuracy":0,"outcome":"+1","keys":[2013.0449999123812],"total_keys":1,"block":2,"trial":137,"stimulus":3,"robot":2,"valence":"win","action":"no-go","sham":0,"trial_type":"pit-trial","trial_index":202,"time_elapsed":934691,"internal_node_id":"0.0-139.0","task_version":"battery-v0.2"},{"rune":"F","rune_set":"elianto","hex":"#3366ff99","correct":32,"choice":32,"rt":824.3149998597801,"accuracy":1,"outcome":"+10","keys":[2326.005000155419],"total_keys":1,"block":2,"trial":138,"stimulus":2,"robot":1,"valence":"win","action":"go","sham":0,"trial_type":"pit-trial","trial_index":203,"time_elapsed":938219,"internal_node_id":"0.0-140.0","task_version":"battery-v0.2"},{"rune":"N","rune_set":"elianto","hex":"#f73b6a7A","correct":-1,"choice":-1,"rt":-1,"accuracy":1,"outcome":"-1","keys":[],"total_keys":0,"block":2,"trial":139,"stimulus":1,"robot":4,"valence":"lose","action":"no-go","sham":0,"trial_type":"pit-trial","trial_index":204,"time_elapsed":942231,"internal_node_id":"0.0-141.0","task_version":"battery-v0.2"},{"rune":"Q","rune_set":"elianto","hex":"#f73b6a7A","correct":-1,"choice":-1,"rt":-1,"accuracy":1,"outcome":"-1","keys":[],"total_keys":0,"block":2,"trial":140,"stimulus":0,"robot":4,"valence":"lose","action":"no-go","sham":0,"trial_type":"pit-trial","trial_index":205,"time_elapsed":946238,"internal_node_id":"0.0-142.0","task_version":"battery-v0.2"},{"rune":"F","rune_set":"elianto","hex":"#3366ff99","correct":32,"choice":-1,"rt":-1,"accuracy":0,"outcome":"+1","keys":[],"total_keys":0,"block":2,"trial":141,"stimulus":2,"robot":1,"valence":"win","action":"go","sham":0,"trial_type":"pit-trial","trial_index":206,"time_elapsed":950244,"internal_node_id":"0.0-143.0","task_version":"battery-v0.2"},{"rune":"X","rune_set":"elianto","hex":"#3366ff99","correct":-1,"choice":32,"rt":247.28000001050532,"accuracy":0,"outcome":"+1","keys":[1748.410000000149],"total_keys":1,"block":2,"trial":142,"stimulus":3,"robot":2,"valence":"win","action":"no-go","sham":0,"trial_type":"pit-trial","trial_index":207,"time_elapsed":953198,"internal_node_id":"0.0-144.0","task_version":"battery-v0.2"},{"rune":"Q","rune_set":"elianto","hex":"#f73b6a7A","correct":-1,"choice":-1,"rt":-1,"accuracy":1,"outcome":"-1","keys":[],"total_keys":0,"block":2,"trial":143,"stimulus":0,"robot":4,"valence":"lose","action":"no-go","sham":0,"trial_type":"pit-trial","trial_index":208,"time_elapsed":957204,"internal_node_id":"0.0-145.0","task_version":"battery-v0.2"},{"rune":"N","rune_set":"elianto","hex":"#f73b6a7A","correct":-1,"choice":32,"rt":391.9999999925494,"accuracy":0,"outcome":"-10","keys":[1893.2300000451505],"total_keys":1,"block":2,"trial":144,"stimulus":1,"robot":4,"valence":"lose","action":"no-go","sham":0,"trial_type":"pit-trial","trial_index":209,"time_elapsed":960300,"internal_node_id":"0.0-146.0","task_version":"battery-v0.2"},{"rune":"X","rune_set":"elianto","hex":"#3366ff99","correct":-1,"choice":32,"rt":930.0899999216199,"accuracy":0,"outcome":"+10","keys":[2430.949999950826],"total_keys":1,"block":2,"trial":145,"stimulus":3,"robot":2,"valence":"win","action":"no-go","sham":1,"trial_type":"pit-trial","trial_index":210,"time_elapsed":963935,"internal_node_id":"0.0-147.0","task_version":"battery-v0.2"},{"rune":"F","rune_set":"elianto","hex":"#3366ff99","correct":32,"choice":-1,"rt":-1,"accuracy":0,"outcome":"+1","keys":[],"total_keys":0,"block":2,"trial":146,"stimulus":2,"robot":1,"valence":"win","action":"go","sham":0,"trial_type":"pit-trial","trial_index":211,"time_elapsed":967941,"internal_node_id":"0.0-148.0","task_version":"battery-v0.2"},{"rune":"N","rune_set":"elianto","hex":"#f73b6a7A","correct":-1,"choice":-1,"rt":-1,"accuracy":1,"outcome":"-1","keys":[],"total_keys":0,"block":2,"trial":147,"stimulus":1,"robot":4,"valence":"lose","action":"no-go","sham":0,"trial_type":"pit-trial","trial_index":212,"time_elapsed":971944,"internal_node_id":"0.0-149.0","task_version":"battery-v0.2"},{"rune":"Q","rune_set":"elianto","hex":"#f73b6a7A","correct":-1,"choice":-1,"rt":-1,"accuracy":1,"outcome":"-1","keys":[],"total_keys":0,"block":2,"trial":148,"stimulus":0,"robot":4,"valence":"lose","action":"no-go","sham":0,"trial_type":"pit-trial","trial_index":213,"time_elapsed":975952,"internal_node_id":"0.0-150.0","task_version":"battery-v0.2"},{"rune":"F","rune_set":"elianto","hex":"#3366ff99","correct":32,"choice":32,"rt":941.2450001109391,"accuracy":1,"outcome":"+10","keys":[2442.5949999131262],"total_keys":1,"block":2,"trial":149,"stimulus":2,"robot":1,"valence":"win","action":"go","sham":0,"trial_type":"pit-trial","trial_index":214,"time_elapsed":979597,"internal_node_id":"0.0-151.0","task_version":"battery-v0.2"},{"rune":"Q","rune_set":"elianto","hex":"#f73b6a7A","correct":-1,"choice":-1,"rt":-1,"accuracy":1,"outcome":"-1","keys":[],"total_keys":0,"block":2,"trial":150,"stimulus":0,"robot":4,"valence":"lose","action":"no-go","sham":0,"trial_type":"pit-trial","trial_index":215,"time_elapsed":983603,"internal_node_id":"0.0-152.0","task_version":"battery-v0.2"},{"rune":"N","rune_set":"elianto","hex":"#f73b6a7A","correct":-1,"choice":-1,"rt":-1,"accuracy":1,"outcome":"-1","keys":[],"total_keys":0,"block":2,"trial":151,"stimulus":1,"robot":4,"valence":"lose","action":"no-go","sham":0,"trial_type":"pit-trial","trial_index":216,"time_elapsed":987607,"internal_node_id":"0.0-153.0","task_version":"battery-v0.2"},{"rune":"X","rune_set":"elianto","hex":"#3366ff99","correct":-1,"choice":32,"rt":484.2499999795109,"accuracy":0,"outcome":"+1","keys":[1985.0250000599772],"total_keys":1,"block":2,"trial":152,"stimulus":3,"robot":2,"valence":"win","action":"no-go","sham":0,"trial_type":"pit-trial","trial_index":217,"time_elapsed":990795,"internal_node_id":"0.0-154.0","task_version":"battery-v0.2"},{"rune":"F","rune_set":"elianto","hex":"#3366ff99","correct":32,"choice":32,"rt":473.7800001166761,"accuracy":1,"outcome":"+1","keys":[1974.4299999438226],"total_keys":1,"block":2,"trial":153,"stimulus":2,"robot":1,"valence":"win","action":"go","sham":1,"trial_type":"pit-trial","trial_index":218,"time_elapsed":993970,"internal_node_id":"0.0-155.0","task_version":"battery-v0.2"},{"rune":"Q","rune_set":"elianto","hex":"#f73b6a7A","correct":-1,"choice":-1,"rt":-1,"accuracy":1,"outcome":"-1","keys":[],"total_keys":0,"block":2,"trial":154,"stimulus":0,"robot":4,"valence":"lose","action":"no-go","sham":0,"trial_type":"pit-trial","trial_index":219,"time_elapsed":997975,"internal_node_id":"0.0-156.0","task_version":"battery-v0.2"},{"rune":"T","rune_set":"elianto","hex":"#f73b6a7A","correct":32,"choice":-1,"rt":-1,"accuracy":0,"outcome":"-1","keys":[],"total_keys":0,"block":2,"trial":155,"stimulus":4,"robot":3,"valence":"lose","action":"go","sham":1,"trial_type":"pit-trial","trial_index":220,"time_elapsed":1001979,"internal_node_id":"0.0-157.0","task_version":"battery-v0.2"},{"rune":"X","rune_set":"elianto","hex":"#3366ff99","correct":-1,"choice":-1,"rt":-1,"accuracy":1,"outcome":"+10","keys":[],"total_keys":0,"block":2,"trial":156,"stimulus":3,"robot":2,"valence":"win","action":"no-go","sham":0,"trial_type":"pit-trial","trial_index":221,"time_elapsed":1005984,"internal_node_id":"0.0-158.0","task_version":"battery-v0.2"},{"rune":"T","rune_set":"elianto","hex":"#f73b6a7A","correct":32,"choice":-1,"rt":-1,"accuracy":0,"outcome":"-10","keys":[],"total_keys":0,"block":2,"trial":157,"stimulus":4,"robot":3,"valence":"lose","action":"go","sham":0,"trial_type":"pit-trial","trial_index":222,"time_elapsed":1009993,"internal_node_id":"0.0-159.0","task_version":"battery-v0.2"},{"rune":"F","rune_set":"elianto","hex":"#3366ff99","correct":32,"choice":-1,"rt":-1,"accuracy":0,"outcome":"+1","keys":[],"total_keys":0,"block":2,"trial":158,"stimulus":2,"robot":1,"valence":"win","action":"go","sham":0,"trial_type":"pit-trial","trial_index":223,"time_elapsed":1013995,"internal_node_id":"0.0-160.0","task_version":"battery-v0.2"},{"rune":"X","rune_set":"elianto","hex":"#3366ff99","correct":-1,"choice":-1,"rt":-1,"accuracy":1,"outcome":"+10","keys":[],"total_keys":0,"block":2,"trial":159,"stimulus":3,"robot":2,"valence":"win","action":"no-go","sham":0,"trial_type":"pit-trial","trial_index":224,"time_elapsed":1017999,"internal_node_id":"0.0-161.0","task_version":"battery-v0.2"},{"rune":"Q","rune_set":"elianto","hex":"#f73b6a7A","correct":-1,"choice":-1,"rt":-1,"accuracy":1,"outcome":"-1","keys":[],"total_keys":0,"block":2,"trial":160,"stimulus":0,"robot":4,"valence":"lose","action":"no-go","sham":0,"trial_type":"pit-trial","trial_index":225,"time_elapsed":1022006,"internal_node_id":"0.0-162.0","task_version":"battery-v0.2"},{"rune":"C","rune_set":"elianto","hex":"#3366ff99","correct":32,"choice":32,"rt":565.9700001124293,"accuracy":1,"outcome":"+1","keys":[2066.825000103563],"total_keys":1,"block":2,"trial":161,"stimulus":6,"robot":1,"valence":"win","action":"go","sham":1,"trial_type":"pit-trial","trial_index":226,"time_elapsed":1025274,"internal_node_id":"0.0-163.0","task_version":"battery-v0.2"},{"rune":"Q","rune_set":"elianto","hex":"#f73b6a7A","correct":-1,"choice":-1,"rt":-1,"accuracy":1,"outcome":"-1","keys":[],"total_keys":0,"block":2,"trial":162,"stimulus":0,"robot":4,"valence":"lose","action":"no-go","sham":0,"trial_type":"pit-trial","trial_index":227,"time_elapsed":1029281,"internal_node_id":"0.0-164.0","task_version":"battery-v0.2"},{"rune":"T","rune_set":"elianto","hex":"#f73b6a7A","correct":32,"choice":-1,"rt":-1,"accuracy":0,"outcome":"-10","keys":[],"total_keys":0,"block":2,"trial":163,"stimulus":4,"robot":3,"valence":"lose","action":"go","sham":0,"trial_type":"pit-trial","trial_index":228,"time_elapsed":1033289,"internal_node_id":"0.0-165.0","task_version":"battery-v0.2"},{"rune":"B","rune_set":"elianto","hex":"#3366ff99","correct":-1,"choice":32,"rt":707.8200001269579,"accuracy":0,"outcome":"+1","keys":[2208.6700000800192],"total_keys":1,"block":2,"trial":164,"stimulus":5,"robot":2,"valence":"win","action":"no-go","sham":0,"trial_type":"pit-trial","trial_index":229,"time_elapsed":1036700,"internal_node_id":"0.0-166.0","task_version":"battery-v0.2"},{"rune":"Q","rune_set":"elianto","hex":"#f73b6a7A","correct":-1,"choice":-1,"rt":-1,"accuracy":1,"outcome":"-1","keys":[],"total_keys":0,"block":2,"trial":165,"stimulus":0,"robot":4,"valence":"lose","action":"no-go","sham":0,"trial_type":"pit-trial","trial_index":230,"time_elapsed":1040708,"internal_node_id":"0.0-167.0","task_version":"battery-v0.2"},{"rune":"T","rune_set":"elianto","hex":"#f73b6a7A","correct":32,"choice":32,"rt":808.5449999198318,"accuracy":1,"outcome":"-10","keys":[2309.800000162795],"total_keys":1,"block":2,"trial":166,"stimulus":4,"robot":3,"valence":"lose","action":"go","sham":1,"trial_type":"pit-trial","trial_index":231,"time_elapsed":1044220,"internal_node_id":"0.0-168.0","task_version":"battery-v0.2"},{"rune":"C","rune_set":"elianto","hex":"#3366ff99","correct":32,"choice":-1,"rt":-1,"accuracy":0,"outcome":"+1","keys":[],"total_keys":0,"block":2,"trial":167,"stimulus":6,"robot":1,"valence":"win","action":"go","sham":0,"trial_type":"pit-trial","trial_index":232,"time_elapsed":1048224,"internal_node_id":"0.0-169.0","task_version":"battery-v0.2"},{"rune":"B","rune_set":"elianto","hex":"#3366ff99","correct":-1,"choice":-1,"rt":-1,"accuracy":1,"outcome":"+10","keys":[],"total_keys":0,"block":2,"trial":168,"stimulus":5,"robot":2,"valence":"win","action":"no-go","sham":0,"trial_type":"pit-trial","trial_index":233,"time_elapsed":1052228,"internal_node_id":"0.0-170.0","task_version":"battery-v0.2"},{"rune":"T","rune_set":"elianto","hex":"#f73b6a7A","correct":32,"choice":32,"rt":1115.5000000726432,"accuracy":1,"outcome":"-1","keys":[2616.6950000915676],"total_keys":1,"block":2,"trial":169,"stimulus":4,"robot":3,"valence":"lose","action":"go","sham":0,"trial_type":"pit-trial","trial_index":234,"time_elapsed":1056047,"internal_node_id":"0.0-171.0","task_version":"battery-v0.2"},{"rune":"Z","rune_set":"elianto","hex":"#f73b6a7A","correct":-1,"choice":32,"rt":1076.9700000528246,"accuracy":0,"outcome":"-10","keys":[2577.9500000644475],"total_keys":1,"block":2,"trial":170,"stimulus":7,"robot":4,"valence":"lose","action":"no-go","sham":0,"trial_type":"pit-trial","trial_index":235,"time_elapsed":1059828,"internal_node_id":"0.0-172.0","task_version":"battery-v0.2"},{"rune":"C","rune_set":"elianto","hex":"#3366ff99","correct":32,"choice":32,"rt":480.1100001204759,"accuracy":1,"outcome":"+10","keys":[1981.3299998641014],"total_keys":1,"block":2,"trial":171,"stimulus":6,"robot":1,"valence":"win","action":"go","sham":0,"trial_type":"pit-trial","trial_index":236,"time_elapsed":1063011,"internal_node_id":"0.0-173.0","task_version":"battery-v0.2"},{"rune":"B","rune_set":"elianto","hex":"#3366ff99","correct":-1,"choice":-1,"rt":-1,"accuracy":1,"outcome":"+1","keys":[],"total_keys":0,"block":2,"trial":172,"stimulus":5,"robot":2,"valence":"win","action":"no-go","sham":1,"trial_type":"pit-trial","trial_index":237,"time_elapsed":1067014,"internal_node_id":"0.0-174.0","task_version":"battery-v0.2"},{"rune":"Z","rune_set":"elianto","hex":"#f73b6a7A","correct":-1,"choice":-1,"rt":-1,"accuracy":1,"outcome":"-10","keys":[],"total_keys":0,"block":2,"trial":173,"stimulus":7,"robot":4,"valence":"lose","action":"no-go","sham":1,"trial_type":"pit-trial","trial_index":238,"time_elapsed":1071017,"internal_node_id":"0.0-175.0","task_version":"battery-v0.2"},{"rune":"C","rune_set":"elianto","hex":"#3366ff99","correct":32,"choice":-1,"rt":-1,"accuracy":0,"outcome":"+1","keys":[],"total_keys":0,"block":2,"trial":174,"stimulus":6,"robot":1,"valence":"win","action":"go","sham":0,"trial_type":"pit-trial","trial_index":239,"time_elapsed":1075020,"internal_node_id":"0.0-176.0","task_version":"battery-v0.2"},{"rune":"B","rune_set":"elianto","hex":"#3366ff99","correct":-1,"choice":-1,"rt":-1,"accuracy":1,"outcome":"+10","keys":[],"total_keys":0,"block":2,"trial":175,"stimulus":5,"robot":2,"valence":"win","action":"no-go","sham":0,"trial_type":"pit-trial","trial_index":240,"time_elapsed":1079024,"internal_node_id":"0.0-177.0","task_version":"battery-v0.2"},{"rune":"T","rune_set":"elianto","hex":"#f73b6a7A","correct":32,"choice":32,"rt":611.9899998884648,"accuracy":1,"outcome":"-10","keys":[2113.090000115335],"total_keys":1,"block":2,"trial":176,"stimulus":4,"robot":3,"valence":"lose","action":"go","sham":1,"trial_type":"pit-trial","trial_index":241,"time_elapsed":1082340,"internal_node_id":"0.0-178.0","task_version":"battery-v0.2"},{"rune":"B","rune_set":"elianto","hex":"#3366ff99","correct":-1,"choice":32,"rt":919.5749999489635,"accuracy":0,"outcome":"+1","keys":[2421.3300000410527,2517.604999942705],"total_keys":2,"block":2,"trial":177,"stimulus":5,"robot":2,"valence":"win","action":"no-go","sham":0,"trial_type":"pit-trial","trial_index":242,"time_elapsed":1085964,"internal_node_id":"0.0-179.0","task_version":"battery-v0.2"},{"rune":"C","rune_set":"elianto","hex":"#3366ff99","correct":32,"choice":-1,"rt":-1,"accuracy":0,"outcome":"+1","keys":[],"total_keys":0,"block":2,"trial":178,"stimulus":6,"robot":1,"valence":"win","action":"go","sham":0,"trial_type":"pit-trial","trial_index":243,"time_elapsed":1089970,"internal_node_id":"0.0-180.0","task_version":"battery-v0.2"},{"rune":"T","rune_set":"elianto","hex":"#f73b6a7A","correct":32,"choice":-1,"rt":-1,"accuracy":0,"outcome":"-10","keys":[],"total_keys":0,"block":2,"trial":179,"stimulus":4,"robot":3,"valence":"lose","action":"go","sham":0,"trial_type":"pit-trial","trial_index":244,"time_elapsed":1093975,"internal_node_id":"0.0-181.0","task_version":"battery-v0.2"},{"rune":"Z","rune_set":"elianto","hex":"#f73b6a7A","correct":-1,"choice":-1,"rt":-1,"accuracy":1,"outcome":"-1","keys":[],"total_keys":0,"block":2,"trial":180,"stimulus":7,"robot":4,"valence":"lose","action":"no-go","sham":0,"trial_type":"pit-trial","trial_index":245,"time_elapsed":1097991,"internal_node_id":"0.0-182.0","task_version":"battery-v0.2"},{"rune":"Z","rune_set":"elianto","hex":"#f73b6a7A","correct":-1,"choice":-1,"rt":-1,"accuracy":1,"outcome":"-1","keys":[],"total_keys":0,"block":2,"trial":181,"stimulus":7,"robot":4,"valence":"lose","action":"no-go","sham":0,"trial_type":"pit-trial","trial_index":246,"time_elapsed":1101996,"internal_node_id":"0.0-183.0","task_version":"battery-v0.2"},{"rune":"B","rune_set":"elianto","hex":"#3366ff99","correct":-1,"choice":32,"rt":1110.9350000042468,"accuracy":0,"outcome":"+1","keys":[2612.0100000407547],"total_keys":1,"block":2,"trial":182,"stimulus":5,"robot":2,"valence":"win","action":"no-go","sham":0,"trial_type":"pit-trial","trial_index":247,"time_elapsed":1105813,"internal_node_id":"0.0-184.0","task_version":"battery-v0.2"},{"rune":"C","rune_set":"elianto","hex":"#3366ff99","correct":32,"choice":-1,"rt":-1,"accuracy":0,"outcome":"+1","keys":[],"total_keys":0,"block":2,"trial":183,"stimulus":6,"robot":1,"valence":"win","action":"go","sham":0,"trial_type":"pit-trial","trial_index":248,"time_elapsed":1109817,"internal_node_id":"0.0-185.0","task_version":"battery-v0.2"},{"rune":"T","rune_set":"elianto","hex":"#f73b6a7A","correct":32,"choice":-1,"rt":-1,"accuracy":0,"outcome":"-10","keys":[],"total_keys":0,"block":2,"trial":184,"stimulus":4,"robot":3,"valence":"lose","action":"go","sham":0,"trial_type":"pit-trial","trial_index":249,"time_elapsed":1113822,"internal_node_id":"0.0-186.0","task_version":"battery-v0.2"},{"rune":"C","rune_set":"elianto","hex":"#3366ff99","correct":32,"choice":-1,"rt":-1,"accuracy":0,"outcome":"+1","keys":[],"total_keys":0,"block":2,"trial":185,"stimulus":6,"robot":1,"valence":"win","action":"go","sham":0,"trial_type":"pit-trial","trial_index":250,"time_elapsed":1117825,"internal_node_id":"0.0-187.0","task_version":"battery-v0.2"},{"rune":"Z","rune_set":"elianto","hex":"#f73b6a7A","correct":-1,"choice":-1,"rt":-1,"accuracy":1,"outcome":"-1","keys":[],"total_keys":0,"block":2,"trial":186,"stimulus":7,"robot":4,"valence":"lose","action":"no-go","sham":0,"trial_type":"pit-trial","trial_index":251,"time_elapsed":1121828,"internal_node_id":"0.0-188.0","task_version":"battery-v0.2"},{"rune":"B","rune_set":"elianto","hex":"#3366ff99","correct":-1,"choice":32,"rt":535.7000001240522,"accuracy":0,"outcome":"+1","keys":[2037.3499998822808],"total_keys":1,"block":2,"trial":187,"stimulus":5,"robot":2,"valence":"win","action":"no-go","sham":0,"trial_type":"pit-trial","trial_index":252,"time_elapsed":1125067,"internal_node_id":"0.0-189.0","task_version":"battery-v0.2"},{"rune":"T","rune_set":"elianto","hex":"#f73b6a7A","correct":32,"choice":-1,"rt":-1,"accuracy":0,"outcome":"-10","keys":[],"total_keys":0,"block":2,"trial":188,"stimulus":4,"robot":3,"valence":"lose","action":"go","sham":0,"trial_type":"pit-trial","trial_index":253,"time_elapsed":1129071,"internal_node_id":"0.0-190.0","task_version":"battery-v0.2"},{"rune":"T","rune_set":"elianto","hex":"#f73b6a7A","correct":32,"choice":-1,"rt":-1,"accuracy":0,"outcome":"-10","keys":[2849.7150000184774],"total_keys":1,"block":2,"trial":189,"stimulus":4,"robot":3,"valence":"lose","action":"go","sham":0,"trial_type":"pit-trial","trial_index":254,"time_elapsed":1133075,"internal_node_id":"0.0-191.0","task_version":"battery-v0.2"},{"rune":"C","rune_set":"elianto","hex":"#3366ff99","correct":32,"choice":32,"rt":1242.324999999255,"accuracy":1,"outcome":"+1","keys":[2743.0799999274313],"total_keys":1,"block":2,"trial":190,"stimulus":6,"robot":1,"valence":"win","action":"go","sham":1,"trial_type":"pit-trial","trial_index":255,"time_elapsed":1137025,"internal_node_id":"0.0-192.0","task_version":"battery-v0.2"},{"rune":"Z","rune_set":"elianto","hex":"#f73b6a7A","correct":-1,"choice":-1,"rt":-1,"accuracy":1,"outcome":"-1","keys":[],"total_keys":0,"block":2,"trial":191,"stimulus":7,"robot":4,"valence":"lose","action":"no-go","sham":0,"trial_type":"pit-trial","trial_index":256,"time_elapsed":1141028,"internal_node_id":"0.0-193.0","task_version":"battery-v0.2"},{"rune":"B","rune_set":"elianto","hex":"#3366ff99","correct":-1,"choice":-1,"rt":-1,"accuracy":1,"outcome":"+10","keys":[2884.6299999859184],"total_keys":1,"block":2,"trial":192,"stimulus":5,"robot":2,"valence":"win","action":"no-go","sham":0,"trial_type":"pit-trial","trial_index":257,"time_elapsed":1145032,"internal_node_id":"0.0-194.0","task_version":"battery-v0.2"},{"rune":"H","rune_set":"elianto","hex":"#3366ff99","correct":32,"choice":32,"rt":677.0999999716878,"accuracy":1,"outcome":"+1","keys":[2178.1150000169873],"total_keys":1,"block":2,"trial":193,"stimulus":8,"robot":1,"valence":"win","action":"go","sham":1,"trial_type":"pit-trial","trial_index":258,"time_elapsed":1148413,"internal_node_id":"0.0-195.0","task_version":"battery-v0.2"},{"rune":"Z","rune_set":"elianto","hex":"#f73b6a7A","correct":-1,"choice":-1,"rt":-1,"accuracy":1,"outcome":"-1","keys":[],"total_keys":0,"block":2,"trial":194,"stimulus":7,"robot":4,"valence":"lose","action":"no-go","sham":0,"trial_type":"pit-trial","trial_index":259,"time_elapsed":1152418,"internal_node_id":"0.0-196.0","task_version":"battery-v0.2"},{"rune":"B","rune_set":"elianto","hex":"#3366ff99","correct":-1,"choice":32,"rt":650.435000192374,"accuracy":0,"outcome":"+1","keys":[2150.5050000268966],"total_keys":1,"block":2,"trial":195,"stimulus":5,"robot":2,"valence":"win","action":"no-go","sham":0,"trial_type":"pit-trial","trial_index":260,"time_elapsed":1155772,"internal_node_id":"0.0-197.0","task_version":"battery-v0.2"},{"rune":"Y","rune_set":"elianto","hex":"#f73b6a7A","correct":32,"choice":32,"rt":614.2949999775738,"accuracy":1,"outcome":"-1","keys":[2115.250000031665],"total_keys":1,"block":2,"trial":196,"stimulus":9,"robot":3,"valence":"lose","action":"go","sham":0,"trial_type":"pit-trial","trial_index":261,"time_elapsed":1159092,"internal_node_id":"0.0-198.0","task_version":"battery-v0.2"},{"rune":"B","rune_set":"elianto","hex":"#3366ff99","correct":-1,"choice":32,"rt":670.8800001069903,"accuracy":0,"outcome":"+1","keys":[2171.539999777451],"total_keys":1,"block":2,"trial":197,"stimulus":5,"robot":2,"valence":"win","action":"no-go","sham":0,"trial_type":"pit-trial","trial_index":262,"time_elapsed":1162468,"internal_node_id":"0.0-199.0","task_version":"battery-v0.2"},{"rune":"Y","rune_set":"elianto","hex":"#f73b6a7A","correct":32,"choice":32,"rt":561.5799999795854,"accuracy":1,"outcome":"-1","keys":[2061.619999818504],"total_keys":1,"block":2,"trial":198,"stimulus":9,"robot":3,"valence":"lose","action":"go","sham":0,"trial_type":"pit-trial","trial_index":263,"time_elapsed":1165734,"internal_node_id":"0.0-200.0","task_version":"battery-v0.2"},{"rune":"Z","rune_set":"elianto","hex":"#f73b6a7A","correct":-1,"choice":-1,"rt":-1,"accuracy":1,"outcome":"-1","keys":[],"total_keys":0,"block":2,"trial":199,"stimulus":7,"robot":4,"valence":"lose","action":"no-go","sham":0,"trial_type":"pit-trial","trial_index":264,"time_elapsed":1169739,"internal_node_id":"0.0-201.0","task_version":"battery-v0.2"},{"rune":"H","rune_set":"elianto","hex":"#3366ff99","correct":32,"choice":32,"rt":618.0849999655038,"accuracy":1,"outcome":"+10","keys":[2118.525000056252],"total_keys":1,"block":2,"trial":200,"stimulus":8,"robot":1,"valence":"win","action":"go","sham":0,"trial_type":"pit-trial","trial_index":265,"time_elapsed":1173059,"internal_node_id":"0.0-202.0","task_version":"battery-v0.2"},{"rune":"B","rune_set":"elianto","hex":"#3366ff99","correct":-1,"choice":32,"rt":665.389999980107,"accuracy":0,"outcome":"+1","keys":[2166.1549999844283],"total_keys":1,"block":2,"trial":201,"stimulus":5,"robot":2,"valence":"win","action":"no-go","sham":0,"trial_type":"pit-trial","trial_index":266,"time_elapsed":1176427,"internal_node_id":"0.0-203.0","task_version":"battery-v0.2"},{"rune":"H","rune_set":"elianto","hex":"#3366ff99","correct":32,"choice":32,"rt":496.12000002525747,"accuracy":1,"outcome":"+1","keys":[1997.4750000983477],"total_keys":1,"block":2,"trial":202,"stimulus":8,"robot":1,"valence":"win","action":"go","sham":1,"trial_type":"pit-trial","trial_index":267,"time_elapsed":1179627,"internal_node_id":"0.0-204.0","task_version":"battery-v0.2"},{"rune":"Y","rune_set":"elianto","hex":"#f73b6a7A","correct":32,"choice":-1,"rt":-1,"accuracy":0,"outcome":"-10","keys":[],"total_keys":0,"block":2,"trial":203,"stimulus":9,"robot":3,"valence":"lose","action":"go","sham":0,"trial_type":"pit-trial","trial_index":268,"time_elapsed":1183631,"internal_node_id":"0.0-205.0","task_version":"battery-v0.2"},{"rune":"Z","rune_set":"elianto","hex":"#f73b6a7A","correct":-1,"choice":-1,"rt":-1,"accuracy":1,"outcome":"-1","keys":[],"total_keys":0,"block":2,"trial":204,"stimulus":7,"robot":4,"valence":"lose","action":"no-go","sham":0,"trial_type":"pit-trial","trial_index":269,"time_elapsed":1187641,"internal_node_id":"0.0-206.0","task_version":"battery-v0.2"},{"rune":"Y","rune_set":"elianto","hex":"#f73b6a7A","correct":32,"choice":32,"rt":931.5899999346584,"accuracy":1,"outcome":"-1","keys":[2433.1999998539686],"total_keys":1,"block":2,"trial":205,"stimulus":9,"robot":3,"valence":"lose","action":"go","sham":0,"trial_type":"pit-trial","trial_index":270,"time_elapsed":1191277,"internal_node_id":"0.0-207.0","task_version":"battery-v0.2"},{"rune":"Z","rune_set":"elianto","hex":"#f73b6a7A","correct":-1,"choice":-1,"rt":-1,"accuracy":1,"outcome":"-10","keys":[],"total_keys":0,"block":2,"trial":206,"stimulus":7,"robot":4,"valence":"lose","action":"no-go","sham":1,"trial_type":"pit-trial","trial_index":271,"time_elapsed":1195281,"internal_node_id":"0.0-208.0","task_version":"battery-v0.2"},{"rune":"H","rune_set":"elianto","hex":"#3366ff99","correct":32,"choice":32,"rt":603.1249999068677,"accuracy":1,"outcome":"+10","keys":[2104.4700001366436],"total_keys":1,"block":2,"trial":207,"stimulus":8,"robot":1,"valence":"win","action":"go","sham":0,"trial_type":"pit-trial","trial_index":272,"time_elapsed":1198588,"internal_node_id":"0.0-209.0","task_version":"battery-v0.2"},{"rune":"B","rune_set":"elianto","hex":"#3366ff99","correct":-1,"choice":32,"rt":905.2399999927729,"accuracy":0,"outcome":"+1","keys":[2405.3599999751896],"total_keys":1,"block":2,"trial":208,"stimulus":5,"robot":2,"valence":"win","action":"no-go","sham":0,"trial_type":"pit-trial","trial_index":273,"time_elapsed":1202200,"internal_node_id":"0.0-210.0","task_version":"battery-v0.2"},{"rune":"R","rune_set":"elianto","hex":"#f73b6a7A","correct":32,"choice":32,"rt":875.5250000394881,"accuracy":1,"outcome":"-10","keys":[2376.240000128746],"total_keys":1,"block":2,"trial":209,"stimulus":10,"robot":3,"valence":"lose","action":"go","sham":1,"trial_type":"pit-trial","trial_index":274,"time_elapsed":1205778,"internal_node_id":"0.0-211.0","task_version":"battery-v0.2"},{"rune":"Y","rune_set":"elianto","hex":"#f73b6a7A","correct":32,"choice":32,"rt":1066.20500003919,"accuracy":1,"outcome":"-10","keys":[2567.4649998545647],"total_keys":1,"block":2,"trial":210,"stimulus":9,"robot":3,"valence":"lose","action":"go","sham":1,"trial_type":"pit-trial","trial_index":275,"time_elapsed":1209548,"internal_node_id":"0.0-212.0","task_version":"battery-v0.2"},{"rune":"H","rune_set":"elianto","hex":"#3366ff99","correct":32,"choice":32,"rt":728.4899998921901,"accuracy":1,"outcome":"+1","keys":[2229.655000148341],"total_keys":1,"block":2,"trial":211,"stimulus":8,"robot":1,"valence":"win","action":"go","sham":1,"trial_type":"pit-trial","trial_index":276,"time_elapsed":1212980,"internal_node_id":"0.0-213.0","task_version":"battery-v0.2"},{"rune":"M","rune_set":"elianto","hex":"#3366ff99","correct":-1,"choice":32,"rt":629.2649998795241,"accuracy":0,"outcome":"+1","keys":[2130.4550000932068],"total_keys":1,"block":2,"trial":212,"stimulus":11,"robot":2,"valence":"win","action":"no-go","sham":0,"trial_type":"pit-trial","trial_index":277,"time_elapsed":1216314,"internal_node_id":"0.0-214.0","task_version":"battery-v0.2"},{"rune":"R","rune_set":"elianto","hex":"#f73b6a7A","correct":32,"choice":-1,"rt":-1,"accuracy":0,"outcome":"-10","keys":[],"total_key