[{"view_history":"[{\"page_index\":0,\"viewing_time\":1727.3050001822412},{\"page_index\":1,\"viewing_time\":1815.459999954328},{\"page_index\":2,\"viewing_time\":2455.7749999221414},{\"page_index\":3,\"viewing_time\":4095.7249999046326},{\"page_index\":4,\"viewing_time\":8320.365000050515},{\"page_index\":5,\"viewing_time\":1727.015000069514},{\"page_index\":6,\"viewing_time\":4129.190000006929},{\"page_index\":7,\"viewing_time\":6519.564999965951},{\"page_index\":8,\"viewing_time\":7096.2700000964105},{\"page_index\":9,\"viewing_time\":2647.694999817759}]","rt":40535.0950001739,"trial_type":"pit-instructions","trial_index":0,"time_elapsed":40559,"internal_node_id":"0.0-0.0-0.0","task_version":"battery-v0.2"},{"rune":"1","rune_set":"elianto","hex":"#3366ff99","correct":32,"choice":32,"rt":577.4050001055002,"accuracy":1,"outcome":"+10","keys":[2077.6250001508743],"total_keys":1,"block":0,"practice":1,"trial_type":"pit-trial","trial_index":1,"time_elapsed":43849,"internal_node_id":"0.0-0.0-1.0-0.0","task_version":"battery-v0.2"},{"rune":"1","rune_set":"elianto","hex":"#3366ff99","correct":32,"choice":32,"rt":548.7049999646842,"accuracy":1,"outcome":"+10","keys":[2049.089999869466],"total_keys":1,"block":0,"practice":1,"trial_type":"pit-trial","trial_index":2,"time_elapsed":47105,"internal_node_id":"0.0-0.0-1.1-0.1","task_version":"battery-v0.2"},{"rune":"1","rune_set":"elianto","hex":"#3366ff99","correct":32,"choice":32,"rt":626.2300000526011,"accuracy":1,"outcome":"+10","keys":[2127.18000006862],"total_keys":1,"block":0,"practice":1,"trial_type":"pit-trial","trial_index":3,"time_elapsed":50443,"internal_node_id":"0.0-0.0-1.2-0.2","task_version":"battery-v0.2"},{"rune":"1","rune_set":"elianto","hex":"#3366ff99","correct":32,"choice":32,"rt":534.3400000128895,"accuracy":1,"outcome":"+10","keys":[2034.7700000274926],"total_keys":1,"block":0,"practice":1,"trial_type":"pit-trial","trial_index":4,"time_elapsed":53685,"internal_node_id":"0.0-0.0-1.3-0.3","task_version":"battery-v0.2"},{"view_history":"[{\"page_index\":0,\"viewing_time\":3495.4349999316037},{\"page_index\":1,\"viewing_time\":3871.515000006184}]","rt":7367.499999934807,"trial_type":"pit-instructions","trial_index":5,"time_elapsed":61062,"internal_node_id":"0.0-0.0-2.0","task_version":"battery-v0.2"},{"rune":"2","rune_set":"elianto","hex":"#3366ff99","correct":-1,"choice":-1,"rt":-1,"accuracy":1,"outcome":"+10","keys":[],"total_keys":0,"block":0,"practice":2,"trial_type":"pit-trial","trial_index":6,"time_elapsed":65069,"internal_node_id":"0.0-0.0-3.0-0.0","task_version":"battery-v0.2"},{"rune":"2","rune_set":"elianto","hex":"#3366ff99","correct":-1,"choice":-1,"rt":-1,"accuracy":1,"outcome":"+10","keys":[],"total_keys":0,"block":0,"practice":2,"trial_type":"pit-trial","trial_index":7,"time_elapsed":69079,"internal_node_id":"0.0-0.0-3.1-0.1","task_version":"battery-v0.2"},{"rune":"2","rune_set":"elianto","hex":"#3366ff99","correct":-1,"choice":-1,"rt":-1,"accuracy":1,"outcome":"+10","keys":[],"total_keys":0,"block":0,"practice":2,"trial_type":"pit-trial","trial_index":8,"time_elapsed":73093,"internal_node_id":"0.0-0.0-3.2-0.2","task_version":"battery-v0.2"},{"rune":"2","rune_set":"elianto","hex":"#3366ff99","correct":-1,"choice":-1,"rt":-1,"accuracy":1,"outcome":"+10","keys":[],"total_keys":0,"block":0,"practice":2,"trial_type":"pit-trial","trial_index":9,"time_elapsed":77106,"internal_node_id":"0.0-0.0-3.3-0.3","task_version":"battery-v0.2"},{"view_history":"[{\"page_index\":0,\"viewing_time\":4346.164999995381},{\"page_index\":1,\"viewing_time\":19983.92999987118}]","rt":24330.62499994412,"trial_type":"pit-instructions","trial_index":10,"time_elapsed":101446,"internal_node_id":"0.0-0.0-4.0","task_version":"battery-v0.2"},{"rune":"3","rune_set":"elianto","hex":"#f73b6a7A","correct":-1,"choice":-1,"rt":-1,"accuracy":1,"outcome":"-1","keys":[],"total_keys":0,"block":0,"practice":3,"trial_type":"pit-trial","trial_index":11,"time_elapsed":105453,"internal_node_id":"0.0-0.0-5.0-0.0","task_version":"battery-v0.2"},{"rune":"3","rune_set":"elianto","hex":"#f73b6a7A","correct":-1,"choice":-1,"rt":-1,"accuracy":1,"outcome":"-1","keys":[],"total_keys":0,"block":0,"practice":3,"trial_type":"pit-trial","trial_index":12,"time_elapsed":109459,"internal_node_id":"0.0-0.0-5.1-0.1","task_version":"battery-v0.2"},{"rune":"3","rune_set":"elianto","hex":"#f73b6a7A","correct":-1,"choice":32,"rt":502.24999990314245,"accuracy":0,"outcome":"-10","keys":[2002.7149999514222],"total_keys":1,"block":0,"practice":3,"trial_type":"pit-trial","trial_index":13,"time_elapsed":112668,"internal_node_id":"0.0-0.0-5.2-0.2","task_version":"battery-v0.2"},{"rune":"3","rune_set":"elianto","hex":"#f73b6a7A","correct":-1,"choice":-1,"rt":-1,"accuracy":1,"outcome":"-1","keys":[],"total_keys":0,"block":0,"practice":3,"trial_type":"pit-trial","trial_index":14,"time_elapsed":116682,"internal_node_id":"0.0-0.0-5.3-0.3","task_version":"battery-v0.2"},{"rune":"3","rune_set":"elianto","hex":"#f73b6a7A","correct":-1,"choice":-1,"rt":-1,"accuracy":1,"outcome":"-1","keys":[],"total_keys":0,"block":0,"practice":3,"trial_type":"pit-trial","trial_index":15,"time_elapsed":120692,"internal_node_id":"0.0-0.0-5.4-0.4","task_version":"battery-v0.2"},{"rune":"3","rune_set":"elianto","hex":"#f73b6a7A","correct":-1,"choice":-1,"rt":-1,"accuracy":1,"outcome":"-1","keys":[],"total_keys":0,"block":0,"practice":3,"trial_type":"pit-trial","trial_index":16,"time_elapsed":124709,"internal_node_id":"0.0-0.0-5.5-0.5","task_version":"battery-v0.2"},{"view_history":"[{\"page_index\":0,\"viewing_time\":3162.400000030175},{\"page_index\":1,\"viewing_time\":3416.6399999521673}]","rt":6579.56500002183,"trial_type":"pit-instructions","trial_index":17,"time_elapsed":131294,"internal_node_id":"0.0-0.0-6.0","task_version":"battery-v0.2"},{"rune":"4","rune_set":"elianto","hex":"#f73b6a7A","correct":32,"choice":-1,"rt":-1,"accuracy":0,"outcome":"-10","keys":[],"total_keys":0,"block":0,"practice":4,"trial_type":"pit-trial","trial_index":18,"time_elapsed":135304,"internal_node_id":"0.0-0.0-7.0-0.0","task_version":"battery-v0.2"},{"rune":"4","rune_set":"elianto","hex":"#f73b6a7A","correct":32,"choice":32,"rt":314.1900000628084,"accuracy":1,"outcome":"-1","keys":[1815.015000058338],"total_keys":1,"block":0,"practice":4,"trial_type":"pit-trial","trial_index":19,"time_elapsed":138324,"internal_node_id":"0.0-0.0-7.1-0.1","task_version":"battery-v0.2"},{"rune":"4","rune_set":"elianto","hex":"#f73b6a7A","correct":32,"choice":32,"rt":296.8999999575317,"accuracy":1,"outcome":"-1","keys":[1797.6599999237806],"total_keys":1,"block":0,"practice":4,"trial_type":"pit-trial","trial_index":20,"time_elapsed":141328,"internal_node_id":"0.0-0.0-7.2-0.2","task_version":"battery-v0.2"},{"rune":"4","rune_set":"elianto","hex":"#f73b6a7A","correct":32,"choice":32,"rt":240.6049999408424,"accuracy":1,"outcome":"-1","keys":[1740.8699998632073],"total_keys":1,"block":0,"practice":4,"trial_type":"pit-trial","trial_index":21,"time_elapsed":144277,"internal_node_id":"0.0-0.0-7.3-0.3","task_version":"battery-v0.2"},{"view_history":"[{\"page_index\":0,\"viewing_time\":2547.464999835938},{\"page_index\":1,\"viewing_time\":5800.324999960139},{\"page_index\":2,\"viewing_time\":3943.4600002132356},{\"page_index\":3,\"viewing_time\":2472.1699999645352},{\"page_index\":4,\"viewing_time\":2247.8149998933077},{\"page_index\":5,\"viewing_time\":2743.9500000327826}]","rt":19755.72000001557,"trial_type":"pit-instructions","trial_index":22,"time_elapsed":164039,"internal_node_id":"0.0-0.0-8.0","task_version":"battery-v0.2"},{"responses":["Press SPACE","+10","-1","True","True"],"num_errors":0,"rt":24496.215000050142,"trial_type":"pit-comprehension","trial_index":23,"time_elapsed":188544,"internal_node_id":"0.0-0.0-9.0","task_version":"battery-v0.2"},{"view_history":"[{\"page_index\":0,\"viewing_time\":1418.9400000032037},{\"page_index\":1,\"viewing_time\":2081.074999878183}]","rt":3500.5349998828024,"trial_type":"pit-instructions","trial_index":24,"time_elapsed":192055,"internal_node_id":"0.0-1.0","task_version":"battery-v0.2"},{"rune":"H","rune_set":"bacs1","hex":"#f73b6a7A","correct":-1,"choice":-1,"rt":-1,"accuracy":1,"outcome":"-10","keys":[],"total_keys":0,"block":1,"trial":1,"stimulus":1,"robot":4,"valence":"lose","action":"no-go","sham":1,"trial_type":"pit-trial","trial_index":25,"time_elapsed":196065,"internal_node_id":"0.0-2.0","task_version":"battery-v0.2"},{"rune":"P","rune_set":"bacs1","hex":"#3366ff99","correct":32,"choice":32,"rt":748.5599999781698,"accuracy":1,"outcome":"+10","keys":[2248.8850001245737],"total_keys":1,"block":1,"trial":2,"stimulus":2,"robot":1,"valence":"win","action":"go","sham":0,"trial_type":"pit-trial","trial_index":26,"time_elapsed":199519,"internal_node_id":"0.0-3.0","task_version":"battery-v0.2"},{"rune":"M","rune_set":"bacs1","hex":"#3366ff99","correct":-1,"choice":-1,"rt":-1,"accuracy":1,"outcome":"+10","keys":[],"total_keys":0,"block":1,"trial":3,"stimulus":3,"robot":2,"valence":"win","action":"no-go","sham":0,"trial_type":"pit-trial","trial_index":27,"time_elapsed":203529,"internal_node_id":"0.0-4.0","task_version":"battery-v0.2"},{"rune":"Y","rune_set":"bacs1","hex":"#f73b6a7A","correct":-1,"choice":-1,"rt":-1,"accuracy":1,"outcome":"-1","keys":[],"total_keys":0,"block":1,"trial":4,"stimulus":0,"robot":4,"valence":"lose","action":"no-go","sham":0,"trial_type":"pit-trial","trial_index":28,"time_elapsed":207538,"internal_node_id":"0.0-5.0","task_version":"battery-v0.2"},{"rune":"H","rune_set":"bacs1","hex":"#f73b6a7A","correct":-1,"choice":-1,"rt":-1,"accuracy":1,"outcome":"-1","keys":[],"total_keys":0,"block":1,"trial":5,"stimulus":1,"robot":4,"valence":"lose","action":"no-go","sham":0,"trial_type":"pit-trial","trial_index":29,"time_elapsed":211549,"internal_node_id":"0.0-6.0","task_version":"battery-v0.2"},{"rune":"Y","rune_set":"bacs1","hex":"#f73b6a7A","correct":-1,"choice":32,"rt":1034.734999993816,"accuracy":0,"outcome":"-10","keys":[2535.7099999673665],"total_keys":1,"block":1,"trial":6,"stimulus":0,"robot":4,"valence":"lose","action":"no-go","sham":0,"trial_type":"pit-trial","trial_index":30,"time_elapsed":215297,"internal_node_id":"0.0-7.0","task_version":"battery-v0.2"},{"rune":"M","rune_set":"bacs1","hex":"#3366ff99","correct":-1,"choice":-1,"rt":-1,"accuracy":1,"outcome":"+10","keys":[],"total_keys":0,"block":1,"trial":7,"stimulus":3,"robot":2,"valence":"win","action":"no-go","sham":0,"trial_type":"pit-trial","trial_index":31,"time_elapsed":219307,"internal_node_id":"0.0-8.0","task_version":"battery-v0.2"},{"rune":"P","rune_set":"bacs1","hex":"#3366ff99","correct":32,"choice":32,"rt":731.7550000734627,"accuracy":1,"outcome":"+10","keys":[2231.974999886006],"total_keys":1,"block":1,"trial":8,"stimulus":2,"robot":1,"valence":"win","action":"go","sham":0,"trial_type":"pit-trial","trial_index":32,"time_elapsed":222746,"internal_node_id":"0.0-9.0","task_version":"battery-v0.2"},{"rune":"P","rune_set":"bacs1","hex":"#3366ff99","correct":32,"choice":32,"rt":659.4450001139194,"accuracy":1,"outcome":"+10","keys":[2160.5500001460314],"total_keys":1,"block":1,"trial":9,"stimulus":2,"robot":1,"valence":"win","action":"go","sham":0,"trial_type":"pit-trial","trial_index":33,"time_elapsed":226111,"internal_node_id":"0.0-10.0","task_version":"battery-v0.2"},{"rune":"Y","rune_set":"bacs1","hex":"#f73b6a7A","correct":-1,"choice":-1,"rt":-1,"accuracy":1,"outcome":"-10","keys":[],"total_keys":0,"block":1,"trial":10,"stimulus":0,"robot":4,"valence":"lose","action":"no-go","sham":1,"trial_type":"pit-trial","trial_index":34,"time_elapsed":230125,"internal_node_id":"0.0-11.0","task_version":"battery-v0.2"},{"rune":"H","rune_set":"bacs1","hex":"#f73b6a7A","correct":-1,"choice":-1,"rt":-1,"accuracy":1,"outcome":"-1","keys":[],"total_keys":0,"block":1,"trial":11,"stimulus":1,"robot":4,"valence":"lose","action":"no-go","sham":0,"trial_type":"pit-trial","trial_index":35,"time_elapsed":234137,"internal_node_id":"0.0-12.0","task_version":"battery-v0.2"},{"rune":"M","rune_set":"bacs1","hex":"#3366ff99","correct":-1,"choice":-1,"rt":-1,"accuracy":1,"outcome":"+10","keys":[],"total_keys":0,"block":1,"trial":12,"stimulus":3,"robot":2,"valence":"win","action":"no-go","sham":0,"trial_type":"pit-trial","trial_index":36,"time_elapsed":238146,"internal_node_id":"0.0-13.0","task_version":"battery-v0.2"},{"rune":"P","rune_set":"bacs1","hex":"#3366ff99","correct":32,"choice":32,"rt":822.3099999595433,"accuracy":1,"outcome":"+10","keys":[2323.2650000136346],"total_keys":1,"block":1,"trial":13,"stimulus":2,"robot":1,"valence":"win","action":"go","sham":0,"trial_type":"pit-trial","trial_index":37,"time_elapsed":241677,"internal_node_id":"0.0-14.0","task_version":"battery-v0.2"},{"rune":"Y","rune_set":"bacs1","hex":"#f73b6a7A","correct":-1,"choice":32,"rt":830.6249999441206,"accuracy":0,"outcome":"-10","keys":[2331.480000168085],"total_keys":1,"block":1,"trial":14,"stimulus":0,"robot":4,"valence":"lose","action":"no-go","sham":0,"trial_type":"pit-trial","trial_index":38,"time_elapsed":245224,"internal_node_id":"0.0-15.0","task_version":"battery-v0.2"},{"rune":"H","rune_set":"bacs1","hex":"#f73b6a7A","correct":-1,"choice":32,"rt":695.9200000856072,"accuracy":0,"outcome":"-10","keys":[2196.460000006482],"total_keys":1,"block":1,"trial":15,"stimulus":1,"robot":4,"valence":"lose","action":"no-go","sham":0,"trial_type":"pit-trial","trial_index":39,"time_elapsed":248628,"internal_node_id":"0.0-16.0","task_version":"battery-v0.2"},{"rune":"M","rune_set":"bacs1","hex":"#3366ff99","correct":-1,"choice":32,"rt":1170.5049998126924,"accuracy":0,"outcome":"+1","keys":[2671.044999966398],"total_keys":1,"block":1,"trial":16,"stimulus":3,"robot":2,"valence":"win","action":"no-go","sham":0,"trial_type":"pit-trial","trial_index":40,"time_elapsed":252510,"internal_node_id":"0.0-17.0","task_version":"battery-v0.2"},{"rune":"Y","rune_set":"bacs1","hex":"#f73b6a7A","correct":-1,"choice":-1,"rt":-1,"accuracy":1,"outcome":"-1","keys":[],"total_keys":0,"block":1,"trial":17,"stimulus":0,"robot":4,"valence":"lose","action":"no-go","sham":0,"trial_type":"pit-trial","trial_index":41,"time_elapsed":256519,"internal_node_id":"0.0-18.0","task_version":"battery-v0.2"},{"rune":"M","rune_set":"bacs1","hex":"#3366ff99","correct":-1,"choice":32,"rt":678.1450000125915,"accuracy":0,"outcome":"+1","keys":[2178.9750000461936],"total_keys":1,"block":1,"trial":18,"stimulus":3,"robot":2,"valence":"win","action":"no-go","sham":0,"trial_type":"pit-trial","trial_index":42,"time_elapsed":259910,"internal_node_id":"0.0-19.0","task_version":"battery-v0.2"},{"rune":"P","rune_set":"bacs1","hex":"#3366ff99","correct":32,"choice":32,"rt":583.8800000492483,"accuracy":1,"outcome":"+1","keys":[2084.104999899864],"total_keys":1,"block":1,"trial":19,"stimulus":2,"robot":1,"valence":"win","action":"go","sham":1,"trial_type":"pit-trial","trial_index":43,"time_elapsed":263203,"internal_node_id":"0.0-20.0","task_version":"battery-v0.2"},{"rune":"H","rune_set":"bacs1","hex":"#f73b6a7A","correct":-1,"choice":-1,"rt":-1,"accuracy":1,"outcome":"-1","keys":[],"total_keys":0,"block":1,"trial":20,"stimulus":1,"robot":4,"valence":"lose","action":"no-go","sham":0,"trial_type":"pit-trial","trial_index":44,"time_elapsed":267210,"internal_node_id":"0.0-21.0","task_version":"battery-v0.2"},{"rune":"M","rune_set":"bacs1","hex":"#3366ff99","correct":-1,"choice":32,"rt":934.4699999783188,"accuracy":0,"outcome":"+1","keys":[2434.764999896288],"total_keys":1,"block":1,"trial":21,"stimulus":3,"robot":2,"valence":"win","action":"no-go","sham":0,"trial_type":"pit-trial","trial_index":45,"time_elapsed":270854,"internal_node_id":"0.0-22.0","task_version":"battery-v0.2"},{"rune":"P","rune_set":"bacs1","hex":"#3366ff99","correct":32,"choice":-1,"rt":-1,"accuracy":0,"outcome":"+1","keys":[],"total_keys":0,"block":1,"trial":22,"stimulus":2,"robot":1,"valence":"win","action":"go","sham":0,"trial_type":"pit-trial","trial_index":46,"time_elapsed":274861,"internal_node_id":"0.0-23.0","task_version":"battery-v0.2"},{"rune":"Y","rune_set":"bacs1","hex":"#f73b6a7A","correct":-1,"choice":-1,"rt":-1,"accuracy":1,"outcome":"-1","keys":[],"total_keys":0,"block":1,"trial":23,"stimulus":0,"robot":4,"valence":"lose","action":"no-go","sham":0,"trial_type":"pit-trial","trial_index":47,"time_elapsed":278869,"internal_node_id":"0.0-24.0","task_version":"battery-v0.2"},{"rune":"H","rune_set":"bacs1","hex":"#f73b6a7A","correct":-1,"choice":32,"rt":649.900000076741,"accuracy":0,"outcome":"-10","keys":[2150.8949999697506],"total_keys":1,"block":1,"trial":24,"stimulus":1,"robot":4,"valence":"lose","action":"no-go","sham":0,"trial_type":"pit-trial","trial_index":48,"time_elapsed":282228,"internal_node_id":"0.0-25.0","task_version":"battery-v0.2"},{"rune":"Y","rune_set":"bacs1","hex":"#f73b6a7A","correct":-1,"choice":-1,"rt":-1,"accuracy":1,"outcome":"-1","keys":[],"total_keys":0,"block":1,"trial":25,"stimulus":0,"robot":4,"valence":"lose","action":"no-go","sham":0,"trial_type":"pit-trial","trial_index":49,"time_elapsed":286237,"internal_node_id":"0.0-26.0","task_version":"battery-v0.2"},{"rune":"H","rune_set":"bacs1","hex":"#f73b6a7A","correct":-1,"choice":-1,"rt":-1,"accuracy":1,"outcome":"-1","keys":[],"total_keys":0,"block":1,"trial":26,"stimulus":1,"robot":4,"valence":"lose","action":"no-go","sham":0,"trial_type":"pit-trial","trial_index":50,"time_elapsed":290243,"internal_node_id":"0.0-27.0","task_version":"battery-v0.2"},{"rune":"P","rune_set":"bacs1","hex":"#3366ff99","correct":32,"choice":32,"rt":483.69999998249114,"accuracy":1,"outcome":"+10","keys":[1985.259999986738],"total_keys":1,"block":1,"trial":27,"stimulus":2,"robot":1,"valence":"win","action":"go","sham":0,"trial_type":"pit-trial","trial_index":51,"time_elapsed":293436,"internal_node_id":"0.0-28.0","task_version":"battery-v0.2"},{"rune":"M","rune_set":"bacs1","hex":"#3366ff99","correct":-1,"choice":32,"rt":582.2000000625849,"accuracy":0,"outcome":"+10","keys":[2082.4899999424815],"total_keys":1,"block":1,"trial":28,"stimulus":3,"robot":2,"valence":"win","action":"no-go","sham":1,"trial_type":"pit-trial","trial_index":52,"time_elapsed":296741,"internal_node_id":"0.0-29.0","task_version":"battery-v0.2"},{"rune":"M","rune_set":"bacs1","hex":"#3366ff99","correct":-1,"choice":32,"rt":688.340000109747,"accuracy":0,"outcome":"+1","keys":[2188.9700000174344],"total_keys":1,"block":1,"trial":29,"stimulus":3,"robot":2,"valence":"win","action":"no-go","sham":0,"trial_type":"pit-trial","trial_index":53,"time_elapsed":300139,"internal_node_id":"0.0-30.0","task_version":"battery-v0.2"},{"rune":"Y","rune_set":"bacs1","hex":"#f73b6a7A","correct":-1,"choice":-1,"rt":-1,"accuracy":1,"outcome":"-1","keys":[],"total_keys":0,"block":1,"trial":30,"stimulus":0,"robot":4,"valence":"lose","action":"no-go","sham":0,"trial_type":"pit-trial","trial_index":54,"time_elapsed":304147,"internal_node_id":"0.0-31.0","task_version":"battery-v0.2"},{"rune":"H","rune_set":"bacs1","hex":"#f73b6a7A","correct":-1,"choice":-1,"rt":-1,"accuracy":1,"outcome":"-1","keys":[],"total_keys":0,"block":1,"trial":31,"stimulus":1,"robot":4,"valence":"lose","action":"no-go","sham":0,"trial_type":"pit-trial","trial_index":55,"time_elapsed":308160,"internal_node_id":"0.0-32.0","task_version":"battery-v0.2"},{"rune":"P","rune_set":"bacs1","hex":"#3366ff99","correct":32,"choice":32,"rt":631.4999999012798,"accuracy":1,"outcome":"+10","keys":[2132.704999996349],"total_keys":1,"block":1,"trial":32,"stimulus":2,"robot":1,"valence":"win","action":"go","sham":0,"trial_type":"pit-trial","trial_index":56,"time_elapsed":311498,"internal_node_id":"0.0-33.0","task_version":"battery-v0.2"},{"rune":"M","rune_set":"bacs1","hex":"#3366ff99","correct":-1,"choice":-1,"rt":-1,"accuracy":1,"outcome":"+10","keys":[],"total_keys":0,"block":1,"trial":33,"stimulus":3,"robot":2,"valence":"win","action":"no-go","sham":0,"trial_type":"pit-trial","trial_index":57,"time_elapsed":315508,"internal_node_id":"0.0-34.0","task_version":"battery-v0.2"},{"rune":"U","rune_set":"bacs1","hex":"#f73b6a7A","correct":32,"choice":-1,"rt":-1,"accuracy":0,"outcome":"-10","keys":[],"total_keys":0,"block":1,"trial":34,"stimulus":4,"robot":3,"valence":"lose","action":"go","sham":0,"trial_type":"pit-trial","trial_index":58,"time_elapsed":319520,"internal_node_id":"0.0-35.0","task_version":"battery-v0.2"},{"rune":"P","rune_set":"bacs1","hex":"#3366ff99","correct":32,"choice":-1,"rt":-1,"accuracy":0,"outcome":"+1","keys":[],"total_keys":0,"block":1,"trial":35,"stimulus":2,"robot":1,"valence":"win","action":"go","sham":0,"trial_type":"pit-trial","trial_index":59,"time_elapsed":323533,"internal_node_id":"0.0-36.0","task_version":"battery-v0.2"},{"rune":"Y","rune_set":"bacs1","hex":"#f73b6a7A","correct":-1,"choice":-1,"rt":-1,"accuracy":1,"outcome":"-1","keys":[],"total_keys":0,"block":1,"trial":36,"stimulus":0,"robot":4,"valence":"lose","action":"no-go","sham":0,"trial_type":"pit-trial","trial_index":60,"time_elapsed":327547,"internal_node_id":"0.0-37.0","task_version":"battery-v0.2"},{"rune":"Y","rune_set":"bacs1","hex":"#f73b6a7A","correct":-1,"choice":-1,"rt":-1,"accuracy":1,"outcome":"-10","keys":[],"total_keys":0,"block":1,"trial":37,"stimulus":0,"robot":4,"valence":"lose","action":"no-go","sham":1,"trial_type":"pit-trial","trial_index":61,"time_elapsed":331554,"internal_node_id":"0.0-38.0","task_version":"battery-v0.2"},{"rune":"P","rune_set":"bacs1","hex":"#3366ff99","correct":32,"choice":32,"rt":617.3549999948591,"accuracy":1,"outcome":"+1","keys":[2118.0050000548363],"total_keys":1,"block":1,"trial":38,"stimulus":2,"robot":1,"valence":"win","action":"go","sham":1,"trial_type":"pit-trial","trial_index":62,"time_elapsed":334877,"internal_node_id":"0.0-39.0","task_version":"battery-v0.2"},{"rune":"U","rune_set":"bacs1","hex":"#f73b6a7A","correct":32,"choice":-1,"rt":-1,"accuracy":0,"outcome":"-10","keys":[],"total_keys":0,"block":1,"trial":39,"stimulus":4,"robot":3,"valence":"lose","action":"go","sham":0,"trial_type":"pit-trial","trial_index":63,"time_elapsed":338882,"internal_node_id":"0.0-40.0","task_version":"battery-v0.2"},{"rune":"M","rune_set":"bacs1","hex":"#3366ff99","correct":-1,"choice":-1,"rt":-1,"accuracy":1,"outcome":"+10","keys":[],"total_keys":0,"block":1,"trial":40,"stimulus":3,"robot":2,"valence":"win","action":"no-go","sham":0,"trial_type":"pit-trial","trial_index":64,"time_elapsed":342887,"internal_node_id":"0.0-41.0","task_version":"battery-v0.2"},{"rune":"S","rune_set":"bacs1","hex":"#3366ff99","correct":-1,"choice":-1,"rt":-1,"accuracy":1,"outcome":"+10","keys":[],"total_keys":0,"block":1,"trial":41,"stimulus":5,"robot":2,"valence":"win","action":"no-go","sham":0,"trial_type":"pit-trial","trial_index":65,"time_elapsed":346893,"internal_node_id":"0.0-42.0","task_version":"battery-v0.2"},{"rune":"U","rune_set":"bacs1","hex":"#f73b6a7A","correct":32,"choice":32,"rt":1009.749999968335,"accuracy":1,"outcome":"-1","keys":[2510.1350001059473],"total_keys":1,"block":1,"trial":42,"stimulus":4,"robot":3,"valence":"lose","action":"go","sham":0,"trial_type":"pit-trial","trial_index":66,"time_elapsed":350621,"internal_node_id":"0.0-43.0","task_version":"battery-v0.2"},{"rune":"K","rune_set":"bacs1","hex":"#3366ff99","correct":32,"choice":-1,"rt":-1,"accuracy":0,"outcome":"+1","keys":[],"total_keys":0,"block":1,"trial":43,"stimulus":6,"robot":1,"valence":"win","action":"go","sham":0,"trial_type":"pit-trial","trial_index":67,"time_elapsed":354628,"internal_node_id":"0.0-44.0","task_version":"battery-v0.2"},{"rune":"Y","rune_set":"bacs1","hex":"#f73b6a7A","correct":-1,"choice":32,"rt":990.8900000154972,"accuracy":0,"outcome":"-10","keys":[2491.480000084266],"total_keys":1,"block":1,"trial":44,"stimulus":0,"robot":4,"valence":"lose","action":"no-go","sham":0,"trial_type":"pit-trial","trial_index":68,"time_elapsed":358331,"internal_node_id":"0.0-45.0","task_version":"battery-v0.2"},{"rune":"K","rune_set":"bacs1","hex":"#3366ff99","correct":32,"choice":-1,"rt":-1,"accuracy":0,"outcome":"+1","keys":[],"total_keys":0,"block":1,"trial":45,"stimulus":6,"robot":1,"valence":"win","action":"go","sham":0,"trial_type":"pit-trial","trial_index":69,"time_elapsed":362337,"internal_node_id":"0.0-46.0","task_version":"battery-v0.2"},{"rune":"Y","rune_set":"bacs1","hex":"#f73b6a7A","correct":-1,"choice":-1,"rt":-1,"accuracy":1,"outcome":"-1","keys":[],"total_keys":0,"block":1,"trial":46,"stimulus":0,"robot":4,"valence":"lose","action":"no-go","sham":0,"trial_type":"pit-trial","trial_index":70,"time_elapsed":366345,"internal_node_id":"0.0-47.0","task_version":"battery-v0.2"},{"rune":"S","rune_set":"bacs1","hex":"#3366ff99","correct":-1,"choice":-1,"rt":-1,"accuracy":1,"outcome":"+10","keys":[],"total_keys":0,"block":1,"trial":47,"stimulus":5,"robot":2,"valence":"win","action":"no-go","sham":0,"trial_type":"pit-trial","trial_index":71,"time_elapsed":370354,"internal_node_id":"0.0-48.0","task_version":"battery-v0.2"},{"rune":"U","rune_set":"bacs1","hex":"#f73b6a7A","correct":32,"choice":32,"rt":904.1199998464435,"accuracy":1,"outcome":"-1","keys":[2405.365000013262],"total_keys":1,"block":1,"trial":48,"stimulus":4,"robot":3,"valence":"lose","action":"go","sham":0,"trial_type":"pit-trial","trial_index":72,"time_elapsed":373966,"internal_node_id":"0.0-49.0","task_version":"battery-v0.2"},{"rune":"U","rune_set":"bacs1","hex":"#f73b6a7A","correct":32,"choice":32,"rt":675.6599999498576,"accuracy":1,"outcome":"-1","keys":[2177.2499999497086],"total_keys":1,"block":1,"trial":49,"stimulus":4,"robot":3,"valence":"lose","action":"go","sham":0,"trial_type":"pit-trial","trial_index":73,"time_elapsed":377348,"internal_node_id":"0.0-50.0","task_version":"battery-v0.2"},{"rune":"D","rune_set":"bacs1","hex":"#f73b6a7A","correct":-1,"choice":-1,"rt":-1,"accuracy":1,"outcome":"-1","keys":[],"total_keys":0,"block":1,"trial":50,"stimulus":7,"robot":4,"valence":"lose","action":"no-go","sham":0,"trial_type":"pit-trial","trial_index":74,"time_elapsed":381359,"internal_node_id":"0.0-51.0","task_version":"battery-v0.2"},{"rune":"K","rune_set":"bacs1","hex":"#3366ff99","correct":32,"choice":32,"rt":1046.5100000146776,"accuracy":1,"outcome":"+1","keys":[2546.7950000893325],"total_keys":1,"block":1,"trial":51,"stimulus":6,"robot":1,"valence":"win","action":"go","sham":1,"trial_type":"pit-trial","trial_index":75,"time_elapsed":385110,"internal_node_id":"0.0-52.0","task_version":"battery-v0.2"},{"rune":"S","rune_set":"bacs1","hex":"#3366ff99","correct":-1,"choice":-1,"rt":-1,"accuracy":1,"outcome":"+10","keys":[],"total_keys":0,"block":1,"trial":52,"stimulus":5,"robot":2,"valence":"win","action":"no-go","sham":0,"trial_type":"pit-trial","trial_index":76,"time_elapsed":389124,"internal_node_id":"0.0-53.0","task_version":"battery-v0.2"},{"rune":"S","rune_set":"bacs1","hex":"#3366ff99","correct":-1,"choice":-1,"rt":-1,"accuracy":1,"outcome":"+1","keys":[],"total_keys":0,"block":1,"trial":53,"stimulus":5,"robot":2,"valence":"win","action":"no-go","sham":1,"trial_type":"pit-trial","trial_index":77,"time_elapsed":393136,"internal_node_id":"0.0-54.0","task_version":"battery-v0.2"},{"rune":"U","rune_set":"bacs1","hex":"#f73b6a7A","correct":32,"choice":32,"rt":614.7399998735636,"accuracy":1,"outcome":"-1","keys":[2116.5000000037253],"total_keys":1,"block":1,"trial":54,"stimulus":4,"robot":3,"valence":"lose","action":"go","sham":0,"trial_type":"pit-trial","trial_index":78,"time_elapsed":396462,"internal_node_id":"0.0-55.0","task_version":"battery-v0.2"},{"rune":"K","rune_set":"bacs1","hex":"#3366ff99","correct":32,"choice":-1,"rt":-1,"accuracy":0,"outcome":"+1","keys":[],"total_keys":0,"block":1,"trial":55,"stimulus":6,"robot":1,"valence":"win","action":"go","sham":0,"trial_type":"pit-trial","trial_index":79,"time_elapsed":400467,"internal_node_id":"0.0-56.0","task_version":"battery-v0.2"},{"rune":"D","rune_set":"bacs1","hex":"#f73b6a7A","correct":-1,"choice":-1,"rt":-1,"accuracy":1,"outcome":"-1","keys":[],"total_keys":0,"block":1,"trial":56,"stimulus":7,"robot":4,"valence":"lose","action":"no-go","sham":0,"trial_type":"pit-trial","trial_index":80,"time_elapsed":404476,"internal_node_id":"0.0-57.0","task_version":"battery-v0.2"},{"rune":"U","rune_set":"bacs1","hex":"#f73b6a7A","correct":32,"choice":32,"rt":616.0800000652671,"accuracy":1,"outcome":"-10","keys":[2116.8450000695884],"total_keys":1,"block":1,"trial":57,"stimulus":4,"robot":3,"valence":"lose","action":"go","sham":1,"trial_type":"pit-trial","trial_index":81,"time_elapsed":407802,"internal_node_id":"0.0-58.0","task_version":"battery-v0.2"},{"rune":"S","rune_set":"bacs1","hex":"#3366ff99","correct":-1,"choice":-1,"rt":-1,"accuracy":1,"outcome":"+1","keys":[],"total_keys":0,"block":1,"trial":58,"stimulus":5,"robot":2,"valence":"win","action":"no-go","sham":1,"trial_type":"pit-trial","trial_index":82,"time_elapsed":411809,"internal_node_id":"0.0-59.0","task_version":"battery-v0.2"},{"rune":"K","rune_set":"bacs1","hex":"#3366ff99","correct":32,"choice":32,"rt":602.1450001280755,"accuracy":1,"outcome":"+1","keys":[2102.9900000430644],"total_keys":1,"block":1,"trial":59,"stimulus":6,"robot":1,"valence":"win","action":"go","sham":1,"trial_type":"pit-trial","trial_index":83,"time_elapsed":415117,"internal_node_id":"0.0-60.0","task_version":"battery-v0.2"},{"rune":"D","rune_set":"bacs1","hex":"#f73b6a7A","correct":-1,"choice":-1,"rt":-1,"accuracy":1,"outcome":"-10","keys":[],"total_keys":0,"block":1,"trial":60,"stimulus":7,"robot":4,"valence":"lose","action":"no-go","sham":1,"trial_type":"pit-trial","trial_index":84,"time_elapsed":419129,"internal_node_id":"0.0-61.0","task_version":"battery-v0.2"},{"rune":"S","rune_set":"bacs1","hex":"#3366ff99","correct":-1,"choice":-1,"rt":-1,"accuracy":1,"outcome":"+10","keys":[],"total_keys":0,"block":1,"trial":61,"stimulus":5,"robot":2,"valence":"win","action":"no-go","sham":0,"trial_type":"pit-trial","trial_index":85,"time_elapsed":423135,"internal_node_id":"0.0-62.0","task_version":"battery-v0.2"},{"rune":"D","rune_set":"bacs1","hex":"#f73b6a7A","correct":-1,"choice":-1,"rt":-1,"accuracy":1,"outcome":"-1","keys":[],"total_keys":0,"block":1,"trial":62,"stimulus":7,"robot":4,"valence":"lose","action":"no-go","sham":0,"trial_type":"pit-trial","trial_index":86,"time_elapsed":427146,"internal_node_id":"0.0-63.0","task_version":"battery-v0.2"},{"rune":"U","rune_set":"bacs1","hex":"#f73b6a7A","correct":32,"choice":32,"rt":547.5300000980496,"accuracy":1,"outcome":"-1","keys":[2047.9049999266863],"total_keys":1,"block":1,"trial":63,"stimulus":4,"robot":3,"valence":"lose","action":"go","sham":0,"trial_type":"pit-trial","trial_index":87,"time_elapsed":430407,"internal_node_id":"0.0-64.0","task_version":"battery-v0.2"},{"rune":"K","rune_set":"bacs1","hex":"#3366ff99","correct":32,"choice":32,"rt":883.8849999010563,"accuracy":1,"outcome":"+10","keys":[2384.3249999918044],"total_keys":1,"block":1,"trial":64,"stimulus":6,"robot":1,"valence":"win","action":"go","sham":0,"trial_type":"pit-trial","trial_index":88,"time_elapsed":434003,"internal_node_id":"0.0-65.0","task_version":"battery-v0.2"},{"rune":"S","rune_set":"bacs1","hex":"#3366ff99","correct":-1,"choice":-1,"rt":-1,"accuracy":1,"outcome":"+1","keys":[],"total_keys":0,"block":1,"trial":65,"stimulus":5,"robot":2,"valence":"win","action":"no-go","sham":1,"trial_type":"pit-trial","trial_index":89,"time_elapsed":438017,"internal_node_id":"0.0-66.0","task_version":"battery-v0.2"},{"rune":"K","rune_set":"bacs1","hex":"#3366ff99","correct":32,"choice":32,"rt":657.2900000028312,"accuracy":1,"outcome":"+10","keys":[2158.314999891445],"total_keys":1,"block":1,"trial":66,"stimulus":6,"robot":1,"valence":"win","action":"go","sham":0,"trial_type":"pit-trial","trial_index":90,"time_elapsed":441388,"internal_node_id":"0.0-67.0","task_version":"battery-v0.2"},{"rune":"D","rune_set":"bacs1","hex":"#f73b6a7A","correct":-1,"choice":-1,"rt":-1,"accuracy":1,"outcome":"-1","keys":[],"total_keys":0,"block":1,"trial":67,"stimulus":7,"robot":4,"valence":"lose","action":"no-go","sham":0,"trial_type":"pit-trial","trial_index":91,"time_elapsed":445398,"internal_node_id":"0.0-68.0","task_version":"battery-v0.2"},{"rune":"U","rune_set":"bacs1","hex":"#f73b6a7A","correct":32,"choice":32,"rt":770.7199999131262,"accuracy":1,"outcome":"-1","keys":[2270.9399999585003],"total_keys":1,"block":1,"trial":68,"stimulus":4,"robot":3,"valence":"lose","action":"go","sham":0,"trial_type":"pit-trial","trial_index":92,"time_elapsed":448877,"internal_node_id":"0.0-69.0","task_version":"battery-v0.2"},{"rune":"D","rune_set":"bacs1","hex":"#f73b6a7A","correct":-1,"choice":32,"rt":901.0950000956655,"accuracy":0,"outcome":"-10","keys":[2401.194999925792],"total_keys":1,"block":1,"trial":69,"stimulus":7,"robot":4,"valence":"lose","action":"no-go","sham":0,"trial_type":"pit-trial","trial_index":93,"time_elapsed":452483,"internal_node_id":"0.0-70.0","task_version":"battery-v0.2"},{"rune":"K","rune_set":"bacs1","hex":"#3366ff99","correct":32,"choice":32,"rt":777.2600001189858,"accuracy":1,"outcome":"+10","keys":[2278.084999881685],"total_keys":1,"block":1,"trial":70,"stimulus":6,"robot":1,"valence":"win","action":"go","sham":0,"trial_type":"pit-trial","trial_index":94,"time_elapsed":455966,"internal_node_id":"0.0-71.0","task_version":"battery-v0.2"},{"rune":"S","rune_set":"bacs1","hex":"#3366ff99","correct":-1,"choice":-1,"rt":-1,"accuracy":1,"outcome":"+1","keys":[],"total_keys":0,"block":1,"trial":71,"stimulus":5,"robot":2,"valence":"win","action":"no-go","sham":1,"trial_type":"pit-trial","trial_index":95,"time_elapsed":459978,"internal_node_id":"0.0-72.0","task_version":"battery-v0.2"},{"rune":"U","rune_set":"bacs1","hex":"#f73b6a7A","correct":32,"choice":32,"rt":782.9700000584126,"accuracy":1,"outcome":"-1","keys":[2283.4149999544024],"total_keys":1,"block":1,"trial":72,"stimulus":4,"robot":3,"valence":"lose","action":"go","sham":0,"trial_type":"pit-trial","trial_index":96,"time_elapsed":463473,"internal_node_id":"0.0-73.0","task_version":"battery-v0.2"},{"rune":"D","rune_set":"bacs1","hex":"#f73b6a7A","correct":-1,"choice":32,"rt":784.2099999543279,"accuracy":0,"outcome":"-1","keys":[2284.5799999777228],"total_keys":1,"block":1,"trial":73,"stimulus":7,"robot":4,"valence":"lose","action":"no-go","sham":1,"trial_type":"pit-trial","trial_index":97,"time_elapsed":466962,"internal_node_id":"0.0-74.0","task_version":"battery-v0.2"},{"rune":"S","rune_set":"bacs1","hex":"#3366ff99","correct":-1,"choice":-1,"rt":-1,"accuracy":1,"outcome":"+10","keys":[],"total_keys":0,"block":1,"trial":74,"stimulus":5,"robot":2,"valence":"win","action":"no-go","sham":0,"trial_type":"pit-trial","trial_index":98,"time_elapsed":470974,"internal_node_id":"0.0-75.0","task_version":"battery-v0.2"},{"rune":"I","rune_set":"bacs1","hex":"#f73b6a7A","correct":32,"choice":-1,"rt":-1,"accuracy":0,"outcome":"-10","keys":[],"total_keys":0,"block":1,"trial":75,"stimulus":9,"robot":3,"valence":"lose","action":"go","sham":0,"trial_type":"pit-trial","trial_index":99,"time_elapsed":474987,"internal_node_id":"0.0-76.0","task_version":"battery-v0.2"},{"rune":"O","rune_set":"bacs1","hex":"#3366ff99","correct":32,"choice":32,"rt":926.5450001694262,"accuracy":1,"outcome":"+1","keys":[2426.8749998882413],"total_keys":1,"block":1,"trial":76,"stimulus":8,"robot":1,"valence":"win","action":"go","sham":1,"trial_type":"pit-trial","trial_index":100,"time_elapsed":478627,"internal_node_id":"0.0-77.0","task_version":"battery-v0.2"},{"rune":"S","rune_set":"bacs1","hex":"#3366ff99","correct":-1,"choice":-1,"rt":-1,"accuracy":1,"outcome":"+10","keys":[],"total_keys":0,"block":1,"trial":77,"stimulus":5,"robot":2,"valence":"win","action":"no-go","sham":0,"trial_type":"pit-trial","trial_index":101,"time_elapsed":482640,"internal_node_id":"0.0-78.0","task_version":"battery-v0.2"},{"rune":"O","rune_set":"bacs1","hex":"#3366ff99","correct":32,"choice":-1,"rt":-1,"accuracy":0,"outcome":"+1","keys":[],"total_keys":0,"block":1,"trial":78,"stimulus":8,"robot":1,"valence":"win","action":"go","sham":0,"trial_type":"pit-trial","trial_index":102,"time_elapsed":486653,"internal_node_id":"0.0-79.0","task_version":"battery-v0.2"},{"rune":"D","rune_set":"bacs1","hex":"#f73b6a7A","correct":-1,"choice":32,"rt":595.7450000569224,"accuracy":0,"outcome":"-10","keys":[2097.2949999850243],"total_keys":1,"block":1,"trial":79,"stimulus":7,"robot":4,"valence":"lose","action":"no-go","sham":0,"trial_type":"pit-trial","trial_index":103,"time_elapsed":489958,"internal_node_id":"0.0-80.0","task_version":"battery-v0.2"},{"rune":"I","rune_set":"bacs1","hex":"#f73b6a7A","correct":32,"choice":-1,"rt":-1,"accuracy":0,"outcome":"-10","keys":[],"total_keys":0,"block":1,"trial":80,"stimulus":9,"robot":3,"valence":"lose","action":"go","sham":0,"trial_type":"pit-trial","trial_index":104,"time_elapsed":493971,"internal_node_id":"0.0-81.0","task_version":"battery-v0.2"},{"rune":"S","rune_set":"bacs1","hex":"#3366ff99","correct":-1,"choice":-1,"rt":-1,"accuracy":1,"outcome":"+10","keys":[],"total_keys":0,"block":1,"trial":81,"stimulus":5,"robot":2,"valence":"win","action":"no-go","sham":0,"trial_type":"pit-trial","trial_index":105,"time_elapsed":497985,"internal_node_id":"0.0-82.0","task_version":"battery-v0.2"},{"rune":"D","rune_set":"bacs1","hex":"#f73b6a7A","correct":-1,"choice":32,"rt":769.0850000362843,"accuracy":0,"outcome":"-1","keys":[2269.869999960065],"total_keys":1,"block":1,"trial":82,"stimulus":7,"robot":4,"valence":"lose","action":"no-go","sham":1,"trial_type":"pit-trial","trial_index":106,"time_elapsed":501466,"internal_node_id":"0.0-83.0","task_version":"battery-v0.2"},{"rune":"I","rune_set":"bacs1","hex":"#f73b6a7A","correct":32,"choice":32,"rt":773.8099999260157,"accuracy":1,"outcome":"-1","keys":[2274.6200000401586],"total_keys":1,"block":1,"trial":83,"stimulus":9,"robot":3,"valence":"lose","action":"go","sham":0,"trial_type":"pit-trial","trial_index":107,"time_elapsed":504946,"internal_node_id":"0.0-84.0","task_version":"battery-v0.2"},{"rune":"O","rune_set":"bacs1","hex":"#3366ff99","correct":32,"choice":-1,"rt":-1,"accuracy":0,"outcome":"+10","keys":[],"total_keys":0,"block":1,"trial":84,"stimulus":8,"robot":1,"valence":"win","action":"go","sham":1,"trial_type":"pit-trial","trial_index":108,"time_elapsed":508955,"internal_node_id":"0.0-85.0","task_version":"battery-v0.2"},{"rune":"S","rune_set":"bacs1","hex":"#3366ff99","correct":-1,"choice":-1,"rt":-1,"accuracy":1,"outcome":"+10","keys":[],"total_keys":0,"block":1,"trial":85,"stimulus":5,"robot":2,"valence":"win","action":"no-go","sham":0,"trial_type":"pit-trial","trial_index":109,"time_elapsed":512968,"internal_node_id":"0.0-86.0","task_version":"battery-v0.2"},{"rune":"I","rune_set":"bacs1","hex":"#f73b6a7A","correct":32,"choice":32,"rt":989.0250000171363,"accuracy":1,"outcome":"-1","keys":[2490.8350000623614],"total_keys":1,"block":1,"trial":86,"stimulus":9,"robot":3,"valence":"lose","action":"go","sham":0,"trial_type":"pit-trial","trial_index":110,"time_elapsed":516665,"internal_node_id":"0.0-87.0","task_version":"battery-v0.2"},{"rune":"D","rune_set":"bacs1","hex":"#f73b6a7A","correct":-1,"choice":32,"rt":596.5650000143796,"accuracy":0,"outcome":"-10","keys":[2097.234999993816],"total_keys":1,"block":1,"trial":87,"stimulus":7,"robot":4,"valence":"lose","action":"no-go","sham":0,"trial_type":"pit-trial","trial_index":111,"time_elapsed":519969,"internal_node_id":"0.0-88.0","task_version":"battery-v0.2"},{"rune":"O","rune_set":"bacs1","hex":"#3366ff99","correct":32,"choice":-1,"rt":-1,"accuracy":0,"outcome":"+1","keys":[],"total_keys":0,"block":1,"trial":88,"stimulus":8,"robot":1,"valence":"win","action":"go","sham":0,"trial_type":"pit-trial","trial_index":112,"time_elapsed":523975,"internal_node_id":"0.0-89.0","task_version":"battery-v0.2"},{"rune":"I","rune_set":"bacs1","hex":"#f73b6a7A","correct":32,"choice":32,"rt":1008.7599998805672,"accuracy":1,"outcome":"-1","keys":[2509.444999974221],"total_keys":1,"block":1,"trial":89,"stimulus":9,"robot":3,"valence":"lose","action":"go","sham":0,"trial_type":"pit-trial","trial_index":113,"time_elapsed":527697,"internal_node_id":"0.0-90.0","task_version":"battery-v0.2"},{"rune":"G","rune_set":"bacs1","hex":"#f73b6a7A","correct":32,"choice":-1,"rt":-1,"accuracy":0,"outcome":"-10","keys":[],"total_keys":0,"block":1,"trial":90,"stimulus":10,"robot":3,"valence":"lose","action":"go","sham":0,"trial_type":"pit-trial","trial_index":114,"time_elapsed":531710,"internal_node_id":"0.0-91.0","task_version":"battery-v0.2"},{"rune":"O","rune_set":"bacs1","hex":"#3366ff99","correct":32,"choice":-1,"rt":-1,"accuracy":0,"outcome":"+1","keys":[],"total_keys":0,"block":1,"trial":91,"stimulus":8,"robot":1,"valence":"win","action":"go","sham":0,"trial_type":"pit-trial","trial_index":115,"time_elapsed":535723,"internal_node_id":"0.0-92.0","task_version":"battery-v0.2"},{"rune":"N","rune_set":"bacs1","hex":"#3366ff99","correct":-1,"choice":-1,"rt":-1,"accuracy":1,"outcome":"+10","keys":[],"total_keys":0,"block":1,"trial":92,"stimulus":11,"robot":2,"valence":"win","action":"no-go","sham":0,"trial_type":"pit-trial","trial_index":116,"time_elapsed":539735,"internal_node_id":"0.0-93.0","task_version":"battery-v0.2"},{"rune":"I","rune_set":"bacs1","hex":"#f73b6a7A","correct":32,"choice":32,"rt":675.2949999645352,"accuracy":1,"outcome":"-1","keys":[2175.969999982044],"total_keys":1,"block":1,"trial":93,"stimulus":9,"robot":3,"valence":"lose","action":"go","sham":0,"trial_type":"pit-trial","trial_index":117,"time_elapsed":543118,"internal_node_id":"0.0-94.0","task_version":"battery-v0.2"},{"rune":"N","rune_set":"bacs1","hex":"#3366ff99","correct":-1,"choice":-1,"rt":-1,"accuracy":1,"outcome":"+1","keys":[],"total_keys":0,"block":1,"trial":94,"stimulus":11,"robot":2,"valence":"win","action":"no-go","sham":1,"trial_type":"pit-trial","trial_index":118,"time_elapsed":547123,"internal_node_id":"0.0-95.0","task_version":"battery-v0.2"},{"rune":"G","rune_set":"bacs1","hex":"#f73b6a7A","correct":32,"choice":-1,"rt":-1,"accuracy":0,"outcome":"-1","keys":[],"total_keys":0,"block":1,"trial":95,"stimulus":10,"robot":3,"valence":"lose","action":"go","sham":1,"trial_type":"pit-trial","trial_index":119,"time_elapsed":551129,"internal_node_id":"0.0-96.0","task_version":"battery-v0.2"},{"rune":"O","rune_set":"bacs1","hex":"#3366ff99","correct":32,"choice":32,"rt":688.7699998915195,"accuracy":1,"outcome":"+10","keys":[2189.805000089109],"total_keys":1,"block":1,"trial":96,"stimulus":8,"robot":1,"valence":"win","action":"go","sham":0,"trial_type":"pit-trial","trial_index":120,"time_elapsed":554530,"internal_node_id":"0.0-97.0","task_version":"battery-v0.2"},{"rune":"N","rune_set":"bacs1","hex":"#3366ff99","correct":-1,"choice":-1,"rt":-1,"accuracy":1,"outcome":"+10","keys":[],"total_keys":0,"block":1,"trial":97,"stimulus":11,"robot":2,"valence":"win","action":"no-go","sham":0,"trial_type":"pit-trial","trial_index":121,"time_elapsed":558536,"internal_node_id":"0.0-98.0","task_version":"battery-v0.2"},{"rune":"I","rune_set":"bacs1","hex":"#f73b6a7A","correct":32,"choice":32,"rt":612.9050001036376,"accuracy":1,"outcome":"-1","keys":[2113.0150000099093],"total_keys":1,"block":1,"trial":98,"stimulus":9,"robot":3,"valence":"lose","action":"go","sham":0,"trial_type":"pit-trial","trial_index":122,"time_elapsed":561861,"internal_node_id":"0.0-99.0","task_version":"battery-v0.2"},{"rune":"G","rune_set":"bacs1","hex":"#f73b6a7A","correct":32,"choice":-1,"rt":-1,"accuracy":0,"outcome":"-1","keys":[],"total_keys":0,"block":1,"trial":99,"stimulus":10,"robot":3,"valence":"lose","action":"go","sham":1,"trial_type":"pit-trial","trial_index":123,"time_elapsed":565866,"internal_node_id":"0.0-100.0","task_version":"battery-v0.2"},{"rune":"O","rune_set":"bacs1","hex":"#3366ff99","correct":32,"choice":32,"rt":632.2300001047552,"accuracy":1,"outcome":"+10","keys":[2132.93999992311],"total_keys":1,"block":1,"trial":100,"stimulus":8,"robot":1,"valence":"win","action":"go","sham":0,"trial_type":"pit-trial","trial_index":124,"time_elapsed":569205,"internal_node_id":"0.0-101.0","task_version":"battery-v0.2"},{"rune":"G","rune_set":"bacs1","hex":"#f73b6a7A","correct":32,"choice":-1,"rt":-1,"accuracy":0,"outcome":"-10","keys":[],"total_keys":0,"block":1,"trial":101,"stimulus":10,"robot":3,"valence":"lose","action":"go","sham":0,"trial_type":"pit-trial","trial_index":125,"time_elapsed":573214,"internal_node_id":"0.0-102.0","task_version":"battery-v0.2"},{"rune":"O","rune_set":"bacs1","hex":"#3366ff99","correct":32,"choice":32,"rt":559.1649999842048,"accuracy":1,"outcome":"+1","keys":[2059.485000092536],"total_keys":1,"block":1,"trial":102,"stimulus":8,"robot":1,"valence":"win","action":"go","sham":1,"trial_type":"pit-trial","trial_index":126,"time_elapsed":576478,"internal_node_id":"0.0-103.0","task_version":"battery-v0.2"},{"rune":"N","rune_set":"bacs1","hex":"#3366ff99","correct":-1,"choice":32,"rt":783.8000000920147,"accuracy":0,"outcome":"+10","keys":[2283.9700002223253],"total_keys":1,"block":1,"trial":103,"stimulus":11,"robot":2,"valence":"win","action":"no-go","sham":1,"trial_type":"pit-trial","trial_index":127,"time_elapsed":579968,"internal_node_id":"0.0-104.0","task_version":"battery-v0.2"},{"rune":"I","rune_set":"bacs1","hex":"#f73b6a7A","correct":32,"choice":32,"rt":698.219999903813,"accuracy":1,"outcome":"-1","keys":[2200.0899999402463],"total_keys":1,"block":1,"trial":104,"stimulus":9,"robot":3,"valence":"lose","action":"go","sham":0,"trial_type":"pit-trial","trial_index":128,"time_elapsed":583381,"internal_node_id":"0.0-105.0","task_version":"battery-v0.2"},{"rune":"G","rune_set":"bacs1","hex":"#f73b6a7A","correct":32,"choice":32,"rt":815.2350001037121,"accuracy":1,"outcome":"-10","keys":[2315.3250000905246],"total_keys":1,"block":1,"trial":105,"stimulus":10,"robot":3,"valence":"lose","action":"go","sham":1,"trial_type":"pit-trial","trial_index":129,"time_elapsed":586901,"internal_node_id":"0.0-106.0","task_version":"battery-v0.2"},{"rune":"O","rune_set":"bacs1","hex":"#3366ff99","correct":32,"choice":32,"rt":657.1199998725206,"accuracy":1,"outcome":"+1","keys":[2158.999999985099],"total_keys":1,"block":1,"trial":106,"stimulus":8,"robot":1,"valence":"win","action":"go","sham":1,"trial_type":"pit-trial","trial_index":130,"time_elapsed":590265,"internal_node_id":"0.0-107.0","task_version":"battery-v0.2"},{"rune":"N","rune_set":"bacs1","hex":"#3366ff99","correct":-1,"choice":32,"rt":853.0199998058379,"accuracy":0,"outcome":"+1","keys":[2353.624999988824],"total_keys":1,"block":1,"trial":107,"stimulus":11,"robot":2,"valence":"win","action":"no-go","sham":0,"trial_type":"pit-trial","trial_index":131,"time_elapsed":593826,"internal_node_id":"0.0-108.0","task_version":"battery-v0.2"},{"rune":"I","rune_set":"bacs1","hex":"#f73b6a7A","correct":32,"choice":32,"rt":839.380000019446,"accuracy":1,"outcome":"-1","keys":[2339.7049999330193],"total_keys":1,"block":1,"trial":108,"stimulus":9,"robot":3,"valence":"lose","action":"go","sham":0,"trial_type":"pit-trial","trial_index":132,"time_elapsed":597374,"internal_node_id":"0.0-109.0","task_version":"battery-v0.2"},{"rune":"O","rune_set":"bacs1","hex":"#3366ff99","correct":32,"choice":-1,"rt":-1,"accuracy":0,"outcome":"+1","keys":[],"total_keys":0,"block":1,"trial":109,"stimulus":8,"robot":1,"valence":"win","action":"go","sham":0,"trial_type":"pit-trial","trial_index":133,"time_elapsed":601380,"internal_node_id":"0.0-110.0","task_version":"battery-v0.2"},{"rune":"I","rune_set":"bacs1","hex":"#f73b6a7A","correct":32,"choice":32,"rt":765.3699999209493,"accuracy":1,"outcome":"-10","keys":[2265.4800000600517],"total_keys":1,"block":1,"trial":110,"stimulus":9,"robot":3,"valence":"lose","action":"go","sham":1,"trial_type":"pit-trial","trial_index":134,"time_elapsed":604852,"internal_node_id":"0.0-111.0","task_version":"battery-v0.2"},{"rune":"N","rune_set":"bacs1","hex":"#3366ff99","correct":-1,"choice":32,"rt":684.8100000061095,"accuracy":0,"outcome":"+1","keys":[2185.6999997980893],"total_keys":1,"block":1,"trial":111,"stimulus":11,"robot":2,"valence":"win","action":"no-go","sham":0,"trial_type":"pit-trial","trial_index":135,"time_elapsed":608257,"internal_node_id":"0.0-112.0","task_version":"battery-v0.2"},{"rune":"G","rune_set":"bacs1","hex":"#f73b6a7A","correct":32,"choice":32,"rt":654.2199999094009,"accuracy":1,"outcome":"-1","keys":[2154.459999874234],"total_keys":1,"block":1,"trial":112,"stimulus":10,"robot":3,"valence":"lose","action":"go","sham":0,"trial_type":"pit-trial","trial_index":136,"time_elapsed":611619,"internal_node_id":"0.0-113.0","task_version":"battery-v0.2"},{"rune":"N","rune_set":"bacs1","hex":"#3366ff99","correct":-1,"choice":32,"rt":762.0399999432266,"accuracy":0,"outcome":"+1","keys":[2263.014999916777],"total_keys":1,"block":1,"trial":113,"stimulus":11,"robot":2,"valence":"win","action":"no-go","sham":0,"trial_type":"pit-trial","trial_index":137,"time_elapsed":615094,"internal_node_id":"0.0-114.0","task_version":"battery-v0.2"},{"rune":"G","rune_set":"bacs1","hex":"#f73b6a7A","correct":32,"choice":32,"rt":728.1899999361485,"accuracy":1,"outcome":"-1","keys":[2228.78500004299],"total_keys":1,"block":1,"trial":114,"stimulus":10,"robot":3,"valence":"lose","action":"go","sham":0,"trial_type":"pit-trial","trial_index":138,"time_elapsed":618528,"internal_node_id":"0.0-115.0","task_version":"battery-v0.2"},{"rune":"O","rune_set":"bacs1","hex":"#3366ff99","correct":32,"choice":32,"rt":696.4249999728054,"accuracy":1,"outcome":"+10","keys":[2196.995000122115],"total_keys":1,"block":1,"trial":115,"stimulus":8,"robot":1,"valence":"win","action":"go","sham":0,"trial_type":"pit-trial","trial_index":139,"time_elapsed":621937,"internal_node_id":"0.0-116.0","task_version":"battery-v0.2"},{"rune":"I","rune_set":"bacs1","hex":"#f73b6a7A","correct":32,"choice":32,"rt":594.7000000160187,"accuracy":1,"outcome":"-1","keys":[2095.674999989569],"total_keys":1,"block":1,"trial":116,"stimulus":9,"robot":3,"valence":"lose","action":"go","sham":0,"trial_type":"pit-trial","trial_index":140,"time_elapsed":625245,"internal_node_id":"0.0-117.0","task_version":"battery-v0.2"},{"rune":"O","rune_set":"bacs1","hex":"#3366ff99","correct":32,"choice":32,"rt":720.7149998284876,"accuracy":1,"outcome":"+10","keys":[2221.254999982193],"total_keys":1,"block":1,"trial":117,"stimulus":8,"robot":1,"valence":"win","action":"go","sham":0,"trial_type":"pit-trial","trial_index":141,"time_elapsed":628672,"internal_node_id":"0.0-118.0","task_version":"battery-v0.2"},{"rune":"I","rune_set":"bacs1","hex":"#f73b6a7A","correct":32,"choice":32,"rt":1001.3900001067668,"accuracy":1,"outcome":"-1","keys":[2502.0199997816235],"total_keys":1,"block":1,"trial":118,"stimulus":9,"robot":3,"valence":"lose","action":"go","sham":0,"trial_type":"pit-trial","trial_index":142,"time_elapsed":632387,"internal_node_id":"0.0-119.0","task_version":"battery-v0.2"},{"rune":"G","rune_set":"bacs1","hex":"#f73b6a7A","correct":32,"choice":-1,"rt":-1,"accuracy":0,"outcome":"-10","keys":[],"total_keys":0,"block":1,"trial":119,"stimulus":10,"robot":3,"valence":"lose","action":"go","sham":0,"trial_type":"pit-trial","trial_index":143,"time_elapsed":636397,"internal_node_id":"0.0-120.0","task_version":"battery-v0.2"},{"rune":"N","rune_set":"bacs1","hex":"#3366ff99","correct":-1,"choice":32,"rt":912.4399998690933,"accuracy":0,"outcome":"+10","keys":[2414.0800000168383],"total_keys":1,"block":1,"trial":120,"stimulus":11,"robot":2,"valence":"win","action":"no-go","sham":1,"trial_type":"pit-trial","trial_index":144,"time_elapsed":640020,"internal_node_id":"0.0-121.0","task_version":"battery-v0.2"},{"view_history":"[{\"page_index\":0,\"viewing_time\":3174.329999834299},{\"page_index\":1,\"viewing_time\":896.5700000990182}]","rt":4071.504999883473,"trial_type":"pit-instructions","trial_index":145,"time_elapsed":644102,"internal_node_id":"0.0-122.0","task_version":"battery-v0.2"},{"rune":"R","rune_set":"bacs1","hex":"#3366ff99","correct":32,"choice":32,"rt":1237.6099999528378,"accuracy":1,"outcome":"+1","keys":[2738.944999873638],"total_keys":1,"block":2,"trial":121,"stimulus":3,"robot":1,"valence":"win","action":"go","sham":1,"trial_type":"pit-trial","trial_index":146,"time_elapsed":648052,"internal_node_id":"0.0-123.0","task_version":"battery-v0.2"},{"rune":"B","rune_set":"bacs1","hex":"#3366ff99","correct":-1,"choice":-1,"rt":-1,"accuracy":1,"outcome":"+10","keys":[],"total_keys":0,"block":2,"trial":122,"stimulus":0,"robot":2,"valence":"win","action":"no-go","sham":0,"trial_type":"pit-trial","trial_index":147,"time_elapsed":652059,"internal_node_id":"0.0-124.0","task_version":"battery-v0.2"},{"rune":"J","rune_set":"bacs1","hex":"#f73b6a7A","correct":-1,"choice":32,"rt":1035.924999974668,"accuracy":0,"outcome":"-10","keys":[2536.6150001063943],"total_keys":1,"block":2,"trial":123,"stimulus":2,"robot":4,"valence":"lose","action":"no-go","sham":0,"trial_type":"pit-trial","trial_index":148,"time_elapsed":655808,"internal_node_id":"0.0-125.0","task_version":"battery-v0.2"},{"rune":"Z","rune_set":"bacs1","hex":"#3366ff99","correct":32,"choice":-1,"rt":-1,"accuracy":0,"outcome":"+10","keys":[],"total_keys":0,"block":2,"trial":124,"stimulus":1,"robot":1,"valence":"win","action":"go","sham":1,"trial_type":"pit-trial","trial_index":149,"time_elapsed":659821,"internal_node_id":"0.0-126.0","task_version":"battery-v0.2"},{"rune":"R","rune_set":"bacs1","hex":"#3366ff99","correct":32,"choice":-1,"rt":-1,"accuracy":0,"outcome":"+1","keys":[],"total_keys":0,"block":2,"trial":125,"stimulus":3,"robot":1,"valence":"win","action":"go","sham":0,"trial_type":"pit-trial","trial_index":150,"time_elapsed":663829,"internal_node_id":"0.0-127.0","task_version":"battery-v0.2"},{"rune":"J","rune_set":"bacs1","hex":"#f73b6a7A","correct":-1,"choice":-1,"rt":-1,"accuracy":1,"outcome":"-1","keys":[],"total_keys":0,"block":2,"trial":126,"stimulus":2,"robot":4,"valence":"lose","action":"no-go","sham":0,"trial_type":"pit-trial","trial_index":151,"time_elapsed":667836,"internal_node_id":"0.0-128.0","task_version":"battery-v0.2"},{"rune":"B","rune_set":"bacs1","hex":"#3366ff99","correct":-1,"choice":32,"rt":689.9550000671297,"accuracy":0,"outcome":"+1","keys":[2190.225000027567],"total_keys":1,"block":2,"trial":127,"stimulus":0,"robot":2,"valence":"win","action":"no-go","sham":0,"trial_type":"pit-trial","trial_index":152,"time_elapsed":671235,"internal_node_id":"0.0-129.0","task_version":"battery-v0.2"},{"rune":"Z","rune_set":"bacs1","hex":"#3366ff99","correct":32,"choice":-1,"rt":-1,"accuracy":0,"outcome":"+1","keys":[],"total_keys":0,"block":2,"trial":128,"stimulus":1,"robot":1,"valence":"win","action":"go","sham":0,"trial_type":"pit-trial","trial_index":153,"time_elapsed":675242,"internal_node_id":"0.0-130.0","task_version":"battery-v0.2"},{"rune":"Z","rune_set":"bacs1","hex":"#3366ff99","correct":32,"choice":32,"rt":749.4050001259893,"accuracy":1,"outcome":"+10","keys":[2249.980000080541],"total_keys":1,"block":2,"trial":129,"stimulus":1,"robot":1,"valence":"win","action":"go","sham":0,"trial_type":"pit-trial","trial_index":154,"time_elapsed":678702,"internal_node_id":"0.0-131.0","task_version":"battery-v0.2"},{"rune":"R","rune_set":"bacs1","hex":"#3366ff99","correct":32,"choice":32,"rt":647.5649999920279,"accuracy":1,"outcome":"+10","keys":[2148.7599997781217],"total_keys":1,"block":2,"trial":130,"stimulus":3,"robot":1,"valence":"win","action":"go","sham":0,"trial_type":"pit-trial","trial_index":155,"time_elapsed":682066,"internal_node_id":"0.0-132.0","task_version":"battery-v0.2"},{"rune":"B","rune_set":"bacs1","hex":"#3366ff99","correct":-1,"choice":-1,"rt":-1,"accuracy":1,"outcome":"+10","keys":[],"total_keys":0,"block":2,"trial":131,"stimulus":0,"robot":2,"valence":"win","action":"no-go","sham":0,"trial_type":"pit-trial","trial_index":156,"time_elapsed":686082,"internal_node_id":"0.0-133.0","task_version":"battery-v0.2"},{"rune":"J","rune_set":"bacs1","hex":"#f73b6a7A","correct":-1,"choice":-1,"rt":-1,"accuracy":1,"outcome":"-1","keys":[],"total_keys":0,"block":2,"trial":132,"stimulus":2,"robot":4,"valence":"lose","action":"no-go","sham":0,"trial_type":"pit-trial","trial_index":157,"time_elapsed":690094,"internal_node_id":"0.0-134.0","task_version":"battery-v0.2"},{"rune":"J","rune_set":"bacs1","hex":"#f73b6a7A","correct":-1,"choice":-1,"rt":-1,"accuracy":1,"outcome":"-1","keys":[],"total_keys":0,"block":2,"trial":133,"stimulus":2,"robot":4,"valence":"lose","action":"no-go","sham":0,"trial_type":"pit-trial","trial_index":158,"time_elapsed":694103,"internal_node_id":"0.0-135.0","task_version":"battery-v0.2"},{"rune":"R","rune_set":"bacs1","hex":"#3366ff99","correct":32,"choice":32,"rt":663.8950000051409,"accuracy":1,"outcome":"+10","keys":[2164.805000182241],"total_keys":1,"block":2,"trial":134,"stimulus":3,"robot":1,"valence":"win","action":"go","sham":0,"trial_type":"pit-trial","trial_index":159,"time_elapsed":697478,"internal_node_id":"0.0-136.0","task_version":"battery-v0.2"},{"rune":"B","rune_set":"bacs1","hex":"#3366ff99","correct":-1,"choice":-1,"rt":-1,"accuracy":1,"outcome":"+1","keys":[],"total_keys":0,"block":2,"trial":135,"stimulus":0,"robot":2,"valence":"win","action":"no-go","sham":1,"trial_type":"pit-trial","trial_index":160,"time_elapsed":701485,"internal_node_id":"0.0-137.0","task_version":"battery-v0.2"},{"rune":"Z","rune_set":"bacs1","hex":"#3366ff99","correct":32,"choice":32,"rt":488.3400001563132,"accuracy":1,"outcome":"+10","keys":[1988.8100000098348],"total_keys":1,"block":2,"trial":136,"stimulus":1,"robot":1,"valence":"win","action":"go","sham":0,"trial_type":"pit-trial","trial_index":161,"time_elapsed":704679,"internal_node_id":"0.0-138.0","task_version":"battery-v0.2"},{"rune":"R","rune_set":"bacs1","hex":"#3366ff99","correct":32,"choice":32,"rt":632.1450001560152,"accuracy":1,"outcome":"+10","keys":[2133.6799999698997],"total_keys":1,"block":2,"trial":137,"stimulus":3,"robot":1,"valence":"win","action":"go","sham":0,"trial_type":"pit-trial","trial_index":162,"time_elapsed":708025,"internal_node_id":"0.0-139.0","task_version":"battery-v0.2"},{"rune":"Z","rune_set":"bacs1","hex":"#3366ff99","correct":32,"choice":32,"rt":543.5200000647455,"accuracy":1,"outcome":"+10","keys":[2044.304999988526],"total_keys":1,"block":2,"trial":138,"stimulus":1,"robot":1,"valence":"win","action":"go","sham":0,"trial_type":"pit-trial","trial_index":163,"time_elapsed":711283,"internal_node_id":"0.0-140.0","task_version":"battery-v0.2"},{"rune":"J","rune_set":"bacs1","hex":"#f73b6a7A","correct":-1,"choice":-1,"rt":-1,"accuracy":1,"outcome":"-1","keys":[],"total_keys":0,"block":2,"trial":139,"stimulus":2,"robot":4,"valence":"lose","action":"no-go","sham":0,"trial_type":"pit-trial","trial_index":164,"time_elapsed":715292,"internal_node_id":"0.0-141.0","task_version":"battery-v0.2"},{"rune":"B","rune_set":"bacs1","hex":"#3366ff99","correct":-1,"choice":32,"rt":621.5749999973923,"accuracy":0,"outcome":"+1","keys":[2122.0499998889863],"total_keys":1,"block":2,"trial":140,"stimulus":0,"robot":2,"valence":"win","action":"no-go","sham":0,"trial_type":"pit-trial","trial_index":165,"time_elapsed":718619,"internal_node_id":"0.0-142.0","task_version":"battery-v0.2"},{"rune":"Z","rune_set":"bacs1","hex":"#3366ff99","correct":32,"choice":32,"rt":818.8800001516938,"accuracy":1,"outcome":"+10","keys":[2319.415000034496],"total_keys":1,"block":2,"trial":141,"stimulus":1,"robot":1,"valence":"win","action":"go","sham":0,"trial_type":"pit-trial","trial_index":166,"time_elapsed":722150,"internal_node_id":"0.0-143.0","task_version":"battery-v0.2"},{"rune":"B","rune_set":"bacs1","hex":"#3366ff99","correct":-1,"choice":-1,"rt":-1,"accuracy":1,"outcome":"+1","keys":[],"total_keys":0,"block":2,"trial":142,"stimulus":0,"robot":2,"valence":"win","action":"no-go","sham":1,"trial_type":"pit-trial","trial_index":167,"time_elapsed":726157,"internal_node_id":"0.0-144.0","task_version":"battery-v0.2"},{"rune":"R","rune_set":"bacs1","hex":"#3366ff99","correct":32,"choice":32,"rt":911.3849999848753,"accuracy":1,"outcome":"+10","keys":[2411.874999990687],"total_keys":1,"block":2,"trial":143,"stimulus":3,"robot":1,"valence":"win","action":"go","sham":0,"trial_type":"pit-trial","trial_index":168,"time_elapsed":729782,"internal_node_id":"0.0-145.0","task_version":"battery-v0.2"},{"rune":"J","rune_set":"bacs1","hex":"#f73b6a7A","correct":-1,"choice":-1,"rt":-1,"accuracy":1,"outcome":"-1","keys":[],"total_keys":0,"block":2,"trial":144,"stimulus":2,"robot":4,"valence":"lose","action":"no-go","sham":0,"trial_type":"pit-trial","trial_index":169,"time_elapsed":733804,"internal_node_id":"0.0-146.0","task_version":"battery-v0.2"},{"rune":"Z","rune_set":"bacs1","hex":"#3366ff99","correct":32,"choice":32,"rt":682.7799999155104,"accuracy":1,"outcome":"+10","keys":[2182.930000126362],"total_keys":1,"block":2,"trial":145,"stimulus":1,"robot":1,"valence":"win","action":"go","sham":0,"trial_type":"pit-trial","trial_index":170,"time_elapsed":737193,"internal_node_id":"0.0-147.0","task_version":"battery-v0.2"},{"rune":"J","rune_set":"bacs1","hex":"#f73b6a7A","correct":-1,"choice":-1,"rt":-1,"accuracy":1,"outcome":"-1","keys":[],"total_keys":0,"block":2,"trial":146,"stimulus":2,"robot":4,"valence":"lose","action":"no-go","sham":0,"trial_type":"pit-trial","trial_index":171,"time_elapsed":741199,"internal_node_id":"0.0-148.0","task_version":"battery-v0.2"},{"rune":"R","rune_set":"bacs1","hex":"#3366ff99","correct":32,"choice":32,"rt":697.8150000795722,"accuracy":1,"outcome":"+10","keys":[2198.5499998554587],"total_keys":1,"block":2,"trial":147,"stimulus":3,"robot":1,"valence":"win","action":"go","sham":0,"trial_type":"pit-trial","trial_index":172,"time_elapsed":744609,"internal_node_id":"0.0-149.0","task_version":"battery-v0.2"},{"rune":"B","rune_set":"bacs1","hex":"#3366ff99","correct":-1,"choice":-1,"rt":-1,"accuracy":1,"outcome":"+10","keys":[],"total_keys":0,"block":2,"trial":148,"stimulus":0,"robot":2,"valence":"win","action":"no-go","sham":0,"trial_type":"pit-trial","trial_index":173,"time_elapsed":748622,"internal_node_id":"0.0-150.0","task_version":"battery-v0.2"},{"rune":"Z","rune_set":"bacs1","hex":"#3366ff99","correct":32,"choice":32,"rt":832.9149999190122,"accuracy":1,"outcome":"+1","keys":[2333.8399999774992],"total_keys":1,"block":2,"trial":149,"stimulus":1,"robot":1,"valence":"win","action":"go","sham":1,"trial_type":"pit-trial","trial_index":174,"time_elapsed":752169,"internal_node_id":"0.0-151.0","task_version":"battery-v0.2"},{"rune":"J","rune_set":"bacs1","hex":"#f73b6a7A","correct":-1,"choice":-1,"rt":-1,"accuracy":1,"outcome":"-10","keys":[],"total_keys":0,"block":2,"trial":150,"stimulus":2,"robot":4,"valence":"lose","action":"no-go","sham":1,"trial_type":"pit-trial","trial_index":175,"time_elapsed":756175,"internal_node_id":"0.0-152.0","task_version":"battery-v0.2"},{"rune":"B","rune_set":"bacs1","hex":"#3366ff99","correct":-1,"choice":32,"rt":761.3350001629442,"accuracy":0,"outcome":"+1","keys":[2261.434999993071],"total_keys":1,"block":2,"trial":151,"stimulus":0,"robot":2,"valence":"win","action":"no-go","sham":0,"trial_type":"pit-trial","trial_index":176,"time_elapsed":759649,"internal_node_id":"0.0-153.0","task_version":"battery-v0.2"},{"rune":"R","rune_set":"bacs1","hex":"#3366ff99","correct":32,"choice":32,"rt":895.0200001709163,"accuracy":1,"outcome":"+10","keys":[2395.4950000625104],"total_keys":1,"block":2,"trial":152,"stimulus":3,"robot":1,"valence":"win","action":"go","sham":0,"trial_type":"pit-trial","trial_index":177,"time_elapsed":763253,"internal_node_id":"0.0-154.0","task_version":"battery-v0.2"},{"rune":"V","rune_set":"bacs1","hex":"#3366ff99","correct":32,"choice":-1,"rt":-1,"accuracy":0,"outcome":"+10","keys":[3463.454999960959],"total_keys":1,"block":2,"trial":153,"stimulus":4,"robot":1,"valence":"win","action":"go","sham":1,"trial_type":"pit-trial","trial_index":178,"time_elapsed":767262,"internal_node_id":"0.0-155.0","task_version":"battery-v0.2"},{"rune":"B","rune_set":"bacs1","hex":"#3366ff99","correct":-1,"choice":-1,"rt":-1,"accuracy":1,"outcome":"+1","keys":[],"total_keys":0,"block":2,"trial":154,"stimulus":0,"robot":2,"valence":"win","action":"no-go","sham":1,"trial_type":"pit-trial","trial_index":179,"time_elapsed":771271,"internal_node_id":"0.0-156.0","task_version":"battery-v0.2"},{"rune":"R","rune_set":"bacs1","hex":"#3366ff99","correct":32,"choice":32,"rt":821.7350000049919,"accuracy":1,"outcome":"+10","keys":[2322.025000117719],"total_keys":1,"block":2,"trial":155,"stimulus":3,"robot":1,"valence":"win","action":"go","sham":0,"trial_type":"pit-trial","trial_index":180,"time_elapsed":774800,"internal_node_id":"0.0-157.0","task_version":"battery-v0.2"},{"rune":"J","rune_set":"bacs1","hex":"#f73b6a7A","correct":-1,"choice":-1,"rt":-1,"accuracy":1,"outcome":"-10","keys":[],"total_keys":0,"block":2,"trial":156,"stimulus":2,"robot":4,"valence":"lose","action":"no-go","sham":1,"trial_type":"pit-trial","trial_index":181,"time_elapsed":778809,"internal_node_id":"0.0-158.0","task_version":"battery-v0.2"},{"rune":"J","rune_set":"bacs1","hex":"#f73b6a7A","correct":-1,"choice":32,"rt":867.7449999377131,"accuracy":0,"outcome":"-10","keys":[2367.839999962598],"total_keys":1,"block":2,"trial":157,"stimulus":2,"robot":4,"valence":"lose","action":"no-go","sham":0,"trial_type":"pit-trial","trial_index":182,"time_elapsed":782384,"internal_node_id":"0.0-159.0","task_version":"battery-v0.2"},{"rune":"B","rune_set":"bacs1","hex":"#3366ff99","correct":-1,"choice":-1,"rt":-1,"accuracy":1,"outcome":"+1","keys":[],"total_keys":0,"block":2,"trial":158,"stimulus":0,"robot":2,"valence":"win","action":"no-go","sham":1,"trial_type":"pit-trial","trial_index":183,"time_elapsed":786392,"internal_node_id":"0.0-160.0","task_version":"battery-v0.2"},{"rune":"V","rune_set":"bacs1","hex":"#3366ff99","correct":32,"choice":-1,"rt":-1,"accuracy":0,"outcome":"+1","keys":[],"total_keys":0,"block":2,"trial":159,"stimulus":4,"robot":1,"valence":"win","action":"go","sham":0,"trial_type":"pit-trial","trial_index":184,"time_elapsed":790400,"internal_node_id":"0.0-161.0","task_version":"battery-v0.2"},{"rune":"R","rune_set":"bacs1","hex":"#3366ff99","correct":32,"choice":32,"rt":904.2750000953674,"accuracy":1,"outcome":"+10","keys":[2404.859999893233],"total_keys":1,"block":2,"trial":160,"stimulus":3,"robot":1,"valence":"win","action":"go","sham":0,"trial_type":"pit-trial","trial_index":185,"time_elapsed":794011,"internal_node_id":"0.0-162.0","task_version":"battery-v0.2"},{"rune":"T","rune_set":"bacs1","hex":"#f73b6a7A","correct":-1,"choice":-1,"rt":-1,"accuracy":1,"outcome":"-1","keys":[],"total_keys":0,"block":2,"trial":161,"stimulus":6,"robot":4,"valence":"lose","action":"no-go","sham":0,"trial_type":"pit-trial","trial_index":186,"time_elapsed":798025,"internal_node_id":"0.0-163.0","task_version":"battery-v0.2"},{"rune":"V","rune_set":"bacs1","hex":"#3366ff99","correct":32,"choice":-1,"rt":-1,"accuracy":0,"outcome":"+1","keys":[],"total_keys":0,"block":2,"trial":162,"stimulus":4,"robot":1,"valence":"win","action":"go","sham":0,"trial_type":"pit-trial","trial_index":187,"time_elapsed":802037,"internal_node_id":"0.0-164.0","task_version":"battery-v0.2"},{"rune":"E","rune_set":"bacs1","hex":"#f73b6a7A","correct":32,"choice":-1,"rt":-1,"accuracy":0,"outcome":"-10","keys":[],"total_keys":0,"block":2,"trial":163,"stimulus":5,"robot":3,"valence":"lose","action":"go","sham":0,"trial_type":"pit-trial","trial_index":188,"time_elapsed":806050,"internal_node_id":"0.0-165.0","task_version":"battery-v0.2"},{"rune":"B","rune_set":"bacs1","hex":"#3366ff99","correct":-1,"choice":-1,"rt":-1,"accuracy":1,"outcome":"+1","keys":[],"total_keys":0,"block":2,"trial":164,"stimulus":0,"robot":2,"valence":"win","action":"no-go","sham":1,"trial_type":"pit-trial","trial_index":189,"time_elapsed":810058,"internal_node_id":"0.0-166.0","task_version":"battery-v0.2"},{"rune":"T","rune_set":"bacs1","hex":"#f73b6a7A","correct":-1,"choice":-1,"rt":-1,"accuracy":1,"outcome":"-1","keys":[],"total_keys":0,"block":2,"trial":165,"stimulus":6,"robot":4,"valence":"lose","action":"no-go","sham":0,"trial_type":"pit-trial","trial_index":190,"time_elapsed":814072,"internal_node_id":"0.0-167.0","task_version":"battery-v0.2"},{"rune":"E","rune_set":"bacs1","hex":"#f73b6a7A","correct":32,"choice":32,"rt":968.529999954626,"accuracy":1,"outcome":"-1","keys":[2469.2700000014156],"total_keys":1,"block":2,"trial":166,"stimulus":5,"robot":3,"valence":"lose","action":"go","sham":0,"trial_type":"pit-trial","trial_index":191,"time_elapsed":817754,"internal_node_id":"0.0-168.0","task_version":"battery-v0.2"},{"rune":"B","rune_set":"bacs1","hex":"#3366ff99","correct":-1,"choice":-1,"rt":-1,"accuracy":1,"outcome":"+10","keys":[],"total_keys":0,"block":2,"trial":167,"stimulus":0,"robot":2,"valence":"win","action":"no-go","sham":0,"trial_type":"pit-trial","trial_index":192,"time_elapsed":821761,"internal_node_id":"0.0-169.0","task_version":"battery-v0.2"},{"rune":"V","rune_set":"bacs1","hex":"#3366ff99","correct":32,"choice":32,"rt":1069.91000007838,"accuracy":1,"outcome":"+10","keys":[2571.0549999494106],"total_keys":1,"block":2,"trial":168,"stimulus":4,"robot":1,"valence":"win","action":"go","sham":0,"trial_type":"pit-trial","trial_index":193,"time_elapsed":825538,"internal_node_id":"0.0-170.0","task_version":"battery-v0.2"},{"rune":"E","rune_set":"bacs1","hex":"#f73b6a7A","correct":32,"choice":-1,"rt":-1,"accuracy":0,"outcome":"-10","keys":[],"total_keys":0,"block":2,"trial":169,"stimulus":5,"robot":3,"valence":"lose","action":"go","sham":0,"trial_type":"pit-trial","trial_index":194,"time_elapsed":829551,"internal_node_id":"0.0-171.0","task_version":"battery-v0.2"},{"rune":"V","rune_set":"bacs1","hex":"#3366ff99","correct":32,"choice":-1,"rt":-1,"accuracy":0,"outcome":"+1","keys":[2947.870000032708],"total_keys":1,"block":2,"trial":170,"stimulus":4,"robot":1,"valence":"win","action":"go","sham":0,"trial_type":"pit-trial","trial_index":195,"time_elapsed":833565,"internal_node_id":"0.0-172.0","task_version":"battery-v0.2"},{"rune":"T","rune_set":"bacs1","hex":"#f73b6a7A","correct":-1,"choice":-1,"rt":-1,"accuracy":1,"outcome":"-1","keys":[],"total_keys":0,"block":2,"trial":171,"stimulus":6,"robot":4,"valence":"lose","action":"no-go","sham":0,"trial_type":"pit-trial","trial_index":196,"time_elapsed":837577,"internal_node_id":"0.0-173.0","task_version":"battery-v0.2"},{"rune":"F","rune_set":"bacs1","hex":"#3366ff99","correct":-1,"choice":-1,"rt":-1,"accuracy":1,"outcome":"+10","keys":[],"total_keys":0,"block":2,"trial":172,"stimulus":7,"robot":2,"valence":"win","action":"no-go","sham":0,"trial_type":"pit-trial","trial_index":197,"time_elapsed":841590,"internal_node_id":"0.0-174.0","task_version":"battery-v0.2"},{"rune":"F","rune_set":"bacs1","hex":"#3366ff99","correct":-1,"choice":-1,"rt":-1,"accuracy":1,"outcome":"+10","keys":[],"total_keys":0,"block":2,"trial":173,"stimulus":7,"robot":2,"valence":"win","action":"no-go","sham":0,"trial_type":"pit-trial","trial_index":198,"time_elapsed":845597,"internal_node_id":"0.0-175.0","task_version":"battery-v0.2"},{"rune":"V","rune_set":"bacs1","hex":"#3366ff99","correct":32,"choice":32,"rt":833.1849998794496,"accuracy":1,"outcome":"+10","keys":[2333.2399998325855],"total_keys":1,"block":2,"trial":174,"stimulus":4,"robot":1,"valence":"win","action":"go","sham":0,"trial_type":"pit-trial","trial_index":199,"time_elapsed":849143,"internal_node_id":"0.0-176.0","task_version":"battery-v0.2"},{"rune":"T","rune_set":"bacs1","hex":"#f73b6a7A","correct":-1,"choice":-1,"rt":-1,"accuracy":1,"outcome":"-1","keys":[],"total_keys":0,"block":2,"trial":175,"stimulus":6,"robot":4,"valence":"lose","action":"no-go","sham":0,"trial_type":"pit-trial","trial_index":200,"time_elapsed":853157,"internal_node_id":"0.0-177.0","task_version":"battery-v0.2"},{"rune":"E","rune_set":"bacs1","hex":"#f73b6a7A","correct":32,"choice":32,"rt":699.724999954924,"accuracy":1,"outcome":"-1","keys":[2201.3299998361617],"total_keys":1,"block":2,"trial":176,"stimulus":5,"robot":3,"valence":"lose","action":"go","sham":0,"trial_type":"pit-trial","trial_index":201,"time_elapsed":856571,"internal_node_id":"0.0-178.0","task_version":"battery-v0.2"},{"rune":"V","rune_set":"bacs1","hex":"#3366ff99","correct":32,"choice":-1,"rt":-1,"accuracy":0,"outcome":"+1","keys":[],"total_keys":0,"block":2,"trial":177,"stimulus":4,"robot":1,"valence":"win","action":"go","sham":0,"trial_type":"pit-trial","trial_index":202,"time_elapsed":860584,"internal_node_id":"0.0-179.0","task_version":"battery-v0.2"},{"rune":"F","rune_set":"bacs1","hex":"#3366ff99","correct":-1,"choice":-1,"rt":-1,"accuracy":1,"outcome":"+10","keys":[],"total_keys":0,"block":2,"trial":178,"stimulus":7,"robot":2,"valence":"win","action":"no-go","sham":0,"trial_type":"pit-trial","trial_index":203,"time_elapsed":864597,"internal_node_id":"0.0-180.0","task_version":"battery-v0.2"},{"rune":"T","rune_set":"bacs1","hex":"#f73b6a7A","correct":-1,"choice":-1,"rt":-1,"accuracy":1,"outcome":"-1","keys":[],"total_keys":0,"block":2,"trial":179,"stimulus":6,"robot":4,"valence":"lose","action":"no-go","sham":0,"trial_type":"pit-trial","trial_index":204,"time_elapsed":868609,"internal_node_id":"0.0-181.0","task_version":"battery-v0.2"},{"rune":"E","rune_set":"bacs1","hex":"#f73b6a7A","correct":32,"choice":32,"rt":729.0950000751764,"accuracy":1,"outcome":"-10","keys":[2229.3899999931455],"total_keys":1,"block":2,"trial":180,"stimulus":5,"robot":3,"valence":"lose","action":"go","sham":1,"trial_type":"pit-trial","trial_index":205,"time_elapsed":872051,"internal_node_id":"0.0-182.0","task_version":"battery-v0.2"},{"rune":"F","rune_set":"bacs1","hex":"#3366ff99","correct":-1,"choice":-1,"rt":-1,"accuracy":1,"outcome":"+10","keys":[3712.08000020124],"total_keys":1,"block":2,"trial":181,"stimulus":7,"robot":2,"valence":"win","action":"no-go","sham":0,"trial_type":"pit-trial","trial_index":206,"time_elapsed":876067,"internal_node_id":"0.0-183.0","task_version":"battery-v0.2"},{"rune":"V","rune_set":"bacs1","hex":"#3366ff99","correct":32,"choice":32,"rt":817.4099999014288,"accuracy":1,"outcome":"+10","keys":[2318.114999914542],"total_keys":1,"block":2,"trial":182,"stimulus":4,"robot":1,"valence":"win","action":"go","sham":0,"trial_type":"pit-trial","trial_index":207,"time_elapsed":879599,"internal_node_id":"0.0-184.0","task_version":"battery-v0.2"},{"rune":"E","rune_set":"bacs1","hex":"#f73b6a7A","correct":32,"choice":32,"rt":700.8700000587851,"accuracy":1,"outcome":"-1","keys":[2202.0250000059605],"total_keys":1,"block":2,"trial":183,"stimulus":5,"robot":3,"valence":"lose","action":"go","sham":0,"trial_type":"pit-trial","trial_index":208,"time_elapsed":883009,"internal_node_id":"0.0-185.0","task_version":"battery-v0.2"},{"rune":"T","rune_set":"bacs1","hex":"#f73b6a7A","correct":-1,"choice":-1,"rt":-1,"accuracy":1,"outcome":"-1","keys":[],"total_keys":0,"block":2,"trial":184,"stimulus":6,"robot":4,"valence":"lose","action":"no-go","sham":0,"trial_type":"pit-trial","trial_index":209,"time_elapsed":887024,"internal_node_id":"0.0-186.0","task_version":"battery-v0.2"},{"rune":"T","rune_set":"bacs1","hex":"#f73b6a7A","correct":-1,"choice":-1,"rt":-1,"accuracy":1,"outcome":"-1","keys":[],"total_keys":0,"block":2,"trial":185,"stimulus":6,"robot":4,"valence":"lose","action":"no-go","sham":0,"trial_type":"pit-trial","trial_index":210,"time_elapsed":891037,"internal_node_id":"0.0-187.0","task_version":"battery-v0.2"},{"rune":"E","rune_set":"bacs1","hex":"#f73b6a7A","correct":32,"choice":32,"rt":709.7799999173731,"accuracy":1,"outcome":"-10","keys":[2210.4350000154227],"total_keys":1,"block":2,"trial":186,"stimulus":5,"robot":3,"valence":"lose","action":"go","sham":1,"trial_type":"pit-trial","trial_index":211,"time_elapsed":894455,"internal_node_id":"0.0-188.0","task_version":"battery-v0.2"},{"rune":"F","rune_set":"bacs1","hex":"#3366ff99","correct":-1,"choice":-1,"rt":-1,"accuracy":1,"outcome":"+1","keys":[],"total_keys":0,"block":2,"trial":187,"stimulus":7,"robot":2,"valence":"win","action":"no-go","sham":1,"trial_type":"pit-trial","trial_index":212,"time_elapsed":898462,"internal_node_id":"0.0-189.0","task_version":"battery-v0.2"},{"rune":"V","rune_set":"bacs1","hex":"#3366ff99","correct":32,"choice":32,"rt":760.8250000048429,"accuracy":1,"outcome":"+10","keys":[2262.4649999197572],"total_keys":1,"block":2,"trial":188,"stimulus":4,"robot":1,"valence":"win","action":"go","sham":0,"trial_type":"pit-trial","trial_index":213,"time_elapsed":901934,"internal_node_id":"0.0-190.0","task_version":"battery-v0.2"},{"rune":"V","rune_set":"bacs1","hex":"#3366ff99","correct":32,"choice":32,"rt":670.285000000149,"accuracy":1,"outcome":"+10","keys":[2170.444999821484],"total_keys":1,"block":2,"trial":189,"stimulus":4,"robot":1,"valence":"win","action":"go","sham":0,"trial_type":"pit-trial","trial_index":214,"time_elapsed":905313,"internal_node_id":"0.0-191.0","task_version":"battery-v0.2"},{"rune":"F","rune_set":"bacs1","hex":"#3366ff99","correct":-1,"choice":-1,"rt":-1,"accuracy":1,"outcome":"+10","keys":[],"total_keys":0,"block":2,"trial":190,"stimulus":7,"robot":2,"valence":"win","action":"no-go","sham":0,"trial_type":"pit-trial","trial_index":215,"time_elapsed":909321,"internal_node_id":"0.0-192.0","task_version":"battery-v0.2"},{"rune":"E","rune_set":"bacs1","hex":"#f73b6a7A","correct":32,"choice":32,"rt":771.8750000931323,"accuracy":1,"outcome":"-1","keys":[2273.079999955371],"total_keys":1,"block":2,"trial":191,"stimulus":5,"robot":3,"valence":"lose","action":"go","sham":0,"trial_type":"pit-trial","trial_index":216,"time_elapsed":912800,"internal_node_id":"0.0-193.0","task_version":"battery-v0.2"},{"rune":"T","rune_set":"bacs1","hex":"#f73b6a7A","correct":-1,"choice":-1,"rt":-1,"accuracy":1,"outcome":"-1","keys":[],"total_keys":0,"block":2,"trial":192,"stimulus":6,"robot":4,"valence":"lose","action":"no-go","sham":0,"trial_type":"pit-trial","trial_index":217,"time_elapsed":916808,"internal_node_id":"0.0-194.0","task_version":"battery-v0.2"},{"rune":"V","rune_set":"bacs1","hex":"#3366ff99","correct":32,"choice":32,"rt":728.9350000210106,"accuracy":1,"outcome":"+1","keys":[2230.7499998714775],"total_keys":1,"block":2,"trial":193,"stimulus":4,"robot":1,"valence":"win","action":"go","sham":1,"trial_type":"pit-trial","trial_index":218,"time_elapsed":920244,"internal_node_id":"0.0-195.0","task_version":"battery-v0.2"},{"rune":"A","rune_set":"bacs1","hex":"#f73b6a7A","correct":32,"choice":-1,"rt":-1,"accuracy":0,"outcome":"-10","keys":[],"total_keys":0,"block":2,"trial":194,"stimulus":8,"robot":3,"valence":"lose","action":"go","sham":0,"trial_type":"pit-trial","trial_index":219,"time_elapsed":924252,"internal_node_id":"0.0-196.0","task_version":"battery-v0.2"},{"rune":"F","rune_set":"bacs1","hex":"#3366ff99","correct":-1,"choice":-1,"rt":-1,"accuracy":1,"outcome":"+10","keys":[],"total_keys":0,"block":2,"trial":195,"stimulus":7,"robot":2,"valence":"win","action":"no-go","sham":0,"trial_type":"pit-trial","trial_index":220,"time_elapsed":928265,"internal_node_id":"0.0-197.0","task_version":"battery-v0.2"},{"rune":"T","rune_set":"bacs1","hex":"#f73b6a7A","correct":-1,"choice":-1,"rt":-1,"accuracy":1,"outcome":"-1","keys":[],"total_keys":0,"block":2,"trial":196,"stimulus":6,"robot":4,"valence":"lose","action":"no-go","sham":0,"trial_type":"pit-trial","trial_index":221,"time_elapsed":932272,"internal_node_id":"0.0-198.0","task_version":"battery-v0.2"},{"rune":"V","rune_set":"bacs1","hex":"#3366ff99","correct":32,"choice":32,"rt":641.8099999427795,"accuracy":1,"outcome":"+10","keys":[2142.0100000686944],"total_keys":1,"block":2,"trial":197,"stimulus":4,"robot":1,"valence":"win","action":"go","sham":0,"trial_type":"pit-trial","trial_index":222,"time_elapsed":935618,"internal_node_id":"0.0-199.0","task_version":"battery-v0.2"},{"rune":"A","rune_set":"bacs1","hex":"#f73b6a7A","correct":32,"choice":32,"rt":706.1600000597537,"accuracy":1,"outcome":"-1","keys":[2207.4800000991672],"total_keys":1,"block":2,"trial":198,"stimulus":8,"robot":3,"valence":"lose","action":"go","sham":0,"trial_type":"pit-trial","trial_index":223,"time_elapsed":939038,"internal_node_id":"0.0-200.0","task_version":"battery-v0.2"},{"rune":"T","rune_set":"bacs1","hex":"#f73b6a7A","correct":-1,"choice":-1,"rt":-1,"accuracy":1,"outcome":"-1","keys":[],"total_keys":0,"block":2,"trial":199,"stimulus":6,"robot":4,"valence":"lose","action":"no-go","sham":0,"trial_type":"pit-trial","trial_index":224,"time_elapsed":943052,"internal_node_id":"0.0-201.0","task_version":"battery-v0.2"},{"rune":"F","rune_set":"bacs1","hex":"#3366ff99","correct":-1,"choice":32,"rt":708.5200001019984,"accuracy":0,"outcome":"+1","keys":[2209.3549999408424],"total_keys":1,"block":2,"trial":200,"stimulus":7,"robot":2,"valence":"win","action":"no-go","sham":0,"trial_type":"pit-trial","trial_index":225,"time_elapsed":946474,"internal_node_id":"0.0-202.0","task_version":"battery-v0.2"},{"rune":"A","rune_set":"bacs1","hex":"#f73b6a7A","correct":32,"choice":32,"rt":711.4150000270456,"accuracy":1,"outcome":"-1","keys":[2211.949999909848],"total_keys":1,"block":2,"trial":201,"stimulus":8,"robot":3,"valence":"lose","action":"go","sham":0,"trial_type":"pit-trial","trial_index":226,"time_elapsed":949891,"internal_node_id":"0.0-203.0","task_version":"battery-v0.2"},{"rune":"C","rune_set":"bacs1","hex":"#f73b6a7A","correct":32,"choice":-1,"rt":-1,"accuracy":0,"outcome":"-10","keys":[],"total_keys":0,"block":2,"trial":202,"stimulus":9,"robot":3,"valence":"lose","action":"go","sham":0,"trial_type":"pit-trial","trial_index":227,"time_elapsed":953898,"internal_node_id":"0.0-204.0","task_version":"battery-v0.2"},{"rune":"T","rune_set":"bacs1","hex":"#f73b6a7A","correct":-1,"choice":-1,"rt":-1,"accuracy":1,"outcome":"-1","keys":[],"total_keys":0,"block":2,"trial":203,"stimulus":6,"robot":4,"valence":"lose","action":"no-go","sham":0,"trial_type":"pit-trial","trial_index":228,"time_elapsed":957905,"internal_node_id":"0.0-205.0","task_version":"battery-v0.2"},{"rune":"F","rune_set":"bacs1","hex":"#3366ff99","correct":-1,"choice":32,"rt":743.5900000855327,"accuracy":0,"outcome":"+1","keys":[2244.724999880418],"total_keys":1,"block":2,"trial":204,"stimulus":7,"robot":2,"valence":"win","action":"no-go","sham":0,"trial_type":"pit-trial","trial_index":229,"time_elapsed":961355,"internal_node_id":"0.0-206.0","task_version":"battery-v0.2"},{"rune":"F","rune_set":"bacs1","hex":"#3366ff99","correct":-1,"choice":-1,"rt":-1,"accuracy":1,"outcome":"+1","keys":[],"total_keys":0,"block":2,"trial":205,"stimulus":7,"robot":2,"valence":"win","action":"no-go","sham":1,"trial_type":"pit-trial","trial_index":230,"time_elapsed":965362,"internal_node_id":"0.0-207.0","task_version":"battery-v0.2"},{"rune":"T","rune_set":"bacs1","hex":"#f73b6a7A","correct":-1,"choice":-1,"rt":-1,"accuracy":1,"outcome":"-1","keys":[],"total_keys":0,"block":2,"trial":206,"stimulus":6,"robot":4,"valence":"lose","action":"no-go","sham":0,"trial_type":"pit-trial","trial_index":231,"time_elapsed":969372,"internal_node_id":"0.0-208.0","task_version":"battery-v0.2"},{"rune":"C","rune_set":"bacs1","hex":"#f73b6a7A","correct":32,"choice":-1,"rt":-1,"accuracy":0,"outcome":"-10","keys":[],"total_keys":0,"block":2,"trial":207,"stimulus":9,"robot":3,"valence":"lose","action":"go","sham":0,"trial_type":"pit-trial","trial_index":232,"time_elapsed":973380,"internal_node_id":"0.0-209.0","task_version":"battery-v0.2"},{"rune":"A","rune_set":"bacs1","hex":"#f73b6a7A","correct":32,"choice":32,"rt":772.8349999524653,"accuracy":1,"outcome":"-1","keys":[2273.1149999890476],"total_keys":1,"block":2,"trial":208,"stimulus":8,"robot":3,"valence":"lose","action":"go","sham":0,"trial_type":"pit-trial","trial_index":233,"time_elapsed":976860,"internal_node_id":"0.0-210.0","task_version":"battery-v0.2"},{"rune":"L","rune_set":"bacs1","hex":"#f73b6a7A","correct":-1,"choice":-1,"rt":-1,"accuracy":1,"outcome":"-1","keys":[],"total_keys":0,"block":2,"trial":209,"stimulus":10,"robot":4,"valence":"lose","action":"no-go","sham":0,"trial_type":"pit-trial","trial_index":234,"time_elapsed":980867,"internal_node_id":"0.0-211.0","task_version":"battery-v0.2"},{"rune":"C","rune_set":"bacs1","hex":"#f73b6a7A","correct":32,"choice":-1,"rt":-1,"accuracy":0,"outcome":"-10","keys":[],"total_keys":0,"block":2,"trial":210,"stimulus":9,"robot":3,"valence":"lose","action":"go","sham":0,"trial_type":"pit-trial","trial_index":235,"time_elapsed":984872,"internal_node_id":"0.0-212.0","task_version":"battery-v0.2"},{"rune":"Q","rune_set":"bacs1","hex":"#3366ff99","correct":-1,"choice":32,"rt":913.7349999509752,"accuracy":0,"outcome":"+1","keys":[2415.874999947846],"total_keys":1,"block":2,"trial":211,"stimulus":11,"robot":2,"valence":"win","action":"no-go","sham":0,"trial_type":"pit-trial","trial_index":236,"time_elapsed":988500,"internal_node_id":"0.0-213.0","task_version":"battery-v0.2"},{"rune":"A","rune_set":"bacs1","hex":"#f73b6a7A","correct":32,"choice":32,"rt":722.4350001197308,"accuracy":1,"outcome":"-1","keys":[2223.0100000742823],"total_keys":1,"block":2,"trial":212,"stimulus":8,"robot":3,"valence":"lose","action":"go","sham":0,"trial_type":"pit-trial","trial_index":237,"time_elapsed":991929,"internal_node_id":"0.0-214.0","task_version":"battery-v0.2"},{"rune":"C","rune_set":"bacs1","hex":"#f73b6a7A","correct":32,"choice":-1,"rt":-1,"accuracy":0,"outcome":"-10","keys":[],"total_keys":0,"block":2,"trial":213,"stimulus":9,"robot":3,"valence":"lose","action":"go","sham":0,"trial_type":"pit-trial","trial_index":238,"time_elapsed":995939,"internal_node_id":"0.0-215.0","task_version":"battery-v0.2"},{"rune":"L","rune_set":"bacs1","hex":"#f73b6a7A","correct":-1,"choice":32,"rt":876.2799999676645,"accuracy":0,"outcome":"-10","keys":[2377.3749999236315],"total_keys":1,"block":2,"trial":214,"stimulus":10,"robot":4,"valence":"lose","action":"no-go","sham":0,"trial_type":"pit-trial","trial_index":239,"time_elapsed":999522,"internal_node_id":"0.0-216.0","task_version":"battery-v0.2"},{"rune":"A","rune_set":"bacs1","hex":"#f73b6a7A","correct":32,"choice":32,"rt":766.8000000994653,"accuracy":1,"outcome":"-1","keys":[2267.204999923706],"total_keys":1,"block":2,"trial":215,"stimulus":8,"robot":3,"valence":"lose","action":"go","sham":0,"trial_type":"pit-trial","trial_index":240,"time_elapsed":1002997,"internal_node_id":"0.0-217.0","task_version":"battery-v0.2"},{"rune":"Q","rune_set":"bacs1","hex":"#3366ff99","correct":-1,"choice":-1,"rt":-1,"accuracy":1,"outcome":"+1","keys":[],"total_keys":0,"block":2,"trial":216,"stimulus":11,"robot":2,"valence":"win","action":"no-go","sham":1,"trial_type":"pit-trial","trial_index":241,"time_elapsed":1007010,"internal_node_id":"0.0-218.0","task_version":"battery-v0.2"},{"rune":"A","rune_set":"bacs1","hex":"#f73b6a7A","correct":32,"choice":32,"rt":839.8550001438707,"accuracy":1,"outcome":"-10","keys":[2340.499999932945],"total_keys":1,"block":2,"trial":217,"stimulus":8,"robot":3,"valence":"lose","action":"go","sham":1,"trial_type":"pit-trial","trial_index":242,"time_elapsed":1010563,"internal_node_id":"0.0-219.0","task_version":"battery-v0.2"},{"rune":"C","rune_set":"bacs1","hex":"#f73b6a7A","correct":32,"choice":-1,"rt":-1,"accuracy":0,"outcome":"-10","keys":[],"total_keys":0,"block":2,"trial":218,"stimulus":9,"robot":3,"valence":"lose","action":"go","sham":0,"trial_type":"pit-trial","trial_index":243,"time_elapsed":1014571,"internal_node_id":"0.0-220.0","task_version":"battery-v0.2"},{"rune":"L","rune_set":"bacs1","hex":"#f73b6a7A","correct":-1,"choice":32,"rt":656.7450000438839,"accuracy":0,"outcome":"-10","keys":[2157.020000042394],"total_keys":1,"block":2,"trial":219,"stimulus":10,"robot":4,"valence":"lose","action":"no-go","sham":0,"trial_type":"pit-trial","trial_index":244,"time_elapsed":1017941,"internal_node_id":"0.0-221.0","task_version":"battery-v0.2"},{"rune":"Q","rune_set":"bacs1","hex":"#3366ff99","correct":-1,"choice":-1,"rt":-1,"accuracy":1,"outcome":"+10","keys":[],"total_keys":0,"block":2,"trial":220,"stimulus":11,"robot":2,"valence":"win","action":"no-go","sham":0,"trial_type":"pit-trial","trial_index":245,"time_elapsed":1021948,"internal_node_id":"0.0-222.0","task_version":"battery-v0.2"},{"rune":"L","rune_set":"bacs1","hex":"#f73b6a7A","correct":-1,"choice":32,"rt":817.8049998823553,"accuracy":0,"outcome":"-10","keys":[2318.405000027269],"total_keys":1,"block":2,"trial":221,"stimulus":10,"robot":4,"valence":"lose","action":"no-go","sham":0,"trial_type":"pit-trial","trial_index":246,"time_elapsed":1025471,"internal_node_id":"0.0-223.0","task_version":"battery-v0.2"},{"rune":"A","rune_set":"bacs1","hex":"#f73b6a7A","correct":32,"choice":-1,"rt":-1,"accuracy":0,"outcome":"-10","keys":[],"total_keys":0,"block":2,"trial":222,"stimulus":8,"robot":3,"valence":"lose","action":"go","sham":0,"trial_type":"pit-trial","trial_index":247,"time_elapsed":1029477,"internal_node_id":"0.0-224.0","task_version":"battery-v0.2"},{"rune":"C","rune_set":"bacs1","hex":"#f73b6a7A","correct":32,"choice":32,"rt":876.1499999091029,"accuracy":1,"outcome":"-1","keys":[2376.2600000482053],"total_keys":1,"block":2,"trial":223,"stimulus":9,"robot":3,"valence":"lose","action":"go","sham":0,"trial_type":"pit-trial","trial_index":248,"time_elapsed":1033059,"internal_node_id":"0.0-225.0","task_version":"battery-v0.2"},{"rune":"Q","rune_set":"bacs1","hex":"#3366ff99","correct":-1,"choice":-1,"rt":-1,"accuracy":1,"outcome":"+10","keys":[],"total_keys":0,"block":2,"trial":224,"stimulus":11,"robot":2,"valence":"win","action":"no-go","sham":0,"trial_type":"pit-trial","trial_index":249,"time_elapsed":1037073,"internal_node_id":"0.0-226.0","task_version":"battery-v0.2"},{"rune":"A","rune_set":"bacs1","hex":"#f73b6a7A","correct":32,"choice":-1,"rt":-1,"accuracy":0,"outcome":"-10","keys":[],"total_keys":0,"block":2,"trial":225,"stimulus":8,"robot":3,"valence":"lose","action":"go","sham":0,"trial_type":"pit-trial","trial_index":250,"time_elapsed":1041087,"internal_node_id":"0.0-227.0","task_version":"battery-v0.2"},{"rune":"C","rune_set":"bacs1","hex":"#f73b6a7A","correct":32,"choice":32,"rt":684.5149998553097,"accuracy":1,"outcome":"-10","keys":[2185.5799998156726],"total_keys":1,"block":2,"trial":226,"stimulus":9,"robot":3,"valence":"lose","action":"go","sham":1,"trial_type":"pit-trial","trial_index":251,"time_elapsed":1044479,"internal_node_id":"0.0-228.0","task_version":"battery-v0.2"},{"rune":"L","rune_set":"bacs1","hex":"#f73b6a7A","correct":-1,"choice":-1,"rt":-1,"accuracy":1,"outcome":"-1","keys":[],"total_keys":0,"block":2,"trial":227,"stimulus":10,"robot":4,"valence":"lose","action":"no-go","sham":0,"trial_type":"pit-trial","trial_index":252,"time_elapsed":1048484,"internal_node_id":"0.0-229.0","task_version":"battery-v0.2"},{"rune":"Q","rune_set":"bacs1","hex":"#3366ff99","correct":-1,"choice":-1,"rt":-1,"accuracy":1,"outcome":"+1","keys":[],"total_keys":0,"block":2,"trial":228,"stimulus":11,"robot":2,"valence":"win","action":"no-go","sham":1,"trial_type":"pit-trial","trial_index":253,"time_elapsed":1052490,"internal_node_id":"0.0-230.0","task_version":"battery-v0.2"},{"rune":"L","rune_set":"bacs1","hex":"#f73b6a7A","correct":-1,"choice":-1,"rt":-1,"accuracy":1,"outcome":"-1","keys":[],"total_keys":0,"block":2,"trial":229,"stimulus":10,"robot":4,"valence":"lose","action":"no-go","sham":0,"trial_type":"pit-trial","trial_index":254,"time_elapsed":1056496,"internal_node_id":"0.0-231.0","task_version":"battery-v0.2"},{"rune":"A","rune_set":"bacs1","hex":"#f73b6a7A","correct":32,"choice":32,"rt":1248.2850002124906,"accuracy":1,"outcome":"-1","keys":[2749.1300001274794],"total_keys":1,"block":2,"trial":230,"stimulus":8,"robot":3,"valence":"lose","action":"go","sham":0,"trial_type":"pit-trial","trial_index":255,"time_elapsed":1060451,"internal_node_id":"0.0-232.0","task_version":"battery-v0.2"},{"rune":"Q","rune_set":"bacs1","hex":"#3366ff99","correct":-1,"choice":-1,"rt":-1,"accuracy":1,"outcome":"+1","keys":[],"total_keys":0,"block":2,"trial":231,"stimulus":11,"robot":2,"valence":"win","action":"no-go","sham":1,"trial_type":"pit-trial","trial_index":256,"time_elapsed":1064458,"internal_node_id":"0.0-233.0","task_version":"battery-v0.2"},{"rune":"C","rune_set":"bacs1","hex":"#f73b6a7A","correct":32,"choice":32,"rt":997.0050000119954,"accuracy":1,"outcome":"-1","keys":[2498.2599997892976],"total_keys":1,"block":2,"trial":232,"stimulus":9,"robot":3,"valence":"lose","action":"go","sham":0,"trial_type":"pit-trial","trial_index":257,"time_elapsed":1068162,"internal_node_id":"0.0-234.0","task_version":"battery-v0.2"},{"rune":"C","rune_set":"bacs1","hex":"#f73b6a7A","correct":32,"choice":32,"rt":727.8399998322129,"accuracy":1,"outcome":"-1","keys":[2228.8949999492615],"total_keys":1,"block":2,"trial":233,"stimulus":9,"robot":3,"valence":"lose","action":"go","sham":0,"trial_type":"pit-trial","trial_index":258,"time_elapsed":1071597,"internal_node_id":"0.0-235.0","task_version":"battery-v0.2"},{"rune":"A","rune_set":"bacs1","hex":"#f73b6a7A","correct":32,"choice":-1,"rt":-1,"accuracy":0,"outcome":"-10","keys":[],"total_keys":0,"block":2,"trial":234,"stimulus":8,"robot":3,"valence":"lose","action":"go","sham":0,"trial_type":"pit-trial","trial_index":259,"time_elapsed":1075610,"internal_node_id":"0.0-236.0","task_version":"battery-v0.2"},{"rune":"Q","rune_set":"bacs1","hex":"#3366ff99","correct":-1,"choice":32,"rt":707.5800001621246,"accuracy":0,"outcome":"+10","keys":[2208.2599999848753],"total_keys":1,"block":2,"trial":235,"stimulus":11,"robot":2,"valence":"win","action":"no-go","sham":1,"trial_type":"pit-trial","trial_index":260,"time_elapsed":1079031,"internal_node_id":"0.0-237.0","task_version":"battery-v0.2"},{"rune":"L","rune_set":"bacs1","hex":"#f73b6a7A","correct":-1,"choice":-1,"rt":-1,"accuracy":1,"outcome":"-10","keys":[],"total_keys":0,"block":2,"trial":236,"stimulus":10,"robot":4,"valence":"lose","action":"no-go","sham":1,"trial_type":"pit-trial","trial_index":261,"time_elapsed":1083044,"internal_node_id":"0.0-238.0","task_version":"battery-v0.2"},{"rune":"A","rune_set":"bacs1","hex":"#f73b6a7A","correct":32,"choice":-1,"rt":-1,"accuracy":0,"outcome":"-10","keys":[],"total_keys":0,"block":2,"trial":237,"stimulus":8,"robot":3,"valence":"lose","action":"go","sham":0,"trial_type":"pit-trial","trial_index":262,"time_elapsed":1087057,"internal_node_id":"0.0-239.0","task_version":"battery-v0.2"},{"rune":"Q","rune_set":"bacs1","hex":"#3366ff99","correct":-1,"choice":32,"rt":628.8799999747425,"accuracy":0,"outcome":"+1","keys":[2129.2350001167506],"total_keys":1,"block":2,"trial":238,"stimulus":11,"robot":2,"valence":"win","action":"no-go","sham":0,"trial_type":"pit-trial","trial_index":263,"time_elapsed":1090395,"internal_node_id":"0.0-240.0","task_version":"battery-v0.2"},{"rune":"C","rune_set":"bacs1","hex":"#f73b6a7A","correct":32,"choice":32,"rt":796.2599999736995,"accuracy":1,"outcome":"-1","keys":[2296.695000026375],"total_keys":1,"block":2,"trial":239,"stimulus":9,"robot":3,"valence":"lose","action":"go","sham":0,"trial_type":"pit-trial","trial_index":264,"time_elapsed":1093898,"internal_node_id":"0.0-241.0","task_version":"battery-v0.2"},{"rune":"L","rune_set":"bacs1","hex":"#f73b6a7A","correct":-1,"choice":-1,"rt":-1,"accuracy":1,"outcome":"-1","keys":[],"total_keys":0,"block":2,"trial":240,"stimulus":10,"robot":4,"valence":"lose","action":"no-go","sham":0,"trial_type":"pit-trial","trial_index":265,"time_elapsed":1097904,"internal_node_id":"0.0-242.0","task_version":"battery-v0.2"},{"view_history":"[{\"page_index\":0,\"viewing_time\":3026.4649998862296}]","rt":3026.99499996379,"trial_type":"pit-instructions","trial_index":266,"time_elapsed":1100934,"internal_node_id":"0.0-243.0","task_version":"battery-v0.2"},{"rt":10312.955000204965,"responses":{"age":"51","gender-categorical":"Male","gender-free-response":"","ethnicity":"Not Hispanic or Latino","race":["White"],"language":"Yes","fluency":"Very well"},"survey":"demographics","trial_type":"survey-demo","trial_index":267,"time_elapsed":1111256,"internal_node_id":"0.0-244.0","task_version":"battery-v0.2"},{"rt":29281.664999900386,"responses":{"difficulty":"5","fun":"3","clarity":"5","strategy":"No i didnt write things down","feedback":"no additional comments, thank you"},"survey":"debrief","trial_type":"survey-debrief","trial_index":268,"time_elapsed":1140544,"internal_node_id":"0.0-245.0","task_version":"battery-v0.2","interactions":"[{\"event\":\"blur\",\"trial\":0,\"time\":12115},{\"event\":\"focus\",\"trial\":0,\"time\":13755}]"}]