[{"view_history":"[{\"page_index\":0,\"viewing_time\":2462.500000023283},{\"page_index\":1,\"viewing_time\":4385.830000042915},{\"page_index\":2,\"viewing_time\":3018.034999957308},{\"page_index\":3,\"viewing_time\":3439.8300000466406},{\"page_index\":4,\"viewing_time\":7407.849999959581},{\"page_index\":5,\"viewing_time\":17090.08500003256},{\"page_index\":6,\"viewing_time\":5772.0899999840185},{\"page_index\":7,\"viewing_time\":7755.905000027269},{\"page_index\":8,\"viewing_time\":6356.054999982007},{\"page_index\":9,\"viewing_time\":6951.999999932013}]","rt":64640.73500002269,"trial_type":"pit-instructions","trial_index":0,"time_elapsed":64648,"internal_node_id":"0.0-0.0-0.0","task_version":"battery-v0.2"},{"rune":"1","rune_set":"elianto","hex":"#3366ff99","correct":32,"choice":32,"rt":872.2449999768287,"accuracy":1,"outcome":"+10","keys":[2372.8850000770763],"total_keys":1,"block":0,"practice":1,"trial_type":"pit-trial","trial_index":1,"time_elapsed":68224,"internal_node_id":"0.0-0.0-1.0-0.0","task_version":"battery-v0.2"},{"rune":"1","rune_set":"elianto","hex":"#3366ff99","correct":32,"choice":32,"rt":889.2600000835955,"accuracy":1,"outcome":"+10","keys":[2390.250000054948],"total_keys":1,"block":0,"practice":1,"trial_type":"pit-trial","trial_index":2,"time_elapsed":71817,"internal_node_id":"0.0-0.0-1.1-0.1","task_version":"battery-v0.2"},{"rune":"1","rune_set":"elianto","hex":"#3366ff99","correct":32,"choice":-1,"rt":-1,"accuracy":0,"outcome":"+1","keys":[],"total_keys":0,"block":0,"practice":1,"trial_type":"pit-trial","trial_index":3,"time_elapsed":75821,"internal_node_id":"0.0-0.0-1.2-0.2","task_version":"battery-v0.2"},{"rune":"1","rune_set":"elianto","hex":"#3366ff99","correct":32,"choice":-1,"rt":-1,"accuracy":0,"outcome":"+1","keys":[],"total_keys":0,"block":0,"practice":1,"trial_type":"pit-trial","trial_index":4,"time_elapsed":79825,"internal_node_id":"0.0-0.0-1.3-0.3","task_version":"battery-v0.2"},{"rune":"1","rune_set":"elianto","hex":"#3366ff99","correct":32,"choice":32,"rt":895.8550000097603,"accuracy":1,"outcome":"+10","keys":[1291.5450000436977,2397.620000061579],"total_keys":2,"block":0,"practice":1,"trial_type":"pit-trial","trial_index":5,"time_elapsed":83425,"internal_node_id":"0.0-0.0-1.4-0.4","task_version":"battery-v0.2"},{"rune":"1","rune_set":"elianto","hex":"#3366ff99","correct":32,"choice":32,"rt":595.3750000335276,"accuracy":1,"outcome":"+10","keys":[2096.4650000678375],"total_keys":1,"block":0,"practice":1,"trial_type":"pit-trial","trial_index":6,"time_elapsed":86724,"internal_node_id":"0.0-0.0-1.5-0.5","task_version":"battery-v0.2"},{"rune":"1","rune_set":"elianto","hex":"#3366ff99","correct":32,"choice":32,"rt":550.1899999799207,"accuracy":1,"outcome":"+10","keys":[2051.934999995865],"total_keys":1,"block":0,"practice":1,"trial_type":"pit-trial","trial_index":7,"time_elapsed":89979,"internal_node_id":"0.0-0.0-1.6-0.6","task_version":"battery-v0.2"},{"view_history":"[{\"page_index\":0,\"viewing_time\":8633.125000051223},{\"page_index\":1,\"viewing_time\":4089.780000038445}]","rt":12723.27000007499,"trial_type":"pit-instructions","trial_index":8,"time_elapsed":102703,"internal_node_id":"0.0-0.0-2.0","task_version":"battery-v0.2"},{"rune":"2","rune_set":"elianto","hex":"#3366ff99","correct":-1,"choice":32,"rt":926.2100000632927,"accuracy":0,"outcome":"+1","keys":[2427.1799999987707],"total_keys":1,"block":0,"practice":2,"trial_type":"pit-trial","trial_index":9,"time_elapsed":106333,"internal_node_id":"0.0-0.0-3.0-0.0","task_version":"battery-v0.2"},{"rune":"2","rune_set":"elianto","hex":"#3366ff99","correct":-1,"choice":-1,"rt":-1,"accuracy":1,"outcome":"+10","keys":[],"total_keys":0,"block":0,"practice":2,"trial_type":"pit-trial","trial_index":10,"time_elapsed":110336,"internal_node_id":"0.0-0.0-3.1-0.1","task_version":"battery-v0.2"},{"rune":"2","rune_set":"elianto","hex":"#3366ff99","correct":-1,"choice":-1,"rt":-1,"accuracy":1,"outcome":"+10","keys":[],"total_keys":0,"block":0,"practice":2,"trial_type":"pit-trial","trial_index":11,"time_elapsed":114340,"internal_node_id":"0.0-0.0-3.2-0.2","task_version":"battery-v0.2"},{"rune":"2","rune_set":"elianto","hex":"#3366ff99","correct":-1,"choice":-1,"rt":-1,"accuracy":1,"outcome":"+10","keys":[],"total_keys":0,"block":0,"practice":2,"trial_type":"pit-trial","trial_index":12,"time_elapsed":118343,"internal_node_id":"0.0-0.0-3.3-0.3","task_version":"battery-v0.2"},{"view_history":"[{\"page_index\":0,\"viewing_time\":8364.150000037625},{\"page_index\":1,\"viewing_time\":7385.869999998249}]","rt":15750.285000074655,"trial_type":"pit-instructions","trial_index":13,"time_elapsed":134095,"internal_node_id":"0.0-0.0-4.0","task_version":"battery-v0.2"},{"rune":"3","rune_set":"elianto","hex":"#f73b6a7A","correct":-1,"choice":32,"rt":652.0099999615923,"accuracy":0,"outcome":"-10","keys":[2152.6350000640377],"total_keys":1,"block":0,"practice":3,"trial_type":"pit-trial","trial_index":14,"time_elapsed":137449,"internal_node_id":"0.0-0.0-5.0-0.0","task_version":"battery-v0.2"},{"rune":"3","rune_set":"elianto","hex":"#f73b6a7A","correct":-1,"choice":-1,"rt":-1,"accuracy":1,"outcome":"-1","keys":[],"total_keys":0,"block":0,"practice":3,"trial_type":"pit-trial","trial_index":15,"time_elapsed":141452,"internal_node_id":"0.0-0.0-5.1-0.1","task_version":"battery-v0.2"},{"rune":"3","rune_set":"elianto","hex":"#f73b6a7A","correct":-1,"choice":-1,"rt":-1,"accuracy":1,"outcome":"-1","keys":[],"total_keys":0,"block":0,"practice":3,"trial_type":"pit-trial","trial_index":16,"time_elapsed":145455,"internal_node_id":"0.0-0.0-5.2-0.2","task_version":"battery-v0.2"},{"rune":"3","rune_set":"elianto","hex":"#f73b6a7A","correct":-1,"choice":-1,"rt":-1,"accuracy":1,"outcome":"-1","keys":[],"total_keys":0,"block":0,"practice":3,"trial_type":"pit-trial","trial_index":17,"time_elapsed":149459,"internal_node_id":"0.0-0.0-5.3-0.3","task_version":"battery-v0.2"},{"view_history":"[{\"page_index\":0,\"viewing_time\":2862.6550000626594},{\"page_index\":1,\"viewing_time\":2902.299999957904}]","rt":5765.205000061542,"trial_type":"pit-instructions","trial_index":18,"time_elapsed":155225,"internal_node_id":"0.0-0.0-6.0","task_version":"battery-v0.2"},{"rune":"4","rune_set":"elianto","hex":"#f73b6a7A","correct":32,"choice":32,"rt":538.3500000461936,"accuracy":1,"outcome":"-1","keys":[2040.0900000240654],"total_keys":1,"block":0,"practice":4,"trial_type":"pit-trial","trial_index":19,"time_elapsed":158467,"internal_node_id":"0.0-0.0-7.0-0.0","task_version":"battery-v0.2"},{"rune":"4","rune_set":"elianto","hex":"#f73b6a7A","correct":32,"choice":-1,"rt":-1,"accuracy":0,"outcome":"-10","keys":[],"total_keys":0,"block":0,"practice":4,"trial_type":"pit-trial","trial_index":20,"time_elapsed":162471,"internal_node_id":"0.0-0.0-7.1-0.1","task_version":"battery-v0.2"},{"rune":"4","rune_set":"elianto","hex":"#f73b6a7A","correct":32,"choice":32,"rt":102.72500000428408,"accuracy":1,"outcome":"-1","keys":[1603.9200000232086],"total_keys":1,"block":0,"practice":4,"trial_type":"pit-trial","trial_index":21,"time_elapsed":165277,"internal_node_id":"0.0-0.0-7.2-0.2","task_version":"battery-v0.2"},{"rune":"4","rune_set":"elianto","hex":"#f73b6a7A","correct":32,"choice":32,"rt":838.3049999829382,"accuracy":1,"outcome":"-1","keys":[1382.050000014715,2340.3049999615178],"total_keys":2,"block":0,"practice":4,"trial_type":"pit-trial","trial_index":22,"time_elapsed":168819,"internal_node_id":"0.0-0.0-7.3-0.3","task_version":"battery-v0.2"},{"rune":"4","rune_set":"elianto","hex":"#f73b6a7A","correct":32,"choice":32,"rt":211.83500008191913,"accuracy":1,"outcome":"-1","keys":[1713.05499994196],"total_keys":1,"block":0,"practice":4,"trial_type":"pit-trial","trial_index":23,"time_elapsed":171735,"internal_node_id":"0.0-0.0-7.4-0.4","task_version":"battery-v0.2"},{"view_history":"[{\"page_index\":0,\"viewing_time\":2314.5800000056624},{\"page_index\":1,\"viewing_time\":33960.10499994736},{\"page_index\":2,\"viewing_time\":4921.594999963418},{\"page_index\":3,\"viewing_time\":2590.000000083819},{\"page_index\":4,\"viewing_time\":2406.0099999187514},{\"page_index\":5,\"viewing_time\":1984.000000054948}]","rt":48176.57000001054,"trial_type":"pit-instructions","trial_index":24,"time_elapsed":219913,"internal_node_id":"0.0-0.0-8.0","task_version":"battery-v0.2"},{"responses":["Press SPACE","+10","-1","True","True"],"num_errors":0,"rt":15202.42500002496,"trial_type":"pit-comprehension","trial_index":25,"time_elapsed":235118,"internal_node_id":"0.0-0.0-9.0","task_version":"battery-v0.2"},{"view_history":"[{\"page_index\":0,\"viewing_time\":1930.9750000247732},{\"page_index\":1,\"viewing_time\":4200.109999976121}]","rt":6131.41499995254,"trial_type":"pit-instructions","trial_index":26,"time_elapsed":241251,"internal_node_id":"0.0-1.0","task_version":"battery-v0.2"},{"rune":"H","rune_set":"elianto","hex":"#3366ff99","correct":32,"choice":32,"rt":1114.5399999804795,"accuracy":1,"outcome":"+10","keys":[2615.489999996498],"total_keys":1,"block":1,"trial":1,"stimulus":3,"robot":1,"valence":"win","action":"go","sham":0,"trial_type":"pit-trial","trial_index":27,"time_elapsed":245069,"internal_node_id":"0.0-2.0","task_version":"battery-v0.2"},{"rune":"R","rune_set":"elianto","hex":"#3366ff99","correct":32,"choice":-1,"rt":-1,"accuracy":0,"outcome":"+1","keys":[],"total_keys":0,"block":1,"trial":2,"stimulus":1,"robot":1,"valence":"win","action":"go","sham":0,"trial_type":"pit-trial","trial_index":28,"time_elapsed":249073,"internal_node_id":"0.0-3.0","task_version":"battery-v0.2"},{"rune":"Y","rune_set":"elianto","hex":"#f73b6a7A","correct":-1,"choice":32,"rt":838.4450000012293,"accuracy":0,"outcome":"-1","keys":[2339.589999988675],"total_keys":1,"block":1,"trial":3,"stimulus":2,"robot":4,"valence":"lose","action":"no-go","sham":1,"trial_type":"pit-trial","trial_index":29,"time_elapsed":252615,"internal_node_id":"0.0-4.0","task_version":"battery-v0.2"},{"rune":"M","rune_set":"elianto","hex":"#3366ff99","correct":-1,"choice":32,"rt":756.9099999964237,"accuracy":0,"outcome":"+1","keys":[2258.309999946505],"total_keys":1,"block":1,"trial":4,"stimulus":0,"robot":2,"valence":"win","action":"no-go","sham":0,"trial_type":"pit-trial","trial_index":30,"time_elapsed":256076,"internal_node_id":"0.0-5.0","task_version":"battery-v0.2"},{"rune":"M","rune_set":"elianto","hex":"#3366ff99","correct":-1,"choice":-1,"rt":-1,"accuracy":1,"outcome":"+10","keys":[],"total_keys":0,"block":1,"trial":5,"stimulus":0,"robot":2,"valence":"win","action":"no-go","sham":0,"trial_type":"pit-trial","trial_index":31,"time_elapsed":260079,"internal_node_id":"0.0-6.0","task_version":"battery-v0.2"},{"rune":"Y","rune_set":"elianto","hex":"#f73b6a7A","correct":-1,"choice":32,"rt":971.6949999565259,"accuracy":0,"outcome":"-10","keys":[2472.940000006929],"total_keys":1,"block":1,"trial":6,"stimulus":2,"robot":4,"valence":"lose","action":"no-go","sham":0,"trial_type":"pit-trial","trial_index":32,"time_elapsed":263754,"internal_node_id":"0.0-7.0","task_version":"battery-v0.2"},{"rune":"H","rune_set":"elianto","hex":"#3366ff99","correct":32,"choice":32,"rt":620.0249999528751,"accuracy":1,"outcome":"+10","keys":[2120.3899999381974],"total_keys":1,"block":1,"trial":7,"stimulus":3,"robot":1,"valence":"win","action":"go","sham":0,"trial_type":"pit-trial","trial_index":33,"time_elapsed":267078,"internal_node_id":"0.0-8.0","task_version":"battery-v0.2"},{"rune":"R","rune_set":"elianto","hex":"#3366ff99","correct":32,"choice":32,"rt":598.63000002224,"accuracy":1,"outcome":"+1","keys":[2100.4599999869242],"total_keys":1,"block":1,"trial":8,"stimulus":1,"robot":1,"valence":"win","action":"go","sham":1,"trial_type":"pit-trial","trial_index":34,"time_elapsed":270380,"internal_node_id":"0.0-9.0","task_version":"battery-v0.2"},{"rune":"Y","rune_set":"elianto","hex":"#f73b6a7A","correct":-1,"choice":-1,"rt":-1,"accuracy":1,"outcome":"-1","keys":[],"total_keys":0,"block":1,"trial":9,"stimulus":2,"robot":4,"valence":"lose","action":"no-go","sham":0,"trial_type":"pit-trial","trial_index":35,"time_elapsed":274383,"internal_node_id":"0.0-10.0","task_version":"battery-v0.2"},{"rune":"R","rune_set":"elianto","hex":"#3366ff99","correct":32,"choice":32,"rt":511.7899999022484,"accuracy":1,"outcome":"+10","keys":[2013.5599999921396],"total_keys":1,"block":1,"trial":10,"stimulus":1,"robot":1,"valence":"win","action":"go","sham":0,"trial_type":"pit-trial","trial_index":36,"time_elapsed":277599,"internal_node_id":"0.0-11.0","task_version":"battery-v0.2"},{"rune":"M","rune_set":"elianto","hex":"#3366ff99","correct":-1,"choice":32,"rt":973.4849999658763,"accuracy":0,"outcome":"+1","keys":[2474.629999953322],"total_keys":1,"block":1,"trial":11,"stimulus":0,"robot":2,"valence":"win","action":"no-go","sham":0,"trial_type":"pit-trial","trial_index":37,"time_elapsed":281277,"internal_node_id":"0.0-12.0","task_version":"battery-v0.2"},{"rune":"H","rune_set":"elianto","hex":"#3366ff99","correct":32,"choice":32,"rt":467.31499989982694,"accuracy":1,"outcome":"+1","keys":[1968.144999933429],"total_keys":1,"block":1,"trial":12,"stimulus":3,"robot":1,"valence":"win","action":"go","sham":1,"trial_type":"pit-trial","trial_index":38,"time_elapsed":284447,"internal_node_id":"0.0-13.0","task_version":"battery-v0.2"},{"rune":"H","rune_set":"elianto","hex":"#3366ff99","correct":32,"choice":-1,"rt":-1,"accuracy":0,"outcome":"+10","keys":[],"total_keys":0,"block":1,"trial":13,"stimulus":3,"robot":1,"valence":"win","action":"go","sham":1,"trial_type":"pit-trial","trial_index":39,"time_elapsed":288452,"internal_node_id":"0.0-14.0","task_version":"battery-v0.2"},{"rune":"R","rune_set":"elianto","hex":"#3366ff99","correct":32,"choice":32,"rt":806.5699998987839,"accuracy":1,"outcome":"+10","keys":[2306.899999966845],"total_keys":1,"block":1,"trial":14,"stimulus":1,"robot":1,"valence":"win","action":"go","sham":0,"trial_type":"pit-trial","trial_index":40,"time_elapsed":291962,"internal_node_id":"0.0-15.0","task_version":"battery-v0.2"},{"rune":"Y","rune_set":"elianto","hex":"#f73b6a7A","correct":-1,"choice":-1,"rt":-1,"accuracy":1,"outcome":"-1","keys":[],"total_keys":0,"block":1,"trial":15,"stimulus":2,"robot":4,"valence":"lose","action":"no-go","sham":0,"trial_type":"pit-trial","trial_index":41,"time_elapsed":295964,"internal_node_id":"0.0-16.0","task_version":"battery-v0.2"},{"rune":"M","rune_set":"elianto","hex":"#3366ff99","correct":-1,"choice":32,"rt":405.29999998398125,"accuracy":0,"outcome":"+1","keys":[1905.5350000271574],"total_keys":1,"block":1,"trial":16,"stimulus":0,"robot":2,"valence":"win","action":"no-go","sham":0,"trial_type":"pit-trial","trial_index":42,"time_elapsed":299072,"internal_node_id":"0.0-17.0","task_version":"battery-v0.2"},{"rune":"M","rune_set":"elianto","hex":"#3366ff99","correct":-1,"choice":-1,"rt":-1,"accuracy":1,"outcome":"+10","keys":[],"total_keys":0,"block":1,"trial":17,"stimulus":0,"robot":2,"valence":"win","action":"no-go","sham":0,"trial_type":"pit-trial","trial_index":43,"time_elapsed":303076,"internal_node_id":"0.0-18.0","task_version":"battery-v0.2"},{"rune":"H","rune_set":"elianto","hex":"#3366ff99","correct":32,"choice":32,"rt":500.5349999992177,"accuracy":1,"outcome":"+10","keys":[2002.2299999836832],"total_keys":1,"block":1,"trial":18,"stimulus":3,"robot":1,"valence":"win","action":"go","sham":0,"trial_type":"pit-trial","trial_index":44,"time_elapsed":306281,"internal_node_id":"0.0-19.0","task_version":"battery-v0.2"},{"rune":"R","rune_set":"elianto","hex":"#3366ff99","correct":32,"choice":32,"rt":1046.6099999612197,"accuracy":1,"outcome":"+1","keys":[2547.8199999779463],"total_keys":1,"block":1,"trial":19,"stimulus":1,"robot":1,"valence":"win","action":"go","sham":1,"trial_type":"pit-trial","trial_index":45,"time_elapsed":310030,"internal_node_id":"0.0-20.0","task_version":"battery-v0.2"},{"rune":"Y","rune_set":"elianto","hex":"#f73b6a7A","correct":-1,"choice":-1,"rt":-1,"accuracy":1,"outcome":"-1","keys":[],"total_keys":0,"block":1,"trial":20,"stimulus":2,"robot":4,"valence":"lose","action":"no-go","sham":0,"trial_type":"pit-trial","trial_index":46,"time_elapsed":314034,"internal_node_id":"0.0-21.0","task_version":"battery-v0.2"},{"rune":"Y","rune_set":"elianto","hex":"#f73b6a7A","correct":-1,"choice":-1,"rt":-1,"accuracy":1,"outcome":"-10","keys":[],"total_keys":0,"block":1,"trial":21,"stimulus":2,"robot":4,"valence":"lose","action":"no-go","sham":1,"trial_type":"pit-trial","trial_index":47,"time_elapsed":318037,"internal_node_id":"0.0-22.0","task_version":"battery-v0.2"},{"rune":"H","rune_set":"elianto","hex":"#3366ff99","correct":32,"choice":32,"rt":549.2150000063702,"accuracy":1,"outcome":"+10","keys":[2050.025000004098],"total_keys":1,"block":1,"trial":22,"stimulus":3,"robot":1,"valence":"win","action":"go","sham":0,"trial_type":"pit-trial","trial_index":48,"time_elapsed":321289,"internal_node_id":"0.0-23.0","task_version":"battery-v0.2"},{"rune":"M","rune_set":"elianto","hex":"#3366ff99","correct":-1,"choice":32,"rt":714.2450000392273,"accuracy":0,"outcome":"+10","keys":[2214.269999996759],"total_keys":1,"block":1,"trial":23,"stimulus":0,"robot":2,"valence":"win","action":"no-go","sham":1,"trial_type":"pit-trial","trial_index":49,"time_elapsed":324706,"internal_node_id":"0.0-24.0","task_version":"battery-v0.2"},{"rune":"R","rune_set":"elianto","hex":"#3366ff99","correct":32,"choice":-1,"rt":-1,"accuracy":0,"outcome":"+1","keys":[],"total_keys":0,"block":1,"trial":24,"stimulus":1,"robot":1,"valence":"win","action":"go","sham":0,"trial_type":"pit-trial","trial_index":50,"time_elapsed":328709,"internal_node_id":"0.0-25.0","task_version":"battery-v0.2"},{"rune":"Y","rune_set":"elianto","hex":"#f73b6a7A","correct":-1,"choice":32,"rt":760.9250000678003,"accuracy":0,"outcome":"-1","keys":[2261.930000036955],"total_keys":1,"block":1,"trial":25,"stimulus":2,"robot":4,"valence":"lose","action":"no-go","sham":1,"trial_type":"pit-trial","trial_index":51,"time_elapsed":332174,"internal_node_id":"0.0-26.0","task_version":"battery-v0.2"},{"rune":"R","rune_set":"elianto","hex":"#3366ff99","correct":32,"choice":32,"rt":625.7699999259785,"accuracy":1,"outcome":"+10","keys":[2127.15999991633],"total_keys":1,"block":1,"trial":26,"stimulus":1,"robot":1,"valence":"win","action":"go","sham":0,"trial_type":"pit-trial","trial_index":52,"time_elapsed":335503,"internal_node_id":"0.0-27.0","task_version":"battery-v0.2"},{"rune":"M","rune_set":"elianto","hex":"#3366ff99","correct":-1,"choice":-1,"rt":-1,"accuracy":1,"outcome":"+10","keys":[],"total_keys":0,"block":1,"trial":27,"stimulus":0,"robot":2,"valence":"win","action":"no-go","sham":0,"trial_type":"pit-trial","trial_index":53,"time_elapsed":339507,"internal_node_id":"0.0-28.0","task_version":"battery-v0.2"},{"rune":"H","rune_set":"elianto","hex":"#3366ff99","correct":32,"choice":32,"rt":1289.9900000775233,"accuracy":1,"outcome":"+10","keys":[2791.7650000890717],"total_keys":1,"block":1,"trial":28,"stimulus":3,"robot":1,"valence":"win","action":"go","sham":0,"trial_type":"pit-trial","trial_index":54,"time_elapsed":343501,"internal_node_id":"0.0-29.0","task_version":"battery-v0.2"},{"rune":"H","rune_set":"elianto","hex":"#3366ff99","correct":32,"choice":32,"rt":396.57500002067536,"accuracy":1,"outcome":"+10","keys":[1897.4300000118092],"total_keys":1,"block":1,"trial":29,"stimulus":3,"robot":1,"valence":"win","action":"go","sham":0,"trial_type":"pit-trial","trial_index":55,"time_elapsed":346602,"internal_node_id":"0.0-30.0","task_version":"battery-v0.2"},{"rune":"R","rune_set":"elianto","hex":"#3366ff99","correct":32,"choice":32,"rt":611.5799999097362,"accuracy":1,"outcome":"+10","keys":[2112.2599999653175],"total_keys":1,"block":1,"trial":30,"stimulus":1,"robot":1,"valence":"win","action":"go","sham":0,"trial_type":"pit-trial","trial_index":56,"time_elapsed":349916,"internal_node_id":"0.0-31.0","task_version":"battery-v0.2"},{"rune":"M","rune_set":"elianto","hex":"#3366ff99","correct":-1,"choice":-1,"rt":-1,"accuracy":1,"outcome":"+10","keys":[],"total_keys":0,"block":1,"trial":31,"stimulus":0,"robot":2,"valence":"win","action":"no-go","sham":0,"trial_type":"pit-trial","trial_index":57,"time_elapsed":353919,"internal_node_id":"0.0-32.0","task_version":"battery-v0.2"},{"rune":"Y","rune_set":"elianto","hex":"#f73b6a7A","correct":-1,"choice":32,"rt":845.119999954477,"accuracy":0,"outcome":"-10","keys":[2346.390000078827],"total_keys":1,"block":1,"trial":32,"stimulus":2,"robot":4,"valence":"lose","action":"no-go","sham":0,"trial_type":"pit-trial","trial_index":58,"time_elapsed":357468,"internal_node_id":"0.0-33.0","task_version":"battery-v0.2"},{"rune":"H","rune_set":"elianto","hex":"#3366ff99","correct":32,"choice":32,"rt":490.6300000147894,"accuracy":1,"outcome":"+10","keys":[1991.190000087954],"total_keys":1,"block":1,"trial":33,"stimulus":3,"robot":1,"valence":"win","action":"go","sham":0,"trial_type":"pit-trial","trial_index":59,"time_elapsed":360661,"internal_node_id":"0.0-34.0","task_version":"battery-v0.2"},{"rune":"M","rune_set":"elianto","hex":"#3366ff99","correct":-1,"choice":32,"rt":744.7500000707805,"accuracy":0,"outcome":"+1","keys":[2245.515000075102],"total_keys":1,"block":1,"trial":34,"stimulus":0,"robot":2,"valence":"win","action":"no-go","sham":0,"trial_type":"pit-trial","trial_index":60,"time_elapsed":364109,"internal_node_id":"0.0-35.0","task_version":"battery-v0.2"},{"rune":"Z","rune_set":"elianto","hex":"#3366ff99","correct":32,"choice":-1,"rt":-1,"accuracy":0,"outcome":"+10","keys":[],"total_keys":0,"block":1,"trial":35,"stimulus":4,"robot":1,"valence":"win","action":"go","sham":1,"trial_type":"pit-trial","trial_index":61,"time_elapsed":368113,"internal_node_id":"0.0-36.0","task_version":"battery-v0.2"},{"rune":"Y","rune_set":"elianto","hex":"#f73b6a7A","correct":-1,"choice":-1,"rt":-1,"accuracy":1,"outcome":"-10","keys":[],"total_keys":0,"block":1,"trial":36,"stimulus":2,"robot":4,"valence":"lose","action":"no-go","sham":1,"trial_type":"pit-trial","trial_index":62,"time_elapsed":372117,"internal_node_id":"0.0-37.0","task_version":"battery-v0.2"},{"rune":"Z","rune_set":"elianto","hex":"#3366ff99","correct":32,"choice":-1,"rt":-1,"accuracy":0,"outcome":"+1","keys":[],"total_keys":0,"block":1,"trial":37,"stimulus":4,"robot":1,"valence":"win","action":"go","sham":0,"trial_type":"pit-trial","trial_index":63,"time_elapsed":376120,"internal_node_id":"0.0-38.0","task_version":"battery-v0.2"},{"rune":"Y","rune_set":"elianto","hex":"#f73b6a7A","correct":-1,"choice":-1,"rt":-1,"accuracy":1,"outcome":"-1","keys":[],"total_keys":0,"block":1,"trial":38,"stimulus":2,"robot":4,"valence":"lose","action":"no-go","sham":0,"trial_type":"pit-trial","trial_index":64,"time_elapsed":380123,"internal_node_id":"0.0-39.0","task_version":"battery-v0.2"},{"rune":"M","rune_set":"elianto","hex":"#3366ff99","correct":-1,"choice":32,"rt":414.6349999355152,"accuracy":0,"outcome":"+1","keys":[1915.4399998951703],"total_keys":1,"block":1,"trial":39,"stimulus":0,"robot":2,"valence":"win","action":"no-go","sham":0,"trial_type":"pit-trial","trial_index":65,"time_elapsed":383241,"internal_node_id":"0.0-40.0","task_version":"battery-v0.2"},{"rune":"H","rune_set":"elianto","hex":"#3366ff99","correct":32,"choice":32,"rt":513.4449999313802,"accuracy":1,"outcome":"+10","keys":[2013.8199999928474],"total_keys":1,"block":1,"trial":40,"stimulus":3,"robot":1,"valence":"win","action":"go","sham":0,"trial_type":"pit-trial","trial_index":66,"time_elapsed":386457,"internal_node_id":"0.0-41.0","task_version":"battery-v0.2"},{"rune":"M","rune_set":"elianto","hex":"#3366ff99","correct":-1,"choice":32,"rt":541.1600000225008,"accuracy":0,"outcome":"+1","keys":[2041.7799999704584],"total_keys":1,"block":1,"trial":41,"stimulus":0,"robot":2,"valence":"win","action":"no-go","sham":0,"trial_type":"pit-trial","trial_index":67,"time_elapsed":389702,"internal_node_id":"0.0-42.0","task_version":"battery-v0.2"},{"rune":"Z","rune_set":"elianto","hex":"#3366ff99","correct":32,"choice":32,"rt":853.6899999016896,"accuracy":1,"outcome":"+10","keys":[2355.299999937415],"total_keys":1,"block":1,"trial":42,"stimulus":4,"robot":1,"valence":"win","action":"go","sham":0,"trial_type":"pit-trial","trial_index":68,"time_elapsed":393259,"internal_node_id":"0.0-43.0","task_version":"battery-v0.2"},{"rune":"B","rune_set":"elianto","hex":"#f73b6a7A","correct":-1,"choice":-1,"rt":-1,"accuracy":1,"outcome":"-1","keys":[],"total_keys":0,"block":1,"trial":43,"stimulus":6,"robot":4,"valence":"lose","action":"no-go","sham":0,"trial_type":"pit-trial","trial_index":69,"time_elapsed":397263,"internal_node_id":"0.0-44.0","task_version":"battery-v0.2"},{"rune":"C","rune_set":"elianto","hex":"#f73b6a7A","correct":32,"choice":-1,"rt":-1,"accuracy":0,"outcome":"-10","keys":[],"total_keys":0,"block":1,"trial":44,"stimulus":5,"robot":3,"valence":"lose","action":"go","sham":0,"trial_type":"pit-trial","trial_index":70,"time_elapsed":401266,"internal_node_id":"0.0-45.0","task_version":"battery-v0.2"},{"rune":"M","rune_set":"elianto","hex":"#3366ff99","correct":-1,"choice":32,"rt":472.06000005826354,"accuracy":0,"outcome":"+1","keys":[1973.2900001108646],"total_keys":1,"block":1,"trial":45,"stimulus":0,"robot":2,"valence":"win","action":"no-go","sham":0,"trial_type":"pit-trial","trial_index":71,"time_elapsed":404442,"internal_node_id":"0.0-46.0","task_version":"battery-v0.2"},{"rune":"B","rune_set":"elianto","hex":"#f73b6a7A","correct":-1,"choice":-1,"rt":-1,"accuracy":1,"outcome":"-1","keys":[],"total_keys":0,"block":1,"trial":46,"stimulus":6,"robot":4,"valence":"lose","action":"no-go","sham":0,"trial_type":"pit-trial","trial_index":72,"time_elapsed":408446,"internal_node_id":"0.0-47.0","task_version":"battery-v0.2"},{"rune":"C","rune_set":"elianto","hex":"#f73b6a7A","correct":32,"choice":32,"rt":748.5399999422953,"accuracy":1,"outcome":"-1","keys":[2249.695000005886],"total_keys":1,"block":1,"trial":47,"stimulus":5,"robot":3,"valence":"lose","action":"go","sham":0,"trial_type":"pit-trial","trial_index":73,"time_elapsed":411898,"internal_node_id":"0.0-48.0","task_version":"battery-v0.2"},{"rune":"Z","rune_set":"elianto","hex":"#3366ff99","correct":32,"choice":-1,"rt":-1,"accuracy":0,"outcome":"+1","keys":[],"total_keys":0,"block":1,"trial":48,"stimulus":4,"robot":1,"valence":"win","action":"go","sham":0,"trial_type":"pit-trial","trial_index":74,"time_elapsed":415901,"internal_node_id":"0.0-49.0","task_version":"battery-v0.2"},{"rune":"Z","rune_set":"elianto","hex":"#3366ff99","correct":32,"choice":32,"rt":382.36499996855855,"accuracy":1,"outcome":"+10","keys":[1882.9050000058487],"total_keys":1,"block":1,"trial":49,"stimulus":4,"robot":1,"valence":"win","action":"go","sham":0,"trial_type":"pit-trial","trial_index":75,"time_elapsed":418987,"internal_node_id":"0.0-50.0","task_version":"battery-v0.2"},{"rune":"C","rune_set":"elianto","hex":"#f73b6a7A","correct":32,"choice":32,"rt":648.0400000000373,"accuracy":1,"outcome":"-1","keys":[2148.9399999845773],"total_keys":1,"block":1,"trial":50,"stimulus":5,"robot":3,"valence":"lose","action":"go","sham":0,"trial_type":"pit-trial","trial_index":76,"time_elapsed":422338,"internal_node_id":"0.0-51.0","task_version":"battery-v0.2"},{"rune":"B","rune_set":"elianto","hex":"#f73b6a7A","correct":-1,"choice":-1,"rt":-1,"accuracy":1,"outcome":"-10","keys":[],"total_keys":0,"block":1,"trial":51,"stimulus":6,"robot":4,"valence":"lose","action":"no-go","sham":1,"trial_type":"pit-trial","trial_index":77,"time_elapsed":426342,"internal_node_id":"0.0-52.0","task_version":"battery-v0.2"},{"rune":"T","rune_set":"elianto","hex":"#3366ff99","correct":-1,"choice":32,"rt":799.339999910444,"accuracy":0,"outcome":"+1","keys":[2299.914999981411],"total_keys":1,"block":1,"trial":52,"stimulus":7,"robot":2,"valence":"win","action":"no-go","sham":0,"trial_type":"pit-trial","trial_index":78,"time_elapsed":429844,"internal_node_id":"0.0-53.0","task_version":"battery-v0.2"},{"rune":"T","rune_set":"elianto","hex":"#3366ff99","correct":-1,"choice":32,"rt":378.4800000721589,"accuracy":0,"outcome":"+1","keys":[1880.1400000229478],"total_keys":1,"block":1,"trial":53,"stimulus":7,"robot":2,"valence":"win","action":"no-go","sham":0,"trial_type":"pit-trial","trial_index":79,"time_elapsed":432927,"internal_node_id":"0.0-54.0","task_version":"battery-v0.2"},{"rune":"C","rune_set":"elianto","hex":"#f73b6a7A","correct":32,"choice":32,"rt":693.6750001041219,"accuracy":1,"outcome":"-1","keys":[2194.7149999905378],"total_keys":1,"block":1,"trial":54,"stimulus":5,"robot":3,"valence":"lose","action":"go","sham":0,"trial_type":"pit-trial","trial_index":80,"time_elapsed":436325,"internal_node_id":"0.0-55.0","task_version":"battery-v0.2"},{"rune":"Z","rune_set":"elianto","hex":"#3366ff99","correct":32,"choice":32,"rt":663.8550000498071,"accuracy":1,"outcome":"+10","keys":[2164.600000018254],"total_keys":1,"block":1,"trial":55,"stimulus":4,"robot":1,"valence":"win","action":"go","sham":0,"trial_type":"pit-trial","trial_index":81,"time_elapsed":439693,"internal_node_id":"0.0-56.0","task_version":"battery-v0.2"},{"rune":"B","rune_set":"elianto","hex":"#f73b6a7A","correct":-1,"choice":-1,"rt":-1,"accuracy":1,"outcome":"-1","keys":[],"total_keys":0,"block":1,"trial":56,"stimulus":6,"robot":4,"valence":"lose","action":"no-go","sham":0,"trial_type":"pit-trial","trial_index":82,"time_elapsed":443696,"internal_node_id":"0.0-57.0","task_version":"battery-v0.2"},{"rune":"T","rune_set":"elianto","hex":"#3366ff99","correct":-1,"choice":32,"rt":523.7399999750778,"accuracy":0,"outcome":"+1","keys":[2023.8599999574944],"total_keys":1,"block":1,"trial":57,"stimulus":7,"robot":2,"valence":"win","action":"no-go","sham":0,"trial_type":"pit-trial","trial_index":83,"time_elapsed":446922,"internal_node_id":"0.0-58.0","task_version":"battery-v0.2"},{"rune":"Z","rune_set":"elianto","hex":"#3366ff99","correct":32,"choice":32,"rt":755.4249999811873,"accuracy":1,"outcome":"+1","keys":[2256.5049999393523],"total_keys":1,"block":1,"trial":58,"stimulus":4,"robot":1,"valence":"win","action":"go","sham":1,"trial_type":"pit-trial","trial_index":84,"time_elapsed":450381,"internal_node_id":"0.0-59.0","task_version":"battery-v0.2"},{"rune":"C","rune_set":"elianto","hex":"#f73b6a7A","correct":32,"choice":32,"rt":727.8549999464303,"accuracy":1,"outcome":"-1","keys":[2228.9200000232086],"total_keys":1,"block":1,"trial":59,"stimulus":5,"robot":3,"valence":"lose","action":"go","sham":0,"trial_type":"pit-trial","trial_index":85,"time_elapsed":453812,"internal_node_id":"0.0-60.0","task_version":"battery-v0.2"},{"rune":"B","rune_set":"elianto","hex":"#f73b6a7A","correct":-1,"choice":32,"rt":633.2150000380352,"accuracy":0,"outcome":"-1","keys":[2134.6449999837205],"total_keys":1,"block":1,"trial":60,"stimulus":6,"robot":4,"valence":"lose","action":"no-go","sham":1,"trial_type":"pit-trial","trial_index":86,"time_elapsed":457150,"internal_node_id":"0.0-61.0","task_version":"battery-v0.2"},{"rune":"B","rune_set":"elianto","hex":"#f73b6a7A","correct":-1,"choice":32,"rt":806.5949999727309,"accuracy":0,"outcome":"-10","keys":[2307.659999933094],"total_keys":1,"block":1,"trial":61,"stimulus":6,"robot":4,"valence":"lose","action":"no-go","sham":0,"trial_type":"pit-trial","trial_index":87,"time_elapsed":460660,"internal_node_id":"0.0-62.0","task_version":"battery-v0.2"},{"rune":"C","rune_set":"elianto","hex":"#f73b6a7A","correct":32,"choice":-1,"rt":-1,"accuracy":0,"outcome":"-10","keys":[],"total_keys":0,"block":1,"trial":62,"stimulus":5,"robot":3,"valence":"lose","action":"go","sham":0,"trial_type":"pit-trial","trial_index":88,"time_elapsed":464663,"internal_node_id":"0.0-63.0","task_version":"battery-v0.2"},{"rune":"T","rune_set":"elianto","hex":"#3366ff99","correct":-1,"choice":32,"rt":595.6599999917671,"accuracy":0,"outcome":"+1","keys":[2096.80999990087],"total_keys":1,"block":1,"trial":63,"stimulus":7,"robot":2,"valence":"win","action":"no-go","sham":0,"trial_type":"pit-trial","trial_index":89,"time_elapsed":467963,"internal_node_id":"0.0-64.0","task_version":"battery-v0.2"},{"rune":"Z","rune_set":"elianto","hex":"#3366ff99","correct":32,"choice":32,"rt":624.0299999481067,"accuracy":1,"outcome":"+1","keys":[2124.415000085719],"total_keys":1,"block":1,"trial":64,"stimulus":4,"robot":1,"valence":"win","action":"go","sham":1,"trial_type":"pit-trial","trial_index":90,"time_elapsed":471290,"internal_node_id":"0.0-65.0","task_version":"battery-v0.2"},{"rune":"T","rune_set":"elianto","hex":"#3366ff99","correct":-1,"choice":32,"rt":411.0299999592826,"accuracy":0,"outcome":"+10","keys":[1911.904999986291],"total_keys":1,"block":1,"trial":65,"stimulus":7,"robot":2,"valence":"win","action":"no-go","sham":1,"trial_type":"pit-trial","trial_index":91,"time_elapsed":474404,"internal_node_id":"0.0-66.0","task_version":"battery-v0.2"},{"rune":"C","rune_set":"elianto","hex":"#f73b6a7A","correct":32,"choice":32,"rt":678.6300000967458,"accuracy":1,"outcome":"-1","keys":[2179.820000077598],"total_keys":1,"block":1,"trial":66,"stimulus":5,"robot":3,"valence":"lose","action":"go","sham":0,"trial_type":"pit-trial","trial_index":92,"time_elapsed":477785,"internal_node_id":"0.0-67.0","task_version":"battery-v0.2"},{"rune":"B","rune_set":"elianto","hex":"#f73b6a7A","correct":-1,"choice":32,"rt":539.4549999618903,"accuracy":0,"outcome":"-10","keys":[2040.8850000239909],"total_keys":1,"block":1,"trial":67,"stimulus":6,"robot":4,"valence":"lose","action":"no-go","sham":0,"trial_type":"pit-trial","trial_index":93,"time_elapsed":481028,"internal_node_id":"0.0-68.0","task_version":"battery-v0.2"},{"rune":"Z","rune_set":"elianto","hex":"#3366ff99","correct":32,"choice":32,"rt":940.0900000473484,"accuracy":1,"outcome":"+10","keys":[2440.565000055358],"total_keys":1,"block":1,"trial":68,"stimulus":4,"robot":1,"valence":"win","action":"go","sham":0,"trial_type":"pit-trial","trial_index":94,"time_elapsed":484672,"internal_node_id":"0.0-69.0","task_version":"battery-v0.2"},{"rune":"C","rune_set":"elianto","hex":"#f73b6a7A","correct":32,"choice":32,"rt":616.8600000673905,"accuracy":1,"outcome":"-1","keys":[2117.2899999655783],"total_keys":1,"block":1,"trial":69,"stimulus":5,"robot":3,"valence":"lose","action":"go","sham":0,"trial_type":"pit-trial","trial_index":95,"time_elapsed":487991,"internal_node_id":"0.0-70.0","task_version":"battery-v0.2"},{"rune":"Z","rune_set":"elianto","hex":"#3366ff99","correct":32,"choice":-1,"rt":-1,"accuracy":0,"outcome":"+10","keys":[],"total_keys":0,"block":1,"trial":70,"stimulus":4,"robot":1,"valence":"win","action":"go","sham":1,"trial_type":"pit-trial","trial_index":96,"time_elapsed":491995,"internal_node_id":"0.0-71.0","task_version":"battery-v0.2"},{"rune":"B","rune_set":"elianto","hex":"#f73b6a7A","correct":-1,"choice":32,"rt":584.3549999408424,"accuracy":0,"outcome":"-10","keys":[2084.735000040382],"total_keys":1,"block":1,"trial":71,"stimulus":6,"robot":4,"valence":"lose","action":"no-go","sham":0,"trial_type":"pit-trial","trial_index":97,"time_elapsed":495281,"internal_node_id":"0.0-72.0","task_version":"battery-v0.2"},{"rune":"T","rune_set":"elianto","hex":"#3366ff99","correct":-1,"choice":32,"rt":779.880000045523,"accuracy":0,"outcome":"+1","keys":[2281.5150000387803],"total_keys":1,"block":1,"trial":72,"stimulus":7,"robot":2,"valence":"win","action":"no-go","sham":0,"trial_type":"pit-trial","trial_index":98,"time_elapsed":498765,"internal_node_id":"0.0-73.0","task_version":"battery-v0.2"},{"rune":"X","rune_set":"elianto","hex":"#f73b6a7A","correct":32,"choice":-1,"rt":-1,"accuracy":0,"outcome":"-1","keys":[],"total_keys":0,"block":1,"trial":73,"stimulus":8,"robot":3,"valence":"lose","action":"go","sham":1,"trial_type":"pit-trial","trial_index":99,"time_elapsed":502768,"internal_node_id":"0.0-74.0","task_version":"battery-v0.2"},{"rune":"B","rune_set":"elianto","hex":"#f73b6a7A","correct":-1,"choice":32,"rt":598.8349999533966,"accuracy":0,"outcome":"-10","keys":[2099.9949999386445],"total_keys":1,"block":1,"trial":74,"stimulus":6,"robot":4,"valence":"lose","action":"no-go","sham":0,"trial_type":"pit-trial","trial_index":100,"time_elapsed":506070,"internal_node_id":"0.0-75.0","task_version":"battery-v0.2"},{"rune":"T","rune_set":"elianto","hex":"#3366ff99","correct":-1,"choice":32,"rt":656.6950000124052,"accuracy":0,"outcome":"+10","keys":[2157.714999979362],"total_keys":1,"block":1,"trial":75,"stimulus":7,"robot":2,"valence":"win","action":"no-go","sham":1,"trial_type":"pit-trial","trial_index":101,"time_elapsed":509430,"internal_node_id":"0.0-76.0","task_version":"battery-v0.2"},{"rune":"Z","rune_set":"elianto","hex":"#3366ff99","correct":32,"choice":32,"rt":779.8099999781698,"accuracy":1,"outcome":"+10","keys":[2280.2900000242516],"total_keys":1,"block":1,"trial":76,"stimulus":4,"robot":1,"valence":"win","action":"go","sham":0,"trial_type":"pit-trial","trial_index":102,"time_elapsed":512913,"internal_node_id":"0.0-77.0","task_version":"battery-v0.2"},{"rune":"X","rune_set":"elianto","hex":"#f73b6a7A","correct":32,"choice":-1,"rt":-1,"accuracy":0,"outcome":"-10","keys":[],"total_keys":0,"block":1,"trial":77,"stimulus":8,"robot":3,"valence":"lose","action":"go","sham":0,"trial_type":"pit-trial","trial_index":103,"time_elapsed":516916,"internal_node_id":"0.0-78.0","task_version":"battery-v0.2"},{"rune":"B","rune_set":"elianto","hex":"#f73b6a7A","correct":-1,"choice":32,"rt":339.975000009872,"accuracy":0,"outcome":"-10","keys":[1841.719999909401],"total_keys":1,"block":1,"trial":78,"stimulus":6,"robot":4,"valence":"lose","action":"no-go","sham":0,"trial_type":"pit-trial","trial_index":104,"time_elapsed":519960,"internal_node_id":"0.0-79.0","task_version":"battery-v0.2"},{"rune":"Z","rune_set":"elianto","hex":"#3366ff99","correct":32,"choice":-1,"rt":-1,"accuracy":0,"outcome":"+1","keys":[],"total_keys":0,"block":1,"trial":79,"stimulus":4,"robot":1,"valence":"win","action":"go","sham":0,"trial_type":"pit-trial","trial_index":105,"time_elapsed":523964,"internal_node_id":"0.0-80.0","task_version":"battery-v0.2"},{"rune":"T","rune_set":"elianto","hex":"#3366ff99","correct":-1,"choice":32,"rt":920.4950000857934,"accuracy":0,"outcome":"+1","keys":[2421.130000031553],"total_keys":1,"block":1,"trial":80,"stimulus":7,"robot":2,"valence":"win","action":"no-go","sham":0,"trial_type":"pit-trial","trial_index":106,"time_elapsed":527587,"internal_node_id":"0.0-81.0","task_version":"battery-v0.2"},{"rune":"B","rune_set":"elianto","hex":"#f73b6a7A","correct":-1,"choice":32,"rt":833.9350000023842,"accuracy":0,"outcome":"-1","keys":[2335.2549999253824],"total_keys":1,"block":1,"trial":81,"stimulus":6,"robot":4,"valence":"lose","action":"no-go","sham":1,"trial_type":"pit-trial","trial_index":107,"time_elapsed":531125,"internal_node_id":"0.0-82.0","task_version":"battery-v0.2"},{"rune":"T","rune_set":"elianto","hex":"#3366ff99","correct":-1,"choice":-1,"rt":-1,"accuracy":1,"outcome":"+10","keys":[],"total_keys":0,"block":1,"trial":82,"stimulus":7,"robot":2,"valence":"win","action":"no-go","sham":0,"trial_type":"pit-trial","trial_index":108,"time_elapsed":535128,"internal_node_id":"0.0-83.0","task_version":"battery-v0.2"},{"rune":"X","rune_set":"elianto","hex":"#f73b6a7A","correct":32,"choice":-1,"rt":-1,"accuracy":0,"outcome":"-10","keys":[],"total_keys":0,"block":1,"trial":83,"stimulus":8,"robot":3,"valence":"lose","action":"go","sham":0,"trial_type":"pit-trial","trial_index":109,"time_elapsed":539131,"internal_node_id":"0.0-84.0","task_version":"battery-v0.2"},{"rune":"F","rune_set":"elianto","hex":"#f73b6a7A","correct":32,"choice":32,"rt":120.62499998137355,"accuracy":1,"outcome":"-1","keys":[1622.289999970235],"total_keys":1,"block":1,"trial":84,"stimulus":9,"robot":3,"valence":"lose","action":"go","sham":0,"trial_type":"pit-trial","trial_index":110,"time_elapsed":541956,"internal_node_id":"0.0-85.0","task_version":"battery-v0.2"},{"rune":"T","rune_set":"elianto","hex":"#3366ff99","correct":-1,"choice":-1,"rt":-1,"accuracy":1,"outcome":"+10","keys":[],"total_keys":0,"block":1,"trial":85,"stimulus":7,"robot":2,"valence":"win","action":"no-go","sham":0,"trial_type":"pit-trial","trial_index":111,"time_elapsed":545959,"internal_node_id":"0.0-86.0","task_version":"battery-v0.2"},{"rune":"F","rune_set":"elianto","hex":"#f73b6a7A","correct":32,"choice":-1,"rt":-1,"accuracy":0,"outcome":"-10","keys":[],"total_keys":0,"block":1,"trial":86,"stimulus":9,"robot":3,"valence":"lose","action":"go","sham":0,"trial_type":"pit-trial","trial_index":112,"time_elapsed":549962,"internal_node_id":"0.0-87.0","task_version":"battery-v0.2"},{"rune":"B","rune_set":"elianto","hex":"#f73b6a7A","correct":-1,"choice":32,"rt":679.7849999275059,"accuracy":0,"outcome":"-1","keys":[2180.3749999962747],"total_keys":1,"block":1,"trial":87,"stimulus":6,"robot":4,"valence":"lose","action":"no-go","sham":1,"trial_type":"pit-trial","trial_index":113,"time_elapsed":553344,"internal_node_id":"0.0-88.0","task_version":"battery-v0.2"},{"rune":"X","rune_set":"elianto","hex":"#f73b6a7A","correct":32,"choice":32,"rt":959.4649999635294,"accuracy":1,"outcome":"-1","keys":[2460.1449999026954],"total_keys":1,"block":1,"trial":88,"stimulus":8,"robot":3,"valence":"lose","action":"go","sham":0,"trial_type":"pit-trial","trial_index":114,"time_elapsed":557006,"internal_node_id":"0.0-89.0","task_version":"battery-v0.2"},{"rune":"X","rune_set":"elianto","hex":"#f73b6a7A","correct":32,"choice":32,"rt":749.5350000681356,"accuracy":1,"outcome":"-1","keys":[2250.4649999318644],"total_keys":1,"block":1,"trial":89,"stimulus":8,"robot":3,"valence":"lose","action":"go","sham":0,"trial_type":"pit-trial","trial_index":115,"time_elapsed":560458,"internal_node_id":"0.0-90.0","task_version":"battery-v0.2"},{"rune":"F","rune_set":"elianto","hex":"#f73b6a7A","correct":32,"choice":32,"rt":760.9899999806657,"accuracy":1,"outcome":"-1","keys":[2262.400000006892],"total_keys":1,"block":1,"trial":90,"stimulus":9,"robot":3,"valence":"lose","action":"go","sham":0,"trial_type":"pit-trial","trial_index":116,"time_elapsed":563923,"internal_node_id":"0.0-91.0","task_version":"battery-v0.2"},{"rune":"Q","rune_set":"elianto","hex":"#3366ff99","correct":-1,"choice":32,"rt":442.7000000141561,"accuracy":0,"outcome":"+10","keys":[1943.6449999921024],"total_keys":1,"block":1,"trial":91,"stimulus":11,"robot":2,"valence":"win","action":"no-go","sham":1,"trial_type":"pit-trial","trial_index":117,"time_elapsed":567069,"internal_node_id":"0.0-92.0","task_version":"battery-v0.2"},{"rune":"N","rune_set":"elianto","hex":"#f73b6a7A","correct":-1,"choice":-1,"rt":-1,"accuracy":1,"outcome":"-1","keys":[],"total_keys":0,"block":1,"trial":92,"stimulus":10,"robot":4,"valence":"lose","action":"no-go","sham":0,"trial_type":"pit-trial","trial_index":118,"time_elapsed":571072,"internal_node_id":"0.0-93.0","task_version":"battery-v0.2"},{"rune":"N","rune_set":"elianto","hex":"#f73b6a7A","correct":-1,"choice":32,"rt":796.1800000630319,"accuracy":0,"outcome":"-10","keys":[2297.135000000708],"total_keys":1,"block":1,"trial":93,"stimulus":10,"robot":4,"valence":"lose","action":"no-go","sham":0,"trial_type":"pit-trial","trial_index":119,"time_elapsed":574573,"internal_node_id":"0.0-94.0","task_version":"battery-v0.2"},{"rune":"F","rune_set":"elianto","hex":"#f73b6a7A","correct":32,"choice":-1,"rt":-1,"accuracy":0,"outcome":"-10","keys":[],"total_keys":0,"block":1,"trial":94,"stimulus":9,"robot":3,"valence":"lose","action":"go","sham":0,"trial_type":"pit-trial","trial_index":120,"time_elapsed":578576,"internal_node_id":"0.0-95.0","task_version":"battery-v0.2"},{"rune":"X","rune_set":"elianto","hex":"#f73b6a7A","correct":32,"choice":-1,"rt":-1,"accuracy":0,"outcome":"-10","keys":[],"total_keys":0,"block":1,"trial":95,"stimulus":8,"robot":3,"valence":"lose","action":"go","sham":0,"trial_type":"pit-trial","trial_index":121,"time_elapsed":582579,"internal_node_id":"0.0-96.0","task_version":"battery-v0.2"},{"rune":"Q","rune_set":"elianto","hex":"#3366ff99","correct":-1,"choice":32,"rt":564.3900000723079,"accuracy":0,"outcome":"+1","keys":[1227.9149999376386,2065.4099999228492],"total_keys":2,"block":1,"trial":96,"stimulus":11,"robot":2,"valence":"win","action":"no-go","sham":0,"trial_type":"pit-trial","trial_index":122,"time_elapsed":585847,"internal_node_id":"0.0-97.0","task_version":"battery-v0.2"},{"rune":"F","rune_set":"elianto","hex":"#f73b6a7A","correct":32,"choice":-1,"rt":-1,"accuracy":0,"outcome":"-10","keys":[],"total_keys":0,"block":1,"trial":97,"stimulus":9,"robot":3,"valence":"lose","action":"go","sham":0,"trial_type":"pit-trial","trial_index":123,"time_elapsed":589851,"internal_node_id":"0.0-98.0","task_version":"battery-v0.2"},{"rune":"X","rune_set":"elianto","hex":"#f73b6a7A","correct":32,"choice":32,"rt":942.5000000046566,"accuracy":1,"outcome":"-1","keys":[2443.7049999833107],"total_keys":1,"block":1,"trial":98,"stimulus":8,"robot":3,"valence":"lose","action":"go","sham":0,"trial_type":"pit-trial","trial_index":124,"time_elapsed":593496,"internal_node_id":"0.0-99.0","task_version":"battery-v0.2"},{"rune":"N","rune_set":"elianto","hex":"#f73b6a7A","correct":-1,"choice":32,"rt":1179.3799999868497,"accuracy":0,"outcome":"-10","keys":[2680.670000030659],"total_keys":1,"block":1,"trial":99,"stimulus":10,"robot":4,"valence":"lose","action":"no-go","sham":0,"trial_type":"pit-trial","trial_index":125,"time_elapsed":597380,"internal_node_id":"0.0-100.0","task_version":"battery-v0.2"},{"rune":"Q","rune_set":"elianto","hex":"#3366ff99","correct":-1,"choice":-1,"rt":-1,"accuracy":1,"outcome":"+10","keys":[],"total_keys":0,"block":1,"trial":100,"stimulus":11,"robot":2,"valence":"win","action":"no-go","sham":0,"trial_type":"pit-trial","trial_index":126,"time_elapsed":601384,"internal_node_id":"0.0-101.0","task_version":"battery-v0.2"},{"rune":"X","rune_set":"elianto","hex":"#f73b6a7A","correct":32,"choice":-1,"rt":-1,"accuracy":0,"outcome":"-10","keys":[],"total_keys":0,"block":1,"trial":101,"stimulus":8,"robot":3,"valence":"lose","action":"go","sham":0,"trial_type":"pit-trial","trial_index":127,"time_elapsed":605387,"internal_node_id":"0.0-102.0","task_version":"battery-v0.2"},{"rune":"N","rune_set":"elianto","hex":"#f73b6a7A","correct":-1,"choice":-1,"rt":-1,"accuracy":1,"outcome":"-10","keys":[],"total_keys":0,"block":1,"trial":102,"stimulus":10,"robot":4,"valence":"lose","action":"no-go","sham":1,"trial_type":"pit-trial","trial_index":128,"time_elapsed":609390,"internal_node_id":"0.0-103.0","task_version":"battery-v0.2"},{"rune":"F","rune_set":"elianto","hex":"#f73b6a7A","correct":32,"choice":32,"rt":725.0350000103936,"accuracy":1,"outcome":"-1","keys":[2226.4000000432134],"total_keys":1,"block":1,"trial":103,"stimulus":9,"robot":3,"valence":"lose","action":"go","sham":0,"trial_type":"pit-trial","trial_index":129,"time_elapsed":612818,"internal_node_id":"0.0-104.0","task_version":"battery-v0.2"},{"rune":"Q","rune_set":"elianto","hex":"#3366ff99","correct":-1,"choice":-1,"rt":-1,"accuracy":1,"outcome":"+10","keys":[3831.3400000333786],"total_keys":1,"block":1,"trial":104,"stimulus":11,"robot":2,"valence":"win","action":"no-go","sham":0,"trial_type":"pit-trial","trial_index":130,"time_elapsed":616822,"internal_node_id":"0.0-105.0","task_version":"battery-v0.2"},{"rune":"X","rune_set":"elianto","hex":"#f73b6a7A","correct":32,"choice":32,"rt":643.7000000150874,"accuracy":1,"outcome":"-1","keys":[2145.6499999621883],"total_keys":1,"block":1,"trial":105,"stimulus":8,"robot":3,"valence":"lose","action":"go","sham":0,"trial_type":"pit-trial","trial_index":131,"time_elapsed":620170,"internal_node_id":"0.0-106.0","task_version":"battery-v0.2"},{"rune":"F","rune_set":"elianto","hex":"#f73b6a7A","correct":32,"choice":32,"rt":25.35500004887581,"accuracy":1,"outcome":"-1","keys":[1525.9249999653548],"total_keys":1,"block":1,"trial":106,"stimulus":9,"robot":3,"valence":"lose","action":"go","sham":0,"trial_type":"pit-trial","trial_index":132,"time_elapsed":622899,"internal_node_id":"0.0-107.0","task_version":"battery-v0.2"},{"rune":"Q","rune_set":"elianto","hex":"#3366ff99","correct":-1,"choice":32,"rt":584.4550000037998,"accuracy":0,"outcome":"+1","keys":[2084.480000077747],"total_keys":1,"block":1,"trial":107,"stimulus":11,"robot":2,"valence":"win","action":"no-go","sham":0,"trial_type":"pit-trial","trial_index":133,"time_elapsed":626186,"internal_node_id":"0.0-108.0","task_version":"battery-v0.2"},{"rune":"N","rune_set":"elianto","hex":"#f73b6a7A","correct":-1,"choice":32,"rt":436.32500001695007,"accuracy":0,"outcome":"-10","keys":[1937.789999996312],"total_keys":1,"block":1,"trial":108,"stimulus":10,"robot":4,"valence":"lose","action":"no-go","sham":0,"trial_type":"pit-trial","trial_index":134,"time_elapsed":629327,"internal_node_id":"0.0-109.0","task_version":"battery-v0.2"},{"rune":"X","rune_set":"elianto","hex":"#f73b6a7A","correct":32,"choice":-1,"rt":-1,"accuracy":0,"outcome":"-10","keys":[],"total_keys":0,"block":1,"trial":109,"stimulus":8,"robot":3,"valence":"lose","action":"go","sham":0,"trial_type":"pit-trial","trial_index":135,"time_elapsed":633330,"internal_node_id":"0.0-110.0","task_version":"battery-v0.2"},{"rune":"N","rune_set":"elianto","hex":"#f73b6a7A","correct":-1,"choice":32,"rt":656.8350000306964,"accuracy":0,"outcome":"-10","keys":[2157.935000024736],"total_keys":1,"block":1,"trial":110,"stimulus":10,"robot":4,"valence":"lose","action":"no-go","sham":0,"trial_type":"pit-trial","trial_index":136,"time_elapsed":636689,"internal_node_id":"0.0-111.0","task_version":"battery-v0.2"},{"rune":"Q","rune_set":"elianto","hex":"#3366ff99","correct":-1,"choice":32,"rt":677.9500000411645,"accuracy":0,"outcome":"+1","keys":[2178.7650000769645],"total_keys":1,"block":1,"trial":111,"stimulus":11,"robot":2,"valence":"win","action":"no-go","sham":0,"trial_type":"pit-trial","trial_index":137,"time_elapsed":640070,"internal_node_id":"0.0-112.0","task_version":"battery-v0.2"},{"rune":"F","rune_set":"elianto","hex":"#f73b6a7A","correct":32,"choice":32,"rt":957.484999904409,"accuracy":1,"outcome":"-10","keys":[2457.975000026636],"total_keys":1,"block":1,"trial":112,"stimulus":9,"robot":3,"valence":"lose","action":"go","sham":1,"trial_type":"pit-trial","trial_index":138,"time_elapsed":643730,"internal_node_id":"0.0-113.0","task_version":"battery-v0.2"},{"rune":"Q","rune_set":"elianto","hex":"#3366ff99","correct":-1,"choice":-1,"rt":-1,"accuracy":1,"outcome":"+10","keys":[],"total_keys":0,"block":1,"trial":113,"stimulus":11,"robot":2,"valence":"win","action":"no-go","sham":0,"trial_type":"pit-trial","trial_index":139,"time_elapsed":647733,"internal_node_id":"0.0-114.0","task_version":"battery-v0.2"},{"rune":"N","rune_set":"elianto","hex":"#f73b6a7A","correct":-1,"choice":32,"rt":832.8700000420213,"accuracy":0,"outcome":"-10","keys":[2332.9199999570847],"total_keys":1,"block":1,"trial":114,"stimulus":10,"robot":4,"valence":"lose","action":"no-go","sham":0,"trial_type":"pit-trial","trial_index":140,"time_elapsed":651268,"internal_node_id":"0.0-115.0","task_version":"battery-v0.2"},{"rune":"F","rune_set":"elianto","hex":"#f73b6a7A","correct":32,"choice":-1,"rt":-1,"accuracy":0,"outcome":"-1","keys":[],"total_keys":0,"block":1,"trial":115,"stimulus":9,"robot":3,"valence":"lose","action":"go","sham":1,"trial_type":"pit-trial","trial_index":141,"time_elapsed":655270,"internal_node_id":"0.0-116.0","task_version":"battery-v0.2"},{"rune":"X","rune_set":"elianto","hex":"#f73b6a7A","correct":32,"choice":-1,"rt":-1,"accuracy":0,"outcome":"-10","keys":[],"total_keys":0,"block":1,"trial":116,"stimulus":8,"robot":3,"valence":"lose","action":"go","sham":0,"trial_type":"pit-trial","trial_index":142,"time_elapsed":659273,"internal_node_id":"0.0-117.0","task_version":"battery-v0.2"},{"rune":"X","rune_set":"elianto","hex":"#f73b6a7A","correct":32,"choice":32,"rt":402.91499998420477,"accuracy":1,"outcome":"-1","keys":[1903.954999987036],"total_keys":1,"block":1,"trial":117,"stimulus":8,"robot":3,"valence":"lose","action":"go","sham":0,"trial_type":"pit-trial","trial_index":143,"time_elapsed":662380,"internal_node_id":"0.0-118.0","task_version":"battery-v0.2"},{"rune":"Q","rune_set":"elianto","hex":"#3366ff99","correct":-1,"choice":-1,"rt":-1,"accuracy":1,"outcome":"+1","keys":[],"total_keys":0,"block":1,"trial":118,"stimulus":11,"robot":2,"valence":"win","action":"no-go","sham":1,"trial_type":"pit-trial","trial_index":144,"time_elapsed":666385,"internal_node_id":"0.0-119.0","task_version":"battery-v0.2"},{"rune":"N","rune_set":"elianto","hex":"#f73b6a7A","correct":-1,"choice":32,"rt":528.7949999328703,"accuracy":0,"outcome":"-10","keys":[2029.8000000184402],"total_keys":1,"block":1,"trial":119,"stimulus":10,"robot":4,"valence":"lose","action":"no-go","sham":0,"trial_type":"pit-trial","trial_index":145,"time_elapsed":669618,"internal_node_id":"0.0-120.0","task_version":"battery-v0.2"},{"rune":"F","rune_set":"elianto","hex":"#f73b6a7A","correct":32,"choice":-1,"rt":-1,"accuracy":0,"outcome":"-10","keys":[],"total_keys":0,"block":1,"trial":120,"stimulus":9,"robot":3,"valence":"lose","action":"go","sham":0,"trial_type":"pit-trial","trial_index":146,"time_elapsed":673620,"internal_node_id":"0.0-121.0","task_version":"battery-v0.2"},{"view_history":"[{\"page_index\":0,\"viewing_time\":129635.5550000444},{\"page_index\":1,\"viewing_time\":2211.7299999808893}]","rt":131847.55000006407,"trial_type":"pit-instructions","trial_index":147,"time_elapsed":805470,"internal_node_id":"0.0-122.0","task_version":"battery-v0.2"},{"rune":"A","rune_set":"elianto","hex":"#3366ff99","correct":32,"choice":32,"rt":828.4700000658631,"accuracy":1,"outcome":"+1","keys":[2329.0450000204146],"total_keys":1,"block":2,"trial":121,"stimulus":2,"robot":1,"valence":"win","action":"go","sham":1,"trial_type":"pit-trial","trial_index":148,"time_elapsed":809002,"internal_node_id":"0.0-123.0","task_version":"battery-v0.2"},{"rune":"U","rune_set":"elianto","hex":"#f73b6a7A","correct":-1,"choice":32,"rt":841.3949999958277,"accuracy":0,"outcome":"-1","keys":[2341.4649999467656],"total_keys":1,"block":2,"trial":122,"stimulus":0,"robot":4,"valence":"lose","action":"no-go","sham":1,"trial_type":"pit-trial","trial_index":149,"time_elapsed":812545,"internal_node_id":"0.0-124.0","task_version":"battery-v0.2"},{"rune":"G","rune_set":"elianto","hex":"#3366ff99","correct":-1,"choice":32,"rt":543.1099999696016,"accuracy":0,"outcome":"+1","keys":[2044.1400000127032],"total_keys":1,"block":2,"trial":123,"stimulus":3,"robot":2,"valence":"win","action":"no-go","sham":0,"trial_type":"pit-trial","trial_index":150,"time_elapsed":815792,"internal_node_id":"0.0-125.0","task_version":"battery-v0.2"},{"rune":"L","rune_set":"elianto","hex":"#f73b6a7A","correct":-1,"choice":32,"rt":783.9800000656396,"accuracy":0,"outcome":"-10","keys":[2285.5599999893457],"total_keys":1,"block":2,"trial":124,"stimulus":1,"robot":4,"valence":"lose","action":"no-go","sham":0,"trial_type":"pit-trial","trial_index":151,"time_elapsed":819280,"internal_node_id":"0.0-126.0","task_version":"battery-v0.2"},{"rune":"U","rune_set":"elianto","hex":"#f73b6a7A","correct":-1,"choice":32,"rt":1248.6600000411272,"accuracy":0,"outcome":"-10","keys":[2749.394999933429],"total_keys":1,"block":2,"trial":125,"stimulus":0,"robot":4,"valence":"lose","action":"no-go","sham":0,"trial_type":"pit-trial","trial_index":152,"time_elapsed":823231,"internal_node_id":"0.0-127.0","task_version":"battery-v0.2"},{"rune":"G","rune_set":"elianto","hex":"#3366ff99","correct":-1,"choice":32,"rt":764.7349999751896,"accuracy":0,"outcome":"+10","keys":[2266.1749999970198],"total_keys":1,"block":2,"trial":126,"stimulus":3,"robot":2,"valence":"win","action":"no-go","sham":1,"trial_type":"pit-trial","trial_index":153,"time_elapsed":826699,"internal_node_id":"0.0-128.0","task_version":"battery-v0.2"},{"rune":"A","rune_set":"elianto","hex":"#3366ff99","correct":32,"choice":32,"rt":563.6100000701845,"accuracy":1,"outcome":"+10","keys":[2064.1499999910593],"total_keys":1,"block":2,"trial":127,"stimulus":2,"robot":1,"valence":"win","action":"go","sham":0,"trial_type":"pit-trial","trial_index":154,"time_elapsed":829966,"internal_node_id":"0.0-129.0","task_version":"battery-v0.2"},{"rune":"L","rune_set":"elianto","hex":"#f73b6a7A","correct":-1,"choice":-1,"rt":-1,"accuracy":1,"outcome":"-1","keys":[],"total_keys":0,"block":2,"trial":128,"stimulus":1,"robot":4,"valence":"lose","action":"no-go","sham":0,"trial_type":"pit-trial","trial_index":155,"time_elapsed":833969,"internal_node_id":"0.0-130.0","task_version":"battery-v0.2"},{"rune":"G","rune_set":"elianto","hex":"#3366ff99","correct":-1,"choice":32,"rt":871.7450000112876,"accuracy":0,"outcome":"+10","keys":[2372.609999962151],"total_keys":1,"block":2,"trial":129,"stimulus":3,"robot":2,"valence":"win","action":"no-go","sham":1,"trial_type":"pit-trial","trial_index":156,"time_elapsed":837543,"internal_node_id":"0.0-131.0","task_version":"battery-v0.2"},{"rune":"U","rune_set":"elianto","hex":"#f73b6a7A","correct":-1,"choice":32,"rt":589.075000025332,"accuracy":0,"outcome":"-10","keys":[2090.1799999410287],"total_keys":1,"block":2,"trial":130,"stimulus":0,"robot":4,"valence":"lose","action":"no-go","sham":0,"trial_type":"pit-trial","trial_index":157,"time_elapsed":840835,"internal_node_id":"0.0-132.0","task_version":"battery-v0.2"},{"rune":"L","rune_set":"elianto","hex":"#f73b6a7A","correct":-1,"choice":32,"rt":497.91000003460795,"accuracy":0,"outcome":"-10","keys":[1998.259999905713],"total_keys":1,"block":2,"trial":131,"stimulus":1,"robot":4,"valence":"lose","action":"no-go","sham":0,"trial_type":"pit-trial","trial_index":158,"time_elapsed":844035,"internal_node_id":"0.0-133.0","task_version":"battery-v0.2"},{"rune":"A","rune_set":"elianto","hex":"#3366ff99","correct":32,"choice":32,"rt":765.4350000666454,"accuracy":1,"outcome":"+10","keys":[2266.829999978654],"total_keys":1,"block":2,"trial":132,"stimulus":2,"robot":1,"valence":"win","action":"go","sham":0,"trial_type":"pit-trial","trial_index":159,"time_elapsed":847505,"internal_node_id":"0.0-134.0","task_version":"battery-v0.2"},{"rune":"U","rune_set":"elianto","hex":"#f73b6a7A","correct":-1,"choice":32,"rt":1115.7200000016019,"accuracy":0,"outcome":"-10","keys":[2615.9950000001118],"total_keys":1,"block":2,"trial":133,"stimulus":0,"robot":4,"valence":"lose","action":"no-go","sham":0,"trial_type":"pit-trial","trial_index":160,"time_elapsed":851324,"internal_node_id":"0.0-135.0","task_version":"battery-v0.2"},{"rune":"G","rune_set":"elianto","hex":"#3366ff99","correct":-1,"choice":32,"rt":556.5900000510737,"accuracy":0,"outcome":"+10","keys":[2056.775000062771],"total_keys":1,"block":2,"trial":134,"stimulus":3,"robot":2,"valence":"win","action":"no-go","sham":1,"trial_type":"pit-trial","trial_index":161,"time_elapsed":854582,"internal_node_id":"0.0-136.0","task_version":"battery-v0.2"},{"rune":"L","rune_set":"elianto","hex":"#f73b6a7A","correct":-1,"choice":-1,"rt":-1,"accuracy":1,"outcome":"-10","keys":[2854.76999997627],"total_keys":1,"block":2,"trial":135,"stimulus":1,"robot":4,"valence":"lose","action":"no-go","sham":1,"trial_type":"pit-trial","trial_index":162,"time_elapsed":858586,"internal_node_id":"0.0-137.0","task_version":"battery-v0.2"},{"rune":"A","rune_set":"elianto","hex":"#3366ff99","correct":32,"choice":32,"rt":317.0300000347197,"accuracy":1,"outcome":"+10","keys":[1818.5650000814348],"total_keys":1,"block":2,"trial":136,"stimulus":2,"robot":1,"valence":"win","action":"go","sham":0,"trial_type":"pit-trial","trial_index":163,"time_elapsed":861608,"internal_node_id":"0.0-138.0","task_version":"battery-v0.2"},{"rune":"L","rune_set":"elianto","hex":"#f73b6a7A","correct":-1,"choice":32,"rt":779.6200000448152,"accuracy":0,"outcome":"-10","keys":[1368.9950000261888,2280.8400000212714],"total_keys":2,"block":2,"trial":137,"stimulus":1,"robot":4,"valence":"lose","action":"no-go","sham":0,"trial_type":"pit-trial","trial_index":164,"time_elapsed":865091,"internal_node_id":"0.0-139.0","task_version":"battery-v0.2"},{"rune":"G","rune_set":"elianto","hex":"#3366ff99","correct":-1,"choice":32,"rt":636.519999941811,"accuracy":0,"outcome":"+1","keys":[2137.19499995932],"total_keys":1,"block":2,"trial":138,"stimulus":3,"robot":2,"valence":"win","action":"no-go","sham":0,"trial_type":"pit-trial","trial_index":165,"time_elapsed":868431,"internal_node_id":"0.0-140.0","task_version":"battery-v0.2"},{"rune":"A","rune_set":"elianto","hex":"#3366ff99","correct":32,"choice":32,"rt":445.1799999224022,"accuracy":1,"outcome":"+10","keys":[1946.845000027679],"total_keys":1,"block":2,"trial":139,"stimulus":2,"robot":1,"valence":"win","action":"go","sham":0,"trial_type":"pit-trial","trial_index":166,"time_elapsed":871581,"internal_node_id":"0.0-141.0","task_version":"battery-v0.2"},{"rune":"U","rune_set":"elianto","hex":"#f73b6a7A","correct":-1,"choice":-1,"rt":-1,"accuracy":1,"outcome":"-1","keys":[],"total_keys":0,"block":2,"trial":140,"stimulus":0,"robot":4,"valence":"lose","action":"no-go","sham":0,"trial_type":"pit-trial","trial_index":167,"time_elapsed":875584,"internal_node_id":"0.0-142.0","task_version":"battery-v0.2"},{"rune":"L","rune_set":"elianto","hex":"#f73b6a7A","correct":-1,"choice":32,"rt":424.52500003855675,"accuracy":0,"outcome":"-10","keys":[1924.5750000700355],"total_keys":1,"block":2,"trial":141,"stimulus":1,"robot":4,"valence":"lose","action":"no-go","sham":0,"trial_type":"pit-trial","trial_index":168,"time_elapsed":878712,"internal_node_id":"0.0-143.0","task_version":"battery-v0.2"},{"rune":"G","rune_set":"elianto","hex":"#3366ff99","correct":-1,"choice":32,"rt":604.1699999477714,"accuracy":0,"outcome":"+1","keys":[2105.1500000758097],"total_keys":1,"block":2,"trial":142,"stimulus":3,"robot":2,"valence":"win","action":"no-go","sham":0,"trial_type":"pit-trial","trial_index":169,"time_elapsed":882019,"internal_node_id":"0.0-144.0","task_version":"battery-v0.2"},{"rune":"U","rune_set":"elianto","hex":"#f73b6a7A","correct":-1,"choice":-1,"rt":-1,"accuracy":1,"outcome":"-10","keys":[],"total_keys":0,"block":2,"trial":143,"stimulus":0,"robot":4,"valence":"lose","action":"no-go","sham":1,"trial_type":"pit-trial","trial_index":170,"time_elapsed":886023,"internal_node_id":"0.0-145.0","task_version":"battery-v0.2"},{"rune":"A","rune_set":"elianto","hex":"#3366ff99","correct":32,"choice":-1,"rt":-1,"accuracy":0,"outcome":"+1","keys":[],"total_keys":0,"block":2,"trial":144,"stimulus":2,"robot":1,"valence":"win","action":"go","sham":0,"trial_type":"pit-trial","trial_index":171,"time_elapsed":890027,"internal_node_id":"0.0-146.0","task_version":"battery-v0.2"},{"rune":"A","rune_set":"elianto","hex":"#3366ff99","correct":32,"choice":-1,"rt":-1,"accuracy":0,"outcome":"+1","keys":[],"total_keys":0,"block":2,"trial":145,"stimulus":2,"robot":1,"valence":"win","action":"go","sham":0,"trial_type":"pit-trial","trial_index":172,"time_elapsed":894032,"internal_node_id":"0.0-147.0","task_version":"battery-v0.2"},{"rune":"G","rune_set":"elianto","hex":"#3366ff99","correct":-1,"choice":-1,"rt":-1,"accuracy":1,"outcome":"+10","keys":[],"total_keys":0,"block":2,"trial":146,"stimulus":3,"robot":2,"valence":"win","action":"no-go","sham":0,"trial_type":"pit-trial","trial_index":173,"time_elapsed":898035,"internal_node_id":"0.0-148.0","task_version":"battery-v0.2"},{"rune":"L","rune_set":"elianto","hex":"#f73b6a7A","correct":-1,"choice":-1,"rt":-1,"accuracy":1,"outcome":"-10","keys":[],"total_keys":0,"block":2,"trial":147,"stimulus":1,"robot":4,"valence":"lose","action":"no-go","sham":1,"trial_type":"pit-trial","trial_index":174,"time_elapsed":902040,"internal_node_id":"0.0-149.0","task_version":"battery-v0.2"},{"rune":"U","rune_set":"elianto","hex":"#f73b6a7A","correct":-1,"choice":-1,"rt":-1,"accuracy":1,"outcome":"-1","keys":[],"total_keys":0,"block":2,"trial":148,"stimulus":0,"robot":4,"valence":"lose","action":"no-go","sham":0,"trial_type":"pit-trial","trial_index":175,"time_elapsed":906044,"internal_node_id":"0.0-150.0","task_version":"battery-v0.2"},{"rune":"G","rune_set":"elianto","hex":"#3366ff99","correct":-1,"choice":-1,"rt":-1,"accuracy":1,"outcome":"+1","keys":[],"total_keys":0,"block":2,"trial":149,"stimulus":3,"robot":2,"valence":"win","action":"no-go","sham":1,"trial_type":"pit-trial","trial_index":176,"time_elapsed":910047,"internal_node_id":"0.0-151.0","task_version":"battery-v0.2"},{"rune":"A","rune_set":"elianto","hex":"#3366ff99","correct":32,"choice":-1,"rt":-1,"accuracy":0,"outcome":"+1","keys":[],"total_keys":0,"block":2,"trial":150,"stimulus":2,"robot":1,"valence":"win","action":"go","sham":0,"trial_type":"pit-trial","trial_index":177,"time_elapsed":914051,"internal_node_id":"0.0-152.0","task_version":"battery-v0.2"},{"rune":"U","rune_set":"elianto","hex":"#f73b6a7A","correct":-1,"choice":-1,"rt":-1,"accuracy":1,"outcome":"-1","keys":[],"total_keys":0,"block":2,"trial":151,"stimulus":0,"robot":4,"valence":"lose","action":"no-go","sham":0,"trial_type":"pit-trial","trial_index":178,"time_elapsed":918055,"internal_node_id":"0.0-153.0","task_version":"battery-v0.2"},{"rune":"L","rune_set":"elianto","hex":"#f73b6a7A","correct":-1,"choice":-1,"rt":-1,"accuracy":1,"outcome":"-1","keys":[],"total_keys":0,"block":2,"trial":152,"stimulus":1,"robot":4,"valence":"lose","action":"no-go","sham":0,"trial_type":"pit-trial","trial_index":179,"time_elapsed":922058,"internal_node_id":"0.0-154.0","task_version":"battery-v0.2"},{"rune":"U","rune_set":"elianto","hex":"#f73b6a7A","correct":-1,"choice":32,"rt":415.1749999728054,"accuracy":0,"outcome":"-10","keys":[1178.1300000147894,1915.7150000100955],"total_keys":2,"block":2,"trial":153,"stimulus":0,"robot":4,"valence":"lose","action":"no-go","sham":0,"trial_type":"pit-trial","trial_index":180,"time_elapsed":925176,"internal_node_id":"0.0-155.0","task_version":"battery-v0.2"},{"rune":"A","rune_set":"elianto","hex":"#3366ff99","correct":32,"choice":-1,"rt":-1,"accuracy":0,"outcome":"+1","keys":[],"total_keys":0,"block":2,"trial":154,"stimulus":2,"robot":1,"valence":"win","action":"go","sham":0,"trial_type":"pit-trial","trial_index":181,"time_elapsed":929180,"internal_node_id":"0.0-156.0","task_version":"battery-v0.2"},{"rune":"G","rune_set":"elianto","hex":"#3366ff99","correct":-1,"choice":-1,"rt":-1,"accuracy":1,"outcome":"+10","keys":[],"total_keys":0,"block":2,"trial":155,"stimulus":3,"robot":2,"valence":"win","action":"no-go","sham":0,"trial_type":"pit-trial","trial_index":182,"time_elapsed":933184,"internal_node_id":"0.0-157.0","task_version":"battery-v0.2"},{"rune":"P","rune_set":"elianto","hex":"#f73b6a7A","correct":32,"choice":-1,"rt":-1,"accuracy":0,"outcome":"-10","keys":[],"total_keys":0,"block":2,"trial":156,"stimulus":4,"robot":3,"valence":"lose","action":"go","sham":0,"trial_type":"pit-trial","trial_index":183,"time_elapsed":937187,"internal_node_id":"0.0-158.0","task_version":"battery-v0.2"},{"rune":"U","rune_set":"elianto","hex":"#f73b6a7A","correct":-1,"choice":-1,"rt":-1,"accuracy":1,"outcome":"-1","keys":[],"total_keys":0,"block":2,"trial":157,"stimulus":0,"robot":4,"valence":"lose","action":"no-go","sham":0,"trial_type":"pit-trial","trial_index":184,"time_elapsed":941191,"internal_node_id":"0.0-159.0","task_version":"battery-v0.2"},{"rune":"A","rune_set":"elianto","hex":"#3366ff99","correct":32,"choice":-1,"rt":-1,"accuracy":0,"outcome":"+1","keys":[],"total_keys":0,"block":2,"trial":158,"stimulus":2,"robot":1,"valence":"win","action":"go","sham":0,"trial_type":"pit-trial","trial_index":185,"time_elapsed":945193,"internal_node_id":"0.0-160.0","task_version":"battery-v0.2"},{"rune":"P","rune_set":"elianto","hex":"#f73b6a7A","correct":32,"choice":-1,"rt":-1,"accuracy":0,"outcome":"-10","keys":[],"total_keys":0,"block":2,"trial":159,"stimulus":4,"robot":3,"valence":"lose","action":"go","sham":0,"trial_type":"pit-trial","trial_index":186,"time_elapsed":949198,"internal_node_id":"0.0-161.0","task_version":"battery-v0.2"},{"rune":"G","rune_set":"elianto","hex":"#3366ff99","correct":-1,"choice":-1,"rt":-1,"accuracy":1,"outcome":"+10","keys":[],"total_keys":0,"block":2,"trial":160,"stimulus":3,"robot":2,"valence":"win","action":"no-go","sham":0,"trial_type":"pit-trial","trial_index":187,"time_elapsed":953200,"internal_node_id":"0.0-162.0","task_version":"battery-v0.2"},{"rune":"W","rune_set":"elianto","hex":"#3366ff99","correct":32,"choice":-1,"rt":-1,"accuracy":0,"outcome":"+1","keys":[],"total_keys":0,"block":2,"trial":161,"stimulus":6,"robot":1,"valence":"win","action":"go","sham":0,"trial_type":"pit-trial","trial_index":188,"time_elapsed":957205,"internal_node_id":"0.0-163.0","task_version":"battery-v0.2"},{"rune":"S","rune_set":"elianto","hex":"#3366ff99","correct":-1,"choice":-1,"rt":-1,"accuracy":1,"outcome":"+10","keys":[],"total_keys":0,"block":2,"trial":162,"stimulus":5,"robot":2,"valence":"win","action":"no-go","sham":0,"trial_type":"pit-trial","trial_index":189,"time_elapsed":961208,"internal_node_id":"0.0-164.0","task_version":"battery-v0.2"},{"rune":"U","rune_set":"elianto","hex":"#f73b6a7A","correct":-1,"choice":32,"rt":769.5300000486895,"accuracy":0,"outcome":"-10","keys":[2270.9199999226257],"total_keys":1,"block":2,"trial":163,"stimulus":0,"robot":4,"valence":"lose","action":"no-go","sham":0,"trial_type":"pit-trial","trial_index":190,"time_elapsed":964682,"internal_node_id":"0.0-165.0","task_version":"battery-v0.2"},{"rune":"P","rune_set":"elianto","hex":"#f73b6a7A","correct":32,"choice":32,"rt":763.0949999438599,"accuracy":1,"outcome":"-1","keys":[2263.5199999203905],"total_keys":1,"block":2,"trial":164,"stimulus":4,"robot":3,"valence":"lose","action":"go","sham":0,"trial_type":"pit-trial","trial_index":191,"time_elapsed":968147,"internal_node_id":"0.0-166.0","task_version":"battery-v0.2"},{"rune":"P","rune_set":"elianto","hex":"#f73b6a7A","correct":32,"choice":32,"rt":575.855000060983,"accuracy":1,"outcome":"-1","keys":[2077.1800000220537],"total_keys":1,"block":2,"trial":165,"stimulus":4,"robot":3,"valence":"lose","action":"go","sham":0,"trial_type":"pit-trial","trial_index":192,"time_elapsed":971428,"internal_node_id":"0.0-167.0","task_version":"battery-v0.2"},{"rune":"S","rune_set":"elianto","hex":"#3366ff99","correct":-1,"choice":32,"rt":369.83999994117767,"accuracy":0,"outcome":"+10","keys":[1870.905000017956],"total_keys":1,"block":2,"trial":166,"stimulus":5,"robot":2,"valence":"win","action":"no-go","sham":1,"trial_type":"pit-trial","trial_index":193,"time_elapsed":974501,"internal_node_id":"0.0-168.0","task_version":"battery-v0.2"},{"rune":"W","rune_set":"elianto","hex":"#3366ff99","correct":32,"choice":32,"rt":536.8749999906868,"accuracy":1,"outcome":"+10","keys":[2037.694999948144],"total_keys":1,"block":2,"trial":167,"stimulus":6,"robot":1,"valence":"win","action":"go","sham":0,"trial_type":"pit-trial","trial_index":194,"time_elapsed":977741,"internal_node_id":"0.0-169.0","task_version":"battery-v0.2"},{"rune":"U","rune_set":"elianto","hex":"#f73b6a7A","correct":-1,"choice":32,"rt":451.7950000008568,"accuracy":0,"outcome":"-10","keys":[1456.0650000348687,1953.3900000387803],"total_keys":2,"block":2,"trial":168,"stimulus":0,"robot":4,"valence":"lose","action":"no-go","sham":0,"trial_type":"pit-trial","trial_index":195,"time_elapsed":980896,"internal_node_id":"0.0-170.0","task_version":"battery-v0.2"},{"rune":"W","rune_set":"elianto","hex":"#3366ff99","correct":32,"choice":32,"rt":513.8150000711903,"accuracy":1,"outcome":"+10","keys":[2014.309999998659],"total_keys":1,"block":2,"trial":169,"stimulus":6,"robot":1,"valence":"win","action":"go","sham":0,"trial_type":"pit-trial","trial_index":196,"time_elapsed":984114,"internal_node_id":"0.0-171.0","task_version":"battery-v0.2"},{"rune":"E","rune_set":"elianto","hex":"#f73b6a7A","correct":-1,"choice":32,"rt":208.78999994602054,"accuracy":0,"outcome":"-10","keys":[1709.6449999371544],"total_keys":1,"block":2,"trial":170,"stimulus":7,"robot":4,"valence":"lose","action":"no-go","sham":0,"trial_type":"pit-trial","trial_index":197,"time_elapsed":987026,"internal_node_id":"0.0-172.0","task_version":"battery-v0.2"},{"rune":"P","rune_set":"elianto","hex":"#f73b6a7A","correct":32,"choice":32,"rt":335.9949999721721,"accuracy":1,"outcome":"-1","keys":[1245.365000097081,1836.7450000951067],"total_keys":2,"block":2,"trial":171,"stimulus":4,"robot":3,"valence":"lose","action":"go","sham":0,"trial_type":"pit-trial","trial_index":198,"time_elapsed":990065,"internal_node_id":"0.0-173.0","task_version":"battery-v0.2"},{"rune":"S","rune_set":"elianto","hex":"#3366ff99","correct":-1,"choice":-1,"rt":-1,"accuracy":1,"outcome":"+10","keys":[1449.2049999535084],"total_keys":1,"block":2,"trial":172,"stimulus":5,"robot":2,"valence":"win","action":"no-go","sham":0,"trial_type":"pit-trial","trial_index":199,"time_elapsed":994069,"internal_node_id":"0.0-174.0","task_version":"battery-v0.2"},{"rune":"S","rune_set":"elianto","hex":"#3366ff99","correct":-1,"choice":-1,"rt":-1,"accuracy":1,"outcome":"+10","keys":[],"total_keys":0,"block":2,"trial":173,"stimulus":5,"robot":2,"valence":"win","action":"no-go","sham":0,"trial_type":"pit-trial","trial_index":200,"time_elapsed":998073,"internal_node_id":"0.0-175.0","task_version":"battery-v0.2"},{"rune":"E","rune_set":"elianto","hex":"#f73b6a7A","correct":-1,"choice":-1,"rt":-1,"accuracy":1,"outcome":"-1","keys":[],"total_keys":0,"block":2,"trial":174,"stimulus":7,"robot":4,"valence":"lose","action":"no-go","sham":0,"trial_type":"pit-trial","trial_index":201,"time_elapsed":1002076,"internal_node_id":"0.0-176.0","task_version":"battery-v0.2"},{"rune":"W","rune_set":"elianto","hex":"#3366ff99","correct":32,"choice":-1,"rt":-1,"accuracy":0,"outcome":"+1","keys":[],"total_keys":0,"block":2,"trial":175,"stimulus":6,"robot":1,"valence":"win","action":"go","sham":0,"trial_type":"pit-trial","trial_index":202,"time_elapsed":1006080,"internal_node_id":"0.0-177.0","task_version":"battery-v0.2"},{"rune":"P","rune_set":"elianto","hex":"#f73b6a7A","correct":32,"choice":-1,"rt":-1,"accuracy":0,"outcome":"-10","keys":[],"total_keys":0,"block":2,"trial":176,"stimulus":4,"robot":3,"valence":"lose","action":"go","sham":0,"trial_type":"pit-trial","trial_index":203,"time_elapsed":1010083,"internal_node_id":"0.0-178.0","task_version":"battery-v0.2"},{"rune":"E","rune_set":"elianto","hex":"#f73b6a7A","correct":-1,"choice":-1,"rt":-1,"accuracy":1,"outcome":"-10","keys":[],"total_keys":0,"block":2,"trial":177,"stimulus":7,"robot":4,"valence":"lose","action":"no-go","sham":1,"trial_type":"pit-trial","trial_index":204,"time_elapsed":1014087,"internal_node_id":"0.0-179.0","task_version":"battery-v0.2"},{"rune":"P","rune_set":"elianto","hex":"#f73b6a7A","correct":32,"choice":-1,"rt":-1,"accuracy":0,"outcome":"-10","keys":[],"total_keys":0,"block":2,"trial":178,"stimulus":4,"robot":3,"valence":"lose","action":"go","sham":0,"trial_type":"pit-trial","trial_index":205,"time_elapsed":1018090,"internal_node_id":"0.0-180.0","task_version":"battery-v0.2"},{"rune":"W","rune_set":"elianto","hex":"#3366ff99","correct":32,"choice":-1,"rt":-1,"accuracy":0,"outcome":"+1","keys":[],"total_keys":0,"block":2,"trial":179,"stimulus":6,"robot":1,"valence":"win","action":"go","sham":0,"trial_type":"pit-trial","trial_index":206,"time_elapsed":1022092,"internal_node_id":"0.0-181.0","task_version":"battery-v0.2"},{"rune":"S","rune_set":"elianto","hex":"#3366ff99","correct":-1,"choice":-1,"rt":-1,"accuracy":1,"outcome":"+1","keys":[],"total_keys":0,"block":2,"trial":180,"stimulus":5,"robot":2,"valence":"win","action":"no-go","sham":1,"trial_type":"pit-trial","trial_index":207,"time_elapsed":1026096,"internal_node_id":"0.0-182.0","task_version":"battery-v0.2"},{"rune":"W","rune_set":"elianto","hex":"#3366ff99","correct":32,"choice":-1,"rt":-1,"accuracy":0,"outcome":"+1","keys":[],"total_keys":0,"block":2,"trial":181,"stimulus":6,"robot":1,"valence":"win","action":"go","sham":0,"trial_type":"pit-trial","trial_index":208,"time_elapsed":1030100,"internal_node_id":"0.0-183.0","task_version":"battery-v0.2"},{"rune":"S","rune_set":"elianto","hex":"#3366ff99","correct":-1,"choice":-1,"rt":-1,"accuracy":1,"outcome":"+10","keys":[],"total_keys":0,"block":2,"trial":182,"stimulus":5,"robot":2,"valence":"win","action":"no-go","sham":0,"trial_type":"pit-trial","trial_index":209,"time_elapsed":1034104,"internal_node_id":"0.0-184.0","task_version":"battery-v0.2"},{"rune":"P","rune_set":"elianto","hex":"#f73b6a7A","correct":32,"choice":-1,"rt":-1,"accuracy":0,"outcome":"-10","keys":[],"total_keys":0,"block":2,"trial":183,"stimulus":4,"robot":3,"valence":"lose","action":"go","sham":0,"trial_type":"pit-trial","trial_index":210,"time_elapsed":1038107,"internal_node_id":"0.0-185.0","task_version":"battery-v0.2"},{"rune":"E","rune_set":"elianto","hex":"#f73b6a7A","correct":-1,"choice":-1,"rt":-1,"accuracy":1,"outcome":"-1","keys":[],"total_keys":0,"block":2,"trial":184,"stimulus":7,"robot":4,"valence":"lose","action":"no-go","sham":0,"trial_type":"pit-trial","trial_index":211,"time_elapsed":1042112,"internal_node_id":"0.0-186.0","task_version":"battery-v0.2"},{"rune":"S","rune_set":"elianto","hex":"#3366ff99","correct":-1,"choice":-1,"rt":-1,"accuracy":1,"outcome":"+10","keys":[],"total_keys":0,"block":2,"trial":185,"stimulus":5,"robot":2,"valence":"win","action":"no-go","sham":0,"trial_type":"pit-trial","trial_index":212,"time_elapsed":1046114,"internal_node_id":"0.0-187.0","task_version":"battery-v0.2"},{"rune":"E","rune_set":"elianto","hex":"#f73b6a7A","correct":-1,"choice":-1,"rt":-1,"accuracy":1,"outcome":"-1","keys":[],"total_keys":0,"block":2,"trial":186,"stimulus":7,"robot":4,"valence":"lose","action":"no-go","sham":0,"trial_type":"pit-trial","trial_index":213,"time_elapsed":1050116,"internal_node_id":"0.0-188.0","task_version":"battery-v0.2"},{"rune":"P","rune_set":"elianto","hex":"#f73b6a7A","correct":32,"choice":-1,"rt":-1,"accuracy":0,"outcome":"-10","keys":[],"total_keys":0,"block":2,"trial":187,"stimulus":4,"robot":3,"valence":"lose","action":"go","sham":0,"trial_type":"pit-trial","trial_index":214,"time_elapsed":1054119,"internal_node_id":"0.0-189.0","task_version":"battery-v0.2"},{"rune":"W","rune_set":"elianto","hex":"#3366ff99","correct":32,"choice":-1,"rt":-1,"accuracy":0,"outcome":"+1","keys":[],"total_keys":0,"block":2,"trial":188,"stimulus":6,"robot":1,"valence":"win","action":"go","sham":0,"trial_type":"pit-trial","trial_index":215,"time_elapsed":1058122,"internal_node_id":"0.0-190.0","task_version":"battery-v0.2"},{"rune":"P","rune_set":"elianto","hex":"#f73b6a7A","correct":32,"choice":32,"rt":1035.050000064075,"accuracy":1,"outcome":"-1","keys":[2535.785000072792],"total_keys":1,"block":2,"trial":189,"stimulus":4,"robot":3,"valence":"lose","action":"go","sham":0,"trial_type":"pit-trial","trial_index":216,"time_elapsed":1061860,"internal_node_id":"0.0-191.0","task_version":"battery-v0.2"},{"rune":"E","rune_set":"elianto","hex":"#f73b6a7A","correct":-1,"choice":32,"rt":767.2000000020489,"accuracy":0,"outcome":"-10","keys":[2267.7749999566004],"total_keys":1,"block":2,"trial":190,"stimulus":7,"robot":4,"valence":"lose","action":"no-go","sham":0,"trial_type":"pit-trial","trial_index":217,"time_elapsed":1065330,"internal_node_id":"0.0-192.0","task_version":"battery-v0.2"},{"rune":"W","rune_set":"elianto","hex":"#3366ff99","correct":32,"choice":32,"rt":891.8249999405816,"accuracy":1,"outcome":"+10","keys":[2392.0599999837577],"total_keys":1,"block":2,"trial":191,"stimulus":6,"robot":1,"valence":"win","action":"go","sham":0,"trial_type":"pit-trial","trial_index":218,"time_elapsed":1068925,"internal_node_id":"0.0-193.0","task_version":"battery-v0.2"},{"rune":"S","rune_set":"elianto","hex":"#3366ff99","correct":-1,"choice":32,"rt":529.3249998940155,"accuracy":0,"outcome":"+1","keys":[2029.5299999415874],"total_keys":1,"block":2,"trial":192,"stimulus":5,"robot":2,"valence":"win","action":"no-go","sham":0,"trial_type":"pit-trial","trial_index":219,"time_elapsed":1072157,"internal_node_id":"0.0-194.0","task_version":"battery-v0.2"},{"rune":"D","rune_set":"elianto","hex":"#f73b6a7A","correct":32,"choice":32,"rt":270.2549999812618,"accuracy":1,"outcome":"-1","keys":[1771.5499999467283],"total_keys":1,"block":2,"trial":193,"stimulus":9,"robot":3,"valence":"lose","action":"go","sham":0,"trial_type":"pit-trial","trial_index":220,"time_elapsed":1075130,"internal_node_id":"0.0-195.0","task_version":"battery-v0.2"},{"rune":"K","rune_set":"elianto","hex":"#3366ff99","correct":32,"choice":32,"rt":1291.1899999016896,"accuracy":1,"outcome":"+10","keys":[2791.785000008531],"total_keys":1,"block":2,"trial":194,"stimulus":8,"robot":1,"valence":"win","action":"go","sham":0,"trial_type":"pit-trial","trial_index":221,"time_elapsed":1079124,"internal_node_id":"0.0-196.0","task_version":"battery-v0.2"},{"rune":"S","rune_set":"elianto","hex":"#3366ff99","correct":-1,"choice":32,"rt":56.099999928846955,"accuracy":0,"outcome":"+1","keys":[1557.924999971874],"total_keys":1,"block":2,"trial":195,"stimulus":5,"robot":2,"valence":"win","action":"no-go","sham":0,"trial_type":"pit-trial","trial_index":222,"time_elapsed":1081885,"internal_node_id":"0.0-197.0","task_version":"battery-v0.2"},{"rune":"E","rune_set":"elianto","hex":"#f73b6a7A","correct":-1,"choice":32,"rt":309.3750000698492,"accuracy":0,"outcome":"-10","keys":[1810.2550000185147],"total_keys":1,"block":2,"trial":196,"stimulus":7,"robot":4,"valence":"lose","action":"no-go","sham":0,"trial_type":"pit-trial","trial_index":223,"time_elapsed":1084897,"internal_node_id":"0.0-198.0","task_version":"battery-v0.2"},{"rune":"K","rune_set":"elianto","hex":"#3366ff99","correct":32,"choice":32,"rt":480.41000007651746,"accuracy":1,"outcome":"+10","keys":[1980.8950000442564],"total_keys":1,"block":2,"trial":197,"stimulus":8,"robot":1,"valence":"win","action":"go","sham":0,"trial_type":"pit-trial","trial_index":224,"time_elapsed":1088081,"internal_node_id":"0.0-199.0","task_version":"battery-v0.2"},{"rune":"D","rune_set":"elianto","hex":"#f73b6a7A","correct":32,"choice":32,"rt":384.28999995812774,"accuracy":1,"outcome":"-1","keys":[1884.6149999881163],"total_keys":1,"block":2,"trial":198,"stimulus":9,"robot":3,"valence":"lose","action":"go","sham":0,"trial_type":"pit-trial","trial_index":225,"time_elapsed":1091167,"internal_node_id":"0.0-200.0","task_version":"battery-v0.2"},{"rune":"S","rune_set":"elianto","hex":"#3366ff99","correct":-1,"choice":32,"rt":265.1299999561161,"accuracy":0,"outcome":"+1","keys":[1765.7399999443442],"total_keys":1,"block":2,"trial":199,"stimulus":5,"robot":2,"valence":"win","action":"no-go","sham":0,"trial_type":"pit-trial","trial_index":226,"time_elapsed":1094135,"internal_node_id":"0.0-201.0","task_version":"battery-v0.2"},{"rune":"E","rune_set":"elianto","hex":"#f73b6a7A","correct":-1,"choice":32,"rt":680.2950000856072,"accuracy":0,"outcome":"-10","keys":[2181.5649999771267],"total_keys":1,"block":2,"trial":200,"stimulus":7,"robot":4,"valence":"lose","action":"no-go","sham":0,"trial_type":"pit-trial","trial_index":227,"time_elapsed":1097518,"internal_node_id":"0.0-202.0","task_version":"battery-v0.2"},{"rune":"S","rune_set":"elianto","hex":"#3366ff99","correct":-1,"choice":32,"rt":292.0750000048429,"accuracy":0,"outcome":"+1","keys":[1792.7149999886751],"total_keys":1,"block":2,"trial":201,"stimulus":5,"robot":2,"valence":"win","action":"no-go","sham":0,"trial_type":"pit-trial","trial_index":228,"time_elapsed":1100513,"internal_node_id":"0.0-203.0","task_version":"battery-v0.2"},{"rune":"K","rune_set":"elianto","hex":"#3366ff99","correct":32,"choice":-1,"rt":-1,"accuracy":0,"outcome":"+1","keys":[2847.5900000194088],"total_keys":1,"block":2,"trial":202,"stimulus":8,"robot":1,"valence":"win","action":"go","sham":0,"trial_type":"pit-trial","trial_index":229,"time_elapsed":1104518,"internal_node_id":"0.0-204.0","task_version":"battery-v0.2"},{"rune":"D","rune_set":"elianto","hex":"#f73b6a7A","correct":32,"choice":32,"rt":258.03499994799495,"accuracy":1,"outcome":"-1","keys":[1759.169999975711],"total_keys":1,"block":2,"trial":203,"stimulus":9,"robot":3,"valence":"lose","action":"go","sham":0,"trial_type":"pit-trial","trial_index":230,"time_elapsed":1107480,"internal_node_id":"0.0-205.0","task_version":"battery-v0.2"},{"rune":"E","rune_set":"elianto","hex":"#f73b6a7A","correct":-1,"choice":32,"rt":494.1200000466779,"accuracy":0,"outcome":"-10","keys":[1388.329999987036,1995.215000002645],"total_keys":2,"block":2,"trial":204,"stimulus":7,"robot":4,"valence":"lose","action":"no-go","sham":0,"trial_type":"pit-trial","trial_index":231,"time_elapsed":1110676,"internal_node_id":"0.0-206.0","task_version":"battery-v0.2"},{"rune":"K","rune_set":"elianto","hex":"#3366ff99","correct":32,"choice":32,"rt":337.09500008262694,"accuracy":1,"outcome":"+10","keys":[1838.7750000692904],"total_keys":1,"block":2,"trial":205,"stimulus":8,"robot":1,"valence":"win","action":"go","sham":0,"trial_type":"pit-trial","trial_index":232,"time_elapsed":1113717,"internal_node_id":"0.0-207.0","task_version":"battery-v0.2"},{"rune":"S","rune_set":"elianto","hex":"#3366ff99","correct":-1,"choice":32,"rt":1247.1900000236928,"accuracy":0,"outcome":"+1","keys":[2747.704999987036],"total_keys":1,"block":2,"trial":206,"stimulus":5,"robot":2,"valence":"win","action":"no-go","sham":0,"trial_type":"pit-trial","trial_index":233,"time_elapsed":1117668,"internal_node_id":"0.0-208.0","task_version":"battery-v0.2"},{"rune":"D","rune_set":"elianto","hex":"#f73b6a7A","correct":32,"choice":32,"rt":95.24499997496605,"accuracy":1,"outcome":"-1","keys":[1596.4900000253692],"total_keys":1,"block":2,"trial":207,"stimulus":9,"robot":3,"valence":"lose","action":"go","sham":0,"trial_type":"pit-trial","trial_index":234,"time_elapsed":1120467,"internal_node_id":"0.0-209.0","task_version":"battery-v0.2"},{"rune":"E","rune_set":"elianto","hex":"#f73b6a7A","correct":-1,"choice":32,"rt":92.99000003375113,"accuracy":0,"outcome":"-10","keys":[1594.1550000570714],"total_keys":1,"block":2,"trial":208,"stimulus":7,"robot":4,"valence":"lose","action":"no-go","sham":0,"trial_type":"pit-trial","trial_index":235,"time_elapsed":1123263,"internal_node_id":"0.0-210.0","task_version":"battery-v0.2"},{"rune":"V","rune_set":"elianto","hex":"#3366ff99","correct":-1,"choice":32,"rt":330.48499992582947,"accuracy":0,"outcome":"+10","keys":[1831.499999971129],"total_keys":1,"block":2,"trial":209,"stimulus":11,"robot":2,"valence":"win","action":"no-go","sham":1,"trial_type":"pit-trial","trial_index":236,"time_elapsed":1126297,"internal_node_id":"0.0-211.0","task_version":"battery-v0.2"},{"rune":"J","rune_set":"elianto","hex":"#f73b6a7A","correct":32,"choice":32,"rt":329.1899999603629,"accuracy":1,"outcome":"-1","keys":[1829.9600000027567],"total_keys":1,"block":2,"trial":210,"stimulus":10,"robot":3,"valence":"lose","action":"go","sham":0,"trial_type":"pit-trial","trial_index":237,"time_elapsed":1129330,"internal_node_id":"0.0-212.0","task_version":"battery-v0.2"},{"rune":"K","rune_set":"elianto","hex":"#3366ff99","correct":32,"choice":32,"rt":117.65000002924353,"accuracy":1,"outcome":"+10","keys":[1619.3350000539795],"total_keys":1,"block":2,"trial":211,"stimulus":8,"robot":1,"valence":"win","action":"go","sham":0,"trial_type":"pit-trial","trial_index":238,"time_elapsed":1132151,"internal_node_id":"0.0-213.0","task_version":"battery-v0.2"},{"rune":"D","rune_set":"elianto","hex":"#f73b6a7A","correct":32,"choice":32,"rt":373.08500008657575,"accuracy":1,"outcome":"-1","keys":[1873.9850000711158],"total_keys":1,"block":2,"trial":212,"stimulus":9,"robot":3,"valence":"lose","action":"go","sham":0,"trial_type":"pit-trial","trial_index":239,"time_elapsed":1135227,"internal_node_id":"0.0-214.0","task_version":"battery-v0.2"},{"rune":"D","rune_set":"elianto","hex":"#f73b6a7A","correct":32,"choice":32,"rt":400.16499999910593,"accuracy":1,"outcome":"-1","keys":[1440.1999999536201,1901.3349999440834],"total_keys":2,"block":2,"trial":213,"stimulus":9,"robot":3,"valence":"lose","action":"go","sham":0,"trial_type":"pit-trial","trial_index":240,"time_elapsed":1138331,"internal_node_id":"0.0-215.0","task_version":"battery-v0.2"},{"rune":"K","rune_set":"elianto","hex":"#3366ff99","correct":32,"choice":32,"rt":208.96499999798834,"accuracy":1,"outcome":"+10","keys":[1710.0899999495596],"total_keys":1,"block":2,"trial":214,"stimulus":8,"robot":1,"valence":"win","action":"go","sham":0,"trial_type":"pit-trial","trial_index":241,"time_elapsed":1141243,"internal_node_id":"0.0-216.0","task_version":"battery-v0.2"},{"rune":"V","rune_set":"elianto","hex":"#3366ff99","correct":-1,"choice":32,"rt":29.085000045597553,"accuracy":0,"outcome":"+1","keys":[1529.6250000828877],"total_keys":1,"block":2,"trial":215,"stimulus":11,"robot":2,"valence":"win","action":"no-go","sham":0,"trial_type":"pit-trial","trial_index":242,"time_elapsed":1143975,"internal_node_id":"0.0-217.0","task_version":"battery-v0.2"},{"rune":"J","rune_set":"elianto","hex":"#f73b6a7A","correct":32,"choice":32,"rt":1297.6600000401959,"accuracy":1,"outcome":"-10","keys":[1348.2749999966472,2798.3199999434873],"total_keys":2,"block":2,"trial":216,"stimulus":10,"robot":3,"valence":"lose","action":"go","sham":1,"trial_type":"pit-trial","trial_index":243,"time_elapsed":1147974,"internal_node_id":"0.0-218.0","task_version":"battery-v0.2"},{"rune":"D","rune_set":"elianto","hex":"#f73b6a7A","correct":32,"choice":-1,"rt":-1,"accuracy":0,"outcome":"-10","keys":[],"total_keys":0,"block":2,"trial":217,"stimulus":9,"robot":3,"valence":"lose","action":"go","sham":0,"trial_type":"pit-trial","trial_index":244,"time_elapsed":1151978,"internal_node_id":"0.0-219.0","task_version":"battery-v0.2"},{"rune":"K","rune_set":"elianto","hex":"#3366ff99","correct":32,"choice":32,"rt":698.7850000150502,"accuracy":1,"outcome":"+10","keys":[2199.644999927841],"total_keys":1,"block":2,"trial":218,"stimulus":8,"robot":1,"valence":"win","action":"go","sham":0,"trial_type":"pit-trial","trial_index":245,"time_elapsed":1155380,"internal_node_id":"0.0-220.0","task_version":"battery-v0.2"},{"rune":"V","rune_set":"elianto","hex":"#3366ff99","correct":-1,"choice":-1,"rt":-1,"accuracy":1,"outcome":"+10","keys":[],"total_keys":0,"block":2,"trial":219,"stimulus":11,"robot":2,"valence":"win","action":"no-go","sham":0,"trial_type":"pit-trial","trial_index":246,"time_elapsed":1159383,"internal_node_id":"0.0-221.0","task_version":"battery-v0.2"},{"rune":"J","rune_set":"elianto","hex":"#f73b6a7A","correct":32,"choice":-1,"rt":-1,"accuracy":0,"outcome":"-1","keys":[],"total_keys":0,"block":2,"trial":220,"stimulus":10,"robot":3,"valence":"lose","action":"go","sham":1,"trial_type":"pit-trial","trial_index":247,"time_elapsed":1163386,"internal_node_id":"0.0-222.0","task_version":"battery-v0.2"},{"rune":"V","rune_set":"elianto","hex":"#3366ff99","correct":-1,"choice":-1,"rt":-1,"accuracy":1,"outcome":"+10","keys":[],"total_keys":0,"block":2,"trial":221,"stimulus":11,"robot":2,"valence":"win","action":"no-go","sham":0,"trial_type":"pit-trial","trial_index":248,"time_elapsed":1167389,"internal_node_id":"0.0-223.0","task_version":"battery-v0.2"},{"rune":"J","rune_set":"elianto","hex":"#f73b6a7A","correct":32,"choice":-1,"rt":-1,"accuracy":0,"outcome":"-10","keys":[],"total_keys":0,"block":2,"trial":222,"stimulus":10,"robot":3,"valence":"lose","action":"go","sham":0,"trial_type":"pit-trial","trial_index":249,"time_elapsed":1171392,"internal_node_id":"0.0-224.0","task_version":"battery-v0.2"},{"rune":"K","rune_set":"elianto","hex":"#3366ff99","correct":32,"choice":-1,"rt":-1,"accuracy":0,"outcome":"+1","keys":[],"total_keys":0,"block":2,"trial":223,"stimulus":8,"robot":1,"valence":"win","action":"go","sham":0,"trial_type":"pit-trial","trial_index":250,"time_elapsed":1175395,"internal_node_id":"0.0-225.0","task_version":"battery-v0.2"},{"rune":"D","rune_set":"elianto","hex":"#f73b6a7A","correct":32,"choice":-1,"rt":-1,"accuracy":0,"outcome":"-1","keys":[],"total_keys":0,"block":2,"trial":224,"stimulus":9,"robot":3,"valence":"lose","action":"go","sham":1,"trial_type":"pit-trial","trial_index":251,"time_elapsed":1179397,"internal_node_id":"0.0-226.0","task_version":"battery-v0.2"},{"rune":"D","rune_set":"elianto","hex":"#f73b6a7A","correct":32,"choice":-1,"rt":-1,"accuracy":0,"outcome":"-10","keys":[],"total_keys":0,"block":2,"trial":225,"stimulus":9,"robot":3,"valence":"lose","action":"go","sham":0,"trial_type":"pit-trial","trial_index":252,"time_elapsed":1183401,"internal_node_id":"0.0-227.0","task_version":"battery-v0.2"},{"rune":"J","rune_set":"elianto","hex":"#f73b6a7A","correct":32,"choice":-1,"rt":-1,"accuracy":0,"outcome":"-1","keys":[],"total_keys":0,"block":2,"trial":226,"stimulus":10,"robot":3,"valence":"lose","action":"go","sham":1,"trial_type":"pit-trial","trial_index":253,"time_elapsed":1187404,"internal_node_id":"0.0-228.0","task_version":"battery-v0.2"},{"rune":"V","rune_set":"elianto","hex":"#3366ff99","correct":-1,"choice":32,"rt":923.490000073798,"accuracy":0,"outcome":"+1","keys":[2423.600000096485],"total_keys":1,"block":2,"trial":227,"stimulus":11,"robot":2,"valence":"win","action":"no-go","sham":0,"trial_type":"pit-trial","trial_index":254,"time_elapsed":1191030,"internal_node_id":"0.0-229.0","task_version":"battery-v0.2"},{"rune":"K","rune_set":"elianto","hex":"#3366ff99","correct":32,"choice":32,"rt":673.854999942705,"accuracy":1,"outcome":"+10","keys":[2175.0300000421703],"total_keys":1,"block":2,"trial":228,"stimulus":8,"robot":1,"valence":"win","action":"go","sham":0,"trial_type":"pit-trial","trial_index":255,"time_elapsed":1194408,"internal_node_id":"0.0-230.0","task_version":"battery-v0.2"},{"rune":"K","rune_set":"elianto","hex":"#3366ff99","correct":32,"choice":32,"rt":446.6450000181794,"accuracy":1,"outcome":"+10","keys":[1947.385000064969],"total_keys":1,"block":2,"trial":229,"stimulus":8,"robot":1,"valence":"win","action":"go","sham":0,"trial_type":"pit-trial","trial_index":256,"time_elapsed":1197557,"internal_node_id":"0.0-231.0","task_version":"battery-v0.2"},{"rune":"J","rune_set":"elianto","hex":"#f73b6a7A","correct":32,"choice":32,"rt":810.0049999775365,"accuracy":1,"outcome":"-1","keys":[2310.2799999760464],"total_keys":1,"block":2,"trial":230,"stimulus":10,"robot":3,"valence":"lose","action":"go","sham":0,"trial_type":"pit-trial","trial_index":257,"time_elapsed":1201070,"internal_node_id":"0.0-232.0","task_version":"battery-v0.2"},{"rune":"D","rune_set":"elianto","hex":"#f73b6a7A","correct":32,"choice":32,"rt":305.8599999640137,"accuracy":1,"outcome":"-10","keys":[1806.4500000327826],"total_keys":1,"block":2,"trial":231,"stimulus":9,"robot":3,"valence":"lose","action":"go","sham":1,"trial_type":"pit-trial","trial_index":258,"time_elapsed":1204079,"internal_node_id":"0.0-233.0","task_version":"battery-v0.2"},{"rune":"V","rune_set":"elianto","hex":"#3366ff99","correct":-1,"choice":-1,"rt":-1,"accuracy":1,"outcome":"+10","keys":[],"total_keys":0,"block":2,"trial":232,"stimulus":11,"robot":2,"valence":"win","action":"no-go","sham":0,"trial_type":"pit-trial","trial_index":259,"time_elapsed":1208082,"internal_node_id":"0.0-234.0","task_version":"battery-v0.2"},{"rune":"V","rune_set":"elianto","hex":"#3366ff99","correct":-1,"choice":32,"rt":380.95000002067536,"accuracy":0,"outcome":"+1","keys":[1882.2149999905378],"total_keys":1,"block":2,"trial":233,"stimulus":11,"robot":2,"valence":"win","action":"no-go","sham":0,"trial_type":"pit-trial","trial_index":260,"time_elapsed":1211166,"internal_node_id":"0.0-235.0","task_version":"battery-v0.2"},{"rune":"D","rune_set":"elianto","hex":"#f73b6a7A","correct":32,"choice":32,"rt":873.4900000272319,"accuracy":1,"outcome":"-1","keys":[2374.545000027865],"total_keys":1,"block":2,"trial":234,"stimulus":9,"robot":3,"valence":"lose","action":"go","sham":0,"trial_type":"pit-trial","trial_index":261,"time_elapsed":1214742,"internal_node_id":"0.0-236.0","task_version":"battery-v0.2"},{"rune":"J","rune_set":"elianto","hex":"#f73b6a7A","correct":32,"choice":-1,"rt":-1,"accuracy":0,"outcome":"-10","keys":[],"total_keys":0,"block":2,"trial":235,"stimulus":10,"robot":3,"valence":"lose","action":"go","sham":0,"trial_type":"pit-trial","trial_index":262,"time_elapsed":1218745,"internal_node_id":"0.0-237.0","task_version":"battery-v0.2"},{"rune":"K","rune_set":"elianto","hex":"#3366ff99","correct":32,"choice":32,"rt":405.64499993342906,"accuracy":1,"outcome":"+10","keys":[1907.23499993328],"total_keys":1,"block":2,"trial":236,"stimulus":8,"robot":1,"valence":"win","action":"go","sham":0,"trial_type":"pit-trial","trial_index":263,"time_elapsed":1221854,"internal_node_id":"0.0-238.0","task_version":"battery-v0.2"},{"rune":"K","rune_set":"elianto","hex":"#3366ff99","correct":32,"choice":32,"rt":479.435000102967,"accuracy":1,"outcome":"+1","keys":[1980.8700000867248],"total_keys":1,"block":2,"trial":237,"stimulus":8,"robot":1,"valence":"win","action":"go","sham":1,"trial_type":"pit-trial","trial_index":264,"time_elapsed":1225038,"internal_node_id":"0.0-239.0","task_version":"battery-v0.2"},{"rune":"V","rune_set":"elianto","hex":"#3366ff99","correct":-1,"choice":32,"rt":638.8850000221282,"accuracy":0,"outcome":"+1","keys":[2139.4550000550225],"total_keys":1,"block":2,"trial":238,"stimulus":11,"robot":2,"valence":"win","action":"no-go","sham":0,"trial_type":"pit-trial","trial_index":265,"time_elapsed":1228380,"internal_node_id":"0.0-240.0","task_version":"battery-v0.2"},{"rune":"D","rune_set":"elianto","hex":"#f73b6a7A","correct":32,"choice":32,"rt":689.0750000020489,"accuracy":1,"outcome":"-1","keys":[2189.920000033453],"total_keys":1,"block":2,"trial":239,"stimulus":9,"robot":3,"valence":"lose","action":"go","sham":0,"trial_type":"pit-trial","trial_index":266,"time_elapsed":1231773,"internal_node_id":"0.0-241.0","task_version":"battery-v0.2"},{"rune":"J","rune_set":"elianto","hex":"#f73b6a7A","correct":32,"choice":-1,"rt":-1,"accuracy":0,"outcome":"-10","keys":[],"total_keys":0,"block":2,"trial":240,"stimulus":10,"robot":3,"valence":"lose","action":"go","sham":0,"trial_type":"pit-trial","trial_index":267,"time_elapsed":1235776,"internal_node_id":"0.0-242.0","task_version":"battery-v0.2"},{"view_history":"[{\"page_index\":0,\"viewing_time\":4036.710000014864}]","rt":4037.2450000140816,"trial_type":"pit-instructions","trial_index":268,"time_elapsed":1239814,"internal_node_id":"0.0-243.0","task_version":"battery-v0.2"},{"rt":14270.840000011958,"responses":{"age":"46","gender-categorical":"Male","gender-free-response":"","ethnicity":"Not Hispanic or Latino","race":["White"],"language":"Yes","fluency":"Very well"},"survey":"demographics","trial_type":"survey-demo","trial_index":269,"time_elapsed":1254088,"internal_node_id":"0.0-244.0","task_version":"battery-v0.2"},{"rt":20556.014999980107,"responses":{"difficulty":"2","fun":"3","clarity":"5","strategy":"just memorization","feedback":""},"survey":"debrief","trial_type":"survey-debrief","trial_index":270,"time_elapsed":1274646,"internal_node_id":"0.0-245.0","task_version":"battery-v0.2","interactions":"[{\"event\":\"blur\",\"trial\":147,\"time\":681076},{\"event\":\"focus\",\"trial\":147,\"time\":802580},{\"event\":\"blur\",\"trial\":182,\"time\":930186},{\"event\":\"focus\",\"trial\":190,\"time\":962591},{\"event\":\"blur\",\"trial\":200,\"time\":995309},{\"event\":\"focus\",\"trial\":211,\"time\":1040314},{\"event\":\"blur\",\"trial\":213,\"time\":1047777},{\"event\":\"focus\",\"trial\":215,\"time\":1057870},{\"event\":\"blur\",\"trial\":247,\"time\":1160496},{\"event\":\"focus\",\"trial\":254,\"time\":1188433},{\"event\":\"blur\",\"trial\":270,\"time\":1273703},{\"event\":\"focus\",\"trial\":270,\"time\":1274491}]"}]