[{"view_history":"[{\"page_index\":0,\"viewing_time\":131704.41000000574},{\"page_index\":1,\"viewing_time\":205119.07499993686},{\"page_index\":2,\"viewing_time\":17185.08500000462},{\"page_index\":3,\"viewing_time\":12524.424999952316},{\"page_index\":4,\"viewing_time\":8652.415000018664},{\"page_index\":5,\"viewing_time\":5847.825000062585},{\"page_index\":6,\"viewing_time\":7079.674999928102},{\"page_index\":7,\"viewing_time\":17605.040000053123},{\"page_index\":8,\"viewing_time\":7368.1349999969825},{\"page_index\":9,\"viewing_time\":8535.745000001043}]","rt":421624.7799999546,"trial_type":"pit-instructions","trial_index":0,"time_elapsed":423553,"internal_node_id":"0.0-0.0-0.0","task_version":"battery-v0.2"},{"rune":"1","rune_set":"elianto","hex":"#3366ff99","correct":32,"choice":-1,"rt":-1,"accuracy":0,"outcome":"+1","keys":[],"total_keys":0,"block":0,"practice":1,"trial_type":"pit-trial","trial_index":1,"time_elapsed":427569,"internal_node_id":"0.0-0.0-1.0-0.0","task_version":"battery-v0.2"},{"rune":"1","rune_set":"elianto","hex":"#3366ff99","correct":32,"choice":-1,"rt":-1,"accuracy":0,"outcome":"+1","keys":[],"total_keys":0,"block":0,"practice":1,"trial_type":"pit-trial","trial_index":2,"time_elapsed":431593,"internal_node_id":"0.0-0.0-1.1-0.1","task_version":"battery-v0.2"},{"rune":"1","rune_set":"elianto","hex":"#3366ff99","correct":32,"choice":32,"rt":463.05000002030283,"accuracy":1,"outcome":"+10","keys":[1963.0200000246987],"total_keys":1,"block":0,"practice":1,"trial_type":"pit-trial","trial_index":3,"time_elapsed":434777,"internal_node_id":"0.0-0.0-1.2-0.2","task_version":"battery-v0.2"},{"rune":"1","rune_set":"elianto","hex":"#3366ff99","correct":32,"choice":32,"rt":455.60999994631857,"accuracy":1,"outcome":"+10","keys":[1956.2999999616295],"total_keys":1,"block":0,"practice":1,"trial_type":"pit-trial","trial_index":4,"time_elapsed":437956,"internal_node_id":"0.0-0.0-1.3-0.3","task_version":"battery-v0.2"},{"rune":"1","rune_set":"elianto","hex":"#3366ff99","correct":32,"choice":32,"rt":233.55999996419996,"accuracy":1,"outcome":"+10","keys":[1734.885000041686],"total_keys":1,"block":0,"practice":1,"trial_type":"pit-trial","trial_index":5,"time_elapsed":440906,"internal_node_id":"0.0-0.0-1.4-0.4","task_version":"battery-v0.2"},{"view_history":"[{\"page_index\":0,\"viewing_time\":2989.3150000134483},{\"page_index\":1,\"viewing_time\":6591.155000030994}]","rt":9581.804999965243,"trial_type":"pit-instructions","trial_index":6,"time_elapsed":450508,"internal_node_id":"0.0-0.0-2.0","task_version":"battery-v0.2"},{"rune":"2","rune_set":"elianto","hex":"#3366ff99","correct":-1,"choice":-1,"rt":-1,"accuracy":1,"outcome":"+10","keys":[],"total_keys":0,"block":0,"practice":2,"trial_type":"pit-trial","trial_index":7,"time_elapsed":454521,"internal_node_id":"0.0-0.0-3.0-0.0","task_version":"battery-v0.2"},{"rune":"2","rune_set":"elianto","hex":"#3366ff99","correct":-1,"choice":-1,"rt":-1,"accuracy":1,"outcome":"+10","keys":[],"total_keys":0,"block":0,"practice":2,"trial_type":"pit-trial","trial_index":8,"time_elapsed":458538,"internal_node_id":"0.0-0.0-3.1-0.1","task_version":"battery-v0.2"},{"rune":"2","rune_set":"elianto","hex":"#3366ff99","correct":-1,"choice":-1,"rt":-1,"accuracy":1,"outcome":"+10","keys":[],"total_keys":0,"block":0,"practice":2,"trial_type":"pit-trial","trial_index":9,"time_elapsed":462546,"internal_node_id":"0.0-0.0-3.2-0.2","task_version":"battery-v0.2"},{"rune":"2","rune_set":"elianto","hex":"#3366ff99","correct":-1,"choice":-1,"rt":-1,"accuracy":1,"outcome":"+10","keys":[],"total_keys":0,"block":0,"practice":2,"trial_type":"pit-trial","trial_index":10,"time_elapsed":466555,"internal_node_id":"0.0-0.0-3.3-0.3","task_version":"battery-v0.2"},{"view_history":"[{\"page_index\":0,\"viewing_time\":11055.425000027753},{\"page_index\":1,\"viewing_time\":2501.0449999244884}]","rt":13558.175000012852,"trial_type":"pit-instructions","trial_index":11,"time_elapsed":480134,"internal_node_id":"0.0-0.0-4.0","task_version":"battery-v0.2"},{"rune":"3","rune_set":"elianto","hex":"#f73b6a7A","correct":-1,"choice":-1,"rt":-1,"accuracy":1,"outcome":"-1","keys":[],"total_keys":0,"block":0,"practice":3,"trial_type":"pit-trial","trial_index":12,"time_elapsed":484142,"internal_node_id":"0.0-0.0-5.0-0.0","task_version":"battery-v0.2"},{"rune":"3","rune_set":"elianto","hex":"#f73b6a7A","correct":-1,"choice":-1,"rt":-1,"accuracy":1,"outcome":"-1","keys":[],"total_keys":0,"block":0,"practice":3,"trial_type":"pit-trial","trial_index":13,"time_elapsed":488156,"internal_node_id":"0.0-0.0-5.1-0.1","task_version":"battery-v0.2"},{"rune":"3","rune_set":"elianto","hex":"#f73b6a7A","correct":-1,"choice":-1,"rt":-1,"accuracy":1,"outcome":"-1","keys":[],"total_keys":0,"block":0,"practice":3,"trial_type":"pit-trial","trial_index":14,"time_elapsed":492175,"internal_node_id":"0.0-0.0-5.2-0.2","task_version":"battery-v0.2"},{"rune":"3","rune_set":"elianto","hex":"#f73b6a7A","correct":-1,"choice":-1,"rt":-1,"accuracy":1,"outcome":"-1","keys":[],"total_keys":0,"block":0,"practice":3,"trial_type":"pit-trial","trial_index":15,"time_elapsed":496197,"internal_node_id":"0.0-0.0-5.3-0.3","task_version":"battery-v0.2"},{"view_history":"[{\"page_index\":0,\"viewing_time\":1810.1650000317022},{\"page_index\":1,\"viewing_time\":1587.4199999962002}]","rt":3399.265000014566,"trial_type":"pit-instructions","trial_index":16,"time_elapsed":499614,"internal_node_id":"0.0-0.0-6.0","task_version":"battery-v0.2"},{"rune":"4","rune_set":"elianto","hex":"#f73b6a7A","correct":32,"choice":32,"rt":329.05000005848706,"accuracy":1,"outcome":"-1","keys":[1830.309999990277],"total_keys":1,"block":0,"practice":4,"trial_type":"pit-trial","trial_index":17,"time_elapsed":502655,"internal_node_id":"0.0-0.0-7.0-0.0","task_version":"battery-v0.2"},{"rune":"4","rune_set":"elianto","hex":"#f73b6a7A","correct":32,"choice":-1,"rt":-1,"accuracy":0,"outcome":"-10","keys":[1294.869999983348],"total_keys":1,"block":0,"practice":4,"trial_type":"pit-trial","trial_index":18,"time_elapsed":506678,"internal_node_id":"0.0-0.0-7.1-0.1","task_version":"battery-v0.2"},{"rune":"4","rune_set":"elianto","hex":"#f73b6a7A","correct":32,"choice":32,"rt":221.01500001735985,"accuracy":1,"outcome":"-1","keys":[1724.779999931343],"total_keys":1,"block":0,"practice":4,"trial_type":"pit-trial","trial_index":19,"time_elapsed":509624,"internal_node_id":"0.0-0.0-7.2-0.2","task_version":"battery-v0.2"},{"rune":"4","rune_set":"elianto","hex":"#f73b6a7A","correct":32,"choice":32,"rt":190.3700000839308,"accuracy":1,"outcome":"-1","keys":[1690.694999997504],"total_keys":1,"block":0,"practice":4,"trial_type":"pit-trial","trial_index":20,"time_elapsed":512534,"internal_node_id":"0.0-0.0-7.3-0.3","task_version":"battery-v0.2"},{"rune":"4","rune_set":"elianto","hex":"#f73b6a7A","correct":32,"choice":32,"rt":149.17999994941056,"accuracy":1,"outcome":"-1","keys":[1649.8849999625236],"total_keys":1,"block":0,"practice":4,"trial_type":"pit-trial","trial_index":21,"time_elapsed":515398,"internal_node_id":"0.0-0.0-7.4-0.4","task_version":"battery-v0.2"},{"view_history":"[{\"page_index\":0,\"viewing_time\":2851.6550000058487},{\"page_index\":1,\"viewing_time\":2844.5749999955297},{\"page_index\":2,\"viewing_time\":4272.564999992028},{\"page_index\":3,\"viewing_time\":1722.9049999732524},{\"page_index\":4,\"viewing_time\":2303.0499999877065},{\"page_index\":5,\"viewing_time\":1392.8900000173599}]","rt":15389.435000019148,"trial_type":"pit-instructions","trial_index":22,"time_elapsed":530803,"internal_node_id":"0.0-0.0-8.0","task_version":"battery-v0.2"},{"responses":["Press SPACE","+10","-1","True","True"],"num_errors":0,"rt":21015.469999983907,"trial_type":"pit-comprehension","trial_index":23,"time_elapsed":551834,"internal_node_id":"0.0-0.0-9.0","task_version":"battery-v0.2"},{"view_history":"[{\"page_index\":0,\"viewing_time\":1558.0949999857694},{\"page_index\":1,\"viewing_time\":2924.5200000004843}]","rt":4484.754999983124,"trial_type":"pit-instructions","trial_index":24,"time_elapsed":556342,"internal_node_id":"0.0-1.0","task_version":"battery-v0.2"},{"rune":"Y","rune_set":"elianto","hex":"#3366ff99","correct":32,"choice":-1,"rt":-1,"accuracy":0,"outcome":"+1","keys":[],"total_keys":0,"block":1,"trial":1,"stimulus":2,"robot":1,"valence":"win","action":"go","sham":0,"trial_type":"pit-trial","trial_index":25,"time_elapsed":560414,"internal_node_id":"0.0-2.0","task_version":"battery-v0.2"},{"rune":"M","rune_set":"elianto","hex":"#f73b6a7A","correct":-1,"choice":-1,"rt":-1,"accuracy":1,"outcome":"-10","keys":[],"total_keys":0,"block":1,"trial":2,"stimulus":0,"robot":4,"valence":"lose","action":"no-go","sham":1,"trial_type":"pit-trial","trial_index":26,"time_elapsed":564424,"internal_node_id":"0.0-3.0","task_version":"battery-v0.2"},{"rune":"R","rune_set":"elianto","hex":"#f73b6a7A","correct":-1,"choice":-1,"rt":-1,"accuracy":1,"outcome":"-1","keys":[],"total_keys":0,"block":1,"trial":3,"stimulus":1,"robot":4,"valence":"lose","action":"no-go","sham":0,"trial_type":"pit-trial","trial_index":27,"time_elapsed":568433,"internal_node_id":"0.0-4.0","task_version":"battery-v0.2"},{"rune":"H","rune_set":"elianto","hex":"#3366ff99","correct":-1,"choice":32,"rt":924.4200000539422,"accuracy":0,"outcome":"+10","keys":[2424.8800000641495],"total_keys":1,"block":1,"trial":4,"stimulus":3,"robot":2,"valence":"win","action":"no-go","sham":1,"trial_type":"pit-trial","trial_index":28,"time_elapsed":572088,"internal_node_id":"0.0-5.0","task_version":"battery-v0.2"},{"rune":"Y","rune_set":"elianto","hex":"#3366ff99","correct":32,"choice":32,"rt":676.7749999416992,"accuracy":1,"outcome":"+10","keys":[2177.7599999913946],"total_keys":1,"block":1,"trial":5,"stimulus":2,"robot":1,"valence":"win","action":"go","sham":0,"trial_type":"pit-trial","trial_index":29,"time_elapsed":575485,"internal_node_id":"0.0-6.0","task_version":"battery-v0.2"},{"rune":"M","rune_set":"elianto","hex":"#f73b6a7A","correct":-1,"choice":32,"rt":595.6649999134243,"accuracy":0,"outcome":"-10","keys":[2097.5849999813363],"total_keys":1,"block":1,"trial":6,"stimulus":0,"robot":4,"valence":"lose","action":"no-go","sham":0,"trial_type":"pit-trial","trial_index":30,"time_elapsed":578798,"internal_node_id":"0.0-7.0","task_version":"battery-v0.2"},{"rune":"H","rune_set":"elianto","hex":"#3366ff99","correct":-1,"choice":32,"rt":750.6999999750406,"accuracy":0,"outcome":"+1","keys":[2252.600000007078],"total_keys":1,"block":1,"trial":7,"stimulus":3,"robot":2,"valence":"win","action":"no-go","sham":0,"trial_type":"pit-trial","trial_index":31,"time_elapsed":582259,"internal_node_id":"0.0-8.0","task_version":"battery-v0.2"},{"rune":"R","rune_set":"elianto","hex":"#f73b6a7A","correct":-1,"choice":-1,"rt":-1,"accuracy":1,"outcome":"-10","keys":[],"total_keys":0,"block":1,"trial":8,"stimulus":1,"robot":4,"valence":"lose","action":"no-go","sham":1,"trial_type":"pit-trial","trial_index":32,"time_elapsed":586269,"internal_node_id":"0.0-9.0","task_version":"battery-v0.2"},{"rune":"R","rune_set":"elianto","hex":"#f73b6a7A","correct":-1,"choice":32,"rt":1006.944999913685,"accuracy":0,"outcome":"-10","keys":[2507.465000031516],"total_keys":1,"block":1,"trial":9,"stimulus":1,"robot":4,"valence":"lose","action":"no-go","sham":0,"trial_type":"pit-trial","trial_index":33,"time_elapsed":589991,"internal_node_id":"0.0-10.0","task_version":"battery-v0.2"},{"rune":"H","rune_set":"elianto","hex":"#3366ff99","correct":-1,"choice":32,"rt":620.8300000289455,"accuracy":0,"outcome":"+10","keys":[2122.444999986328],"total_keys":1,"block":1,"trial":10,"stimulus":3,"robot":2,"valence":"win","action":"no-go","sham":1,"trial_type":"pit-trial","trial_index":34,"time_elapsed":593325,"internal_node_id":"0.0-11.0","task_version":"battery-v0.2"},{"rune":"Y","rune_set":"elianto","hex":"#3366ff99","correct":32,"choice":32,"rt":679.8900000285357,"accuracy":1,"outcome":"+10","keys":[2180.8449999662116],"total_keys":1,"block":1,"trial":11,"stimulus":2,"robot":1,"valence":"win","action":"go","sham":0,"trial_type":"pit-trial","trial_index":35,"time_elapsed":596723,"internal_node_id":"0.0-12.0","task_version":"battery-v0.2"},{"rune":"M","rune_set":"elianto","hex":"#f73b6a7A","correct":-1,"choice":-1,"rt":-1,"accuracy":1,"outcome":"-1","keys":[],"total_keys":0,"block":1,"trial":12,"stimulus":0,"robot":4,"valence":"lose","action":"no-go","sham":0,"trial_type":"pit-trial","trial_index":36,"time_elapsed":600745,"internal_node_id":"0.0-13.0","task_version":"battery-v0.2"},{"rune":"Y","rune_set":"elianto","hex":"#3366ff99","correct":32,"choice":32,"rt":368.8649999676272,"accuracy":1,"outcome":"+10","keys":[1869.7699999902397],"total_keys":1,"block":1,"trial":13,"stimulus":2,"robot":1,"valence":"win","action":"go","sham":0,"trial_type":"pit-trial","trial_index":37,"time_elapsed":603834,"internal_node_id":"0.0-14.0","task_version":"battery-v0.2"},{"rune":"R","rune_set":"elianto","hex":"#f73b6a7A","correct":-1,"choice":-1,"rt":-1,"accuracy":1,"outcome":"-10","keys":[],"total_keys":0,"block":1,"trial":14,"stimulus":1,"robot":4,"valence":"lose","action":"no-go","sham":1,"trial_type":"pit-trial","trial_index":38,"time_elapsed":607856,"internal_node_id":"0.0-15.0","task_version":"battery-v0.2"},{"rune":"H","rune_set":"elianto","hex":"#3366ff99","correct":-1,"choice":32,"rt":628.9000000106171,"accuracy":0,"outcome":"+1","keys":[2129.259999957867],"total_keys":1,"block":1,"trial":15,"stimulus":3,"robot":2,"valence":"win","action":"no-go","sham":0,"trial_type":"pit-trial","trial_index":39,"time_elapsed":611208,"internal_node_id":"0.0-16.0","task_version":"battery-v0.2"},{"rune":"M","rune_set":"elianto","hex":"#f73b6a7A","correct":-1,"choice":-1,"rt":-1,"accuracy":1,"outcome":"-1","keys":[],"total_keys":0,"block":1,"trial":16,"stimulus":0,"robot":4,"valence":"lose","action":"no-go","sham":0,"trial_type":"pit-trial","trial_index":40,"time_elapsed":615217,"internal_node_id":"0.0-17.0","task_version":"battery-v0.2"},{"rune":"M","rune_set":"elianto","hex":"#f73b6a7A","correct":-1,"choice":-1,"rt":-1,"accuracy":1,"outcome":"-10","keys":[],"total_keys":0,"block":1,"trial":17,"stimulus":0,"robot":4,"valence":"lose","action":"no-go","sham":1,"trial_type":"pit-trial","trial_index":41,"time_elapsed":619232,"internal_node_id":"0.0-18.0","task_version":"battery-v0.2"},{"rune":"R","rune_set":"elianto","hex":"#f73b6a7A","correct":-1,"choice":32,"rt":762.4100000830367,"accuracy":0,"outcome":"-10","keys":[2262.3850000090897],"total_keys":1,"block":1,"trial":18,"stimulus":1,"robot":4,"valence":"lose","action":"no-go","sham":0,"trial_type":"pit-trial","trial_index":42,"time_elapsed":622709,"internal_node_id":"0.0-19.0","task_version":"battery-v0.2"},{"rune":"Y","rune_set":"elianto","hex":"#3366ff99","correct":32,"choice":-1,"rt":-1,"accuracy":0,"outcome":"+1","keys":[],"total_keys":0,"block":1,"trial":19,"stimulus":2,"robot":1,"valence":"win","action":"go","sham":0,"trial_type":"pit-trial","trial_index":43,"time_elapsed":626726,"internal_node_id":"0.0-20.0","task_version":"battery-v0.2"},{"rune":"H","rune_set":"elianto","hex":"#3366ff99","correct":-1,"choice":32,"rt":489.80500001925975,"accuracy":0,"outcome":"+1","keys":[1990.1049999753013],"total_keys":1,"block":1,"trial":20,"stimulus":3,"robot":2,"valence":"win","action":"no-go","sham":0,"trial_type":"pit-trial","trial_index":44,"time_elapsed":629929,"internal_node_id":"0.0-21.0","task_version":"battery-v0.2"},{"rune":"R","rune_set":"elianto","hex":"#f73b6a7A","correct":-1,"choice":-1,"rt":-1,"accuracy":1,"outcome":"-1","keys":[],"total_keys":0,"block":1,"trial":21,"stimulus":1,"robot":4,"valence":"lose","action":"no-go","sham":0,"trial_type":"pit-trial","trial_index":45,"time_elapsed":633968,"internal_node_id":"0.0-22.0","task_version":"battery-v0.2"},{"rune":"Y","rune_set":"elianto","hex":"#3366ff99","correct":32,"choice":32,"rt":676.2950000120327,"accuracy":1,"outcome":"+10","keys":[2177.5899999774992],"total_keys":1,"block":1,"trial":22,"stimulus":2,"robot":1,"valence":"win","action":"go","sham":0,"trial_type":"pit-trial","trial_index":46,"time_elapsed":637358,"internal_node_id":"0.0-23.0","task_version":"battery-v0.2"},{"rune":"H","rune_set":"elianto","hex":"#3366ff99","correct":-1,"choice":-1,"rt":-1,"accuracy":1,"outcome":"+10","keys":[],"total_keys":0,"block":1,"trial":23,"stimulus":3,"robot":2,"valence":"win","action":"no-go","sham":0,"trial_type":"pit-trial","trial_index":47,"time_elapsed":641373,"internal_node_id":"0.0-24.0","task_version":"battery-v0.2"},{"rune":"M","rune_set":"elianto","hex":"#f73b6a7A","correct":-1,"choice":-1,"rt":-1,"accuracy":1,"outcome":"-1","keys":[],"total_keys":0,"block":1,"trial":24,"stimulus":0,"robot":4,"valence":"lose","action":"no-go","sham":0,"trial_type":"pit-trial","trial_index":48,"time_elapsed":645392,"internal_node_id":"0.0-25.0","task_version":"battery-v0.2"},{"rune":"M","rune_set":"elianto","hex":"#f73b6a7A","correct":-1,"choice":-1,"rt":-1,"accuracy":1,"outcome":"-1","keys":[],"total_keys":0,"block":1,"trial":25,"stimulus":0,"robot":4,"valence":"lose","action":"no-go","sham":0,"trial_type":"pit-trial","trial_index":49,"time_elapsed":649414,"internal_node_id":"0.0-26.0","task_version":"battery-v0.2"},{"rune":"R","rune_set":"elianto","hex":"#f73b6a7A","correct":-1,"choice":32,"rt":638.3949998999014,"accuracy":0,"outcome":"-10","keys":[2140.144999953918],"total_keys":1,"block":1,"trial":26,"stimulus":1,"robot":4,"valence":"lose","action":"no-go","sham":0,"trial_type":"pit-trial","trial_index":50,"time_elapsed":652775,"internal_node_id":"0.0-27.0","task_version":"battery-v0.2"},{"rune":"Y","rune_set":"elianto","hex":"#3366ff99","correct":32,"choice":32,"rt":510.2000000188127,"accuracy":1,"outcome":"+10","keys":[2010.164999985136],"total_keys":1,"block":1,"trial":27,"stimulus":2,"robot":1,"valence":"win","action":"go","sham":0,"trial_type":"pit-trial","trial_index":51,"time_elapsed":656002,"internal_node_id":"0.0-28.0","task_version":"battery-v0.2"},{"rune":"H","rune_set":"elianto","hex":"#3366ff99","correct":-1,"choice":32,"rt":900.2549999859184,"accuracy":0,"outcome":"+1","keys":[2401.774999918416],"total_keys":1,"block":1,"trial":28,"stimulus":3,"robot":2,"valence":"win","action":"no-go","sham":0,"trial_type":"pit-trial","trial_index":52,"time_elapsed":659617,"internal_node_id":"0.0-29.0","task_version":"battery-v0.2"},{"rune":"Y","rune_set":"elianto","hex":"#3366ff99","correct":32,"choice":32,"rt":636.0100000165403,"accuracy":1,"outcome":"+10","keys":[2137.059999979101],"total_keys":1,"block":1,"trial":29,"stimulus":2,"robot":1,"valence":"win","action":"go","sham":0,"trial_type":"pit-trial","trial_index":53,"time_elapsed":662976,"internal_node_id":"0.0-30.0","task_version":"battery-v0.2"},{"rune":"R","rune_set":"elianto","hex":"#f73b6a7A","correct":-1,"choice":-1,"rt":-1,"accuracy":1,"outcome":"-1","keys":[],"total_keys":0,"block":1,"trial":30,"stimulus":1,"robot":4,"valence":"lose","action":"no-go","sham":0,"trial_type":"pit-trial","trial_index":54,"time_elapsed":666990,"internal_node_id":"0.0-31.0","task_version":"battery-v0.2"},{"rune":"H","rune_set":"elianto","hex":"#3366ff99","correct":-1,"choice":-1,"rt":-1,"accuracy":1,"outcome":"+10","keys":[3527.4099999805912],"total_keys":1,"block":1,"trial":31,"stimulus":3,"robot":2,"valence":"win","action":"no-go","sham":0,"trial_type":"pit-trial","trial_index":55,"time_elapsed":671015,"internal_node_id":"0.0-32.0","task_version":"battery-v0.2"},{"rune":"M","rune_set":"elianto","hex":"#f73b6a7A","correct":-1,"choice":-1,"rt":-1,"accuracy":1,"outcome":"-10","keys":[],"total_keys":0,"block":1,"trial":32,"stimulus":0,"robot":4,"valence":"lose","action":"no-go","sham":1,"trial_type":"pit-trial","trial_index":56,"time_elapsed":675032,"internal_node_id":"0.0-33.0","task_version":"battery-v0.2"},{"rune":"Z","rune_set":"elianto","hex":"#f73b6a7A","correct":32,"choice":-1,"rt":-1,"accuracy":0,"outcome":"-1","keys":[],"total_keys":0,"block":1,"trial":33,"stimulus":4,"robot":3,"valence":"lose","action":"go","sham":1,"trial_type":"pit-trial","trial_index":57,"time_elapsed":679048,"internal_node_id":"0.0-34.0","task_version":"battery-v0.2"},{"rune":"M","rune_set":"elianto","hex":"#f73b6a7A","correct":-1,"choice":32,"rt":409.22500006854534,"accuracy":0,"outcome":"-10","keys":[1910.4850000003353],"total_keys":1,"block":1,"trial":34,"stimulus":0,"robot":4,"valence":"lose","action":"no-go","sham":0,"trial_type":"pit-trial","trial_index":58,"time_elapsed":682169,"internal_node_id":"0.0-35.0","task_version":"battery-v0.2"},{"rune":"Y","rune_set":"elianto","hex":"#3366ff99","correct":32,"choice":32,"rt":1140.720000024885,"accuracy":1,"outcome":"+10","keys":[2641.505000065081],"total_keys":1,"block":1,"trial":35,"stimulus":2,"robot":1,"valence":"win","action":"go","sham":0,"trial_type":"pit-trial","trial_index":59,"time_elapsed":686027,"internal_node_id":"0.0-36.0","task_version":"battery-v0.2"},{"rune":"H","rune_set":"elianto","hex":"#3366ff99","correct":-1,"choice":-1,"rt":-1,"accuracy":1,"outcome":"+10","keys":[],"total_keys":0,"block":1,"trial":36,"stimulus":3,"robot":2,"valence":"win","action":"no-go","sham":0,"trial_type":"pit-trial","trial_index":60,"time_elapsed":690040,"internal_node_id":"0.0-37.0","task_version":"battery-v0.2"},{"rune":"H","rune_set":"elianto","hex":"#3366ff99","correct":-1,"choice":-1,"rt":-1,"accuracy":1,"outcome":"+10","keys":[],"total_keys":0,"block":1,"trial":37,"stimulus":3,"robot":2,"valence":"win","action":"no-go","sham":0,"trial_type":"pit-trial","trial_index":61,"time_elapsed":694064,"internal_node_id":"0.0-38.0","task_version":"battery-v0.2"},{"rune":"Y","rune_set":"elianto","hex":"#3366ff99","correct":32,"choice":32,"rt":690.8450000919402,"accuracy":1,"outcome":"+10","keys":[2191.1550000077114],"total_keys":1,"block":1,"trial":38,"stimulus":2,"robot":1,"valence":"win","action":"go","sham":0,"trial_type":"pit-trial","trial_index":62,"time_elapsed":697466,"internal_node_id":"0.0-39.0","task_version":"battery-v0.2"},{"rune":"Z","rune_set":"elianto","hex":"#f73b6a7A","correct":32,"choice":-1,"rt":-1,"accuracy":0,"outcome":"-10","keys":[782.1900000562891],"total_keys":1,"block":1,"trial":39,"stimulus":4,"robot":3,"valence":"lose","action":"go","sham":0,"trial_type":"pit-trial","trial_index":63,"time_elapsed":701488,"internal_node_id":"0.0-40.0","task_version":"battery-v0.2"},{"rune":"M","rune_set":"elianto","hex":"#f73b6a7A","correct":-1,"choice":-1,"rt":-1,"accuracy":1,"outcome":"-1","keys":[],"total_keys":0,"block":1,"trial":40,"stimulus":0,"robot":4,"valence":"lose","action":"no-go","sham":0,"trial_type":"pit-trial","trial_index":64,"time_elapsed":705507,"internal_node_id":"0.0-41.0","task_version":"battery-v0.2"},{"rune":"Z","rune_set":"elianto","hex":"#f73b6a7A","correct":32,"choice":-1,"rt":-1,"accuracy":0,"outcome":"-10","keys":[2982.0349999936298],"total_keys":1,"block":1,"trial":41,"stimulus":4,"robot":3,"valence":"lose","action":"go","sham":0,"trial_type":"pit-trial","trial_index":65,"time_elapsed":709525,"internal_node_id":"0.0-42.0","task_version":"battery-v0.2"},{"rune":"C","rune_set":"elianto","hex":"#3366ff99","correct":-1,"choice":-1,"rt":-1,"accuracy":1,"outcome":"+10","keys":[],"total_keys":0,"block":1,"trial":42,"stimulus":5,"robot":2,"valence":"win","action":"no-go","sham":0,"trial_type":"pit-trial","trial_index":66,"time_elapsed":713545,"internal_node_id":"0.0-43.0","task_version":"battery-v0.2"},{"rune":"B","rune_set":"elianto","hex":"#3366ff99","correct":32,"choice":-1,"rt":-1,"accuracy":0,"outcome":"+1","keys":[],"total_keys":0,"block":1,"trial":43,"stimulus":6,"robot":1,"valence":"win","action":"go","sham":0,"trial_type":"pit-trial","trial_index":67,"time_elapsed":717561,"internal_node_id":"0.0-44.0","task_version":"battery-v0.2"},{"rune":"M","rune_set":"elianto","hex":"#f73b6a7A","correct":-1,"choice":-1,"rt":-1,"accuracy":1,"outcome":"-1","keys":[],"total_keys":0,"block":1,"trial":44,"stimulus":0,"robot":4,"valence":"lose","action":"no-go","sham":0,"trial_type":"pit-trial","trial_index":68,"time_elapsed":721575,"internal_node_id":"0.0-45.0","task_version":"battery-v0.2"},{"rune":"M","rune_set":"elianto","hex":"#f73b6a7A","correct":-1,"choice":-1,"rt":-1,"accuracy":1,"outcome":"-1","keys":[],"total_keys":0,"block":1,"trial":45,"stimulus":0,"robot":4,"valence":"lose","action":"no-go","sham":0,"trial_type":"pit-trial","trial_index":69,"time_elapsed":725586,"internal_node_id":"0.0-46.0","task_version":"battery-v0.2"},{"rune":"C","rune_set":"elianto","hex":"#3366ff99","correct":-1,"choice":-1,"rt":-1,"accuracy":1,"outcome":"+10","keys":[],"total_keys":0,"block":1,"trial":46,"stimulus":5,"robot":2,"valence":"win","action":"no-go","sham":0,"trial_type":"pit-trial","trial_index":70,"time_elapsed":729601,"internal_node_id":"0.0-47.0","task_version":"battery-v0.2"},{"rune":"B","rune_set":"elianto","hex":"#3366ff99","correct":32,"choice":32,"rt":769.9300000676885,"accuracy":1,"outcome":"+1","keys":[2269.940000027418],"total_keys":1,"block":1,"trial":47,"stimulus":6,"robot":1,"valence":"win","action":"go","sham":1,"trial_type":"pit-trial","trial_index":71,"time_elapsed":733089,"internal_node_id":"0.0-48.0","task_version":"battery-v0.2"},{"rune":"Z","rune_set":"elianto","hex":"#f73b6a7A","correct":32,"choice":-1,"rt":-1,"accuracy":0,"outcome":"-1","keys":[],"total_keys":0,"block":1,"trial":48,"stimulus":4,"robot":3,"valence":"lose","action":"go","sham":1,"trial_type":"pit-trial","trial_index":72,"time_elapsed":737108,"internal_node_id":"0.0-49.0","task_version":"battery-v0.2"},{"rune":"T","rune_set":"elianto","hex":"#f73b6a7A","correct":-1,"choice":-1,"rt":-1,"accuracy":1,"outcome":"-10","keys":[],"total_keys":0,"block":1,"trial":49,"stimulus":7,"robot":4,"valence":"lose","action":"no-go","sham":1,"trial_type":"pit-trial","trial_index":73,"time_elapsed":741134,"internal_node_id":"0.0-50.0","task_version":"battery-v0.2"},{"rune":"Z","rune_set":"elianto","hex":"#f73b6a7A","correct":32,"choice":-1,"rt":-1,"accuracy":0,"outcome":"-1","keys":[],"total_keys":0,"block":1,"trial":50,"stimulus":4,"robot":3,"valence":"lose","action":"go","sham":1,"trial_type":"pit-trial","trial_index":74,"time_elapsed":745152,"internal_node_id":"0.0-51.0","task_version":"battery-v0.2"},{"rune":"B","rune_set":"elianto","hex":"#3366ff99","correct":32,"choice":32,"rt":814.4099999917671,"accuracy":1,"outcome":"+10","keys":[2314.5149999763817],"total_keys":1,"block":1,"trial":51,"stimulus":6,"robot":1,"valence":"win","action":"go","sham":0,"trial_type":"pit-trial","trial_index":75,"time_elapsed":748687,"internal_node_id":"0.0-52.0","task_version":"battery-v0.2"},{"rune":"C","rune_set":"elianto","hex":"#3366ff99","correct":-1,"choice":-1,"rt":-1,"accuracy":1,"outcome":"+10","keys":[],"total_keys":0,"block":1,"trial":52,"stimulus":5,"robot":2,"valence":"win","action":"no-go","sham":0,"trial_type":"pit-trial","trial_index":76,"time_elapsed":752706,"internal_node_id":"0.0-53.0","task_version":"battery-v0.2"},{"rune":"Z","rune_set":"elianto","hex":"#f73b6a7A","correct":32,"choice":-1,"rt":-1,"accuracy":0,"outcome":"-10","keys":[],"total_keys":0,"block":1,"trial":53,"stimulus":4,"robot":3,"valence":"lose","action":"go","sham":0,"trial_type":"pit-trial","trial_index":77,"time_elapsed":756725,"internal_node_id":"0.0-54.0","task_version":"battery-v0.2"},{"rune":"C","rune_set":"elianto","hex":"#3366ff99","correct":-1,"choice":32,"rt":1143.2400000048801,"accuracy":0,"outcome":"+1","keys":[2643.4750000480562],"total_keys":1,"block":1,"trial":54,"stimulus":5,"robot":2,"valence":"win","action":"no-go","sham":0,"trial_type":"pit-trial","trial_index":78,"time_elapsed":760586,"internal_node_id":"0.0-55.0","task_version":"battery-v0.2"},{"rune":"B","rune_set":"elianto","hex":"#3366ff99","correct":32,"choice":32,"rt":587.059999932535,"accuracy":1,"outcome":"+10","keys":[2087.5500000547618],"total_keys":1,"block":1,"trial":55,"stimulus":6,"robot":1,"valence":"win","action":"go","sham":0,"trial_type":"pit-trial","trial_index":79,"time_elapsed":763892,"internal_node_id":"0.0-56.0","task_version":"battery-v0.2"},{"rune":"T","rune_set":"elianto","hex":"#f73b6a7A","correct":-1,"choice":-1,"rt":-1,"accuracy":1,"outcome":"-1","keys":[],"total_keys":0,"block":1,"trial":56,"stimulus":7,"robot":4,"valence":"lose","action":"no-go","sham":0,"trial_type":"pit-trial","trial_index":80,"time_elapsed":767917,"internal_node_id":"0.0-57.0","task_version":"battery-v0.2"},{"rune":"T","rune_set":"elianto","hex":"#f73b6a7A","correct":-1,"choice":32,"rt":504.1300000157207,"accuracy":0,"outcome":"-10","keys":[2004.1000000201166],"total_keys":1,"block":1,"trial":57,"stimulus":7,"robot":4,"valence":"lose","action":"no-go","sham":0,"trial_type":"pit-trial","trial_index":81,"time_elapsed":771142,"internal_node_id":"0.0-58.0","task_version":"battery-v0.2"},{"rune":"B","rune_set":"elianto","hex":"#3366ff99","correct":32,"choice":-1,"rt":-1,"accuracy":0,"outcome":"+10","keys":[],"total_keys":0,"block":1,"trial":58,"stimulus":6,"robot":1,"valence":"win","action":"go","sham":1,"trial_type":"pit-trial","trial_index":82,"time_elapsed":775161,"internal_node_id":"0.0-59.0","task_version":"battery-v0.2"},{"rune":"C","rune_set":"elianto","hex":"#3366ff99","correct":-1,"choice":-1,"rt":-1,"accuracy":1,"outcome":"+1","keys":[],"total_keys":0,"block":1,"trial":59,"stimulus":5,"robot":2,"valence":"win","action":"no-go","sham":1,"trial_type":"pit-trial","trial_index":83,"time_elapsed":779180,"internal_node_id":"0.0-60.0","task_version":"battery-v0.2"},{"rune":"Z","rune_set":"elianto","hex":"#f73b6a7A","correct":32,"choice":32,"rt":577.9849999817088,"accuracy":1,"outcome":"-1","keys":[2078.6450000014156],"total_keys":1,"block":1,"trial":60,"stimulus":4,"robot":3,"valence":"lose","action":"go","sham":0,"trial_type":"pit-trial","trial_index":84,"time_elapsed":782478,"internal_node_id":"0.0-61.0","task_version":"battery-v0.2"},{"rune":"C","rune_set":"elianto","hex":"#3366ff99","correct":-1,"choice":-1,"rt":-1,"accuracy":1,"outcome":"+10","keys":[],"total_keys":0,"block":1,"trial":61,"stimulus":5,"robot":2,"valence":"win","action":"no-go","sham":0,"trial_type":"pit-trial","trial_index":85,"time_elapsed":786495,"internal_node_id":"0.0-62.0","task_version":"battery-v0.2"},{"rune":"Z","rune_set":"elianto","hex":"#f73b6a7A","correct":32,"choice":-1,"rt":-1,"accuracy":0,"outcome":"-1","keys":[],"total_keys":0,"block":1,"trial":62,"stimulus":4,"robot":3,"valence":"lose","action":"go","sham":1,"trial_type":"pit-trial","trial_index":86,"time_elapsed":790507,"internal_node_id":"0.0-63.0","task_version":"battery-v0.2"},{"rune":"T","rune_set":"elianto","hex":"#f73b6a7A","correct":-1,"choice":-1,"rt":-1,"accuracy":1,"outcome":"-1","keys":[],"total_keys":0,"block":1,"trial":63,"stimulus":7,"robot":4,"valence":"lose","action":"no-go","sham":0,"trial_type":"pit-trial","trial_index":87,"time_elapsed":794523,"internal_node_id":"0.0-64.0","task_version":"battery-v0.2"},{"rune":"B","rune_set":"elianto","hex":"#3366ff99","correct":32,"choice":32,"rt":452.419999986887,"accuracy":1,"outcome":"+10","keys":[1954.2099999962375],"total_keys":1,"block":1,"trial":64,"stimulus":6,"robot":1,"valence":"win","action":"go","sham":0,"trial_type":"pit-trial","trial_index":88,"time_elapsed":797694,"internal_node_id":"0.0-65.0","task_version":"battery-v0.2"},{"rune":"T","rune_set":"elianto","hex":"#f73b6a7A","correct":-1,"choice":-1,"rt":-1,"accuracy":1,"outcome":"-1","keys":[],"total_keys":0,"block":1,"trial":65,"stimulus":7,"robot":4,"valence":"lose","action":"no-go","sham":0,"trial_type":"pit-trial","trial_index":89,"time_elapsed":801709,"internal_node_id":"0.0-66.0","task_version":"battery-v0.2"},{"rune":"C","rune_set":"elianto","hex":"#3366ff99","correct":-1,"choice":32,"rt":592.8249999415129,"accuracy":0,"outcome":"+1","keys":[2092.9849999956787],"total_keys":1,"block":1,"trial":66,"stimulus":5,"robot":2,"valence":"win","action":"no-go","sham":0,"trial_type":"pit-trial","trial_index":90,"time_elapsed":805013,"internal_node_id":"0.0-67.0","task_version":"battery-v0.2"},{"rune":"Z","rune_set":"elianto","hex":"#f73b6a7A","correct":32,"choice":32,"rt":885.7800000114366,"accuracy":1,"outcome":"-1","keys":[2386.75000006333],"total_keys":1,"block":1,"trial":67,"stimulus":4,"robot":3,"valence":"lose","action":"go","sham":0,"trial_type":"pit-trial","trial_index":91,"time_elapsed":808606,"internal_node_id":"0.0-68.0","task_version":"battery-v0.2"},{"rune":"B","rune_set":"elianto","hex":"#3366ff99","correct":32,"choice":-1,"rt":-1,"accuracy":0,"outcome":"+1","keys":[],"total_keys":0,"block":1,"trial":68,"stimulus":6,"robot":1,"valence":"win","action":"go","sham":0,"trial_type":"pit-trial","trial_index":92,"time_elapsed":812625,"internal_node_id":"0.0-69.0","task_version":"battery-v0.2"},{"rune":"Z","rune_set":"elianto","hex":"#f73b6a7A","correct":32,"choice":-1,"rt":-1,"accuracy":0,"outcome":"-1","keys":[],"total_keys":0,"block":1,"trial":69,"stimulus":4,"robot":3,"valence":"lose","action":"go","sham":1,"trial_type":"pit-trial","trial_index":93,"time_elapsed":816644,"internal_node_id":"0.0-70.0","task_version":"battery-v0.2"},{"rune":"T","rune_set":"elianto","hex":"#f73b6a7A","correct":-1,"choice":32,"rt":891.6100000496954,"accuracy":0,"outcome":"-10","keys":[2391.5750000160187],"total_keys":1,"block":1,"trial":70,"stimulus":7,"robot":4,"valence":"lose","action":"no-go","sham":0,"trial_type":"pit-trial","trial_index":94,"time_elapsed":820256,"internal_node_id":"0.0-71.0","task_version":"battery-v0.2"},{"rune":"C","rune_set":"elianto","hex":"#3366ff99","correct":-1,"choice":-1,"rt":-1,"accuracy":1,"outcome":"+1","keys":[],"total_keys":0,"block":1,"trial":71,"stimulus":5,"robot":2,"valence":"win","action":"no-go","sham":1,"trial_type":"pit-trial","trial_index":95,"time_elapsed":824273,"internal_node_id":"0.0-72.0","task_version":"battery-v0.2"},{"rune":"B","rune_set":"elianto","hex":"#3366ff99","correct":32,"choice":32,"rt":417.4649999476969,"accuracy":1,"outcome":"+10","keys":[1917.600000044331],"total_keys":1,"block":1,"trial":72,"stimulus":6,"robot":1,"valence":"win","action":"go","sham":0,"trial_type":"pit-trial","trial_index":96,"time_elapsed":827400,"internal_node_id":"0.0-73.0","task_version":"battery-v0.2"},{"rune":"T","rune_set":"elianto","hex":"#f73b6a7A","correct":-1,"choice":-1,"rt":-1,"accuracy":1,"outcome":"-10","keys":[],"total_keys":0,"block":1,"trial":73,"stimulus":7,"robot":4,"valence":"lose","action":"no-go","sham":1,"trial_type":"pit-trial","trial_index":97,"time_elapsed":831413,"internal_node_id":"0.0-74.0","task_version":"battery-v0.2"},{"rune":"F","rune_set":"elianto","hex":"#f73b6a7A","correct":32,"choice":-1,"rt":-1,"accuracy":0,"outcome":"-10","keys":[],"total_keys":0,"block":1,"trial":74,"stimulus":9,"robot":3,"valence":"lose","action":"go","sham":0,"trial_type":"pit-trial","trial_index":98,"time_elapsed":835438,"internal_node_id":"0.0-75.0","task_version":"battery-v0.2"},{"rune":"C","rune_set":"elianto","hex":"#3366ff99","correct":-1,"choice":-1,"rt":-1,"accuracy":1,"outcome":"+10","keys":[3368.2950000511482],"total_keys":1,"block":1,"trial":75,"stimulus":5,"robot":2,"valence":"win","action":"no-go","sham":0,"trial_type":"pit-trial","trial_index":99,"time_elapsed":839458,"internal_node_id":"0.0-76.0","task_version":"battery-v0.2"},{"rune":"X","rune_set":"elianto","hex":"#3366ff99","correct":32,"choice":32,"rt":653.0400000046939,"accuracy":1,"outcome":"+10","keys":[2157.4150000233203],"total_keys":1,"block":1,"trial":76,"stimulus":8,"robot":1,"valence":"win","action":"go","sham":0,"trial_type":"pit-trial","trial_index":100,"time_elapsed":842829,"internal_node_id":"0.0-77.0","task_version":"battery-v0.2"},{"rune":"X","rune_set":"elianto","hex":"#3366ff99","correct":32,"choice":-1,"rt":-1,"accuracy":0,"outcome":"+10","keys":[],"total_keys":0,"block":1,"trial":77,"stimulus":8,"robot":1,"valence":"win","action":"go","sham":1,"trial_type":"pit-trial","trial_index":101,"time_elapsed":846847,"internal_node_id":"0.0-78.0","task_version":"battery-v0.2"},{"rune":"C","rune_set":"elianto","hex":"#3366ff99","correct":-1,"choice":32,"rt":648.2500000856817,"accuracy":0,"outcome":"+1","keys":[2149.8800000408664],"total_keys":1,"block":1,"trial":78,"stimulus":5,"robot":2,"valence":"win","action":"no-go","sham":0,"trial_type":"pit-trial","trial_index":102,"time_elapsed":850214,"internal_node_id":"0.0-79.0","task_version":"battery-v0.2"},{"rune":"T","rune_set":"elianto","hex":"#f73b6a7A","correct":-1,"choice":-1,"rt":-1,"accuracy":1,"outcome":"-10","keys":[],"total_keys":0,"block":1,"trial":79,"stimulus":7,"robot":4,"valence":"lose","action":"no-go","sham":1,"trial_type":"pit-trial","trial_index":103,"time_elapsed":854228,"internal_node_id":"0.0-80.0","task_version":"battery-v0.2"},{"rune":"F","rune_set":"elianto","hex":"#f73b6a7A","correct":32,"choice":32,"rt":471.0000000195578,"accuracy":1,"outcome":"-1","keys":[1972.025000024587],"total_keys":1,"block":1,"trial":80,"stimulus":9,"robot":3,"valence":"lose","action":"go","sham":0,"trial_type":"pit-trial","trial_index":104,"time_elapsed":857414,"internal_node_id":"0.0-81.0","task_version":"battery-v0.2"},{"rune":"C","rune_set":"elianto","hex":"#3366ff99","correct":-1,"choice":-1,"rt":-1,"accuracy":1,"outcome":"+10","keys":[],"total_keys":0,"block":1,"trial":81,"stimulus":5,"robot":2,"valence":"win","action":"no-go","sham":0,"trial_type":"pit-trial","trial_index":105,"time_elapsed":861434,"internal_node_id":"0.0-82.0","task_version":"battery-v0.2"},{"rune":"F","rune_set":"elianto","hex":"#f73b6a7A","correct":32,"choice":32,"rt":528.8850000360981,"accuracy":1,"outcome":"-1","keys":[2030.559999984689],"total_keys":1,"block":1,"trial":82,"stimulus":9,"robot":3,"valence":"lose","action":"go","sham":0,"trial_type":"pit-trial","trial_index":106,"time_elapsed":864675,"internal_node_id":"0.0-83.0","task_version":"battery-v0.2"},{"rune":"X","rune_set":"elianto","hex":"#3366ff99","correct":32,"choice":-1,"rt":-1,"accuracy":0,"outcome":"+1","keys":[],"total_keys":0,"block":1,"trial":83,"stimulus":8,"robot":1,"valence":"win","action":"go","sham":0,"trial_type":"pit-trial","trial_index":107,"time_elapsed":868693,"internal_node_id":"0.0-84.0","task_version":"battery-v0.2"},{"rune":"T","rune_set":"elianto","hex":"#f73b6a7A","correct":-1,"choice":32,"rt":656.8749999860302,"accuracy":0,"outcome":"-1","keys":[2158.545000012964],"total_keys":1,"block":1,"trial":84,"stimulus":7,"robot":4,"valence":"lose","action":"no-go","sham":1,"trial_type":"pit-trial","trial_index":108,"time_elapsed":872071,"internal_node_id":"0.0-85.0","task_version":"battery-v0.2"},{"rune":"C","rune_set":"elianto","hex":"#3366ff99","correct":-1,"choice":-1,"rt":-1,"accuracy":1,"outcome":"+10","keys":[],"total_keys":0,"block":1,"trial":85,"stimulus":5,"robot":2,"valence":"win","action":"no-go","sham":0,"trial_type":"pit-trial","trial_index":109,"time_elapsed":876086,"internal_node_id":"0.0-86.0","task_version":"battery-v0.2"},{"rune":"T","rune_set":"elianto","hex":"#f73b6a7A","correct":-1,"choice":32,"rt":587.1249999618158,"accuracy":0,"outcome":"-10","keys":[2088.534999988042],"total_keys":1,"block":1,"trial":86,"stimulus":7,"robot":4,"valence":"lose","action":"no-go","sham":0,"trial_type":"pit-trial","trial_index":110,"time_elapsed":879385,"internal_node_id":"0.0-87.0","task_version":"battery-v0.2"},{"rune":"F","rune_set":"elianto","hex":"#f73b6a7A","correct":32,"choice":-1,"rt":-1,"accuracy":0,"outcome":"-10","keys":[],"total_keys":0,"block":1,"trial":87,"stimulus":9,"robot":3,"valence":"lose","action":"go","sham":0,"trial_type":"pit-trial","trial_index":111,"time_elapsed":883402,"internal_node_id":"0.0-88.0","task_version":"battery-v0.2"},{"rune":"X","rune_set":"elianto","hex":"#3366ff99","correct":32,"choice":32,"rt":446.0150001104921,"accuracy":1,"outcome":"+1","keys":[1946.3999998988584],"total_keys":1,"block":1,"trial":88,"stimulus":8,"robot":1,"valence":"win","action":"go","sham":1,"trial_type":"pit-trial","trial_index":112,"time_elapsed":886560,"internal_node_id":"0.0-89.0","task_version":"battery-v0.2"},{"rune":"Q","rune_set":"elianto","hex":"#3366ff99","correct":-1,"choice":32,"rt":557.0399999851361,"accuracy":0,"outcome":"+10","keys":[2058.284999919124],"total_keys":1,"block":1,"trial":89,"stimulus":11,"robot":2,"valence":"win","action":"no-go","sham":1,"trial_type":"pit-trial","trial_index":113,"time_elapsed":889837,"internal_node_id":"0.0-90.0","task_version":"battery-v0.2"},{"rune":"F","rune_set":"elianto","hex":"#f73b6a7A","correct":32,"choice":-1,"rt":-1,"accuracy":0,"outcome":"-10","keys":[],"total_keys":0,"block":1,"trial":90,"stimulus":9,"robot":3,"valence":"lose","action":"go","sham":0,"trial_type":"pit-trial","trial_index":114,"time_elapsed":893856,"internal_node_id":"0.0-91.0","task_version":"battery-v0.2"},{"rune":"N","rune_set":"elianto","hex":"#f73b6a7A","correct":32,"choice":32,"rt":675.8499999996275,"accuracy":1,"outcome":"-1","keys":[2177.224999992177],"total_keys":1,"block":1,"trial":91,"stimulus":10,"robot":3,"valence":"lose","action":"go","sham":0,"trial_type":"pit-trial","trial_index":115,"time_elapsed":897250,"internal_node_id":"0.0-92.0","task_version":"battery-v0.2"},{"rune":"X","rune_set":"elianto","hex":"#3366ff99","correct":32,"choice":32,"rt":654.1800000704825,"accuracy":1,"outcome":"+10","keys":[2155.7850000681356],"total_keys":1,"block":1,"trial":92,"stimulus":8,"robot":1,"valence":"win","action":"go","sham":0,"trial_type":"pit-trial","trial_index":116,"time_elapsed":900615,"internal_node_id":"0.0-93.0","task_version":"battery-v0.2"},{"rune":"F","rune_set":"elianto","hex":"#f73b6a7A","correct":32,"choice":32,"rt":644.7549998993054,"accuracy":1,"outcome":"-1","keys":[2145.9650000324473],"total_keys":1,"block":1,"trial":93,"stimulus":9,"robot":3,"valence":"lose","action":"go","sham":0,"trial_type":"pit-trial","trial_index":117,"time_elapsed":903967,"internal_node_id":"0.0-94.0","task_version":"battery-v0.2"},{"rune":"N","rune_set":"elianto","hex":"#f73b6a7A","correct":32,"choice":-1,"rt":-1,"accuracy":0,"outcome":"-10","keys":[],"total_keys":0,"block":1,"trial":94,"stimulus":10,"robot":3,"valence":"lose","action":"go","sham":0,"trial_type":"pit-trial","trial_index":118,"time_elapsed":907977,"internal_node_id":"0.0-95.0","task_version":"battery-v0.2"},{"rune":"X","rune_set":"elianto","hex":"#3366ff99","correct":32,"choice":32,"rt":538.0150000564754,"accuracy":1,"outcome":"+10","keys":[2039.3300000578165],"total_keys":1,"block":1,"trial":95,"stimulus":8,"robot":1,"valence":"win","action":"go","sham":0,"trial_type":"pit-trial","trial_index":119,"time_elapsed":911227,"internal_node_id":"0.0-96.0","task_version":"battery-v0.2"},{"rune":"Q","rune_set":"elianto","hex":"#3366ff99","correct":-1,"choice":-1,"rt":-1,"accuracy":1,"outcome":"+10","keys":[],"total_keys":0,"block":1,"trial":96,"stimulus":11,"robot":2,"valence":"win","action":"no-go","sham":0,"trial_type":"pit-trial","trial_index":120,"time_elapsed":915241,"internal_node_id":"0.0-97.0","task_version":"battery-v0.2"},{"rune":"N","rune_set":"elianto","hex":"#f73b6a7A","correct":32,"choice":32,"rt":594.2749999230728,"accuracy":1,"outcome":"-10","keys":[2094.799999962561],"total_keys":1,"block":1,"trial":97,"stimulus":10,"robot":3,"valence":"lose","action":"go","sham":1,"trial_type":"pit-trial","trial_index":121,"time_elapsed":918555,"internal_node_id":"0.0-98.0","task_version":"battery-v0.2"},{"rune":"Q","rune_set":"elianto","hex":"#3366ff99","correct":-1,"choice":-1,"rt":-1,"accuracy":1,"outcome":"+10","keys":[],"total_keys":0,"block":1,"trial":98,"stimulus":11,"robot":2,"valence":"win","action":"no-go","sham":0,"trial_type":"pit-trial","trial_index":122,"time_elapsed":922569,"internal_node_id":"0.0-99.0","task_version":"battery-v0.2"},{"rune":"F","rune_set":"elianto","hex":"#f73b6a7A","correct":32,"choice":32,"rt":781.4650000073016,"accuracy":1,"outcome":"-1","keys":[2283.030000049621],"total_keys":1,"block":1,"trial":99,"stimulus":9,"robot":3,"valence":"lose","action":"go","sham":0,"trial_type":"pit-trial","trial_index":123,"time_elapsed":926070,"internal_node_id":"0.0-100.0","task_version":"battery-v0.2"},{"rune":"X","rune_set":"elianto","hex":"#3366ff99","correct":32,"choice":32,"rt":744.7350000729784,"accuracy":1,"outcome":"+10","keys":[2245.2650000341237],"total_keys":1,"block":1,"trial":100,"stimulus":8,"robot":1,"valence":"win","action":"go","sham":0,"trial_type":"pit-trial","trial_index":124,"time_elapsed":929534,"internal_node_id":"0.0-101.0","task_version":"battery-v0.2"},{"rune":"F","rune_set":"elianto","hex":"#f73b6a7A","correct":32,"choice":32,"rt":972.4200000055134,"accuracy":1,"outcome":"-1","keys":[2473.215000005439],"total_keys":1,"block":1,"trial":101,"stimulus":9,"robot":3,"valence":"lose","action":"go","sham":0,"trial_type":"pit-trial","trial_index":125,"time_elapsed":933220,"internal_node_id":"0.0-102.0","task_version":"battery-v0.2"},{"rune":"N","rune_set":"elianto","hex":"#f73b6a7A","correct":32,"choice":-1,"rt":-1,"accuracy":0,"outcome":"-10","keys":[],"total_keys":0,"block":1,"trial":102,"stimulus":10,"robot":3,"valence":"lose","action":"go","sham":0,"trial_type":"pit-trial","trial_index":126,"time_elapsed":937233,"internal_node_id":"0.0-103.0","task_version":"battery-v0.2"},{"rune":"X","rune_set":"elianto","hex":"#3366ff99","correct":32,"choice":32,"rt":848.619999946095,"accuracy":1,"outcome":"+1","keys":[2349.3700000690296],"total_keys":1,"block":1,"trial":103,"stimulus":8,"robot":1,"valence":"win","action":"go","sham":1,"trial_type":"pit-trial","trial_index":127,"time_elapsed":940800,"internal_node_id":"0.0-104.0","task_version":"battery-v0.2"},{"rune":"Q","rune_set":"elianto","hex":"#3366ff99","correct":-1,"choice":-1,"rt":-1,"accuracy":1,"outcome":"+10","keys":[],"total_keys":0,"block":1,"trial":104,"stimulus":11,"robot":2,"valence":"win","action":"no-go","sham":0,"trial_type":"pit-trial","trial_index":128,"time_elapsed":944815,"internal_node_id":"0.0-105.0","task_version":"battery-v0.2"},{"rune":"X","rune_set":"elianto","hex":"#3366ff99","correct":32,"choice":32,"rt":882.634999928996,"accuracy":1,"outcome":"+10","keys":[2382.619999931194],"total_keys":1,"block":1,"trial":105,"stimulus":8,"robot":1,"valence":"win","action":"go","sham":0,"trial_type":"pit-trial","trial_index":129,"time_elapsed":948407,"internal_node_id":"0.0-106.0","task_version":"battery-v0.2"},{"rune":"F","rune_set":"elianto","hex":"#f73b6a7A","correct":32,"choice":32,"rt":863.5749999666587,"accuracy":1,"outcome":"-1","keys":[2365.5450000660494],"total_keys":1,"block":1,"trial":106,"stimulus":9,"robot":3,"valence":"lose","action":"go","sham":0,"trial_type":"pit-trial","trial_index":130,"time_elapsed":951987,"internal_node_id":"0.0-107.0","task_version":"battery-v0.2"},{"rune":"Q","rune_set":"elianto","hex":"#3366ff99","correct":-1,"choice":-1,"rt":-1,"accuracy":1,"outcome":"+10","keys":[],"total_keys":0,"block":1,"trial":107,"stimulus":11,"robot":2,"valence":"win","action":"no-go","sham":0,"trial_type":"pit-trial","trial_index":131,"time_elapsed":955996,"internal_node_id":"0.0-108.0","task_version":"battery-v0.2"},{"rune":"N","rune_set":"elianto","hex":"#f73b6a7A","correct":32,"choice":32,"rt":786.809999961406,"accuracy":1,"outcome":"-1","keys":[2286.9100000243634],"total_keys":1,"block":1,"trial":108,"stimulus":10,"robot":3,"valence":"lose","action":"go","sham":0,"trial_type":"pit-trial","trial_index":132,"time_elapsed":959498,"internal_node_id":"0.0-109.0","task_version":"battery-v0.2"},{"rune":"Q","rune_set":"elianto","hex":"#3366ff99","correct":-1,"choice":-1,"rt":-1,"accuracy":1,"outcome":"+10","keys":[],"total_keys":0,"block":1,"trial":109,"stimulus":11,"robot":2,"valence":"win","action":"no-go","sham":0,"trial_type":"pit-trial","trial_index":133,"time_elapsed":963518,"internal_node_id":"0.0-110.0","task_version":"battery-v0.2"},{"rune":"N","rune_set":"elianto","hex":"#f73b6a7A","correct":32,"choice":32,"rt":636.5849999710917,"accuracy":1,"outcome":"-1","keys":[2137.884999974631],"total_keys":1,"block":1,"trial":110,"stimulus":10,"robot":3,"valence":"lose","action":"go","sham":0,"trial_type":"pit-trial","trial_index":134,"time_elapsed":966873,"internal_node_id":"0.0-111.0","task_version":"battery-v0.2"},{"rune":"F","rune_set":"elianto","hex":"#f73b6a7A","correct":32,"choice":-1,"rt":-1,"accuracy":0,"outcome":"-10","keys":[],"total_keys":0,"block":1,"trial":111,"stimulus":9,"robot":3,"valence":"lose","action":"go","sham":0,"trial_type":"pit-trial","trial_index":135,"time_elapsed":970898,"internal_node_id":"0.0-112.0","task_version":"battery-v0.2"},{"rune":"X","rune_set":"elianto","hex":"#3366ff99","correct":32,"choice":32,"rt":367.71999998018146,"accuracy":1,"outcome":"+10","keys":[1868.8050000928342],"total_keys":1,"block":1,"trial":112,"stimulus":8,"robot":1,"valence":"win","action":"go","sham":0,"trial_type":"pit-trial","trial_index":136,"time_elapsed":973984,"internal_node_id":"0.0-113.0","task_version":"battery-v0.2"},{"rune":"Q","rune_set":"elianto","hex":"#3366ff99","correct":-1,"choice":-1,"rt":-1,"accuracy":1,"outcome":"+10","keys":[],"total_keys":0,"block":1,"trial":113,"stimulus":11,"robot":2,"valence":"win","action":"no-go","sham":0,"trial_type":"pit-trial","trial_index":137,"time_elapsed":977995,"internal_node_id":"0.0-114.0","task_version":"battery-v0.2"},{"rune":"X","rune_set":"elianto","hex":"#3366ff99","correct":32,"choice":32,"rt":229.4250000268221,"accuracy":1,"outcome":"+10","keys":[1730.1699999952689],"total_keys":1,"block":1,"trial":114,"stimulus":8,"robot":1,"valence":"win","action":"go","sham":0,"trial_type":"pit-trial","trial_index":138,"time_elapsed":980938,"internal_node_id":"0.0-115.0","task_version":"battery-v0.2"},{"rune":"F","rune_set":"elianto","hex":"#f73b6a7A","correct":32,"choice":-1,"rt":-1,"accuracy":0,"outcome":"-10","keys":[],"total_keys":0,"block":1,"trial":115,"stimulus":9,"robot":3,"valence":"lose","action":"go","sham":0,"trial_type":"pit-trial","trial_index":139,"time_elapsed":984961,"internal_node_id":"0.0-116.0","task_version":"battery-v0.2"},{"rune":"N","rune_set":"elianto","hex":"#f73b6a7A","correct":32,"choice":32,"rt":737.3249999945983,"accuracy":1,"outcome":"-10","keys":[2238.9649999095127],"total_keys":1,"block":1,"trial":116,"stimulus":10,"robot":3,"valence":"lose","action":"go","sham":1,"trial_type":"pit-trial","trial_index":140,"time_elapsed":988414,"internal_node_id":"0.0-117.0","task_version":"battery-v0.2"},{"rune":"X","rune_set":"elianto","hex":"#3366ff99","correct":32,"choice":32,"rt":710.0499999942258,"accuracy":1,"outcome":"+10","keys":[2210.3249999927357],"total_keys":1,"block":1,"trial":117,"stimulus":8,"robot":1,"valence":"win","action":"go","sham":0,"trial_type":"pit-trial","trial_index":141,"time_elapsed":991843,"internal_node_id":"0.0-118.0","task_version":"battery-v0.2"},{"rune":"N","rune_set":"elianto","hex":"#f73b6a7A","correct":32,"choice":-1,"rt":-1,"accuracy":0,"outcome":"-10","keys":[],"total_keys":0,"block":1,"trial":118,"stimulus":10,"robot":3,"valence":"lose","action":"go","sham":0,"trial_type":"pit-trial","trial_index":142,"time_elapsed":995864,"internal_node_id":"0.0-119.0","task_version":"battery-v0.2"},{"rune":"F","rune_set":"elianto","hex":"#f73b6a7A","correct":32,"choice":32,"rt":569.4399999920279,"accuracy":1,"outcome":"-1","keys":[2069.6299999253824],"total_keys":1,"block":1,"trial":119,"stimulus":9,"robot":3,"valence":"lose","action":"go","sham":0,"trial_type":"pit-trial","trial_index":143,"time_elapsed":999154,"internal_node_id":"0.0-120.0","task_version":"battery-v0.2"},{"rune":"Q","rune_set":"elianto","hex":"#3366ff99","correct":-1,"choice":-1,"rt":-1,"accuracy":1,"outcome":"+10","keys":[],"total_keys":0,"block":1,"trial":120,"stimulus":11,"robot":2,"valence":"win","action":"no-go","sham":0,"trial_type":"pit-trial","trial_index":144,"time_elapsed":1003174,"internal_node_id":"0.0-121.0","task_version":"battery-v0.2"},{"view_history":"[{\"page_index\":0,\"viewing_time\":4269.3949999520555},{\"page_index\":1,\"viewing_time\":1420.4600000521168}]","rt":5691.64999993518,"trial_type":"pit-instructions","trial_index":145,"time_elapsed":1008878,"internal_node_id":"0.0-122.0","task_version":"battery-v0.2"},{"rune":"D","rune_set":"elianto","hex":"#f73b6a7A","correct":-1,"choice":32,"rt":739.3450000090525,"accuracy":0,"outcome":"-1","keys":[2239.860000088811],"total_keys":1,"block":2,"trial":121,"stimulus":2,"robot":4,"valence":"lose","action":"no-go","sham":1,"trial_type":"pit-trial","trial_index":146,"time_elapsed":1012332,"internal_node_id":"0.0-123.0","task_version":"battery-v0.2"},{"rune":"K","rune_set":"elianto","hex":"#3366ff99","correct":32,"choice":-1,"rt":-1,"accuracy":0,"outcome":"+1","keys":[],"total_keys":0,"block":2,"trial":122,"stimulus":3,"robot":1,"valence":"win","action":"go","sham":0,"trial_type":"pit-trial","trial_index":147,"time_elapsed":1016342,"internal_node_id":"0.0-124.0","task_version":"battery-v0.2"},{"rune":"V","rune_set":"elianto","hex":"#3366ff99","correct":-1,"choice":-1,"rt":-1,"accuracy":1,"outcome":"+10","keys":[],"total_keys":0,"block":2,"trial":123,"stimulus":0,"robot":2,"valence":"win","action":"no-go","sham":0,"trial_type":"pit-trial","trial_index":148,"time_elapsed":1020359,"internal_node_id":"0.0-125.0","task_version":"battery-v0.2"},{"rune":"J","rune_set":"elianto","hex":"#3366ff99","correct":32,"choice":32,"rt":623.920000041835,"accuracy":1,"outcome":"+10","keys":[2124.0799999795854],"total_keys":1,"block":2,"trial":124,"stimulus":1,"robot":1,"valence":"win","action":"go","sham":0,"trial_type":"pit-trial","trial_index":149,"time_elapsed":1023694,"internal_node_id":"0.0-126.0","task_version":"battery-v0.2"},{"rune":"D","rune_set":"elianto","hex":"#f73b6a7A","correct":-1,"choice":32,"rt":520.5450000939891,"accuracy":0,"outcome":"-10","keys":[2020.6949999555945],"total_keys":1,"block":2,"trial":125,"stimulus":2,"robot":4,"valence":"lose","action":"no-go","sham":0,"trial_type":"pit-trial","trial_index":150,"time_elapsed":1026937,"internal_node_id":"0.0-127.0","task_version":"battery-v0.2"},{"rune":"J","rune_set":"elianto","hex":"#3366ff99","correct":32,"choice":-1,"rt":-1,"accuracy":0,"outcome":"+1","keys":[],"total_keys":0,"block":2,"trial":126,"stimulus":1,"robot":1,"valence":"win","action":"go","sham":0,"trial_type":"pit-trial","trial_index":151,"time_elapsed":1030969,"internal_node_id":"0.0-128.0","task_version":"battery-v0.2"},{"rune":"V","rune_set":"elianto","hex":"#3366ff99","correct":-1,"choice":32,"rt":713.8999999733642,"accuracy":0,"outcome":"+1","keys":[2214.5149999996647],"total_keys":1,"block":2,"trial":127,"stimulus":0,"robot":2,"valence":"win","action":"no-go","sham":0,"trial_type":"pit-trial","trial_index":152,"time_elapsed":1034400,"internal_node_id":"0.0-129.0","task_version":"battery-v0.2"},{"rune":"K","rune_set":"elianto","hex":"#3366ff99","correct":32,"choice":32,"rt":571.8900000210851,"accuracy":1,"outcome":"+10","keys":[2072.8050000034273],"total_keys":1,"block":2,"trial":128,"stimulus":3,"robot":1,"valence":"win","action":"go","sham":0,"trial_type":"pit-trial","trial_index":153,"time_elapsed":1037691,"internal_node_id":"0.0-130.0","task_version":"battery-v0.2"},{"rune":"D","rune_set":"elianto","hex":"#f73b6a7A","correct":-1,"choice":32,"rt":341.87000000383705,"accuracy":0,"outcome":"-10","keys":[1842.7499999525025],"total_keys":1,"block":2,"trial":129,"stimulus":2,"robot":4,"valence":"lose","action":"no-go","sham":0,"trial_type":"pit-trial","trial_index":154,"time_elapsed":1040745,"internal_node_id":"0.0-131.0","task_version":"battery-v0.2"},{"rune":"J","rune_set":"elianto","hex":"#3366ff99","correct":32,"choice":32,"rt":439.0099999727681,"accuracy":1,"outcome":"+10","keys":[1939.7249999456108],"total_keys":1,"block":2,"trial":130,"stimulus":1,"robot":1,"valence":"win","action":"go","sham":0,"trial_type":"pit-trial","trial_index":155,"time_elapsed":1043896,"internal_node_id":"0.0-132.0","task_version":"battery-v0.2"},{"rune":"K","rune_set":"elianto","hex":"#3366ff99","correct":32,"choice":-1,"rt":-1,"accuracy":0,"outcome":"+1","keys":[],"total_keys":0,"block":2,"trial":131,"stimulus":3,"robot":1,"valence":"win","action":"go","sham":0,"trial_type":"pit-trial","trial_index":156,"time_elapsed":1047918,"internal_node_id":"0.0-133.0","task_version":"battery-v0.2"},{"rune":"V","rune_set":"elianto","hex":"#3366ff99","correct":-1,"choice":32,"rt":769.1450000274926,"accuracy":0,"outcome":"+1","keys":[2270.50500002224],"total_keys":1,"block":2,"trial":132,"stimulus":0,"robot":2,"valence":"win","action":"no-go","sham":0,"trial_type":"pit-trial","trial_index":157,"time_elapsed":1051411,"internal_node_id":"0.0-134.0","task_version":"battery-v0.2"},{"rune":"K","rune_set":"elianto","hex":"#3366ff99","correct":32,"choice":32,"rt":642.920000012964,"accuracy":1,"outcome":"+10","keys":[2143.655000021681],"total_keys":1,"block":2,"trial":133,"stimulus":3,"robot":1,"valence":"win","action":"go","sham":0,"trial_type":"pit-trial","trial_index":158,"time_elapsed":1054778,"internal_node_id":"0.0-135.0","task_version":"battery-v0.2"},{"rune":"D","rune_set":"elianto","hex":"#f73b6a7A","correct":-1,"choice":32,"rt":825.3349999431521,"accuracy":0,"outcome":"-10","keys":[2327.4799999780953],"total_keys":1,"block":2,"trial":134,"stimulus":2,"robot":4,"valence":"lose","action":"no-go","sham":0,"trial_type":"pit-trial","trial_index":159,"time_elapsed":1058313,"internal_node_id":"0.0-136.0","task_version":"battery-v0.2"},{"rune":"J","rune_set":"elianto","hex":"#3366ff99","correct":32,"choice":32,"rt":616.1100000608712,"accuracy":1,"outcome":"+10","keys":[2116.855000029318],"total_keys":1,"block":2,"trial":135,"stimulus":1,"robot":1,"valence":"win","action":"go","sham":0,"trial_type":"pit-trial","trial_index":160,"time_elapsed":1061643,"internal_node_id":"0.0-137.0","task_version":"battery-v0.2"},{"rune":"V","rune_set":"elianto","hex":"#3366ff99","correct":-1,"choice":-1,"rt":-1,"accuracy":1,"outcome":"+10","keys":[],"total_keys":0,"block":2,"trial":136,"stimulus":0,"robot":2,"valence":"win","action":"no-go","sham":0,"trial_type":"pit-trial","trial_index":161,"time_elapsed":1065663,"internal_node_id":"0.0-138.0","task_version":"battery-v0.2"},{"rune":"V","rune_set":"elianto","hex":"#3366ff99","correct":-1,"choice":-1,"rt":-1,"accuracy":1,"outcome":"+1","keys":[],"total_keys":0,"block":2,"trial":137,"stimulus":0,"robot":2,"valence":"win","action":"no-go","sham":1,"trial_type":"pit-trial","trial_index":162,"time_elapsed":1069681,"internal_node_id":"0.0-139.0","task_version":"battery-v0.2"},{"rune":"K","rune_set":"elianto","hex":"#3366ff99","correct":32,"choice":-1,"rt":-1,"accuracy":0,"outcome":"+1","keys":[],"total_keys":0,"block":2,"trial":138,"stimulus":3,"robot":1,"valence":"win","action":"go","sham":0,"trial_type":"pit-trial","trial_index":163,"time_elapsed":1073702,"internal_node_id":"0.0-140.0","task_version":"battery-v0.2"},{"rune":"D","rune_set":"elianto","hex":"#f73b6a7A","correct":-1,"choice":-1,"rt":-1,"accuracy":1,"outcome":"-10","keys":[],"total_keys":0,"block":2,"trial":139,"stimulus":2,"robot":4,"valence":"lose","action":"no-go","sham":1,"trial_type":"pit-trial","trial_index":164,"time_elapsed":1077720,"internal_node_id":"0.0-141.0","task_version":"battery-v0.2"},{"rune":"J","rune_set":"elianto","hex":"#3366ff99","correct":32,"choice":-1,"rt":-1,"accuracy":0,"outcome":"+1","keys":[],"total_keys":0,"block":2,"trial":140,"stimulus":1,"robot":1,"valence":"win","action":"go","sham":0,"trial_type":"pit-trial","trial_index":165,"time_elapsed":1081737,"internal_node_id":"0.0-142.0","task_version":"battery-v0.2"},{"rune":"D","rune_set":"elianto","hex":"#f73b6a7A","correct":-1,"choice":32,"rt":773.0199999641627,"accuracy":0,"outcome":"-10","keys":[2274.4650000240654],"total_keys":1,"block":2,"trial":141,"stimulus":2,"robot":4,"valence":"lose","action":"no-go","sham":0,"trial_type":"pit-trial","trial_index":166,"time_elapsed":1085221,"internal_node_id":"0.0-143.0","task_version":"battery-v0.2"},{"rune":"J","rune_set":"elianto","hex":"#3366ff99","correct":32,"choice":32,"rt":582.204999984242,"accuracy":1,"outcome":"+10","keys":[2083.1550000002608],"total_keys":1,"block":2,"trial":142,"stimulus":1,"robot":1,"valence":"win","action":"go","sham":0,"trial_type":"pit-trial","trial_index":167,"time_elapsed":1088521,"internal_node_id":"0.0-144.0","task_version":"battery-v0.2"},{"rune":"V","rune_set":"elianto","hex":"#3366ff99","correct":-1,"choice":32,"rt":386.63500000257045,"accuracy":0,"outcome":"+1","keys":[1887.6699999673292],"total_keys":1,"block":2,"trial":143,"stimulus":0,"robot":2,"valence":"win","action":"no-go","sham":0,"trial_type":"pit-trial","trial_index":168,"time_elapsed":1091616,"internal_node_id":"0.0-145.0","task_version":"battery-v0.2"},{"rune":"K","rune_set":"elianto","hex":"#3366ff99","correct":32,"choice":32,"rt":948.314999928698,"accuracy":1,"outcome":"+1","keys":[2449.695000075735],"total_keys":1,"block":2,"trial":144,"stimulus":3,"robot":1,"valence":"win","action":"go","sham":1,"trial_type":"pit-trial","trial_index":169,"time_elapsed":1095279,"internal_node_id":"0.0-146.0","task_version":"battery-v0.2"},{"rune":"J","rune_set":"elianto","hex":"#3366ff99","correct":32,"choice":-1,"rt":-1,"accuracy":0,"outcome":"+10","keys":[],"total_keys":0,"block":2,"trial":145,"stimulus":1,"robot":1,"valence":"win","action":"go","sham":1,"trial_type":"pit-trial","trial_index":170,"time_elapsed":1099309,"internal_node_id":"0.0-147.0","task_version":"battery-v0.2"},{"rune":"K","rune_set":"elianto","hex":"#3366ff99","correct":32,"choice":32,"rt":606.2299999175593,"accuracy":1,"outcome":"+1","keys":[2106.8349999841303],"total_keys":1,"block":2,"trial":146,"stimulus":3,"robot":1,"valence":"win","action":"go","sham":1,"trial_type":"pit-trial","trial_index":171,"time_elapsed":1102635,"internal_node_id":"0.0-148.0","task_version":"battery-v0.2"},{"rune":"V","rune_set":"elianto","hex":"#3366ff99","correct":-1,"choice":-1,"rt":-1,"accuracy":1,"outcome":"+1","keys":[],"total_keys":0,"block":2,"trial":147,"stimulus":0,"robot":2,"valence":"win","action":"no-go","sham":1,"trial_type":"pit-trial","trial_index":172,"time_elapsed":1106654,"internal_node_id":"0.0-149.0","task_version":"battery-v0.2"},{"rune":"D","rune_set":"elianto","hex":"#f73b6a7A","correct":-1,"choice":-1,"rt":-1,"accuracy":1,"outcome":"-1","keys":[],"total_keys":0,"block":2,"trial":148,"stimulus":2,"robot":4,"valence":"lose","action":"no-go","sham":0,"trial_type":"pit-trial","trial_index":173,"time_elapsed":1110674,"internal_node_id":"0.0-150.0","task_version":"battery-v0.2"},{"rune":"V","rune_set":"elianto","hex":"#3366ff99","correct":-1,"choice":32,"rt":501.13500002771616,"accuracy":0,"outcome":"+1","keys":[2002.8350000502542],"total_keys":1,"block":2,"trial":149,"stimulus":0,"robot":2,"valence":"win","action":"no-go","sham":0,"trial_type":"pit-trial","trial_index":174,"time_elapsed":1113894,"internal_node_id":"0.0-151.0","task_version":"battery-v0.2"},{"rune":"J","rune_set":"elianto","hex":"#3366ff99","correct":32,"choice":32,"rt":352.199999964796,"accuracy":1,"outcome":"+10","keys":[1853.6399999866262],"total_keys":1,"block":2,"trial":150,"stimulus":1,"robot":1,"valence":"win","action":"go","sham":0,"trial_type":"pit-trial","trial_index":175,"time_elapsed":1116963,"internal_node_id":"0.0-152.0","task_version":"battery-v0.2"},{"rune":"K","rune_set":"elianto","hex":"#3366ff99","correct":32,"choice":32,"rt":626.7149999039248,"accuracy":1,"outcome":"+10","keys":[2128.305000020191],"total_keys":1,"block":2,"trial":151,"stimulus":3,"robot":1,"valence":"win","action":"go","sham":0,"trial_type":"pit-trial","trial_index":176,"time_elapsed":1120317,"internal_node_id":"0.0-153.0","task_version":"battery-v0.2"},{"rune":"D","rune_set":"elianto","hex":"#f73b6a7A","correct":-1,"choice":-1,"rt":-1,"accuracy":1,"outcome":"-10","keys":[],"total_keys":0,"block":2,"trial":152,"stimulus":2,"robot":4,"valence":"lose","action":"no-go","sham":1,"trial_type":"pit-trial","trial_index":177,"time_elapsed":1124342,"internal_node_id":"0.0-154.0","task_version":"battery-v0.2"},{"rune":"D","rune_set":"elianto","hex":"#f73b6a7A","correct":-1,"choice":32,"rt":838.4599999990314,"accuracy":0,"outcome":"-10","keys":[2338.950000004843],"total_keys":1,"block":2,"trial":153,"stimulus":2,"robot":4,"valence":"lose","action":"no-go","sham":0,"trial_type":"pit-trial","trial_index":178,"time_elapsed":1127899,"internal_node_id":"0.0-155.0","task_version":"battery-v0.2"},{"rune":"K","rune_set":"elianto","hex":"#3366ff99","correct":32,"choice":32,"rt":695.6350000109524,"accuracy":1,"outcome":"+10","keys":[2196.4849999640137],"total_keys":1,"block":2,"trial":154,"stimulus":3,"robot":1,"valence":"win","action":"go","sham":0,"trial_type":"pit-trial","trial_index":179,"time_elapsed":1131315,"internal_node_id":"0.0-156.0","task_version":"battery-v0.2"},{"rune":"E","rune_set":"elianto","hex":"#3366ff99","correct":32,"choice":32,"rt":678.5249999957159,"accuracy":1,"outcome":"+1","keys":[2179.3899999465793],"total_keys":1,"block":2,"trial":155,"stimulus":4,"robot":1,"valence":"win","action":"go","sham":1,"trial_type":"pit-trial","trial_index":180,"time_elapsed":1134711,"internal_node_id":"0.0-157.0","task_version":"battery-v0.2"},{"rune":"V","rune_set":"elianto","hex":"#3366ff99","correct":-1,"choice":-1,"rt":-1,"accuracy":1,"outcome":"+1","keys":[],"total_keys":0,"block":2,"trial":156,"stimulus":0,"robot":2,"valence":"win","action":"no-go","sham":1,"trial_type":"pit-trial","trial_index":181,"time_elapsed":1138723,"internal_node_id":"0.0-158.0","task_version":"battery-v0.2"},{"rune":"K","rune_set":"elianto","hex":"#3366ff99","correct":32,"choice":32,"rt":569.6900000330061,"accuracy":1,"outcome":"+1","keys":[2070.2799999853596],"total_keys":1,"block":2,"trial":157,"stimulus":3,"robot":1,"valence":"win","action":"go","sham":1,"trial_type":"pit-trial","trial_index":182,"time_elapsed":1142010,"internal_node_id":"0.0-159.0","task_version":"battery-v0.2"},{"rune":"D","rune_set":"elianto","hex":"#f73b6a7A","correct":-1,"choice":32,"rt":917.9749999893829,"accuracy":0,"outcome":"-10","keys":[2418.485000031069],"total_keys":1,"block":2,"trial":158,"stimulus":2,"robot":4,"valence":"lose","action":"no-go","sham":0,"trial_type":"pit-trial","trial_index":183,"time_elapsed":1145639,"internal_node_id":"0.0-160.0","task_version":"battery-v0.2"},{"rune":"E","rune_set":"elianto","hex":"#3366ff99","correct":32,"choice":-1,"rt":-1,"accuracy":0,"outcome":"+1","keys":[],"total_keys":0,"block":2,"trial":159,"stimulus":4,"robot":1,"valence":"win","action":"go","sham":0,"trial_type":"pit-trial","trial_index":184,"time_elapsed":1149671,"internal_node_id":"0.0-161.0","task_version":"battery-v0.2"},{"rune":"V","rune_set":"elianto","hex":"#3366ff99","correct":-1,"choice":32,"rt":542.5749999703839,"accuracy":0,"outcome":"+10","keys":[2043.969999998808],"total_keys":1,"block":2,"trial":160,"stimulus":0,"robot":2,"valence":"win","action":"no-go","sham":1,"trial_type":"pit-trial","trial_index":185,"time_elapsed":1152925,"internal_node_id":"0.0-162.0","task_version":"battery-v0.2"},{"rune":"E","rune_set":"elianto","hex":"#3366ff99","correct":32,"choice":32,"rt":661.1000000266358,"accuracy":1,"outcome":"+10","keys":[2162.2300000162795],"total_keys":1,"block":2,"trial":161,"stimulus":4,"robot":1,"valence":"win","action":"go","sham":0,"trial_type":"pit-trial","trial_index":186,"time_elapsed":1156308,"internal_node_id":"0.0-163.0","task_version":"battery-v0.2"},{"rune":"S","rune_set":"elianto","hex":"#f73b6a7A","correct":-1,"choice":-1,"rt":-1,"accuracy":1,"outcome":"-1","keys":[],"total_keys":0,"block":2,"trial":162,"stimulus":6,"robot":4,"valence":"lose","action":"no-go","sham":0,"trial_type":"pit-trial","trial_index":187,"time_elapsed":1160315,"internal_node_id":"0.0-164.0","task_version":"battery-v0.2"},{"rune":"W","rune_set":"elianto","hex":"#f73b6a7A","correct":32,"choice":32,"rt":844.9549999786541,"accuracy":1,"outcome":"-10","keys":[2345.2699999324977],"total_keys":1,"block":2,"trial":163,"stimulus":5,"robot":3,"valence":"lose","action":"go","sham":1,"trial_type":"pit-trial","trial_index":188,"time_elapsed":1163870,"internal_node_id":"0.0-165.0","task_version":"battery-v0.2"},{"rune":"V","rune_set":"elianto","hex":"#3366ff99","correct":-1,"choice":32,"rt":727.930000051856,"accuracy":0,"outcome":"+1","keys":[2228.224999969825],"total_keys":1,"block":2,"trial":164,"stimulus":0,"robot":2,"valence":"win","action":"no-go","sham":0,"trial_type":"pit-trial","trial_index":189,"time_elapsed":1167317,"internal_node_id":"0.0-166.0","task_version":"battery-v0.2"},{"rune":"W","rune_set":"elianto","hex":"#f73b6a7A","correct":32,"choice":32,"rt":728.3799999859184,"accuracy":1,"outcome":"-1","keys":[2229.4749999418855],"total_keys":1,"block":2,"trial":165,"stimulus":5,"robot":3,"valence":"lose","action":"go","sham":0,"trial_type":"pit-trial","trial_index":190,"time_elapsed":1170763,"internal_node_id":"0.0-167.0","task_version":"battery-v0.2"},{"rune":"E","rune_set":"elianto","hex":"#3366ff99","correct":32,"choice":-1,"rt":-1,"accuracy":0,"outcome":"+1","keys":[],"total_keys":0,"block":2,"trial":166,"stimulus":4,"robot":1,"valence":"win","action":"go","sham":0,"trial_type":"pit-trial","trial_index":191,"time_elapsed":1174772,"internal_node_id":"0.0-168.0","task_version":"battery-v0.2"},{"rune":"S","rune_set":"elianto","hex":"#f73b6a7A","correct":-1,"choice":32,"rt":706.3649999909103,"accuracy":0,"outcome":"-10","keys":[2207.9849999863654],"total_keys":1,"block":2,"trial":167,"stimulus":6,"robot":4,"valence":"lose","action":"no-go","sham":0,"trial_type":"pit-trial","trial_index":192,"time_elapsed":1178198,"internal_node_id":"0.0-169.0","task_version":"battery-v0.2"},{"rune":"V","rune_set":"elianto","hex":"#3366ff99","correct":-1,"choice":32,"rt":805.9200000716373,"accuracy":0,"outcome":"+1","keys":[2306.650000042282],"total_keys":1,"block":2,"trial":168,"stimulus":0,"robot":2,"valence":"win","action":"no-go","sham":0,"trial_type":"pit-trial","trial_index":193,"time_elapsed":1181721,"internal_node_id":"0.0-170.0","task_version":"battery-v0.2"},{"rune":"P","rune_set":"elianto","hex":"#3366ff99","correct":-1,"choice":-1,"rt":-1,"accuracy":1,"outcome":"+10","keys":[],"total_keys":0,"block":2,"trial":169,"stimulus":7,"robot":2,"valence":"win","action":"no-go","sham":0,"trial_type":"pit-trial","trial_index":194,"time_elapsed":1185737,"internal_node_id":"0.0-171.0","task_version":"battery-v0.2"},{"rune":"E","rune_set":"elianto","hex":"#3366ff99","correct":32,"choice":32,"rt":581.1799999792129,"accuracy":1,"outcome":"+10","keys":[2081.8949999520555],"total_keys":1,"block":2,"trial":170,"stimulus":4,"robot":1,"valence":"win","action":"go","sham":0,"trial_type":"pit-trial","trial_index":195,"time_elapsed":1189037,"internal_node_id":"0.0-172.0","task_version":"battery-v0.2"},{"rune":"S","rune_set":"elianto","hex":"#f73b6a7A","correct":-1,"choice":-1,"rt":-1,"accuracy":1,"outcome":"-1","keys":[],"total_keys":0,"block":2,"trial":171,"stimulus":6,"robot":4,"valence":"lose","action":"no-go","sham":0,"trial_type":"pit-trial","trial_index":196,"time_elapsed":1193056,"internal_node_id":"0.0-173.0","task_version":"battery-v0.2"},{"rune":"W","rune_set":"elianto","hex":"#f73b6a7A","correct":32,"choice":32,"rt":589.4850000040606,"accuracy":1,"outcome":"-1","keys":[2089.519999921322],"total_keys":1,"block":2,"trial":172,"stimulus":5,"robot":3,"valence":"lose","action":"go","sham":0,"trial_type":"pit-trial","trial_index":197,"time_elapsed":1196364,"internal_node_id":"0.0-174.0","task_version":"battery-v0.2"},{"rune":"W","rune_set":"elianto","hex":"#f73b6a7A","correct":32,"choice":-1,"rt":-1,"accuracy":0,"outcome":"-10","keys":[],"total_keys":0,"block":2,"trial":173,"stimulus":5,"robot":3,"valence":"lose","action":"go","sham":0,"trial_type":"pit-trial","trial_index":198,"time_elapsed":1200383,"internal_node_id":"0.0-175.0","task_version":"battery-v0.2"},{"rune":"S","rune_set":"elianto","hex":"#f73b6a7A","correct":-1,"choice":32,"rt":657.2950000409037,"accuracy":0,"outcome":"-1","keys":[2157.035000040196],"total_keys":1,"block":2,"trial":174,"stimulus":6,"robot":4,"valence":"lose","action":"no-go","sham":1,"trial_type":"pit-trial","trial_index":199,"time_elapsed":1203762,"internal_node_id":"0.0-176.0","task_version":"battery-v0.2"},{"rune":"P","rune_set":"elianto","hex":"#3366ff99","correct":-1,"choice":32,"rt":884.5000000437722,"accuracy":0,"outcome":"+1","keys":[2385.054999962449],"total_keys":1,"block":2,"trial":175,"stimulus":7,"robot":2,"valence":"win","action":"no-go","sham":0,"trial_type":"pit-trial","trial_index":200,"time_elapsed":1207366,"internal_node_id":"0.0-177.0","task_version":"battery-v0.2"},{"rune":"E","rune_set":"elianto","hex":"#3366ff99","correct":32,"choice":-1,"rt":-1,"accuracy":0,"outcome":"+1","keys":[],"total_keys":0,"block":2,"trial":176,"stimulus":4,"robot":1,"valence":"win","action":"go","sham":0,"trial_type":"pit-trial","trial_index":201,"time_elapsed":1211385,"internal_node_id":"0.0-178.0","task_version":"battery-v0.2"},{"rune":"P","rune_set":"elianto","hex":"#3366ff99","correct":-1,"choice":32,"rt":596.6699999989942,"accuracy":0,"outcome":"+10","keys":[2097.760000033304],"total_keys":1,"block":2,"trial":177,"stimulus":7,"robot":2,"valence":"win","action":"no-go","sham":1,"trial_type":"pit-trial","trial_index":202,"time_elapsed":1214704,"internal_node_id":"0.0-179.0","task_version":"battery-v0.2"},{"rune":"E","rune_set":"elianto","hex":"#3366ff99","correct":32,"choice":-1,"rt":-1,"accuracy":0,"outcome":"+1","keys":[],"total_keys":0,"block":2,"trial":178,"stimulus":4,"robot":1,"valence":"win","action":"go","sham":0,"trial_type":"pit-trial","trial_index":203,"time_elapsed":1218724,"internal_node_id":"0.0-180.0","task_version":"battery-v0.2"},{"rune":"S","rune_set":"elianto","hex":"#f73b6a7A","correct":-1,"choice":32,"rt":731.9949999218807,"accuracy":0,"outcome":"-10","keys":[2232.57500003092],"total_keys":1,"block":2,"trial":179,"stimulus":6,"robot":4,"valence":"lose","action":"no-go","sham":0,"trial_type":"pit-trial","trial_index":204,"time_elapsed":1222176,"internal_node_id":"0.0-181.0","task_version":"battery-v0.2"},{"rune":"W","rune_set":"elianto","hex":"#f73b6a7A","correct":32,"choice":-1,"rt":-1,"accuracy":0,"outcome":"-10","keys":[],"total_keys":0,"block":2,"trial":180,"stimulus":5,"robot":3,"valence":"lose","action":"go","sham":0,"trial_type":"pit-trial","trial_index":205,"time_elapsed":1226195,"internal_node_id":"0.0-182.0","task_version":"battery-v0.2"},{"rune":"W","rune_set":"elianto","hex":"#f73b6a7A","correct":32,"choice":32,"rt":459.98500008136034,"accuracy":1,"outcome":"-10","keys":[1961.0950000351295],"total_keys":1,"block":2,"trial":181,"stimulus":5,"robot":3,"valence":"lose","action":"go","sham":1,"trial_type":"pit-trial","trial_index":206,"time_elapsed":1229372,"internal_node_id":"0.0-183.0","task_version":"battery-v0.2"},{"rune":"P","rune_set":"elianto","hex":"#3366ff99","correct":-1,"choice":-1,"rt":-1,"accuracy":1,"outcome":"+10","keys":[],"total_keys":0,"block":2,"trial":182,"stimulus":7,"robot":2,"valence":"win","action":"no-go","sham":0,"trial_type":"pit-trial","trial_index":207,"time_elapsed":1233388,"internal_node_id":"0.0-184.0","task_version":"battery-v0.2"},{"rune":"S","rune_set":"elianto","hex":"#f73b6a7A","correct":-1,"choice":-1,"rt":-1,"accuracy":1,"outcome":"-1","keys":[],"total_keys":0,"block":2,"trial":183,"stimulus":6,"robot":4,"valence":"lose","action":"no-go","sham":0,"trial_type":"pit-trial","trial_index":208,"time_elapsed":1237411,"internal_node_id":"0.0-185.0","task_version":"battery-v0.2"},{"rune":"E","rune_set":"elianto","hex":"#3366ff99","correct":32,"choice":32,"rt":465.62499995343387,"accuracy":1,"outcome":"+10","keys":[1967.4850000301376],"total_keys":1,"block":2,"trial":184,"stimulus":4,"robot":1,"valence":"win","action":"go","sham":0,"trial_type":"pit-trial","trial_index":209,"time_elapsed":1240599,"internal_node_id":"0.0-186.0","task_version":"battery-v0.2"},{"rune":"W","rune_set":"elianto","hex":"#f73b6a7A","correct":32,"choice":32,"rt":593.6099999817088,"accuracy":1,"outcome":"-1","keys":[2094.3100000731647],"total_keys":1,"block":2,"trial":185,"stimulus":5,"robot":3,"valence":"lose","action":"go","sham":0,"trial_type":"pit-trial","trial_index":210,"time_elapsed":1243911,"internal_node_id":"0.0-187.0","task_version":"battery-v0.2"},{"rune":"S","rune_set":"elianto","hex":"#f73b6a7A","correct":-1,"choice":32,"rt":422.52499994356185,"accuracy":0,"outcome":"-10","keys":[1923.86500001885],"total_keys":1,"block":2,"trial":186,"stimulus":6,"robot":4,"valence":"lose","action":"no-go","sham":0,"trial_type":"pit-trial","trial_index":211,"time_elapsed":1247053,"internal_node_id":"0.0-188.0","task_version":"battery-v0.2"},{"rune":"P","rune_set":"elianto","hex":"#3366ff99","correct":-1,"choice":32,"rt":486.23000003863126,"accuracy":0,"outcome":"+1","keys":[1986.4550000056624],"total_keys":1,"block":2,"trial":187,"stimulus":7,"robot":2,"valence":"win","action":"no-go","sham":0,"trial_type":"pit-trial","trial_index":212,"time_elapsed":1250256,"internal_node_id":"0.0-189.0","task_version":"battery-v0.2"},{"rune":"E","rune_set":"elianto","hex":"#3366ff99","correct":32,"choice":-1,"rt":-1,"accuracy":0,"outcome":"+1","keys":[],"total_keys":0,"block":2,"trial":188,"stimulus":4,"robot":1,"valence":"win","action":"go","sham":0,"trial_type":"pit-trial","trial_index":213,"time_elapsed":1254269,"internal_node_id":"0.0-190.0","task_version":"battery-v0.2"},{"rune":"S","rune_set":"elianto","hex":"#f73b6a7A","correct":-1,"choice":-1,"rt":-1,"accuracy":1,"outcome":"-10","keys":[],"total_keys":0,"block":2,"trial":189,"stimulus":6,"robot":4,"valence":"lose","action":"no-go","sham":1,"trial_type":"pit-trial","trial_index":214,"time_elapsed":1258290,"internal_node_id":"0.0-191.0","task_version":"battery-v0.2"},{"rune":"P","rune_set":"elianto","hex":"#3366ff99","correct":-1,"choice":32,"rt":650.7549999514595,"accuracy":0,"outcome":"+1","keys":[2151.255000033416],"total_keys":1,"block":2,"trial":190,"stimulus":7,"robot":2,"valence":"win","action":"no-go","sham":0,"trial_type":"pit-trial","trial_index":215,"time_elapsed":1261653,"internal_node_id":"0.0-192.0","task_version":"battery-v0.2"},{"rune":"W","rune_set":"elianto","hex":"#f73b6a7A","correct":32,"choice":-1,"rt":-1,"accuracy":0,"outcome":"-10","keys":[],"total_keys":0,"block":2,"trial":191,"stimulus":5,"robot":3,"valence":"lose","action":"go","sham":0,"trial_type":"pit-trial","trial_index":216,"time_elapsed":1265675,"internal_node_id":"0.0-193.0","task_version":"battery-v0.2"},{"rune":"E","rune_set":"elianto","hex":"#3366ff99","correct":32,"choice":32,"rt":420.0150000397116,"accuracy":1,"outcome":"+10","keys":[1920.8199999993667],"total_keys":1,"block":2,"trial":192,"stimulus":4,"robot":1,"valence":"win","action":"go","sham":0,"trial_type":"pit-trial","trial_index":217,"time_elapsed":1268820,"internal_node_id":"0.0-194.0","task_version":"battery-v0.2"},{"rune":"E","rune_set":"elianto","hex":"#3366ff99","correct":32,"choice":32,"rt":663.7349999509752,"accuracy":1,"outcome":"+10","keys":[2163.9849999919534],"total_keys":1,"block":2,"trial":193,"stimulus":4,"robot":1,"valence":"win","action":"go","sham":0,"trial_type":"pit-trial","trial_index":218,"time_elapsed":1272203,"internal_node_id":"0.0-195.0","task_version":"battery-v0.2"},{"rune":"G","rune_set":"elianto","hex":"#f73b6a7A","correct":32,"choice":32,"rt":903.2700000097975,"accuracy":1,"outcome":"-10","keys":[2403.855000040494],"total_keys":1,"block":2,"trial":194,"stimulus":8,"robot":3,"valence":"lose","action":"go","sham":1,"trial_type":"pit-trial","trial_index":219,"time_elapsed":1275827,"internal_node_id":"0.0-196.0","task_version":"battery-v0.2"},{"rune":"S","rune_set":"elianto","hex":"#f73b6a7A","correct":-1,"choice":32,"rt":695.064999978058,"accuracy":0,"outcome":"-10","keys":[2195.6249999348074],"total_keys":1,"block":2,"trial":195,"stimulus":6,"robot":4,"valence":"lose","action":"no-go","sham":0,"trial_type":"pit-trial","trial_index":220,"time_elapsed":1279239,"internal_node_id":"0.0-197.0","task_version":"battery-v0.2"},{"rune":"P","rune_set":"elianto","hex":"#3366ff99","correct":-1,"choice":32,"rt":762.2049999190494,"accuracy":0,"outcome":"+10","keys":[2262.7100000390783],"total_keys":1,"block":2,"trial":196,"stimulus":7,"robot":2,"valence":"win","action":"no-go","sham":1,"trial_type":"pit-trial","trial_index":221,"time_elapsed":1282718,"internal_node_id":"0.0-198.0","task_version":"battery-v0.2"},{"rune":"S","rune_set":"elianto","hex":"#f73b6a7A","correct":-1,"choice":-1,"rt":-1,"accuracy":1,"outcome":"-1","keys":[],"total_keys":0,"block":2,"trial":197,"stimulus":6,"robot":4,"valence":"lose","action":"no-go","sham":0,"trial_type":"pit-trial","trial_index":222,"time_elapsed":1286736,"internal_node_id":"0.0-199.0","task_version":"battery-v0.2"},{"rune":"G","rune_set":"elianto","hex":"#f73b6a7A","correct":32,"choice":32,"rt":632.7850000234321,"accuracy":1,"outcome":"-1","keys":[2133.119999896735],"total_keys":1,"block":2,"trial":198,"stimulus":8,"robot":3,"valence":"lose","action":"go","sham":0,"trial_type":"pit-trial","trial_index":223,"time_elapsed":1290085,"internal_node_id":"0.0-200.0","task_version":"battery-v0.2"},{"rune":"P","rune_set":"elianto","hex":"#3366ff99","correct":-1,"choice":-1,"rt":-1,"accuracy":1,"outcome":"+10","keys":[],"total_keys":0,"block":2,"trial":199,"stimulus":7,"robot":2,"valence":"win","action":"no-go","sham":0,"trial_type":"pit-trial","trial_index":224,"time_elapsed":1294106,"internal_node_id":"0.0-201.0","task_version":"battery-v0.2"},{"rune":"E","rune_set":"elianto","hex":"#3366ff99","correct":32,"choice":32,"rt":455.79999999608845,"accuracy":1,"outcome":"+10","keys":[1956.294999923557],"total_keys":1,"block":2,"trial":200,"stimulus":4,"robot":1,"valence":"win","action":"go","sham":0,"trial_type":"pit-trial","trial_index":225,"time_elapsed":1297277,"internal_node_id":"0.0-202.0","task_version":"battery-v0.2"},{"rune":"S","rune_set":"elianto","hex":"#f73b6a7A","correct":-1,"choice":32,"rt":524.5299999369308,"accuracy":0,"outcome":"-10","keys":[2025.359999970533],"total_keys":1,"block":2,"trial":201,"stimulus":6,"robot":4,"valence":"lose","action":"no-go","sham":0,"trial_type":"pit-trial","trial_index":226,"time_elapsed":1300519,"internal_node_id":"0.0-203.0","task_version":"battery-v0.2"},{"rune":"P","rune_set":"elianto","hex":"#3366ff99","correct":-1,"choice":32,"rt":686.7850000271574,"accuracy":0,"outcome":"+1","keys":[2186.87500001397],"total_keys":1,"block":2,"trial":202,"stimulus":7,"robot":2,"valence":"win","action":"no-go","sham":0,"trial_type":"pit-trial","trial_index":227,"time_elapsed":1303924,"internal_node_id":"0.0-204.0","task_version":"battery-v0.2"},{"rune":"G","rune_set":"elianto","hex":"#f73b6a7A","correct":32,"choice":-1,"rt":-1,"accuracy":0,"outcome":"-10","keys":[],"total_keys":0,"block":2,"trial":203,"stimulus":8,"robot":3,"valence":"lose","action":"go","sham":0,"trial_type":"pit-trial","trial_index":228,"time_elapsed":1307950,"internal_node_id":"0.0-205.0","task_version":"battery-v0.2"},{"rune":"A","rune_set":"elianto","hex":"#f73b6a7A","correct":32,"choice":32,"rt":801.5599999343976,"accuracy":1,"outcome":"-1","keys":[2302.144999965094],"total_keys":1,"block":2,"trial":204,"stimulus":9,"robot":3,"valence":"lose","action":"go","sham":0,"trial_type":"pit-trial","trial_index":229,"time_elapsed":1311460,"internal_node_id":"0.0-206.0","task_version":"battery-v0.2"},{"rune":"A","rune_set":"elianto","hex":"#f73b6a7A","correct":32,"choice":-1,"rt":-1,"accuracy":0,"outcome":"-10","keys":[],"total_keys":0,"block":2,"trial":205,"stimulus":9,"robot":3,"valence":"lose","action":"go","sham":0,"trial_type":"pit-trial","trial_index":230,"time_elapsed":1315469,"internal_node_id":"0.0-207.0","task_version":"battery-v0.2"},{"rune":"P","rune_set":"elianto","hex":"#3366ff99","correct":-1,"choice":32,"rt":623.520000022836,"accuracy":0,"outcome":"+1","keys":[2126.9299999112263],"total_keys":1,"block":2,"trial":206,"stimulus":7,"robot":2,"valence":"win","action":"no-go","sham":0,"trial_type":"pit-trial","trial_index":231,"time_elapsed":1318809,"internal_node_id":"0.0-208.0","task_version":"battery-v0.2"},{"rune":"G","rune_set":"elianto","hex":"#f73b6a7A","correct":32,"choice":32,"rt":680.8100000489503,"accuracy":1,"outcome":"-1","keys":[2181.995000108145],"total_keys":1,"block":2,"trial":207,"stimulus":8,"robot":3,"valence":"lose","action":"go","sham":0,"trial_type":"pit-trial","trial_index":232,"time_elapsed":1322206,"internal_node_id":"0.0-209.0","task_version":"battery-v0.2"},{"rune":"S","rune_set":"elianto","hex":"#f73b6a7A","correct":-1,"choice":32,"rt":741.039999993518,"accuracy":0,"outcome":"-10","keys":[2242.3600000329316],"total_keys":1,"block":2,"trial":208,"stimulus":6,"robot":4,"valence":"lose","action":"no-go","sham":0,"trial_type":"pit-trial","trial_index":233,"time_elapsed":1325657,"internal_node_id":"0.0-210.0","task_version":"battery-v0.2"},{"rune":"U","rune_set":"elianto","hex":"#3366ff99","correct":-1,"choice":-1,"rt":-1,"accuracy":1,"outcome":"+1","keys":[],"total_keys":0,"block":2,"trial":209,"stimulus":11,"robot":2,"valence":"win","action":"no-go","sham":1,"trial_type":"pit-trial","trial_index":234,"time_elapsed":1329669,"internal_node_id":"0.0-211.0","task_version":"battery-v0.2"},{"rune":"A","rune_set":"elianto","hex":"#f73b6a7A","correct":32,"choice":-1,"rt":-1,"accuracy":0,"outcome":"-10","keys":[],"total_keys":0,"block":2,"trial":210,"stimulus":9,"robot":3,"valence":"lose","action":"go","sham":0,"trial_type":"pit-trial","trial_index":235,"time_elapsed":1333690,"internal_node_id":"0.0-212.0","task_version":"battery-v0.2"},{"rune":"G","rune_set":"elianto","hex":"#f73b6a7A","correct":32,"choice":32,"rt":840.6649999087676,"accuracy":1,"outcome":"-1","keys":[2341.459999908693],"total_keys":1,"block":2,"trial":211,"stimulus":8,"robot":3,"valence":"lose","action":"go","sham":0,"trial_type":"pit-trial","trial_index":236,"time_elapsed":1337248,"internal_node_id":"0.0-213.0","task_version":"battery-v0.2"},{"rune":"L","rune_set":"elianto","hex":"#f73b6a7A","correct":-1,"choice":-1,"rt":-1,"accuracy":1,"outcome":"-1","keys":[],"total_keys":0,"block":2,"trial":212,"stimulus":10,"robot":4,"valence":"lose","action":"no-go","sham":0,"trial_type":"pit-trial","trial_index":237,"time_elapsed":1341264,"internal_node_id":"0.0-214.0","task_version":"battery-v0.2"},{"rune":"L","rune_set":"elianto","hex":"#f73b6a7A","correct":-1,"choice":32,"rt":535.4199999710545,"accuracy":0,"outcome":"-1","keys":[2036.0250000376254],"total_keys":1,"block":2,"trial":213,"stimulus":10,"robot":4,"valence":"lose","action":"no-go","sham":1,"trial_type":"pit-trial","trial_index":238,"time_elapsed":1344510,"internal_node_id":"0.0-215.0","task_version":"battery-v0.2"},{"rune":"U","rune_set":"elianto","hex":"#3366ff99","correct":-1,"choice":-1,"rt":-1,"accuracy":1,"outcome":"+10","keys":[],"total_keys":0,"block":2,"trial":214,"stimulus":11,"robot":2,"valence":"win","action":"no-go","sham":0,"trial_type":"pit-trial","trial_index":239,"time_elapsed":1348522,"internal_node_id":"0.0-216.0","task_version":"battery-v0.2"},{"rune":"A","rune_set":"elianto","hex":"#f73b6a7A","correct":32,"choice":32,"rt":621.7250000918284,"accuracy":1,"outcome":"-10","keys":[2121.859999955632],"total_keys":1,"block":2,"trial":215,"stimulus":9,"robot":3,"valence":"lose","action":"go","sham":1,"trial_type":"pit-trial","trial_index":240,"time_elapsed":1351862,"internal_node_id":"0.0-217.0","task_version":"battery-v0.2"},{"rune":"G","rune_set":"elianto","hex":"#f73b6a7A","correct":32,"choice":32,"rt":557.7599999960512,"accuracy":1,"outcome":"-1","keys":[2059.015000006184],"total_keys":1,"block":2,"trial":216,"stimulus":8,"robot":3,"valence":"lose","action":"go","sham":0,"trial_type":"pit-trial","trial_index":241,"time_elapsed":1355139,"internal_node_id":"0.0-218.0","task_version":"battery-v0.2"},{"rune":"U","rune_set":"elianto","hex":"#3366ff99","correct":-1,"choice":-1,"rt":-1,"accuracy":1,"outcome":"+10","keys":[],"total_keys":0,"block":2,"trial":217,"stimulus":11,"robot":2,"valence":"win","action":"no-go","sham":0,"trial_type":"pit-trial","trial_index":242,"time_elapsed":1359156,"internal_node_id":"0.0-219.0","task_version":"battery-v0.2"},{"rune":"L","rune_set":"elianto","hex":"#f73b6a7A","correct":-1,"choice":-1,"rt":-1,"accuracy":1,"outcome":"-1","keys":[],"total_keys":0,"block":2,"trial":218,"stimulus":10,"robot":4,"valence":"lose","action":"no-go","sham":0,"trial_type":"pit-trial","trial_index":243,"time_elapsed":1363167,"internal_node_id":"0.0-220.0","task_version":"battery-v0.2"},{"rune":"G","rune_set":"elianto","hex":"#f73b6a7A","correct":32,"choice":32,"rt":748.0649999342859,"accuracy":1,"outcome":"-10","keys":[2249.790000030771],"total_keys":1,"block":2,"trial":219,"stimulus":8,"robot":3,"valence":"lose","action":"go","sham":1,"trial_type":"pit-trial","trial_index":244,"time_elapsed":1366635,"internal_node_id":"0.0-221.0","task_version":"battery-v0.2"},{"rune":"A","rune_set":"elianto","hex":"#f73b6a7A","correct":32,"choice":-1,"rt":-1,"accuracy":0,"outcome":"-10","keys":[],"total_keys":0,"block":2,"trial":220,"stimulus":9,"robot":3,"valence":"lose","action":"go","sham":0,"trial_type":"pit-trial","trial_index":245,"time_elapsed":1370654,"internal_node_id":"0.0-222.0","task_version":"battery-v0.2"},{"rune":"G","rune_set":"elianto","hex":"#f73b6a7A","correct":32,"choice":32,"rt":185.799999977462,"accuracy":1,"outcome":"-10","keys":[1686.2649999093264],"total_keys":1,"block":2,"trial":221,"stimulus":8,"robot":3,"valence":"lose","action":"go","sham":1,"trial_type":"pit-trial","trial_index":246,"time_elapsed":1373554,"internal_node_id":"0.0-223.0","task_version":"battery-v0.2"},{"rune":"A","rune_set":"elianto","hex":"#f73b6a7A","correct":32,"choice":32,"rt":326.7449999693781,"accuracy":1,"outcome":"-1","keys":[1827.2850000066683],"total_keys":1,"block":2,"trial":222,"stimulus":9,"robot":3,"valence":"lose","action":"go","sham":0,"trial_type":"pit-trial","trial_index":247,"time_elapsed":1376602,"internal_node_id":"0.0-224.0","task_version":"battery-v0.2"},{"rune":"L","rune_set":"elianto","hex":"#f73b6a7A","correct":-1,"choice":32,"rt":523.8499999977648,"accuracy":0,"outcome":"-10","keys":[2024.1199999582022],"total_keys":1,"block":2,"trial":223,"stimulus":10,"robot":4,"valence":"lose","action":"no-go","sham":0,"trial_type":"pit-trial","trial_index":248,"time_elapsed":1379838,"internal_node_id":"0.0-225.0","task_version":"battery-v0.2"},{"rune":"U","rune_set":"elianto","hex":"#3366ff99","correct":-1,"choice":-1,"rt":-1,"accuracy":1,"outcome":"+10","keys":[],"total_keys":0,"block":2,"trial":224,"stimulus":11,"robot":2,"valence":"win","action":"no-go","sham":0,"trial_type":"pit-trial","trial_index":249,"time_elapsed":1383859,"internal_node_id":"0.0-226.0","task_version":"battery-v0.2"},{"rune":"L","rune_set":"elianto","hex":"#f73b6a7A","correct":-1,"choice":32,"rt":335.64000006299466,"accuracy":0,"outcome":"-10","keys":[1836.959999985993],"total_keys":1,"block":2,"trial":225,"stimulus":10,"robot":4,"valence":"lose","action":"no-go","sham":0,"trial_type":"pit-trial","trial_index":250,"time_elapsed":1386916,"internal_node_id":"0.0-227.0","task_version":"battery-v0.2"},{"rune":"A","rune_set":"elianto","hex":"#f73b6a7A","correct":32,"choice":32,"rt":267.00999995227903,"accuracy":1,"outcome":"-1","keys":[1767.409999971278],"total_keys":1,"block":2,"trial":226,"stimulus":9,"robot":3,"valence":"lose","action":"go","sham":0,"trial_type":"pit-trial","trial_index":251,"time_elapsed":1389911,"internal_node_id":"0.0-228.0","task_version":"battery-v0.2"},{"rune":"U","rune_set":"elianto","hex":"#3366ff99","correct":-1,"choice":-1,"rt":-1,"accuracy":1,"outcome":"+10","keys":[],"total_keys":0,"block":2,"trial":227,"stimulus":11,"robot":2,"valence":"win","action":"no-go","sham":0,"trial_type":"pit-trial","trial_index":252,"time_elapsed":1393937,"internal_node_id":"0.0-229.0","task_version":"battery-v0.2"},{"rune":"G","rune_set":"elianto","hex":"#f73b6a7A","correct":32,"choice":-1,"rt":-1,"accuracy":0,"outcome":"-10","keys":[],"total_keys":0,"block":2,"trial":228,"stimulus":8,"robot":3,"valence":"lose","action":"go","sham":0,"trial_type":"pit-trial","trial_index":253,"time_elapsed":1397948,"internal_node_id":"0.0-230.0","task_version":"battery-v0.2"},{"rune":"U","rune_set":"elianto","hex":"#3366ff99","correct":-1,"choice":32,"rt":650.3700000466779,"accuracy":0,"outcome":"+1","keys":[2150.3999999258667],"total_keys":1,"block":2,"trial":229,"stimulus":11,"robot":2,"valence":"win","action":"no-go","sham":0,"trial_type":"pit-trial","trial_index":254,"time_elapsed":1401310,"internal_node_id":"0.0-231.0","task_version":"battery-v0.2"},{"rune":"G","rune_set":"elianto","hex":"#f73b6a7A","correct":32,"choice":-1,"rt":-1,"accuracy":0,"outcome":"-10","keys":[],"total_keys":0,"block":2,"trial":230,"stimulus":8,"robot":3,"valence":"lose","action":"go","sham":0,"trial_type":"pit-trial","trial_index":255,"time_elapsed":1405322,"internal_node_id":"0.0-232.0","task_version":"battery-v0.2"},{"rune":"A","rune_set":"elianto","hex":"#f73b6a7A","correct":32,"choice":-1,"rt":-1,"accuracy":0,"outcome":"-10","keys":[],"total_keys":0,"block":2,"trial":231,"stimulus":9,"robot":3,"valence":"lose","action":"go","sham":0,"trial_type":"pit-trial","trial_index":256,"time_elapsed":1409332,"internal_node_id":"0.0-233.0","task_version":"battery-v0.2"},{"rune":"L","rune_set":"elianto","hex":"#f73b6a7A","correct":-1,"choice":32,"rt":781.5450000343844,"accuracy":0,"outcome":"-1","keys":[2282.0749999955297],"total_keys":1,"block":2,"trial":232,"stimulus":10,"robot":4,"valence":"lose","action":"no-go","sham":1,"trial_type":"pit-trial","trial_index":257,"time_elapsed":1412830,"internal_node_id":"0.0-234.0","task_version":"battery-v0.2"},{"rune":"L","rune_set":"elianto","hex":"#f73b6a7A","correct":-1,"choice":-1,"rt":-1,"accuracy":1,"outcome":"-10","keys":[],"total_keys":0,"block":2,"trial":233,"stimulus":10,"robot":4,"valence":"lose","action":"no-go","sham":1,"trial_type":"pit-trial","trial_index":258,"time_elapsed":1416846,"internal_node_id":"0.0-235.0","task_version":"battery-v0.2"},{"rune":"A","rune_set":"elianto","hex":"#f73b6a7A","correct":32,"choice":-1,"rt":-1,"accuracy":0,"outcome":"-10","keys":[],"total_keys":0,"block":2,"trial":234,"stimulus":9,"robot":3,"valence":"lose","action":"go","sham":0,"trial_type":"pit-trial","trial_index":259,"time_elapsed":1420861,"internal_node_id":"0.0-236.0","task_version":"battery-v0.2"},{"rune":"G","rune_set":"elianto","hex":"#f73b6a7A","correct":32,"choice":32,"rt":443.52500000968575,"accuracy":1,"outcome":"-10","keys":[1945.149999926798],"total_keys":1,"block":2,"trial":235,"stimulus":8,"robot":3,"valence":"lose","action":"go","sham":1,"trial_type":"pit-trial","trial_index":260,"time_elapsed":1424015,"internal_node_id":"0.0-237.0","task_version":"battery-v0.2"},{"rune":"U","rune_set":"elianto","hex":"#3366ff99","correct":-1,"choice":32,"rt":864.739999989979,"accuracy":0,"outcome":"+10","keys":[2365.1649999665096],"total_keys":1,"block":2,"trial":236,"stimulus":11,"robot":2,"valence":"win","action":"no-go","sham":1,"trial_type":"pit-trial","trial_index":261,"time_elapsed":1427589,"internal_node_id":"0.0-238.0","task_version":"battery-v0.2"},{"rune":"G","rune_set":"elianto","hex":"#f73b6a7A","correct":32,"choice":32,"rt":457.6299999607727,"accuracy":1,"outcome":"-1","keys":[1961.0450000036508],"total_keys":1,"block":2,"trial":237,"stimulus":8,"robot":3,"valence":"lose","action":"go","sham":0,"trial_type":"pit-trial","trial_index":262,"time_elapsed":1430762,"internal_node_id":"0.0-239.0","task_version":"battery-v0.2"},{"rune":"U","rune_set":"elianto","hex":"#3366ff99","correct":-1,"choice":-1,"rt":-1,"accuracy":1,"outcome":"+1","keys":[],"total_keys":0,"block":2,"trial":238,"stimulus":11,"robot":2,"valence":"win","action":"no-go","sham":1,"trial_type":"pit-trial","trial_index":263,"time_elapsed":1434781,"internal_node_id":"0.0-240.0","task_version":"battery-v0.2"},{"rune":"L","rune_set":"elianto","hex":"#f73b6a7A","correct":-1,"choice":32,"rt":494.69500000122935,"accuracy":0,"outcome":"-10","keys":[1995.1649999711663],"total_keys":1,"block":2,"trial":239,"stimulus":10,"robot":4,"valence":"lose","action":"no-go","sham":0,"trial_type":"pit-trial","trial_index":264,"time_elapsed":1437995,"internal_node_id":"0.0-241.0","task_version":"battery-v0.2"},{"rune":"A","rune_set":"elianto","hex":"#f73b6a7A","correct":32,"choice":32,"rt":583.379999967292,"accuracy":1,"outcome":"-10","keys":[2084.8250000271946],"total_keys":1,"block":2,"trial":240,"stimulus":9,"robot":3,"valence":"lose","action":"go","sham":1,"trial_type":"pit-trial","trial_index":265,"time_elapsed":1441296,"internal_node_id":"0.0-242.0","task_version":"battery-v0.2"},{"view_history":"[{\"page_index\":0,\"viewing_time\":13768.960000015795}]","rt":13771.22499991674,"trial_type":"pit-instructions","trial_index":266,"time_elapsed":1455080,"internal_node_id":"0.0-243.0","task_version":"battery-v0.2"},{"rt":17577.979999943636,"responses":{"age":"43","gender-categorical":"Female","gender-free-response":"","ethnicity":"Hispanic or Latino","race":["American Indian/Alaska Native","White"],"language":"Yes","fluency":"Very well"},"survey":"demographics","trial_type":"survey-demo","trial_index":267,"time_elapsed":1472738,"internal_node_id":"0.0-244.0","task_version":"battery-v0.2"},{"rt":137134.00999992155,"responses":{"difficulty":"2","fun":"2","clarity":"5","strategy":"I tried to memorize, but it was useless. Some of the trials switched the rules, when I saw a value and wanted to repeat it I got a different result  the next time I saw the same value.","feedback":"Some of the trials switched the rules, when I saw a value and wanted to repeat it I got a different result the next time I saw the same value."},"survey":"debrief","trial_type":"survey-debrief","trial_index":268,"time_elapsed":1609884,"internal_node_id":"0.0-245.0","task_version":"battery-v0.2","interactions":"[{\"event\":\"focus\",\"trial\":0,\"time\":2925},{\"event\":\"blur\",\"trial\":0,\"time\":5945},{\"event\":\"focus\",\"trial\":0,\"time\":23912},{\"event\":\"blur\",\"trial\":0,\"time\":32646},{\"event\":\"focus\",\"trial\":0,\"time\":111203},{\"event\":\"blur\",\"trial\":0,\"time\":112306},{\"event\":\"focus\",\"trial\":0,\"time\":112517},{\"event\":\"blur\",\"trial\":0,\"time\":113872},{\"event\":\"focus\",\"trial\":0,\"time\":114305},{\"event\":\"blur\",\"trial\":0,\"time\":115153},{\"event\":\"focus\",\"trial\":0,\"time\":120868},{\"event\":\"blur\",\"trial\":0,\"time\":128568},{\"event\":\"focus\",\"trial\":0,\"time\":133549},{\"event\":\"blur\",\"trial\":0,\"time\":137118},{\"event\":\"focus\",\"trial\":0,\"time\":314161},{\"event\":\"blur\",\"trial\":0,\"time\":315365},{\"event\":\"focus\",\"trial\":0,\"time\":323551},{\"event\":\"blur\",\"trial\":0,\"time\":327869},{\"event\":\"focus\",\"trial\":0,\"time\":333941},{\"event\":\"blur\",\"trial\":0,\"time\":348540},{\"event\":\"focus\",\"trial\":0,\"time\":355850},{\"event\":\"blur\",\"trial\":0,\"time\":361670},{\"event\":\"focus\",\"trial\":0,\"time\":368324},{\"event\":\"blur\",\"trial\":0,\"time\":372814},{\"event\":\"focus\",\"trial\":0,\"time\":377066},{\"event\":\"blur\",\"trial\":0,\"time\":380774},{\"event\":\"focus\",\"trial\":0,\"time\":382870},{\"event\":\"blur\",\"trial\":0,\"time\":386634},{\"event\":\"focus\",\"trial\":0,\"time\":389966},{\"event\":\"blur\",\"trial\":0,\"time\":393886},{\"event\":\"focus\",\"trial\":0,\"time\":395806},{\"event\":\"blur\",\"trial\":0,\"time\":400556},{\"event\":\"focus\",\"trial\":0,\"time\":407605},{\"event\":\"blur\",\"trial\":0,\"time\":411263},{\"event\":\"focus\",\"trial\":0,\"time\":414934},{\"event\":\"blur\",\"trial\":0,\"time\":420005},{\"event\":\"focus\",\"trial\":0,\"time\":423422},{\"event\":\"blur\",\"trial\":6,\"time\":448400},{\"event\":\"focus\",\"trial\":6,\"time\":450445},{\"event\":\"blur\",\"trial\":10,\"time\":462592},{\"event\":\"focus\",\"trial\":11,\"time\":467814},{\"event\":\"blur\",\"trial\":11,\"time\":475049},{\"event\":\"focus\",\"trial\":11,\"ti