[{"view_history":"[{\"page_index\":0,\"viewing_time\":1682092.9999999935},{\"page_index\":1,\"viewing_time\":5262.000000002328},{\"page_index\":2,\"viewing_time\":19051.000000006752},{\"page_index\":3,\"viewing_time\":9740.999999994645},{\"page_index\":4,\"viewing_time\":11278.000000005588},{\"page_index\":5,\"viewing_time\":6736.999999993714},{\"page_index\":6,\"viewing_time\":6519.000000000233},{\"page_index\":7,\"viewing_time\":17524.00000000489},{\"page_index\":8,\"viewing_time\":18383.99999999092},{\"page_index\":9,\"viewing_time\":8564.000000013039}]","rt":1785154.9999999986,"trial_type":"pit-instructions","trial_index":0,"time_elapsed":1785223,"internal_node_id":"0.0-0.0-0.0","task_version":"battery-v0.2"},{"rune":"1","rune_set":"elianto","hex":"#3366ff99","correct":32,"choice":-1,"rt":-1,"accuracy":0,"outcome":"+1","keys":[3553],"total_keys":1,"block":0,"practice":1,"trial_type":"pit-trial","trial_index":1,"time_elapsed":1789238,"internal_node_id":"0.0-0.0-1.0-0.0","task_version":"battery-v0.2"},{"rune":"1","rune_set":"elianto","hex":"#3366ff99","correct":32,"choice":-1,"rt":-1,"accuracy":0,"outcome":"+1","keys":[],"total_keys":0,"block":0,"practice":1,"trial_type":"pit-trial","trial_index":2,"time_elapsed":1793249,"internal_node_id":"0.0-0.0-1.1-0.1","task_version":"battery-v0.2"},{"rune":"1","rune_set":"elianto","hex":"#3366ff99","correct":32,"choice":-1,"rt":-1,"accuracy":0,"outcome":"+1","keys":[1493.0000000023283],"total_keys":1,"block":0,"practice":1,"trial_type":"pit-trial","trial_index":3,"time_elapsed":1797260,"internal_node_id":"0.0-0.0-1.2-0.2","task_version":"battery-v0.2"},{"rune":"1","rune_set":"elianto","hex":"#3366ff99","correct":32,"choice":32,"rt":714.0000000074506,"accuracy":1,"outcome":"+10","keys":[2214.0000000074506],"total_keys":1,"block":0,"practice":1,"trial_type":"pit-trial","trial_index":4,"time_elapsed":1800687,"internal_node_id":"0.0-0.0-1.3-0.3","task_version":"battery-v0.2"},{"rune":"1","rune_set":"elianto","hex":"#3366ff99","correct":32,"choice":32,"rt":604.9999999960419,"accuracy":1,"outcome":"+10","keys":[2104.999999996042],"total_keys":1,"block":0,"practice":1,"trial_type":"pit-trial","trial_index":5,"time_elapsed":1804003,"internal_node_id":"0.0-0.0-1.4-0.4","task_version":"battery-v0.2"},{"rune":"1","rune_set":"elianto","hex":"#3366ff99","correct":32,"choice":32,"rt":663.0000000004657,"accuracy":1,"outcome":"+10","keys":[2163.0000000004657],"total_keys":1,"block":0,"practice":1,"trial_type":"pit-trial","trial_index":6,"time_elapsed":1807377,"internal_node_id":"0.0-0.0-1.5-0.5","task_version":"battery-v0.2"},{"view_history":"[{\"page_index\":0,\"viewing_time\":2975.9999999948777},{\"page_index\":1,\"viewing_time\":6355.00000001071}]","rt":9331.000000005588,"trial_type":"pit-instructions","trial_index":7,"time_elapsed":1816725,"internal_node_id":"0.0-0.0-2.0","task_version":"battery-v0.2"},{"rune":"2","rune_set":"elianto","hex":"#3366ff99","correct":-1,"choice":32,"rt":429.9999999930151,"accuracy":0,"outcome":"+1","keys":[1929.999999993015],"total_keys":1,"block":0,"practice":2,"trial_type":"pit-trial","trial_index":8,"time_elapsed":1819866,"internal_node_id":"0.0-0.0-3.0-0.0","task_version":"battery-v0.2"},{"rune":"2","rune_set":"elianto","hex":"#3366ff99","correct":-1,"choice":-1,"rt":-1,"accuracy":1,"outcome":"+10","keys":[],"total_keys":0,"block":0,"practice":2,"trial_type":"pit-trial","trial_index":9,"time_elapsed":1823876,"internal_node_id":"0.0-0.0-3.1-0.1","task_version":"battery-v0.2"},{"rune":"2","rune_set":"elianto","hex":"#3366ff99","correct":-1,"choice":-1,"rt":-1,"accuracy":1,"outcome":"+10","keys":[],"total_keys":0,"block":0,"practice":2,"trial_type":"pit-trial","trial_index":10,"time_elapsed":1827887,"internal_node_id":"0.0-0.0-3.2-0.2","task_version":"battery-v0.2"},{"rune":"2","rune_set":"elianto","hex":"#3366ff99","correct":-1,"choice":-1,"rt":-1,"accuracy":1,"outcome":"+10","keys":[],"total_keys":0,"block":0,"practice":2,"trial_type":"pit-trial","trial_index":11,"time_elapsed":1831897,"internal_node_id":"0.0-0.0-3.3-0.3","task_version":"battery-v0.2"},{"view_history":"[{\"page_index\":0,\"viewing_time\":15998.000000006985},{\"page_index\":1,\"viewing_time\":5110.999999989755}]","rt":21110.0000000007,"trial_type":"pit-instructions","trial_index":12,"time_elapsed":1853017,"internal_node_id":"0.0-0.0-4.0","task_version":"battery-v0.2"},{"rune":"3","rune_set":"elianto","hex":"#f73b6a7A","correct":-1,"choice":-1,"rt":-1,"accuracy":1,"outcome":"-1","keys":[],"total_keys":0,"block":0,"practice":3,"trial_type":"pit-trial","trial_index":13,"time_elapsed":1857028,"internal_node_id":"0.0-0.0-5.0-0.0","task_version":"battery-v0.2"},{"rune":"3","rune_set":"elianto","hex":"#f73b6a7A","correct":-1,"choice":32,"rt":869.9999999953434,"accuracy":0,"outcome":"-10","keys":[2369.9999999953434],"total_keys":1,"block":0,"practice":3,"trial_type":"pit-trial","trial_index":14,"time_elapsed":1860610,"internal_node_id":"0.0-0.0-5.1-0.1","task_version":"battery-v0.2"},{"rune":"3","rune_set":"elianto","hex":"#f73b6a7A","correct":-1,"choice":-1,"rt":-1,"accuracy":1,"outcome":"-1","keys":[],"total_keys":0,"block":0,"practice":3,"trial_type":"pit-trial","trial_index":15,"time_elapsed":1864622,"internal_node_id":"0.0-0.0-5.2-0.2","task_version":"battery-v0.2"},{"rune":"3","rune_set":"elianto","hex":"#f73b6a7A","correct":-1,"choice":-1,"rt":-1,"accuracy":1,"outcome":"-1","keys":[],"total_keys":0,"block":0,"practice":3,"trial_type":"pit-trial","trial_index":16,"time_elapsed":1868631,"internal_node_id":"0.0-0.0-5.3-0.3","task_version":"battery-v0.2"},{"rune":"3","rune_set":"elianto","hex":"#f73b6a7A","correct":-1,"choice":-1,"rt":-1,"accuracy":1,"outcome":"-1","keys":[],"total_keys":0,"block":0,"practice":3,"trial_type":"pit-trial","trial_index":17,"time_elapsed":1872645,"internal_node_id":"0.0-0.0-5.4-0.4","task_version":"battery-v0.2"},{"view_history":"[{\"page_index\":0,\"viewing_time\":1563.9999999983702},{\"page_index\":1,\"viewing_time\":13039.000000004424}]","rt":14604.00000000652,"trial_type":"pit-instructions","trial_index":18,"time_elapsed":1887258,"internal_node_id":"0.0-0.0-6.0","task_version":"battery-v0.2"},{"rune":"4","rune_set":"elianto","hex":"#f73b6a7A","correct":32,"choice":-1,"rt":-1,"accuracy":0,"outcome":"-10","keys":[],"total_keys":0,"block":0,"practice":4,"trial_type":"pit-trial","trial_index":19,"time_elapsed":1891269,"internal_node_id":"0.0-0.0-7.0-0.0","task_version":"battery-v0.2"},{"rune":"4","rune_set":"elianto","hex":"#f73b6a7A","correct":32,"choice":32,"rt":662.0000000111759,"accuracy":1,"outcome":"-1","keys":[1446.000000010943,2162.000000011176],"total_keys":2,"block":0,"practice":4,"trial_type":"pit-trial","trial_index":20,"time_elapsed":1894640,"internal_node_id":"0.0-0.0-7.1-0.1","task_version":"battery-v0.2"},{"rune":"4","rune_set":"elianto","hex":"#f73b6a7A","correct":32,"choice":32,"rt":282.99999999580905,"accuracy":1,"outcome":"-1","keys":[1782.999999995809],"total_keys":1,"block":0,"practice":4,"trial_type":"pit-trial","trial_index":21,"time_elapsed":1897635,"internal_node_id":"0.0-0.0-7.2-0.2","task_version":"battery-v0.2"},{"rune":"4","rune_set":"elianto","hex":"#f73b6a7A","correct":32,"choice":32,"rt":349.0000000020955,"accuracy":1,"outcome":"-1","keys":[1850.9999999951106],"total_keys":1,"block":0,"practice":4,"trial_type":"pit-trial","trial_index":22,"time_elapsed":1900695,"internal_node_id":"0.0-0.0-7.3-0.3","task_version":"battery-v0.2"},{"view_history":"[{\"page_index\":0,\"viewing_time\":43023.999999990454},{\"page_index\":1,\"viewing_time\":5642.9999999965075},{\"page_index\":2,\"viewing_time\":5436.000000001397},{\"page_index\":3,\"viewing_time\":374.0000000107102},{\"page_index\":4,\"viewing_time\":4034.999999988824},{\"page_index\":5,\"viewing_time\":3134.000000005588}]","rt":61646.999999997206,"trial_type":"pit-instructions","trial_index":23,"time_elapsed":1962352,"internal_node_id":"0.0-0.0-8.0","task_version":"battery-v0.2"},{"responses":["Press SPACE","+10","-1","False","True"],"num_errors":1,"rt":27508.000000001397,"trial_type":"pit-comprehension","trial_index":24,"time_elapsed":1989920,"internal_node_id":"0.0-0.0-9.0","task_version":"battery-v0.2"},{"view_history":"[{\"page_index\":0,\"viewing_time\":2020.9999999934807},{\"page_index\":1,\"viewing_time\":20236.00000000419}]","rt":22258.00000000163,"trial_type":"pit-instructions","trial_index":25,"time_elapsed":2012195,"internal_node_id":"0.0-1.0","task_version":"battery-v0.2"},{"rune":"A","rune_set":"bacs2","hex":"#3366ff99","correct":32,"choice":32,"rt":578.9999999976717,"accuracy":1,"outcome":"+1","keys":[2079.00000001234],"total_keys":1,"block":1,"trial":1,"stimulus":2,"robot":1,"valence":"win","action":"go","sham":1,"trial_type":"pit-trial","trial_index":26,"time_elapsed":2015492,"internal_node_id":"0.0-2.0","task_version":"battery-v0.2"},{"rune":"N","rune_set":"bacs2","hex":"#f73b6a7A","correct":-1,"choice":32,"rt":519.0000000002328,"accuracy":0,"outcome":"-10","keys":[2019.0000000002328],"total_keys":1,"block":1,"trial":2,"stimulus":0,"robot":4,"valence":"lose","action":"no-go","sham":0,"trial_type":"pit-trial","trial_index":27,"time_elapsed":2018722,"internal_node_id":"0.0-3.0","task_version":"battery-v0.2"},{"rune":"F","rune_set":"bacs2","hex":"#f73b6a7A","correct":-1,"choice":-1,"rt":-1,"accuracy":1,"outcome":"-1","keys":[2879.0000000009313],"total_keys":1,"block":1,"trial":3,"stimulus":1,"robot":4,"valence":"lose","action":"no-go","sham":0,"trial_type":"pit-trial","trial_index":28,"time_elapsed":2022732,"internal_node_id":"0.0-4.0","task_version":"battery-v0.2"},{"rune":"U","rune_set":"bacs2","hex":"#3366ff99","correct":-1,"choice":-1,"rt":-1,"accuracy":1,"outcome":"+10","keys":[],"total_keys":0,"block":1,"trial":4,"stimulus":3,"robot":2,"valence":"win","action":"no-go","sham":0,"trial_type":"pit-trial","trial_index":29,"time_elapsed":2026742,"internal_node_id":"0.0-5.0","task_version":"battery-v0.2"},{"rune":"N","rune_set":"bacs2","hex":"#f73b6a7A","correct":-1,"choice":-1,"rt":-1,"accuracy":1,"outcome":"-1","keys":[],"total_keys":0,"block":1,"trial":5,"stimulus":0,"robot":4,"valence":"lose","action":"no-go","sham":0,"trial_type":"pit-trial","trial_index":30,"time_elapsed":2030752,"internal_node_id":"0.0-6.0","task_version":"battery-v0.2"},{"rune":"F","rune_set":"bacs2","hex":"#f73b6a7A","correct":-1,"choice":-1,"rt":-1,"accuracy":1,"outcome":"-1","keys":[],"total_keys":0,"block":1,"trial":6,"stimulus":1,"robot":4,"valence":"lose","action":"no-go","sham":0,"trial_type":"pit-trial","trial_index":31,"time_elapsed":2034762,"internal_node_id":"0.0-7.0","task_version":"battery-v0.2"},{"rune":"A","rune_set":"bacs2","hex":"#3366ff99","correct":32,"choice":-1,"rt":-1,"accuracy":0,"outcome":"+1","keys":[],"total_keys":0,"block":1,"trial":7,"stimulus":2,"robot":1,"valence":"win","action":"go","sham":0,"trial_type":"pit-trial","trial_index":32,"time_elapsed":2038775,"internal_node_id":"0.0-8.0","task_version":"battery-v0.2"},{"rune":"U","rune_set":"bacs2","hex":"#3366ff99","correct":-1,"choice":-1,"rt":-1,"accuracy":1,"outcome":"+10","keys":[],"total_keys":0,"block":1,"trial":8,"stimulus":3,"robot":2,"valence":"win","action":"no-go","sham":0,"trial_type":"pit-trial","trial_index":33,"time_elapsed":2042785,"internal_node_id":"0.0-9.0","task_version":"battery-v0.2"},{"rune":"U","rune_set":"bacs2","hex":"#3366ff99","correct":-1,"choice":-1,"rt":-1,"accuracy":1,"outcome":"+1","keys":[],"total_keys":0,"block":1,"trial":9,"stimulus":3,"robot":2,"valence":"win","action":"no-go","sham":1,"trial_type":"pit-trial","trial_index":34,"time_elapsed":2046795,"internal_node_id":"0.0-10.0","task_version":"battery-v0.2"},{"rune":"F","rune_set":"bacs2","hex":"#f73b6a7A","correct":-1,"choice":32,"rt":1125,"accuracy":0,"outcome":"-10","keys":[2625],"total_keys":1,"block":1,"trial":10,"stimulus":1,"robot":4,"valence":"lose","action":"no-go","sham":0,"trial_type":"pit-trial","trial_index":35,"time_elapsed":2050631,"internal_node_id":"0.0-11.0","task_version":"battery-v0.2"},{"rune":"N","rune_set":"bacs2","hex":"#f73b6a7A","correct":-1,"choice":32,"rt":620.9999999993015,"accuracy":0,"outcome":"-10","keys":[2120.9999999993015],"total_keys":1,"block":1,"trial":11,"stimulus":0,"robot":4,"valence":"lose","action":"no-go","sham":0,"trial_type":"pit-trial","trial_index":36,"time_elapsed":2053964,"internal_node_id":"0.0-12.0","task_version":"battery-v0.2"},{"rune":"A","rune_set":"bacs2","hex":"#3366ff99","correct":32,"choice":32,"rt":858.9999999967404,"accuracy":1,"outcome":"+10","keys":[2359.99999998603],"total_keys":1,"block":1,"trial":12,"stimulus":2,"robot":1,"valence":"win","action":"go","sham":0,"trial_type":"pit-trial","trial_index":37,"time_elapsed":2057534,"internal_node_id":"0.0-13.0","task_version":"battery-v0.2"},{"rune":"F","rune_set":"bacs2","hex":"#f73b6a7A","correct":-1,"choice":32,"rt":1107.0000000037253,"accuracy":0,"outcome":"-10","keys":[2607.0000000037253],"total_keys":1,"block":1,"trial":13,"stimulus":1,"robot":4,"valence":"lose","action":"no-go","sham":0,"trial_type":"pit-trial","trial_index":38,"time_elapsed":2061356,"internal_node_id":"0.0-14.0","task_version":"battery-v0.2"},{"rune":"N","rune_set":"bacs2","hex":"#f73b6a7A","correct":-1,"choice":-1,"rt":-1,"accuracy":1,"outcome":"-1","keys":[],"total_keys":0,"block":1,"trial":14,"stimulus":0,"robot":4,"valence":"lose","action":"no-go","sham":0,"trial_type":"pit-trial","trial_index":39,"time_elapsed":2065379,"internal_node_id":"0.0-15.0","task_version":"battery-v0.2"},{"rune":"A","rune_set":"bacs2","hex":"#3366ff99","correct":32,"choice":32,"rt":1201.0000000009313,"accuracy":1,"outcome":"+1","keys":[2702.0000000046566],"total_keys":1,"block":1,"trial":15,"stimulus":2,"robot":1,"valence":"win","action":"go","sham":1,"trial_type":"pit-trial","trial_index":40,"time_elapsed":2069303,"internal_node_id":"0.0-16.0","task_version":"battery-v0.2"},{"rune":"U","rune_set":"bacs2","hex":"#3366ff99","correct":-1,"choice":-1,"rt":-1,"accuracy":1,"outcome":"+10","keys":[],"total_keys":0,"block":1,"trial":16,"stimulus":3,"robot":2,"valence":"win","action":"no-go","sham":0,"trial_type":"pit-trial","trial_index":41,"time_elapsed":2073313,"internal_node_id":"0.0-17.0","task_version":"battery-v0.2"},{"rune":"U","rune_set":"bacs2","hex":"#3366ff99","correct":-1,"choice":32,"rt":626.0000000037253,"accuracy":0,"outcome":"+1","keys":[2126.0000000037253],"total_keys":1,"block":1,"trial":17,"stimulus":3,"robot":2,"valence":"win","action":"no-go","sham":0,"trial_type":"pit-trial","trial_index":42,"time_elapsed":2076651,"internal_node_id":"0.0-18.0","task_version":"battery-v0.2"},{"rune":"N","rune_set":"bacs2","hex":"#f73b6a7A","correct":-1,"choice":-1,"rt":-1,"accuracy":1,"outcome":"-1","keys":[],"total_keys":0,"block":1,"trial":18,"stimulus":0,"robot":4,"valence":"lose","action":"no-go","sham":0,"trial_type":"pit-trial","trial_index":43,"time_elapsed":2080661,"internal_node_id":"0.0-19.0","task_version":"battery-v0.2"},{"rune":"A","rune_set":"bacs2","hex":"#3366ff99","correct":32,"choice":32,"rt":679.0000000037253,"accuracy":1,"outcome":"+10","keys":[2179.0000000037253],"total_keys":1,"block":1,"trial":19,"stimulus":2,"robot":1,"valence":"win","action":"go","sham":0,"trial_type":"pit-trial","trial_index":44,"time_elapsed":2084050,"internal_node_id":"0.0-20.0","task_version":"battery-v0.2"},{"rune":"F","rune_set":"bacs2","hex":"#f73b6a7A","correct":-1,"choice":32,"rt":751.9999999932479,"accuracy":0,"outcome":"-10","keys":[2251.999999993248],"total_keys":1,"block":1,"trial":20,"stimulus":1,"robot":4,"valence":"lose","action":"no-go","sham":0,"trial_type":"pit-trial","trial_index":45,"time_elapsed":2087513,"internal_node_id":"0.0-21.0","task_version":"battery-v0.2"},{"rune":"F","rune_set":"bacs2","hex":"#f73b6a7A","correct":-1,"choice":-1,"rt":-1,"accuracy":1,"outcome":"-1","keys":[],"total_keys":0,"block":1,"trial":21,"stimulus":1,"robot":4,"valence":"lose","action":"no-go","sham":0,"trial_type":"pit-trial","trial_index":46,"time_elapsed":2091524,"internal_node_id":"0.0-22.0","task_version":"battery-v0.2"},{"rune":"A","rune_set":"bacs2","hex":"#3366ff99","correct":32,"choice":-1,"rt":-1,"accuracy":0,"outcome":"+10","keys":[],"total_keys":0,"block":1,"trial":22,"stimulus":2,"robot":1,"valence":"win","action":"go","sham":1,"trial_type":"pit-trial","trial_index":47,"time_elapsed":2095556,"internal_node_id":"0.0-23.0","task_version":"battery-v0.2"},{"rune":"N","rune_set":"bacs2","hex":"#f73b6a7A","correct":-1,"choice":-1,"rt":-1,"accuracy":1,"outcome":"-1","keys":[],"total_keys":0,"block":1,"trial":23,"stimulus":0,"robot":4,"valence":"lose","action":"no-go","sham":0,"trial_type":"pit-trial","trial_index":48,"time_elapsed":2099568,"internal_node_id":"0.0-24.0","task_version":"battery-v0.2"},{"rune":"U","rune_set":"bacs2","hex":"#3366ff99","correct":-1,"choice":-1,"rt":-1,"accuracy":1,"outcome":"+10","keys":[],"total_keys":0,"block":1,"trial":24,"stimulus":3,"robot":2,"valence":"win","action":"no-go","sham":0,"trial_type":"pit-trial","trial_index":49,"time_elapsed":2103578,"internal_node_id":"0.0-25.0","task_version":"battery-v0.2"},{"rune":"F","rune_set":"bacs2","hex":"#f73b6a7A","correct":-1,"choice":-1,"rt":-1,"accuracy":1,"outcome":"-1","keys":[],"total_keys":0,"block":1,"trial":25,"stimulus":1,"robot":4,"valence":"lose","action":"no-go","sham":0,"trial_type":"pit-trial","trial_index":50,"time_elapsed":2107589,"internal_node_id":"0.0-26.0","task_version":"battery-v0.2"},{"rune":"U","rune_set":"bacs2","hex":"#3366ff99","correct":-1,"choice":-1,"rt":-1,"accuracy":1,"outcome":"+10","keys":[],"total_keys":0,"block":1,"trial":26,"stimulus":3,"robot":2,"valence":"win","action":"no-go","sham":0,"trial_type":"pit-trial","trial_index":51,"time_elapsed":2111599,"internal_node_id":"0.0-27.0","task_version":"battery-v0.2"},{"rune":"N","rune_set":"bacs2","hex":"#f73b6a7A","correct":-1,"choice":32,"rt":703.9999999981374,"accuracy":0,"outcome":"-10","keys":[2203.9999999981374],"total_keys":1,"block":1,"trial":27,"stimulus":0,"robot":4,"valence":"lose","action":"no-go","sham":0,"trial_type":"pit-trial","trial_index":52,"time_elapsed":2115014,"internal_node_id":"0.0-28.0","task_version":"battery-v0.2"},{"rune":"A","rune_set":"bacs2","hex":"#3366ff99","correct":32,"choice":-1,"rt":-1,"accuracy":0,"outcome":"+10","keys":[],"total_keys":0,"block":1,"trial":28,"stimulus":2,"robot":1,"valence":"win","action":"go","sham":1,"trial_type":"pit-trial","trial_index":53,"time_elapsed":2119023,"internal_node_id":"0.0-29.0","task_version":"battery-v0.2"},{"rune":"U","rune_set":"bacs2","hex":"#3366ff99","correct":-1,"choice":-1,"rt":-1,"accuracy":1,"outcome":"+10","keys":[],"total_keys":0,"block":1,"trial":29,"stimulus":3,"robot":2,"valence":"win","action":"no-go","sham":0,"trial_type":"pit-trial","trial_index":54,"time_elapsed":2123037,"internal_node_id":"0.0-30.0","task_version":"battery-v0.2"},{"rune":"N","rune_set":"bacs2","hex":"#f73b6a7A","correct":-1,"choice":-1,"rt":-1,"accuracy":1,"outcome":"-10","keys":[],"total_keys":0,"block":1,"trial":30,"stimulus":0,"robot":4,"valence":"lose","action":"no-go","sham":1,"trial_type":"pit-trial","trial_index":55,"time_elapsed":2127046,"internal_node_id":"0.0-31.0","task_version":"battery-v0.2"},{"rune":"A","rune_set":"bacs2","hex":"#3366ff99","correct":32,"choice":-1,"rt":-1,"accuracy":0,"outcome":"+10","keys":[],"total_keys":0,"block":1,"trial":31,"stimulus":2,"robot":1,"valence":"win","action":"go","sham":1,"trial_type":"pit-trial","trial_index":56,"time_elapsed":2131057,"internal_node_id":"0.0-32.0","task_version":"battery-v0.2"},{"rune":"F","rune_set":"bacs2","hex":"#f73b6a7A","correct":-1,"choice":-1,"rt":-1,"accuracy":1,"outcome":"-10","keys":[],"total_keys":0,"block":1,"trial":32,"stimulus":1,"robot":4,"valence":"lose","action":"no-go","sham":1,"trial_type":"pit-trial","trial_index":57,"time_elapsed":2135066,"internal_node_id":"0.0-33.0","task_version":"battery-v0.2"},{"rune":"S","rune_set":"bacs2","hex":"#f73b6a7A","correct":32,"choice":-1,"rt":-1,"accuracy":0,"outcome":"-10","keys":[],"total_keys":0,"block":1,"trial":33,"stimulus":4,"robot":3,"valence":"lose","action":"go","sham":0,"trial_type":"pit-trial","trial_index":58,"time_elapsed":2139077,"internal_node_id":"0.0-34.0","task_version":"battery-v0.2"},{"rune":"N","rune_set":"bacs2","hex":"#f73b6a7A","correct":-1,"choice":-1,"rt":-1,"accuracy":1,"outcome":"-1","keys":[],"total_keys":0,"block":1,"trial":34,"stimulus":0,"robot":4,"valence":"lose","action":"no-go","sham":0,"trial_type":"pit-trial","trial_index":59,"time_elapsed":2143087,"internal_node_id":"0.0-35.0","task_version":"battery-v0.2"},{"rune":"U","rune_set":"bacs2","hex":"#3366ff99","correct":-1,"choice":-1,"rt":-1,"accuracy":1,"outcome":"+10","keys":[],"total_keys":0,"block":1,"trial":35,"stimulus":3,"robot":2,"valence":"win","action":"no-go","sham":0,"trial_type":"pit-trial","trial_index":60,"time_elapsed":2147096,"internal_node_id":"0.0-36.0","task_version":"battery-v0.2"},{"rune":"A","rune_set":"bacs2","hex":"#3366ff99","correct":32,"choice":32,"rt":1010.0000000093132,"accuracy":1,"outcome":"+10","keys":[2510.000000009313],"total_keys":1,"block":1,"trial":36,"stimulus":2,"robot":1,"valence":"win","action":"go","sham":0,"trial_type":"pit-trial","trial_index":61,"time_elapsed":2150818,"internal_node_id":"0.0-37.0","task_version":"battery-v0.2"},{"rune":"U","rune_set":"bacs2","hex":"#3366ff99","correct":-1,"choice":-1,"rt":-1,"accuracy":1,"outcome":"+10","keys":[],"total_keys":0,"block":1,"trial":37,"stimulus":3,"robot":2,"valence":"win","action":"no-go","sham":0,"trial_type":"pit-trial","trial_index":62,"time_elapsed":2154834,"internal_node_id":"0.0-38.0","task_version":"battery-v0.2"},{"rune":"S","rune_set":"bacs2","hex":"#f73b6a7A","correct":32,"choice":32,"rt":985.0000000004657,"accuracy":1,"outcome":"-1","keys":[2485.0000000004657],"total_keys":1,"block":1,"trial":38,"stimulus":4,"robot":3,"valence":"lose","action":"go","sham":0,"trial_type":"pit-trial","trial_index":63,"time_elapsed":2158532,"internal_node_id":"0.0-39.0","task_version":"battery-v0.2"},{"rune":"A","rune_set":"bacs2","hex":"#3366ff99","correct":32,"choice":32,"rt":1009.9999999948777,"accuracy":1,"outcome":"+1","keys":[2509.9999999948777],"total_keys":1,"block":1,"trial":39,"stimulus":2,"robot":1,"valence":"win","action":"go","sham":1,"trial_type":"pit-trial","trial_index":64,"time_elapsed":2162252,"internal_node_id":"0.0-40.0","task_version":"battery-v0.2"},{"rune":"N","rune_set":"bacs2","hex":"#f73b6a7A","correct":-1,"choice":-1,"rt":-1,"accuracy":1,"outcome":"-1","keys":[2975.000000005588],"total_keys":1,"block":1,"trial":40,"stimulus":0,"robot":4,"valence":"lose","action":"no-go","sham":0,"trial_type":"pit-trial","trial_index":65,"time_elapsed":2166262,"internal_node_id":"0.0-41.0","task_version":"battery-v0.2"},{"rune":"P","rune_set":"bacs2","hex":"#3366ff99","correct":32,"choice":-1,"rt":-1,"accuracy":0,"outcome":"+1","keys":[],"total_keys":0,"block":1,"trial":41,"stimulus":6,"robot":1,"valence":"win","action":"go","sham":0,"trial_type":"pit-trial","trial_index":66,"time_elapsed":2170292,"internal_node_id":"0.0-42.0","task_version":"battery-v0.2"},{"rune":"N","rune_set":"bacs2","hex":"#f73b6a7A","correct":-1,"choice":32,"rt":962,"accuracy":0,"outcome":"-10","keys":[2463.999999993015],"total_keys":1,"block":1,"trial":42,"stimulus":0,"robot":4,"valence":"lose","action":"no-go","sham":0,"trial_type":"pit-trial","trial_index":67,"time_elapsed":2173967,"internal_node_id":"0.0-43.0","task_version":"battery-v0.2"},{"rune":"S","rune_set":"bacs2","hex":"#f73b6a7A","correct":32,"choice":-1,"rt":-1,"accuracy":0,"outcome":"-10","keys":[3172.9999999948777],"total_keys":1,"block":1,"trial":43,"stimulus":4,"robot":3,"valence":"lose","action":"go","sham":0,"trial_type":"pit-trial","trial_index":68,"time_elapsed":2177980,"internal_node_id":"0.0-44.0","task_version":"battery-v0.2"},{"rune":"L","rune_set":"bacs2","hex":"#3366ff99","correct":-1,"choice":-1,"rt":-1,"accuracy":1,"outcome":"+1","keys":[],"total_keys":0,"block":1,"trial":44,"stimulus":5,"robot":2,"valence":"win","action":"no-go","sham":1,"trial_type":"pit-trial","trial_index":69,"time_elapsed":2181990,"internal_node_id":"0.0-45.0","task_version":"battery-v0.2"},{"rune":"N","rune_set":"bacs2","hex":"#f73b6a7A","correct":-1,"choice":-1,"rt":-1,"accuracy":1,"outcome":"-1","keys":[3346.9999999939464],"total_keys":1,"block":1,"trial":45,"stimulus":0,"robot":4,"valence":"lose","action":"no-go","sham":0,"trial_type":"pit-trial","trial_index":70,"time_elapsed":2185999,"internal_node_id":"0.0-46.0","task_version":"battery-v0.2"},{"rune":"P","rune_set":"bacs2","hex":"#3366ff99","correct":32,"choice":-1,"rt":-1,"accuracy":0,"outcome":"+10","keys":[3084.000000002794],"total_keys":1,"block":1,"trial":46,"stimulus":6,"robot":1,"valence":"win","action":"go","sham":1,"trial_type":"pit-trial","trial_index":71,"time_elapsed":2190010,"internal_node_id":"0.0-47.0","task_version":"battery-v0.2"},{"rune":"L","rune_set":"bacs2","hex":"#3366ff99","correct":-1,"choice":-1,"rt":-1,"accuracy":1,"outcome":"+10","keys":[2859.000000011176],"total_keys":1,"block":1,"trial":47,"stimulus":5,"robot":2,"valence":"win","action":"no-go","sham":0,"trial_type":"pit-trial","trial_index":72,"time_elapsed":2194021,"internal_node_id":"0.0-48.0","task_version":"battery-v0.2"},{"rune":"S","rune_set":"bacs2","hex":"#f73b6a7A","correct":32,"choice":-1,"rt":-1,"accuracy":0,"outcome":"-10","keys":[],"total_keys":0,"block":1,"trial":48,"stimulus":4,"robot":3,"valence":"lose","action":"go","sham":0,"trial_type":"pit-trial","trial_index":73,"time_elapsed":2198031,"internal_node_id":"0.0-49.0","task_version":"battery-v0.2"},{"rune":"L","rune_set":"bacs2","hex":"#3366ff99","correct":-1,"choice":32,"rt":941.9999999953434,"accuracy":0,"outcome":"+1","keys":[2441.9999999953434],"total_keys":1,"block":1,"trial":49,"stimulus":5,"robot":2,"valence":"win","action":"no-go","sham":0,"trial_type":"pit-trial","trial_index":74,"time_elapsed":2201682,"internal_node_id":"0.0-50.0","task_version":"battery-v0.2"},{"rune":"S","rune_set":"bacs2","hex":"#f73b6a7A","correct":32,"choice":32,"rt":951.0000000009313,"accuracy":1,"outcome":"-1","keys":[2451.0000000009313],"total_keys":1,"block":1,"trial":50,"stimulus":4,"robot":3,"valence":"lose","action":"go","sham":0,"trial_type":"pit-trial","trial_index":75,"time_elapsed":2205352,"internal_node_id":"0.0-51.0","task_version":"battery-v0.2"},{"rune":"P","rune_set":"bacs2","hex":"#3366ff99","correct":32,"choice":32,"rt":1137.999999991618,"accuracy":1,"outcome":"+10","keys":[2637.999999991618],"total_keys":1,"block":1,"trial":51,"stimulus":6,"robot":1,"valence":"win","action":"go","sham":0,"trial_type":"pit-trial","trial_index":76,"time_elapsed":2209210,"internal_node_id":"0.0-52.0","task_version":"battery-v0.2"},{"rune":"R","rune_set":"bacs2","hex":"#f73b6a7A","correct":-1,"choice":-1,"rt":-1,"accuracy":1,"outcome":"-1","keys":[],"total_keys":0,"block":1,"trial":52,"stimulus":7,"robot":4,"valence":"lose","action":"no-go","sham":0,"trial_type":"pit-trial","trial_index":77,"time_elapsed":2213220,"internal_node_id":"0.0-53.0","task_version":"battery-v0.2"},{"rune":"S","rune_set":"bacs2","hex":"#f73b6a7A","correct":32,"choice":-1,"rt":-1,"accuracy":0,"outcome":"-1","keys":[],"total_keys":0,"block":1,"trial":53,"stimulus":4,"robot":3,"valence":"lose","action":"go","sham":1,"trial_type":"pit-trial","trial_index":78,"time_elapsed":2217230,"internal_node_id":"0.0-54.0","task_version":"battery-v0.2"},{"rune":"R","rune_set":"bacs2","hex":"#f73b6a7A","correct":-1,"choice":-1,"rt":-1,"accuracy":1,"outcome":"-1","keys":[],"total_keys":0,"block":1,"trial":54,"stimulus":7,"robot":4,"valence":"lose","action":"no-go","sham":0,"trial_type":"pit-trial","trial_index":79,"time_elapsed":2221239,"internal_node_id":"0.0-55.0","task_version":"battery-v0.2"},{"rune":"P","rune_set":"bacs2","hex":"#3366ff99","correct":32,"choice":-1,"rt":-1,"accuracy":0,"outcome":"+1","keys":[],"total_keys":0,"block":1,"trial":55,"stimulus":6,"robot":1,"valence":"win","action":"go","sham":0,"trial_type":"pit-trial","trial_index":80,"time_elapsed":2225249,"internal_node_id":"0.0-56.0","task_version":"battery-v0.2"},{"rune":"L","rune_set":"bacs2","hex":"#3366ff99","correct":-1,"choice":-1,"rt":-1,"accuracy":1,"outcome":"+1","keys":[],"total_keys":0,"block":1,"trial":56,"stimulus":5,"robot":2,"valence":"win","action":"no-go","sham":1,"trial_type":"pit-trial","trial_index":81,"time_elapsed":2229259,"internal_node_id":"0.0-57.0","task_version":"battery-v0.2"},{"rune":"S","rune_set":"bacs2","hex":"#f73b6a7A","correct":32,"choice":32,"rt":1248.9999999962747,"accuracy":1,"outcome":"-1","keys":[2748.9999999962747],"total_keys":1,"block":1,"trial":57,"stimulus":4,"robot":3,"valence":"lose","action":"go","sham":0,"trial_type":"pit-trial","trial_index":82,"time_elapsed":2233220,"internal_node_id":"0.0-58.0","task_version":"battery-v0.2"},{"rune":"P","rune_set":"bacs2","hex":"#3366ff99","correct":32,"choice":-1,"rt":-1,"accuracy":0,"outcome":"+1","keys":[3288.0000000009313],"total_keys":1,"block":1,"trial":58,"stimulus":6,"robot":1,"valence":"win","action":"go","sham":0,"trial_type":"pit-trial","trial_index":83,"time_elapsed":2237230,"internal_node_id":"0.0-59.0","task_version":"battery-v0.2"},{"rune":"L","rune_set":"bacs2","hex":"#3366ff99","correct":-1,"choice":32,"rt":725.9999999953434,"accuracy":0,"outcome":"+1","keys":[2225.9999999953434],"total_keys":1,"block":1,"trial":59,"stimulus":5,"robot":2,"valence":"win","action":"no-go","sham":0,"trial_type":"pit-trial","trial_index":84,"time_elapsed":2240667,"internal_node_id":"0.0-60.0","task_version":"battery-v0.2"},{"rune":"R","rune_set":"bacs2","hex":"#f73b6a7A","correct":-1,"choice":-1,"rt":-1,"accuracy":1,"outcome":"-1","keys":[],"total_keys":0,"block":1,"trial":60,"stimulus":7,"robot":4,"valence":"lose","action":"no-go","sham":0,"trial_type":"pit-trial","trial_index":85,"time_elapsed":2244677,"internal_node_id":"0.0-61.0","task_version":"battery-v0.2"},{"rune":"S","rune_set":"bacs2","hex":"#f73b6a7A","correct":32,"choice":32,"rt":631.9999999976717,"accuracy":1,"outcome":"-10","keys":[2132.9999999869615],"total_keys":1,"block":1,"trial":61,"stimulus":4,"robot":3,"valence":"lose","action":"go","sham":1,"trial_type":"pit-trial","trial_index":86,"time_elapsed":2248019,"internal_node_id":"0.0-62.0","task_version":"battery-v0.2"},{"rune":"P","rune_set":"bacs2","hex":"#3366ff99","correct":32,"choice":32,"rt":679.9999999930151,"accuracy":1,"outcome":"+10","keys":[2179.999999993015],"total_keys":1,"block":1,"trial":62,"stimulus":6,"robot":1,"valence":"win","action":"go","sham":0,"trial_type":"pit-trial","trial_index":87,"time_elapsed":2251417,"internal_node_id":"0.0-63.0","task_version":"battery-v0.2"},{"rune":"L","rune_set":"bacs2","hex":"#3366ff99","correct":-1,"choice":32,"rt":1214.000000006985,"accuracy":0,"outcome":"+1","keys":[2714.000000006985],"total_keys":1,"block":1,"trial":63,"stimulus":5,"robot":2,"valence":"win","action":"no-go","sham":0,"trial_type":"pit-trial","trial_index":88,"time_elapsed":2255363,"internal_node_id":"0.0-64.0","task_version":"battery-v0.2"},{"rune":"R","rune_set":"bacs2","hex":"#f73b6a7A","correct":-1,"choice":-1,"rt":-1,"accuracy":1,"outcome":"-1","keys":[],"total_keys":0,"block":1,"trial":64,"stimulus":7,"robot":4,"valence":"lose","action":"no-go","sham":0,"trial_type":"pit-trial","trial_index":89,"time_elapsed":2259374,"internal_node_id":"0.0-65.0","task_version":"battery-v0.2"},{"rune":"R","rune_set":"bacs2","hex":"#f73b6a7A","correct":-1,"choice":-1,"rt":-1,"accuracy":1,"outcome":"-1","keys":[],"total_keys":0,"block":1,"trial":65,"stimulus":7,"robot":4,"valence":"lose","action":"no-go","sham":0,"trial_type":"pit-trial","trial_index":90,"time_elapsed":2263398,"internal_node_id":"0.0-66.0","task_version":"battery-v0.2"},{"rune":"P","rune_set":"bacs2","hex":"#3366ff99","correct":32,"choice":32,"rt":383.9999999906868,"accuracy":1,"outcome":"+1","keys":[1884.9999999948777],"total_keys":1,"block":1,"trial":66,"stimulus":6,"robot":1,"valence":"win","action":"go","sham":1,"trial_type":"pit-trial","trial_index":91,"time_elapsed":2266493,"internal_node_id":"0.0-67.0","task_version":"battery-v0.2"},{"rune":"L","rune_set":"bacs2","hex":"#3366ff99","correct":-1,"choice":32,"rt":1225.9999999948777,"accuracy":0,"outcome":"+1","keys":[2725.9999999948777],"total_keys":1,"block":1,"trial":67,"stimulus":5,"robot":2,"valence":"win","action":"no-go","sham":0,"trial_type":"pit-trial","trial_index":92,"time_elapsed":2270431,"internal_node_id":"0.0-68.0","task_version":"battery-v0.2"},{"rune":"S","rune_set":"bacs2","hex":"#f73b6a7A","correct":32,"choice":-1,"rt":-1,"accuracy":0,"outcome":"-10","keys":[],"total_keys":0,"block":1,"trial":68,"stimulus":4,"robot":3,"valence":"lose","action":"go","sham":0,"trial_type":"pit-trial","trial_index":93,"time_elapsed":2274440,"internal_node_id":"0.0-69.0","task_version":"battery-v0.2"},{"rune":"R","rune_set":"bacs2","hex":"#f73b6a7A","correct":-1,"choice":-1,"rt":-1,"accuracy":1,"outcome":"-1","keys":[],"total_keys":0,"block":1,"trial":69,"stimulus":7,"robot":4,"valence":"lose","action":"no-go","sham":0,"trial_type":"pit-trial","trial_index":94,"time_elapsed":2278451,"internal_node_id":"0.0-70.0","task_version":"battery-v0.2"},{"rune":"S","rune_set":"bacs2","hex":"#f73b6a7A","correct":32,"choice":32,"rt":750,"accuracy":1,"outcome":"-1","keys":[2250],"total_keys":1,"block":1,"trial":70,"stimulus":4,"robot":3,"valence":"lose","action":"go","sham":0,"trial_type":"pit-trial","trial_index":95,"time_elapsed":2281923,"internal_node_id":"0.0-71.0","task_version":"battery-v0.2"},{"rune":"L","rune_set":"bacs2","hex":"#3366ff99","correct":-1,"choice":32,"rt":656.9999999920838,"accuracy":0,"outcome":"+1","keys":[2156.9999999920838],"total_keys":1,"block":1,"trial":71,"stimulus":5,"robot":2,"valence":"win","action":"no-go","sham":0,"trial_type":"pit-trial","trial_index":96,"time_elapsed":2285290,"internal_node_id":"0.0-72.0","task_version":"battery-v0.2"},{"rune":"P","rune_set":"bacs2","hex":"#3366ff99","correct":32,"choice":32,"rt":1057.9999999897555,"accuracy":1,"outcome":"+1","keys":[2557.9999999897555],"total_keys":1,"block":1,"trial":72,"stimulus":6,"robot":1,"valence":"win","action":"go","sham":1,"trial_type":"pit-trial","trial_index":97,"time_elapsed":2289058,"internal_node_id":"0.0-73.0","task_version":"battery-v0.2"},{"rune":"V","rune_set":"bacs2","hex":"#3366ff99","correct":32,"choice":-1,"rt":-1,"accuracy":0,"outcome":"+1","keys":[],"total_keys":0,"block":1,"trial":73,"stimulus":8,"robot":1,"valence":"win","action":"go","sham":0,"trial_type":"pit-trial","trial_index":98,"time_elapsed":2293067,"internal_node_id":"0.0-74.0","task_version":"battery-v0.2"},{"rune":"K","rune_set":"bacs2","hex":"#f73b6a7A","correct":32,"choice":-1,"rt":-1,"accuracy":0,"outcome":"-10","keys":[],"total_keys":0,"block":1,"trial":74,"stimulus":9,"robot":3,"valence":"lose","action":"go","sham":0,"trial_type":"pit-trial","trial_index":99,"time_elapsed":2297077,"internal_node_id":"0.0-75.0","task_version":"battery-v0.2"},{"rune":"L","rune_set":"bacs2","hex":"#3366ff99","correct":-1,"choice":32,"rt":625,"accuracy":0,"outcome":"+1","keys":[2125.9999999897555],"total_keys":1,"block":1,"trial":75,"stimulus":5,"robot":2,"valence":"win","action":"no-go","sham":0,"trial_type":"pit-trial","trial_index":100,"time_elapsed":2300413,"internal_node_id":"0.0-76.0","task_version":"battery-v0.2"},{"rune":"R","rune_set":"bacs2","hex":"#f73b6a7A","correct":-1,"choice":-1,"rt":-1,"accuracy":1,"outcome":"-1","keys":[],"total_keys":0,"block":1,"trial":76,"stimulus":7,"robot":4,"valence":"lose","action":"no-go","sham":0,"trial_type":"pit-trial","trial_index":101,"time_elapsed":2304427,"internal_node_id":"0.0-77.0","task_version":"battery-v0.2"},{"rune":"R","rune_set":"bacs2","hex":"#f73b6a7A","correct":-1,"choice":-1,"rt":-1,"accuracy":1,"outcome":"-1","keys":[],"total_keys":0,"block":1,"trial":77,"stimulus":7,"robot":4,"valence":"lose","action":"no-go","sham":0,"trial_type":"pit-trial","trial_index":102,"time_elapsed":2308461,"internal_node_id":"0.0-78.0","task_version":"battery-v0.2"},{"rune":"V","rune_set":"bacs2","hex":"#3366ff99","correct":32,"choice":-1,"rt":-1,"accuracy":0,"outcome":"+1","keys":[],"total_keys":0,"block":1,"trial":78,"stimulus":8,"robot":1,"valence":"win","action":"go","sham":0,"trial_type":"pit-trial","trial_index":103,"time_elapsed":2312471,"internal_node_id":"0.0-79.0","task_version":"battery-v0.2"},{"rune":"L","rune_set":"bacs2","hex":"#3366ff99","correct":-1,"choice":32,"rt":686.9999999906868,"accuracy":0,"outcome":"+1","keys":[2186.999999990687],"total_keys":1,"block":1,"trial":79,"stimulus":5,"robot":2,"valence":"win","action":"no-go","sham":0,"trial_type":"pit-trial","trial_index":104,"time_elapsed":2315870,"internal_node_id":"0.0-80.0","task_version":"battery-v0.2"},{"rune":"K","rune_set":"bacs2","hex":"#f73b6a7A","correct":32,"choice":32,"rt":743.0000000023283,"accuracy":1,"outcome":"-1","keys":[2243.0000000023283],"total_keys":1,"block":1,"trial":80,"stimulus":9,"robot":3,"valence":"lose","action":"go","sham":0,"trial_type":"pit-trial","trial_index":105,"time_elapsed":2319338,"internal_node_id":"0.0-81.0","task_version":"battery-v0.2"},{"rune":"L","rune_set":"bacs2","hex":"#3366ff99","correct":-1,"choice":32,"rt":737.9999999976717,"accuracy":0,"outcome":"+1","keys":[2237.9999999976717],"total_keys":1,"block":1,"trial":81,"stimulus":5,"robot":2,"valence":"win","action":"no-go","sham":0,"trial_type":"pit-trial","trial_index":106,"time_elapsed":2322796,"internal_node_id":"0.0-82.0","task_version":"battery-v0.2"},{"rune":"R","rune_set":"bacs2","hex":"#f73b6a7A","correct":-1,"choice":-1,"rt":-1,"accuracy":1,"outcome":"-10","keys":[],"total_keys":0,"block":1,"trial":82,"stimulus":7,"robot":4,"valence":"lose","action":"no-go","sham":1,"trial_type":"pit-trial","trial_index":107,"time_elapsed":2326806,"internal_node_id":"0.0-83.0","task_version":"battery-v0.2"},{"rune":"K","rune_set":"bacs2","hex":"#f73b6a7A","correct":32,"choice":-1,"rt":-1,"accuracy":0,"outcome":"-10","keys":[],"total_keys":0,"block":1,"trial":83,"stimulus":9,"robot":3,"valence":"lose","action":"go","sham":0,"trial_type":"pit-trial","trial_index":108,"time_elapsed":2330816,"internal_node_id":"0.0-84.0","task_version":"battery-v0.2"},{"rune":"V","rune_set":"bacs2","hex":"#3366ff99","correct":32,"choice":-1,"rt":-1,"accuracy":0,"outcome":"+1","keys":[],"total_keys":0,"block":1,"trial":84,"stimulus":8,"robot":1,"valence":"win","action":"go","sham":0,"trial_type":"pit-trial","trial_index":109,"time_elapsed":2334827,"internal_node_id":"0.0-85.0","task_version":"battery-v0.2"},{"rune":"L","rune_set":"bacs2","hex":"#3366ff99","correct":-1,"choice":32,"rt":547.0000000060536,"accuracy":0,"outcome":"+1","keys":[2051.9999999962747],"total_keys":1,"block":1,"trial":85,"stimulus":5,"robot":2,"valence":"win","action":"no-go","sham":0,"trial_type":"pit-trial","trial_index":110,"time_elapsed":2338090,"internal_node_id":"0.0-86.0","task_version":"battery-v0.2"},{"rune":"K","rune_set":"bacs2","hex":"#f73b6a7A","correct":32,"choice":32,"rt":775.9999999981374,"accuracy":1,"outcome":"-1","keys":[2277.0000000018626],"total_keys":1,"block":1,"trial":86,"stimulus":9,"robot":3,"valence":"lose","action":"go","sham":0,"trial_type":"pit-trial","trial_index":111,"time_elapsed":2341578,"internal_node_id":"0.0-87.0","task_version":"battery-v0.2"},{"rune":"V","rune_set":"bacs2","hex":"#3366ff99","correct":32,"choice":32,"rt":686.000000001397,"accuracy":1,"outcome":"+1","keys":[2186.000000001397],"total_keys":1,"block":1,"trial":87,"stimulus":8,"robot":1,"valence":"win","action":"go","sham":1,"trial_type":"pit-trial","trial_index":112,"time_elapsed":2344976,"internal_node_id":"0.0-88.0","task_version":"battery-v0.2"},{"rune":"R","rune_set":"bacs2","hex":"#f73b6a7A","correct":-1,"choice":32,"rt":775.0000000083819,"accuracy":0,"outcome":"-10","keys":[2275.000000008382],"total_keys":1,"block":1,"trial":88,"stimulus":7,"robot":4,"valence":"lose","action":"no-go","sham":0,"trial_type":"pit-trial","trial_index":113,"time_elapsed":2348461,"internal_node_id":"0.0-89.0","task_version":"battery-v0.2"},{"rune":"V","rune_set":"bacs2","hex":"#3366ff99","correct":32,"choice":-1,"rt":-1,"accuracy":0,"outcome":"+1","keys":[],"total_keys":0,"block":1,"trial":89,"stimulus":8,"robot":1,"valence":"win","action":"go","sham":0,"trial_type":"pit-trial","trial_index":114,"time_elapsed":2352471,"internal_node_id":"0.0-90.0","task_version":"battery-v0.2"},{"rune":"B","rune_set":"bacs2","hex":"#f73b6a7A","correct":32,"choice":-1,"rt":-1,"accuracy":0,"outcome":"-1","keys":[],"total_keys":0,"block":1,"trial":90,"stimulus":10,"robot":3,"valence":"lose","action":"go","sham":1,"trial_type":"pit-trial","trial_index":115,"time_elapsed":2356481,"internal_node_id":"0.0-91.0","task_version":"battery-v0.2"},{"rune":"K","rune_set":"bacs2","hex":"#f73b6a7A","correct":32,"choice":32,"rt":1084.0000000023283,"accuracy":1,"outcome":"-1","keys":[2584.0000000023283],"total_keys":1,"block":1,"trial":91,"stimulus":9,"robot":3,"valence":"lose","action":"go","sham":0,"trial_type":"pit-trial","trial_index":116,"time_elapsed":2360277,"internal_node_id":"0.0-92.0","task_version":"battery-v0.2"},{"rune":"M","rune_set":"bacs2","hex":"#3366ff99","correct":-1,"choice":-1,"rt":-1,"accuracy":1,"outcome":"+10","keys":[],"total_keys":0,"block":1,"trial":92,"stimulus":11,"robot":2,"valence":"win","action":"no-go","sham":0,"trial_type":"pit-trial","trial_index":117,"time_elapsed":2364287,"internal_node_id":"0.0-93.0","task_version":"battery-v0.2"},{"rune":"K","rune_set":"bacs2","hex":"#f73b6a7A","correct":32,"choice":32,"rt":1184.9999999976717,"accuracy":1,"outcome":"-1","keys":[2685.9999999869615],"total_keys":1,"block":1,"trial":93,"stimulus":9,"robot":3,"valence":"lose","action":"go","sham":0,"trial_type":"pit-trial","trial_index":118,"time_elapsed":2368183,"internal_node_id":"0.0-94.0","task_version":"battery-v0.2"},{"rune":"M","rune_set":"bacs2","hex":"#3366ff99","correct":-1,"choice":-1,"rt":-1,"accuracy":1,"outcome":"+10","keys":[],"total_keys":0,"block":1,"trial":94,"stimulus":11,"robot":2,"valence":"win","action":"no-go","sham":0,"trial_type":"pit-trial","trial_index":119,"time_elapsed":2372194,"internal_node_id":"0.0-95.0","task_version":"battery-v0.2"},{"rune":"V","rune_set":"bacs2","hex":"#3366ff99","correct":32,"choice":32,"rt":671.9999999911524,"accuracy":1,"outcome":"+10","keys":[2171.9999999911524],"total_keys":1,"block":1,"trial":95,"stimulus":8,"robot":1,"valence":"win","action":"go","sham":0,"trial_type":"pit-trial","trial_index":120,"time_elapsed":2375578,"internal_node_id":"0.0-96.0","task_version":"battery-v0.2"},{"rune":"B","rune_set":"bacs2","hex":"#f73b6a7A","correct":32,"choice":-1,"rt":-1,"accuracy":0,"outcome":"-10","keys":[],"total_keys":0,"block":1,"trial":96,"stimulus":10,"robot":3,"valence":"lose","action":"go","sham":0,"trial_type":"pit-trial","trial_index":121,"time_elapsed":2379592,"internal_node_id":"0.0-97.0","task_version":"battery-v0.2"},{"rune":"B","rune_set":"bacs2","hex":"#f73b6a7A","correct":32,"choice":32,"rt":550.9999999920838,"accuracy":1,"outcome":"-1","keys":[2051.999999995809],"total_keys":1,"block":1,"trial":97,"stimulus":10,"robot":3,"valence":"lose","action":"go","sham":0,"trial_type":"pit-trial","trial_index":122,"time_elapsed":2382858,"internal_node_id":"0.0-98.0","task_version":"battery-v0.2"},{"rune":"M","rune_set":"bacs2","hex":"#3366ff99","correct":-1,"choice":-1,"rt":-1,"accuracy":1,"outcome":"+10","keys":[],"total_keys":0,"block":1,"trial":98,"stimulus":11,"robot":2,"valence":"win","action":"no-go","sham":0,"trial_type":"pit-trial","trial_index":123,"time_elapsed":2386868,"internal_node_id":"0.0-99.0","task_version":"battery-v0.2"},{"rune":"K","rune_set":"bacs2","hex":"#f73b6a7A","correct":32,"choice":32,"rt":675.000000002794,"accuracy":1,"outcome":"-1","keys":[2175.000000002794],"total_keys":1,"block":1,"trial":99,"stimulus":9,"robot":3,"valence":"lose","action":"go","sham":0,"trial_type":"pit-trial","trial_index":124,"time_elapsed":2390253,"internal_node_id":"0.0-100.0","task_version":"battery-v0.2"},{"rune":"V","rune_set":"bacs2","hex":"#3366ff99","correct":32,"choice":32,"rt":517.9999999962747,"accuracy":1,"outcome":"+10","keys":[2017.000000006985],"total_keys":1,"block":1,"trial":100,"stimulus":8,"robot":1,"valence":"win","action":"go","sham":0,"trial_type":"pit-trial","trial_index":125,"time_elapsed":2393482,"internal_node_id":"0.0-101.0","task_version":"battery-v0.2"},{"rune":"M","rune_set":"bacs2","hex":"#3366ff99","correct":-1,"choice":-1,"rt":-1,"accuracy":1,"outcome":"+10","keys":[],"total_keys":0,"block":1,"trial":101,"stimulus":11,"robot":2,"valence":"win","action":"no-go","sham":0,"trial_type":"pit-trial","trial_index":126,"time_elapsed":2397493,"internal_node_id":"0.0-102.0","task_version":"battery-v0.2"},{"rune":"K","rune_set":"bacs2","hex":"#f73b6a7A","correct":32,"choice":32,"rt":694.9999999925494,"accuracy":1,"outcome":"-1","keys":[2194.9999999925494],"total_keys":1,"block":1,"trial":102,"stimulus":9,"robot":3,"valence":"lose","action":"go","sham":0,"trial_type":"pit-trial","trial_index":127,"time_elapsed":2400899,"internal_node_id":"0.0-103.0","task_version":"battery-v0.2"},{"rune":"B","rune_set":"bacs2","hex":"#f73b6a7A","correct":32,"choice":32,"rt":725.0000000055879,"accuracy":1,"outcome":"-1","keys":[2226.9999999990687],"total_keys":1,"block":1,"trial":103,"stimulus":10,"robot":3,"valence":"lose","action":"go","sham":0,"trial_type":"pit-trial","trial_index":128,"time_elapsed":2404339,"internal_node_id":"0.0-104.0","task_version":"battery-v0.2"},{"rune":"V","rune_set":"bacs2","hex":"#3366ff99","correct":32,"choice":32,"rt":596.0000000051223,"accuracy":1,"outcome":"+10","keys":[2096.0000000051223],"total_keys":1,"block":1,"trial":104,"stimulus":8,"robot":1,"valence":"win","action":"go","sham":0,"trial_type":"pit-trial","trial_index":129,"time_elapsed":2407648,"internal_node_id":"0.0-105.0","task_version":"battery-v0.2"},{"rune":"B","rune_set":"bacs2","hex":"#f73b6a7A","correct":32,"choice":32,"rt":542.000000001397,"accuracy":1,"outcome":"-10","keys":[2043.0000000051223],"total_keys":1,"block":1,"trial":105,"stimulus":10,"robot":3,"valence":"lose","action":"go","sham":1,"trial_type":"pit-trial","trial_index":130,"time_elapsed":2410902,"internal_node_id":"0.0-106.0","task_version":"battery-v0.2"},{"rune":"V","rune_set":"bacs2","hex":"#3366ff99","correct":32,"choice":32,"rt":894.0000000004657,"accuracy":1,"outcome":"+10","keys":[2396.0000000079162],"total_keys":1,"block":1,"trial":106,"stimulus":8,"robot":1,"valence":"win","action":"go","sham":0,"trial_type":"pit-trial","trial_index":131,"time_elapsed":2414507,"internal_node_id":"0.0-107.0","task_version":"battery-v0.2"},{"rune":"M","rune_set":"bacs2","hex":"#3366ff99","correct":-1,"choice":32,"rt":680.0000000074506,"accuracy":0,"outcome":"+10","keys":[2180.0000000074506],"total_keys":1,"block":1,"trial":107,"stimulus":11,"robot":2,"valence":"win","action":"no-go","sham":1,"trial_type":"pit-trial","trial_index":132,"time_elapsed":2417898,"internal_node_id":"0.0-108.0","task_version":"battery-v0.2"},{"rune":"K","rune_set":"bacs2","hex":"#f73b6a7A","correct":32,"choice":32,"rt":532.0000000065193,"accuracy":1,"outcome":"-1","keys":[2033.0000000102445],"total_keys":1,"block":1,"trial":108,"stimulus":9,"robot":3,"valence":"lose","action":"go","sham":0,"trial_type":"pit-trial","trial_index":133,"time_elapsed":2421143,"internal_node_id":"0.0-109.0","task_version":"battery-v0.2"},{"rune":"M","rune_set":"bacs2","hex":"#3366ff99","correct":-1,"choice":32,"rt":648.000000001397,"accuracy":0,"outcome":"+1","keys":[2148.000000001397],"total_keys":1,"block":1,"trial":109,"stimulus":11,"robot":2,"valence":"win","action":"no-go","sham":0,"trial_type":"pit-trial","trial_index":134,"time_elapsed":2424502,"internal_node_id":"0.0-110.0","task_version":"battery-v0.2"},{"rune":"V","rune_set":"bacs2","hex":"#3366ff99","correct":32,"choice":32,"rt":720.0000000009313,"accuracy":1,"outcome":"+10","keys":[2220.0000000009313],"total_keys":1,"block":1,"trial":110,"stimulus":8,"robot":1,"valence":"win","action":"go","sham":0,"trial_type":"pit-trial","trial_index":135,"time_elapsed":2427933,"internal_node_id":"0.0-111.0","task_version":"battery-v0.2"},{"rune":"B","rune_set":"bacs2","hex":"#f73b6a7A","correct":32,"choice":32,"rt":599.0000000018626,"accuracy":1,"outcome":"-1","keys":[2099.0000000018626],"total_keys":1,"block":1,"trial":111,"stimulus":10,"robot":3,"valence":"lose","action":"go","sham":0,"trial_type":"pit-trial","trial_index":136,"time_elapsed":2431243,"internal_node_id":"0.0-112.0","task_version":"battery-v0.2"},{"rune":"K","rune_set":"bacs2","hex":"#f73b6a7A","correct":32,"choice":32,"rt":631.0000000083819,"accuracy":1,"outcome":"-1","keys":[2131.000000008382],"total_keys":1,"block":1,"trial":112,"stimulus":9,"robot":3,"valence":"lose","action":"go","sham":0,"trial_type":"pit-trial","trial_index":137,"time_elapsed":2434585,"internal_node_id":"0.0-113.0","task_version":"battery-v0.2"},{"rune":"V","rune_set":"bacs2","hex":"#3366ff99","correct":32,"choice":32,"rt":413.00000000046566,"accuracy":1,"outcome":"+1","keys":[1913.0000000004657],"total_keys":1,"block":1,"trial":113,"stimulus":8,"robot":1,"valence":"win","action":"go","sham":1,"trial_type":"pit-trial","trial_index":138,"time_elapsed":2437710,"internal_node_id":"0.0-114.0","task_version":"battery-v0.2"},{"rune":"B","rune_set":"bacs2","hex":"#f73b6a7A","correct":32,"choice":-1,"rt":-1,"accuracy":0,"outcome":"-10","keys":[],"total_keys":0,"block":1,"trial":114,"stimulus":10,"robot":3,"valence":"lose","action":"go","sham":0,"trial_type":"pit-trial","trial_index":139,"time_elapsed":2441720,"internal_node_id":"0.0-115.0","task_version":"battery-v0.2"},{"rune":"K","rune_set":"bacs2","hex":"#f73b6a7A","correct":32,"choice":32,"rt":691.9999999953434,"accuracy":1,"outcome":"-1","keys":[2191.9999999953434],"total_keys":1,"block":1,"trial":115,"stimulus":9,"robot":3,"valence":"lose","action":"go","sham":0,"trial_type":"pit-trial","trial_index":140,"time_elapsed":2445128,"internal_node_id":"0.0-116.0","task_version":"battery-v0.2"},{"rune":"M","rune_set":"bacs2","hex":"#3366ff99","correct":-1,"choice":32,"rt":832.0000000093132,"accuracy":0,"outcome":"+10","keys":[2332.000000009313],"total_keys":1,"block":1,"trial":116,"stimulus":11,"robot":2,"valence":"win","action":"no-go","sham":1,"trial_type":"pit-trial","trial_index":141,"time_elapsed":2448671,"internal_node_id":"0.0-117.0","task_version":"battery-v0.2"},{"rune":"B","rune_set":"bacs2","hex":"#f73b6a7A","correct":32,"choice":32,"rt":646.999999997206,"accuracy":1,"outcome":"-10","keys":[2146.999999997206],"total_keys":1,"block":1,"trial":117,"stimulus":10,"robot":3,"valence":"lose","action":"go","sham":1,"trial_type":"pit-trial","trial_index":142,"time_elapsed":2452027,"internal_node_id":"0.0-118.0","task_version":"battery-v0.2"},{"rune":"M","rune_set":"bacs2","hex":"#3366ff99","correct":-1,"choice":32,"rt":726.999999998603,"accuracy":0,"outcome":"+1","keys":[2228.9999999920838],"total_keys":1,"block":1,"trial":118,"stimulus":11,"robot":2,"valence":"win","action":"no-go","sham":0,"trial_type":"pit-trial","trial_index":143,"time_elapsed":2455467,"internal_node_id":"0.0-119.0","task_version":"battery-v0.2"},{"rune":"V","rune_set":"bacs2","hex":"#3366ff99","correct":32,"choice":32,"rt":516.9999999925494,"accuracy":1,"outcome":"+10","keys":[2016.9999999925494],"total_keys":1,"block":1,"trial":119,"stimulus":8,"robot":1,"valence":"win","action":"go","sham":0,"trial_type":"pit-trial","trial_index":144,"time_elapsed":2458696,"internal_node_id":"0.0-120.0","task_version":"battery-v0.2"},{"rune":"K","rune_set":"bacs2","hex":"#f73b6a7A","correct":32,"choice":32,"rt":615.9999999948777,"accuracy":1,"outcome":"-1","keys":[2115.9999999948777],"total_keys":1,"block":1,"trial":120,"stimulus":9,"robot":3,"valence":"lose","action":"go","sham":0,"trial_type":"pit-trial","trial_index":145,"time_elapsed":2462023,"internal_node_id":"0.0-121.0","task_version":"battery-v0.2"},{"view_history":"[{\"page_index\":0,\"viewing_time\":219160.00000000373},{\"page_index\":1,\"viewing_time\":2441.9999999953434}]","rt":221603.0000000028,"trial_type":"pit-instructions","trial_index":146,"time_elapsed":2683636,"internal_node_id":"0.0-122.0","task_version":"battery-v0.2"},{"rune":"H","rune_set":"bacs2","hex":"#3366ff99","correct":32,"choice":-1,"rt":-1,"accuracy":0,"outcome":"+10","keys":[],"total_keys":0,"block":2,"trial":121,"stimulus":3,"robot":1,"valence":"win","action":"go","sham":1,"trial_type":"pit-trial","trial_index":147,"time_elapsed":2687651,"internal_node_id":"0.0-123.0","task_version":"battery-v0.2"},{"rune":"Q","rune_set":"bacs2","hex":"#f73b6a7A","correct":-1,"choice":-1,"rt":-1,"accuracy":1,"outcome":"-1","keys":[],"total_keys":0,"block":2,"trial":122,"stimulus":2,"robot":4,"valence":"lose","action":"no-go","sham":0,"trial_type":"pit-trial","trial_index":148,"time_elapsed":2691662,"internal_node_id":"0.0-124.0","task_version":"battery-v0.2"},{"rune":"T","rune_set":"bacs2","hex":"#3366ff99","correct":32,"choice":-1,"rt":-1,"accuracy":0,"outcome":"+10","keys":[],"total_keys":0,"block":2,"trial":123,"stimulus":1,"robot":1,"valence":"win","action":"go","sham":1,"trial_type":"pit-trial","trial_index":149,"time_elapsed":2695672,"internal_node_id":"0.0-125.0","task_version":"battery-v0.2"},{"rune":"Y","rune_set":"bacs2","hex":"#3366ff99","correct":-1,"choice":-1,"rt":-1,"accuracy":1,"outcome":"+1","keys":[],"total_keys":0,"block":2,"trial":124,"stimulus":0,"robot":2,"valence":"win","action":"no-go","sham":1,"trial_type":"pit-trial","trial_index":150,"time_elapsed":2699682,"internal_node_id":"0.0-126.0","task_version":"battery-v0.2"},{"rune":"T","rune_set":"bacs2","hex":"#3366ff99","correct":32,"choice":-1,"rt":-1,"accuracy":0,"outcome":"+1","keys":[],"total_keys":0,"block":2,"trial":125,"stimulus":1,"robot":1,"valence":"win","action":"go","sham":0,"trial_type":"pit-trial","trial_index":151,"time_elapsed":2703692,"internal_node_id":"0.0-127.0","task_version":"battery-v0.2"},{"rune":"H","rune_set":"bacs2","hex":"#3366ff99","correct":32,"choice":32,"rt":608.9999999962747,"accuracy":1,"outcome":"+1","keys":[2108.9999999962747],"total_keys":1,"block":2,"trial":126,"stimulus":3,"robot":1,"valence":"win","action":"go","sham":1,"trial_type":"pit-trial","trial_index":152,"time_elapsed":2707011,"internal_node_id":"0.0-128.0","task_version":"battery-v0.2"},{"rune":"Y","rune_set":"bacs2","hex":"#3366ff99","correct":-1,"choice":32,"rt":645.0000000037253,"accuracy":0,"outcome":"+1","keys":[2146.0000000079162],"total_keys":1,"block":2,"trial":127,"stimulus":0,"robot":2,"valence":"win","action":"no-go","sham":0,"trial_type":"pit-trial","trial_index":153,"time_elapsed":2710369,"internal_node_id":"0.0-129.0","task_version":"battery-v0.2"},{"rune":"Q","rune_set":"bacs2","hex":"#f73b6a7A","correct":-1,"choice":32,"rt":1015.9999999888241,"accuracy":0,"outcome":"-10","keys":[2515.999999988824],"total_keys":1,"block":2,"trial":128,"stimulus":2,"robot":4,"valence":"lose","action":"no-go","sham":0,"trial_type":"pit-trial","trial_index":154,"time_elapsed":2714096,"internal_node_id":"0.0-130.0","task_version":"battery-v0.2"},{"rune":"Y","rune_set":"bacs2","hex":"#3366ff99","correct":-1,"choice":32,"rt":763.0000000060536,"accuracy":0,"outcome":"+1","keys":[2263.0000000060536],"total_keys":1,"block":2,"trial":129,"stimulus":0,"robot":2,"valence":"win","action":"no-go","sham":0,"trial_type":"pit-trial","trial_index":155,"time_elapsed":2717569,"internal_node_id":"0.0-131.0","task_version":"battery-v0.2"},{"rune":"T","rune_set":"bacs2","hex":"#3366ff99","correct":32,"choice":32,"rt":1013.999999995809,"accuracy":1,"outcome":"+10","keys":[2513.999999995809],"total_keys":1,"block":2,"trial":130,"stimulus":1,"robot":1,"valence":"win","action":"go","sham":0,"trial_type":"pit-trial","trial_index":156,"time_elapsed":2721294,"internal_node_id":"0.0-132.0","task_version":"battery-v0.2"},{"rune":"H","rune_set":"bacs2","hex":"#3366ff99","correct":32,"choice":-1,"rt":-1,"accuracy":0,"outcome":"+10","keys":[],"total_keys":0,"block":2,"trial":131,"stimulus":3,"robot":1,"valence":"win","action":"go","sham":1,"trial_type":"pit-trial","trial_index":157,"time_elapsed":2725304,"internal_node_id":"0.0-133.0","task_version":"battery-v0.2"},{"rune":"Q","rune_set":"bacs2","hex":"#f73b6a7A","correct":-1,"choice":-1,"rt":-1,"accuracy":1,"outcome":"-1","keys":[],"total_keys":0,"block":2,"trial":132,"stimulus":2,"robot":4,"valence":"lose","action":"no-go","sham":0,"trial_type":"pit-trial","trial_index":158,"time_elapsed":2729315,"internal_node_id":"0.0-134.0","task_version":"battery-v0.2"},{"rune":"H","rune_set":"bacs2","hex":"#3366ff99","correct":32,"choice":-1,"rt":-1,"accuracy":0,"outcome":"+1","keys":[],"total_keys":0,"block":2,"trial":133,"stimulus":3,"robot":1,"valence":"win","action":"go","sham":0,"trial_type":"pit-trial","trial_index":159,"time_elapsed":2733333,"internal_node_id":"0.0-135.0","task_version":"battery-v0.2"},{"rune":"Q","rune_set":"bacs2","hex":"#f73b6a7A","correct":-1,"choice":-1,"rt":-1,"accuracy":1,"outcome":"-1","keys":[40.99999999720603],"total_keys":1,"block":2,"trial":134,"stimulus":2,"robot":4,"valence":"lose","action":"no-go","sham":0,"trial_type":"pit-trial","trial_index":160,"time_elapsed":2737351,"internal_node_id":"0.0-136.0","task_version":"battery-v0.2"},{"rune":"T","rune_set":"bacs2","hex":"#3366ff99","correct":32,"choice":32,"rt":771.0000000079162,"accuracy":1,"outcome":"+1","keys":[2270.0000000037253],"total_keys":1,"block":2,"trial":135,"stimulus":1,"robot":1,"valence":"win","action":"go","sham":1,"trial_type":"pit-trial","trial_index":161,"time_elapsed":2740832,"internal_node_id":"0.0-137.0","task_version":"battery-v0.2"},{"rune":"Y","rune_set":"bacs2","hex":"#3366ff99","correct":-1,"choice":-1,"rt":-1,"accuracy":1,"outcome":"+10","keys":[],"total_keys":0,"block":2,"trial":136,"stimulus":0,"robot":2,"valence":"win","action":"no-go","sham":0,"trial_type":"pit-trial","trial_index":162,"time_elapsed":2744842,"internal_node_id":"0.0-138.0","task_version":"battery-v0.2"},{"rune":"Q","rune_set":"bacs2","hex":"#f73b6a7A","correct":-1,"choice":-1,"rt":-1,"accuracy":1,"outcome":"-1","keys":[],"total_keys":0,"block":2,"trial":137,"stimulus":2,"robot":4,"valence":"lose","action":"no-go","sham":0,"trial_type":"pit-trial","trial_index":163,"time_elapsed":2748852,"internal_node_id":"0.0-139.0","task_version":"battery-v0.2"},{"rune":"H","rune_set":"bacs2","hex":"#3366ff99","correct":32,"choice":32,"rt":906.000000002794,"accuracy":1,"outcome":"+10","keys":[2406.000000002794],"total_keys":1,"block":2,"trial":138,"stimulus":3,"robot":1,"valence":"win","action":"go","sham":0,"trial_type":"pit-trial","trial_index":164,"time_elapsed":2752470,"internal_node_id":"0.0-140.0","task_version":"battery-v0.2"},{"rune":"Y","rune_set":"bacs2","hex":"#3366ff99","correct":-1,"choice":-1,"rt":-1,"accuracy":1,"outcome":"+10","keys":[],"total_keys":0,"block":2,"trial":139,"stimulus":0,"robot":2,"valence":"win","action":"no-go","sham":0,"trial_type":"pit-trial","trial_index":165,"time_elapsed":2756480,"internal_node_id":"0.0-141.0","task_version":"battery-v0.2"},{"rune":"T","rune_set":"bacs2","hex":"#3366ff99","correct":32,"choice":32,"rt":930.0000000074506,"accuracy":1,"outcome":"+10","keys":[2430.0000000074506],"total_keys":1,"block":2,"trial":140,"stimulus":1,"robot":1,"valence":"win","action":"go","sham":0,"trial_type":"pit-trial","trial_index":166,"time_elapsed":2760121,"internal_node_id":"0.0-142.0","task_version":"battery-v0.2"},{"rune":"Y","rune_set":"bacs2","hex":"#3366ff99","correct":-1,"choice":-1,"rt":-1,"accuracy":1,"outcome":"+10","keys":[],"total_keys":0,"block":2,"trial":141,"stimulus":0,"robot":2,"valence":"win","action":"no-go","sham":0,"trial_type":"pit-trial","trial_index":167,"time_elapsed":2764131,"internal_node_id":"0.0-143.0","task_version":"battery-v0.2"},{"rune":"Q","rune_set":"bacs2","hex":"#f73b6a7A","correct":-1,"choice":-1,"rt":-1,"accuracy":1,"outcome":"-1","keys":[],"total_keys":0,"block":2,"trial":142,"stimulus":2,"robot":4,"valence":"lose","action":"no-go","sham":0,"trial_type":"pit-trial","trial_index":168,"time_elapsed":2768141,"internal_node_id":"0.0-144.0","task_version":"battery-v0.2"},{"rune":"H","rune_set":"bacs2","hex":"#3366ff99","correct":32,"choice":32,"rt":754.0000000009313,"accuracy":1,"outcome":"+10","keys":[2254.0000000009313],"total_keys":1,"block":2,"trial":143,"stimulus":3,"robot":1,"valence":"win","action":"go","sham":0,"trial_type":"pit-trial","trial_index":169,"time_elapsed":2771606,"internal_node_id":"0.0-145.0","task_version":"battery-v0.2"},{"rune":"T","rune_set":"bacs2","hex":"#3366ff99","correct":32,"choice":32,"rt":918.9999999944121,"accuracy":1,"outcome":"+10","keys":[2419.9999999981374],"total_keys":1,"block":2,"trial":144,"stimulus":1,"robot":1,"valence":"win","action":"go","sham":0,"trial_type":"pit-trial","trial_index":170,"time_elapsed":2775237,"internal_node_id":"0.0-146.0","task_version":"battery-v0.2"},{"rune":"T","rune_set":"bacs2","hex":"#3366ff99","correct":32,"choice":32,"rt":524.9999999944121,"accuracy":1,"outcome":"+10","keys":[2025.9999999981374],"total_keys":1,"block":2,"trial":145,"stimulus":1,"robot":1,"valence":"win","action":"go","sham":0,"trial_type":"pit-trial","trial_index":171,"time_elapsed":2778474,"internal_node_id":"0.0-147.0","task_version":"battery-v0.2"},{"rune":"Y","rune_set":"bacs2","hex":"#3366ff99","correct":-1,"choice":-1,"rt":-1,"accuracy":1,"outcome":"+1","keys":[],"total_keys":0,"block":2,"trial":146,"stimulus":0,"robot":2,"valence":"win","action":"no-go","sham":1,"trial_type":"pit-trial","trial_index":172,"time_elapsed":2782485,"internal_node_id":"0.0-148.0","task_version":"battery-v0.2"},{"rune":"H","rune_set":"bacs2","hex":"#3366ff99","correct":32,"choice":32,"rt":760.999999998603,"accuracy":1,"outcome":"+10","keys":[2260.999999998603],"total_keys":1,"block":2,"trial":147,"stimulus":3,"robot":1,"valence":"win","action":"go","sham":0,"trial_type":"pit-trial","trial_index":173,"time_elapsed":2785958,"internal_node_id":"0.0-149.0","task_version":"battery-v0.2"},{"rune":"Q","rune_set":"bacs2","hex":"#f73b6a7A","correct":-1,"choice":-1,"rt":-1,"accuracy":1,"outcome":"-1","keys":[],"total_keys":0,"block":2,"trial":148,"stimulus":2,"robot":4,"valence":"lose","action":"no-go","sham":0,"trial_type":"pit-trial","trial_index":174,"time_elapsed":2789967,"internal_node_id":"0.0-150.0","task_version":"battery-v0.2"},{"rune":"Y","rune_set":"bacs2","hex":"#3366ff99","correct":-1,"choice":32,"rt":1006.9999999976717,"accuracy":0,"outcome":"+1","keys":[2506.9999999976717],"total_keys":1,"block":2,"trial":149,"stimulus":0,"robot":2,"valence":"win","action":"no-go","sham":0,"trial_type":"pit-trial","trial_index":175,"time_elapsed":2793688,"internal_node_id":"0.0-151.0","task_version":"battery-v0.2"},{"rune":"H","rune_set":"bacs2","hex":"#3366ff99","correct":32,"choice":32,"rt":495.0000000097789,"accuracy":1,"outcome":"+1","keys":[1995.000000009779],"total_keys":1,"block":2,"trial":150,"stimulus":3,"robot":1,"valence":"win","action":"go","sham":1,"trial_type":"pit-trial","trial_index":176,"time_elapsed":2796893,"internal_node_id":"0.0-152.0","task_version":"battery-v0.2"},{"rune":"Q","rune_set":"bacs2","hex":"#f73b6a7A","correct":-1,"choice":-1,"rt":-1,"accuracy":1,"outcome":"-1","keys":[],"total_keys":0,"block":2,"trial":151,"stimulus":2,"robot":4,"valence":"lose","action":"no-go","sham":0,"trial_type":"pit-trial","trial_index":177,"time_elapsed":2800905,"internal_node_id":"0.0-153.0","task_version":"battery-v0.2"},{"rune":"T","rune_set":"bacs2","hex":"#3366ff99","correct":32,"choice":32,"rt":735.0000000004657,"accuracy":1,"outcome":"+10","keys":[2235.0000000004657],"total_keys":1,"block":2,"trial":152,"stimulus":1,"robot":1,"valence":"win","action":"go","sham":0,"trial_type":"pit-trial","trial_index":178,"time_elapsed":2804352,"internal_node_id":"0.0-154.0","task_version":"battery-v0.2"},{"rune":"E","rune_set":"bacs2","hex":"#3366ff99","correct":32,"choice":-1,"rt":-1,"accuracy":0,"outcome":"+10","keys":[],"total_keys":0,"block":2,"trial":153,"stimulus":4,"robot":1,"valence":"win","action":"go","sham":1,"trial_type":"pit-trial","trial_index":179,"time_elapsed":2808367,"internal_node_id":"0.0-155.0","task_version":"battery-v0.2"},{"rune":"H","rune_set":"bacs2","hex":"#3366ff99","correct":32,"choice":32,"rt":508.99999999115244,"accuracy":1,"outcome":"+10","keys":[2008.9999999911524],"total_keys":1,"block":2,"trial":154,"stimulus":3,"robot":1,"valence":"win","action":"go","sham":0,"trial_type":"pit-trial","trial_index":180,"time_elapsed":2811593,"internal_node_id":"0.0-156.0","task_version":"battery-v0.2"},{"rune":"Y","rune_set":"bacs2","hex":"#3366ff99","correct":-1,"choice":-1,"rt":-1,"accuracy":1,"outcome":"+10","keys":[],"total_keys":0,"block":2,"trial":155,"stimulus":0,"robot":2,"valence":"win","action":"no-go","sham":0,"trial_type":"pit-trial","trial_index":181,"time_elapsed":2815603,"internal_node_id":"0.0-157.0","task_version":"battery-v0.2"},{"rune":"Q","rune_set":"bacs2","hex":"#f73b6a7A","correct":-1,"choice":-1,"rt":-1,"accuracy":1,"outcome":"-1","keys":[],"total_keys":0,"block":2,"trial":156,"stimulus":2,"robot":4,"valence":"lose","action":"no-go","sham":0,"trial_type":"pit-trial","trial_index":182,"time_elapsed":2819613,"internal_node_id":"0.0-158.0","task_version":"battery-v0.2"},{"rune":"E","rune_set":"bacs2","hex":"#3366ff99","correct":32,"choice":32,"rt":666.0000000116415,"accuracy":1,"outcome":"+10","keys":[2166.0000000116415],"total_keys":1,"block":2,"trial":157,"stimulus":4,"robot":1,"valence":"win","action":"go","sham":0,"trial_type":"pit-trial","trial_index":183,"time_elapsed":2822989,"internal_node_id":"0.0-159.0","task_version":"battery-v0.2"},{"rune":"Q","rune_set":"bacs2","hex":"#f73b6a7A","correct":-1,"choice":-1,"rt":-1,"accuracy":1,"outcome":"-10","keys":[],"total_keys":0,"block":2,"trial":158,"stimulus":2,"robot":4,"valence":"lose","action":"no-go","sham":1,"trial_type":"pit-trial","trial_index":184,"time_elapsed":2826999,"internal_node_id":"0.0-160.0","task_version":"battery-v0.2"},{"rune":"H","rune_set":"bacs2","hex":"#3366ff99","correct":32,"choice":32,"rt":608.9999999967404,"accuracy":1,"outcome":"+10","keys":[2108.9999999967404],"total_keys":1,"block":2,"trial":159,"stimulus":3,"robot":1,"valence":"win","action":"go","sham":0,"trial_type":"pit-trial","trial_index":185,"time_elapsed":2830319,"internal_node_id":"0.0-161.0","task_version":"battery-v0.2"},{"rune":"Y","rune_set":"bacs2","hex":"#3366ff99","correct":-1,"choice":32,"rt":880.9999999939464,"accuracy":0,"outcome":"+1","keys":[2380.9999999939464],"total_keys":1,"block":2,"trial":160,"stimulus":0,"robot":2,"valence":"win","action":"no-go","sham":0,"trial_type":"pit-trial","trial_index":186,"time_elapsed":2833910,"internal_node_id":"0.0-162.0","task_version":"battery-v0.2"},{"rune":"C","rune_set":"bacs2","hex":"#f73b6a7A","correct":32,"choice":-1,"rt":-1,"accuracy":0,"outcome":"-10","keys":[],"total_keys":0,"block":2,"trial":161,"stimulus":5,"robot":3,"valence":"lose","action":"go","sham":0,"trial_type":"pit-trial","trial_index":187,"time_elapsed":2837920,"internal_node_id":"0.0-163.0","task_version":"battery-v0.2"},{"rune":"O","rune_set":"bacs2","hex":"#f73b6a7A","correct":-1,"choice":-1,"rt":-1,"accuracy":1,"outcome":"-1","keys":[],"total_keys":0,"block":2,"trial":162,"stimulus":6,"robot":4,"valence":"lose","action":"no-go","sham":0,"trial_type":"pit-trial","trial_index":188,"time_elapsed":2841931,"internal_node_id":"0.0-164.0","task_version":"battery-v0.2"},{"rune":"Y","rune_set":"bacs2","hex":"#3366ff99","correct":-1,"choice":32,"rt":738.9999999869615,"accuracy":0,"outcome":"+10","keys":[2238.9999999869615],"total_keys":1,"block":2,"trial":163,"stimulus":0,"robot":2,"valence":"win","action":"no-go","sham":1,"trial_type":"pit-trial","trial_index":189,"time_elapsed":2845380,"internal_node_id":"0.0-165.0","task_version":"battery-v0.2"},{"rune":"E","rune_set":"bacs2","hex":"#3366ff99","correct":32,"choice":32,"rt":653.9999999953434,"accuracy":1,"outcome":"+10","keys":[2153.9999999953434],"total_keys":1,"block":2,"trial":164,"stimulus":4,"robot":1,"valence":"win","action":"go","sham":0,"trial_type":"pit-trial","trial_index":190,"time_elapsed":2848745,"internal_node_id":"0.0-166.0","task_version":"battery-v0.2"},{"rune":"Y","rune_set":"bacs2","hex":"#3366ff99","correct":-1,"choice":32,"rt":382.00000001257285,"accuracy":0,"outcome":"+1","keys":[1882.0000000125729],"total_keys":1,"block":2,"trial":165,"stimulus":0,"robot":2,"valence":"win","action":"no-go","sham":0,"trial_type":"pit-trial","trial_index":191,"time_elapsed":2851838,"internal_node_id":"0.0-167.0","task_version":"battery-v0.2"},{"rune":"O","rune_set":"bacs2","hex":"#f73b6a7A","correct":-1,"choice":-1,"rt":-1,"accuracy":1,"outcome":"-1","keys":[],"total_keys":0,"block":2,"trial":166,"stimulus":6,"robot":4,"valence":"lose","action":"no-go","sham":0,"trial_type":"pit-trial","trial_index":192,"time_elapsed":2855849,"internal_node_id":"0.0-168.0","task_version":"battery-v0.2"},{"rune":"E","rune_set":"bacs2","hex":"#3366ff99","correct":32,"choice":32,"rt":520.000000004191,"accuracy":1,"outcome":"+1","keys":[2020.000000004191],"total_keys":1,"block":2,"trial":167,"stimulus":4,"robot":1,"valence":"win","action":"go","sham":1,"trial_type":"pit-trial","trial_index":193,"time_elapsed":2859079,"internal_node_id":"0.0-169.0","task_version":"battery-v0.2"},{"rune":"C","rune_set":"bacs2","hex":"#f73b6a7A","correct":32,"choice":-1,"rt":-1,"accuracy":0,"outcome":"-10","keys":[],"total_keys":0,"block":2,"trial":168,"stimulus":5,"robot":3,"valence":"lose","action":"go","sham":0,"trial_type":"pit-trial","trial_index":194,"time_elapsed":2863092,"internal_node_id":"0.0-170.0","task_version":"battery-v0.2"},{"rune":"O","rune_set":"bacs2","hex":"#f73b6a7A","correct":-1,"choice":-1,"rt":-1,"accuracy":1,"outcome":"-1","keys":[],"total_keys":0,"block":2,"trial":169,"stimulus":6,"robot":4,"valence":"lose","action":"no-go","sham":0,"trial_type":"pit-trial","trial_index":195,"time_elapsed":2867106,"internal_node_id":"0.0-171.0","task_version":"battery-v0.2"},{"rune":"E","rune_set":"bacs2","hex":"#3366ff99","correct":32,"choice":32,"rt":576.0000000009313,"accuracy":1,"outcome":"+10","keys":[2076.0000000009313],"total_keys":1,"block":2,"trial":170,"stimulus":4,"robot":1,"valence":"win","action":"go","sham":0,"trial_type":"pit-trial","trial_index":196,"time_elapsed":2870397,"internal_node_id":"0.0-172.0","task_version":"battery-v0.2"},{"rune":"C","rune_set":"bacs2","hex":"#f73b6a7A","correct":32,"choice":32,"rt":792.000000001397,"accuracy":1,"outcome":"-1","keys":[2292.000000001397],"total_keys":1,"block":2,"trial":171,"stimulus":5,"robot":3,"valence":"lose","action":"go","sham":0,"trial_type":"pit-trial","trial_index":197,"time_elapsed":2873920,"internal_node_id":"0.0-173.0","task_version":"battery-v0.2"},{"rune":"G","rune_set":"bacs2","hex":"#3366ff99","correct":-1,"choice":32,"rt":660.0000000037253,"accuracy":0,"outcome":"+1","keys":[2160.0000000037253],"total_keys":1,"block":2,"trial":172,"stimulus":7,"robot":2,"valence":"win","action":"no-go","sham":0,"trial_type":"pit-trial","trial_index":198,"time_elapsed":2877296,"internal_node_id":"0.0-174.0","task_version":"battery-v0.2"},{"rune":"O","rune_set":"bacs2","hex":"#f73b6a7A","correct":-1,"choice":32,"rt":627.999999997206,"accuracy":0,"outcome":"-10","keys":[2129.0000000009313],"total_keys":1,"block":2,"trial":173,"stimulus":6,"robot":4,"valence":"lose","action":"no-go","sham":0,"trial_type":"pit-trial","trial_index":199,"time_elapsed":2880639,"internal_node_id":"0.0-175.0","task_version":"battery-v0.2"},{"rune":"G","rune_set":"bacs2","hex":"#3366ff99","correct":-1,"choice":32,"rt":585.0000000060536,"accuracy":0,"outcome":"+1","keys":[2084.0000000023283],"total_keys":1,"block":2,"trial":174,"stimulus":7,"robot":2,"valence":"win","action":"no-go","sham":0,"trial_type":"pit-trial","trial_index":200,"time_elapsed":2883933,"internal_node_id":"0.0-176.0","task_version":"battery-v0.2"},{"rune":"C","rune_set":"bacs2","hex":"#f73b6a7A","correct":32,"choice":-1,"rt":-1,"accuracy":0,"outcome":"-1","keys":[],"total_keys":0,"block":2,"trial":175,"stimulus":5,"robot":3,"valence":"lose","action":"go","sham":1,"trial_type":"pit-trial","trial_index":201,"time_elapsed":2887944,"internal_node_id":"0.0-177.0","task_version":"battery-v0.2"},{"rune":"E","rune_set":"bacs2","hex":"#3366ff99","correct":32,"choice":32,"rt":703.9999999976717,"accuracy":1,"outcome":"+10","keys":[2202.9999999939464],"total_keys":1,"block":2,"trial":176,"stimulus":4,"robot":1,"valence":"win","action":"go","sham":0,"trial_type":"pit-trial","trial_index":202,"time_elapsed":2891359,"internal_node_id":"0.0-178.0","task_version":"battery-v0.2"},{"rune":"E","rune_set":"bacs2","hex":"#3366ff99","correct":32,"choice":32,"rt":500,"accuracy":1,"outcome":"+10","keys":[1998.999999995809],"total_keys":1,"block":2,"trial":177,"stimulus":4,"robot":1,"valence":"win","action":"go","sham":0,"trial_type":"pit-trial","trial_index":203,"time_elapsed":2894586,"internal_node_id":"0.0-179.0","task_version":"battery-v0.2"},{"rune":"O","rune_set":"bacs2","hex":"#f73b6a7A","correct":-1,"choice":32,"rt":720.9999999902211,"accuracy":0,"outcome":"-10","keys":[2220.999999990221],"total_keys":1,"block":2,"trial":178,"stimulus":6,"robot":4,"valence":"lose","action":"no-go","sham":0,"trial_type":"pit-trial","trial_index":204,"time_elapsed":2898020,"internal_node_id":"0.0-180.0","task_version":"battery-v0.2"},{"rune":"G","rune_set":"bacs2","hex":"#3366ff99","correct":-1,"choice":32,"rt":580.0000000018626,"accuracy":0,"outcome":"+1","keys":[2080.9999999911524],"total_keys":1,"block":2,"trial":179,"stimulus":7,"robot":2,"valence":"win","action":"no-go","sham":0,"trial_type":"pit-trial","trial_index":205,"time_elapsed":2901311,"internal_node_id":"0.0-181.0","task_version":"battery-v0.2"},{"rune":"C","rune_set":"bacs2","hex":"#f73b6a7A","correct":32,"choice":-1,"rt":-1,"accuracy":0,"outcome":"-1","keys":[],"total_keys":0,"block":2,"trial":180,"stimulus":5,"robot":3,"valence":"lose","action":"go","sham":1,"trial_type":"pit-trial","trial_index":206,"time_elapsed":2905351,"internal_node_id":"0.0-182.0","task_version":"battery-v0.2"},{"rune":"G","rune_set":"bacs2","hex":"#3366ff99","correct":-1,"choice":-1,"rt":-1,"accuracy":1,"outcome":"+10","keys":[],"total_keys":0,"block":2,"trial":181,"stimulus":7,"robot":2,"valence":"win","action":"no-go","sham":0,"trial_type":"pit-trial","trial_index":207,"time_elapsed":2909422,"internal_node_id":"0.0-183.0","task_version":"battery-v0.2"},{"rune":"E","rune_set":"bacs2","hex":"#3366ff99","correct":32,"choice":32,"rt":717.0000000046566,"accuracy":1,"outcome":"+10","keys":[2217.0000000046566],"total_keys":1,"block":2,"trial":182,"stimulus":4,"robot":1,"valence":"win","action":"go","sham":0,"trial_type":"pit-trial","trial_index":208,"time_elapsed":2912852,"internal_node_id":"0.0-184.0","task_version":"battery-v0.2"},{"rune":"C","rune_set":"bacs2","hex":"#f73b6a7A","correct":32,"choice":-1,"rt":-1,"accuracy":0,"outcome":"-10","keys":[],"total_keys":0,"block":2,"trial":183,"stimulus":5,"robot":3,"valence":"lose","action":"go","sham":0,"trial_type":"pit-trial","trial_index":209,"time_elapsed":2916861,"internal_node_id":"0.0-185.0","task_version":"battery-v0.2"},{"rune":"O","rune_set":"bacs2","hex":"#f73b6a7A","correct":-1,"choice":32,"rt":653.9999999948777,"accuracy":0,"outcome":"-10","keys":[2157.999999995809],"total_keys":1,"block":2,"trial":184,"stimulus":6,"robot":4,"valence":"lose","action":"no-go","sham":0,"trial_type":"pit-trial","trial_index":210,"time_elapsed":2920229,"internal_node_id":"0.0-186.0","task_version":"battery-v0.2"},{"rune":"E","rune_set":"bacs2","hex":"#3366ff99","correct":32,"choice":32,"rt":495.9999999990687,"accuracy":1,"outcome":"+10","keys":[1995.000000009779],"total_keys":1,"block":2,"trial":185,"stimulus":4,"robot":1,"valence":"win","action":"go","sham":0,"trial_type":"pit-trial","trial_index":211,"time_elapsed":2923436,"internal_node_id":"0.0-187.0","task_version":"battery-v0.2"},{"rune":"G","rune_set":"bacs2","hex":"#3366ff99","correct":-1,"choice":32,"rt":558.9999999934807,"accuracy":0,"outcome":"+1","keys":[2058.000000004191],"total_keys":1,"block":2,"trial":186,"stimulus":7,"robot":2,"valence":"win","action":"no-go","sham":0,"trial_type":"pit-trial","trial_index":212,"time_elapsed":2926706,"internal_node_id":"0.0-188.0","task_version":"battery-v0.2"},{"rune":"O","rune_set":"bacs2","hex":"#f73b6a7A","correct":-1,"choice":-1,"rt":-1,"accuracy":1,"outcome":"-1","keys":[],"total_keys":0,"block":2,"trial":187,"stimulus":6,"robot":4,"valence":"lose","action":"no-go","sham":0,"trial_type":"pit-trial","trial_index":213,"time_elapsed":2930718,"internal_node_id":"0.0-189.0","task_version":"battery-v0.2"},{"rune":"C","rune_set":"bacs2","hex":"#f73b6a7A","correct":32,"choice":32,"rt":607.9999999930151,"accuracy":1,"outcome":"-1","keys":[2106.99999998929],"total_keys":1,"block":2,"trial":188,"stimulus":5,"robot":3,"valence":"lose","action":"go","sham":0,"trial_type":"pit-trial","trial_index":214,"time_elapsed":2934036,"internal_node_id":"0.0-190.0","task_version":"battery-v0.2"},{"rune":"G","rune_set":"bacs2","hex":"#3366ff99","correct":-1,"choice":32,"rt":525.0000000088476,"accuracy":0,"outcome":"+1","keys":[2024.0000000051223],"total_keys":1,"block":2,"trial":189,"stimulus":7,"robot":2,"valence":"win","action":"no-go","sham":0,"trial_type":"pit-trial","trial_index":215,"time_elapsed":2937273,"internal_node_id":"0.0-191.0","task_version":"battery-v0.2"},{"rune":"C","rune_set":"bacs2","hex":"#f73b6a7A","correct":32,"choice":32,"rt":615.0000000055879,"accuracy":1,"outcome":"-10","keys":[2116.000000009313],"total_keys":1,"block":2,"trial":190,"stimulus":5,"robot":3,"valence":"lose","action":"go","sham":1,"trial_type":"pit-trial","trial_index":216,"time_elapsed":2940598,"internal_node_id":"0.0-192.0","task_version":"battery-v0.2"},{"rune":"E","rune_set":"bacs2","hex":"#3366ff99","correct":32,"choice":32,"rt":559.0000000083819,"accuracy":1,"outcome":"+10","keys":[2059.000000008382],"total_keys":1,"block":2,"trial":191,"stimulus":4,"robot":1,"valence":"win","action":"go","sham":0,"trial_type":"pit-trial","trial_index":217,"time_elapsed":2943868,"internal_node_id":"0.0-193.0","task_version":"battery-v0.2"},{"rune":"O","rune_set":"bacs2","hex":"#f73b6a7A","correct":-1,"choice":-1,"rt":-1,"accuracy":1,"outcome":"-10","keys":[],"total_keys":0,"block":2,"trial":192,"stimulus":6,"robot":4,"valence":"lose","action":"no-go","sham":1,"trial_type":"pit-trial","trial_index":218,"time_elapsed":2947880,"internal_node_id":"0.0-194.0","task_version":"battery-v0.2"},{"rune":"Z","rune_set":"bacs2","hex":"#f73b6a7A","correct":32,"choice":-1,"rt":-1,"accuracy":0,"outcome":"-10","keys":[],"total_keys":0,"block":2,"trial":193,"stimulus":8,"robot":3,"valence":"lose","action":"go","sham":0,"trial_type":"pit-trial","trial_index":219,"time_elapsed":2951891,"internal_node_id":"0.0-195.0","task_version":"battery-v0.2"},{"rune":"O","rune_set":"bacs2","hex":"#f73b6a7A","correct":-1,"choice":32,"rt":785.0000000037253,"accuracy":0,"outcome":"-10","keys":[2285.0000000037253],"total_keys":1,"block":2,"trial":194,"stimulus":6,"robot":4,"valence":"lose","action":"no-go","sham":0,"trial_type":"pit-trial","trial_index":220,"time_elapsed":2955390,"internal_node_id":"0.0-196.0","task_version":"battery-v0.2"},{"rune":"G","rune_set":"bacs2","hex":"#3366ff99","correct":-1,"choice":32,"rt":455.00000000186265,"accuracy":0,"outcome":"+1","keys":[1955.0000000018626],"total_keys":1,"block":2,"trial":195,"stimulus":7,"robot":2,"valence":"win","action":"no-go","sham":0,"trial_type":"pit-trial","trial_index":221,"time_elapsed":2958560,"internal_node_id":"0.0-197.0","task_version":"battery-v0.2"},{"rune":"E","rune_set":"bacs2","hex":"#3366ff99","correct":32,"choice":32,"rt":558.0000000046566,"accuracy":1,"outcome":"+10","keys":[2058.0000000046566],"total_keys":1,"block":2,"trial":196,"stimulus":4,"robot":1,"valence":"win","action":"go","sham":0,"trial_type":"pit-trial","trial_index":222,"time_elapsed":2961829,"internal_node_id":"0.0-198.0","task_version":"battery-v0.2"},{"rune":"O","rune_set":"bacs2","hex":"#f73b6a7A","correct":-1,"choice":-1,"rt":-1,"accuracy":1,"outcome":"-1","keys":[],"total_keys":0,"block":2,"trial":197,"stimulus":6,"robot":4,"valence":"lose","action":"no-go","sham":0,"trial_type":"pit-trial","trial_index":223,"time_elapsed":2965839,"internal_node_id":"0.0-199.0","task_version":"battery-v0.2"},{"rune":"Z","rune_set":"bacs2","hex":"#f73b6a7A","correct":32,"choice":-1,"rt":-1,"accuracy":0,"outcome":"-1","keys":[],"total_keys":0,"block":2,"trial":198,"stimulus":8,"robot":3,"valence":"lose","action":"go","sham":1,"trial_type":"pit-trial","trial_index":224,"time_elapsed":2969853,"internal_node_id":"0.0-200.0","task_version":"battery-v0.2"},{"rune":"E","rune_set":"bacs2","hex":"#3366ff99","correct":32,"choice":32,"rt":771.0000000079162,"accuracy":1,"outcome":"+10","keys":[2272.0000000116415],"total_keys":1,"block":2,"trial":199,"stimulus":4,"robot":1,"valence":"win","action":"go","sham":0,"trial_type":"pit-trial","trial_index":225,"time_elapsed":2973339,"internal_node_id":"0.0-201.0","task_version":"battery-v0.2"},{"rune":"G","rune_set":"bacs2","hex":"#3366ff99","correct":-1,"choice":32,"rt":930.0000000079162,"accuracy":0,"outcome":"+1","keys":[2430.0000000079162],"total_keys":1,"block":2,"trial":200,"stimulus":7,"robot":2,"valence":"win","action":"no-go","sham":0,"trial_type":"pit-trial","trial_index":226,"time_elapsed":2976986,"internal_node_id":"0.0-202.0","task_version":"battery-v0.2"},{"rune":"O","rune_set":"bacs2","hex":"#f73b6a7A","correct":-1,"choice":-1,"rt":-1,"accuracy":1,"outcome":"-1","keys":[2956.000000005588],"total_keys":1,"block":2,"trial":201,"stimulus":6,"robot":4,"valence":"lose","action":"no-go","sham":0,"trial_type":"pit-trial","trial_index":227,"time_elapsed":2980999,"internal_node_id":"0.0-203.0","task_version":"battery-v0.2"},{"rune":"Z","rune_set":"bacs2","hex":"#f73b6a7A","correct":32,"choice":32,"rt":770.9999999934807,"accuracy":1,"outcome":"-10","keys":[2273.999999990221],"total_keys":1,"block":2,"trial":202,"stimulus":8,"robot":3,"valence":"lose","action":"go","sham":1,"trial_type":"pit-trial","trial_index":228,"time_elapsed":2984482,"internal_node_id":"0.0-204.0","task_version":"battery-v0.2"},{"rune":"G","rune_set":"bacs2","hex":"#3366ff99","correct":-1,"choice":32,"rt":814.9999999878928,"accuracy":0,"outcome":"+1","keys":[2314.999999987893],"total_keys":1,"block":2,"trial":203,"stimulus":7,"robot":2,"valence":"win","action":"no-go","sham":0,"trial_type":"pit-trial","trial_index":229,"time_elapsed":2988010,"internal_node_id":"0.0-205.0","task_version":"battery-v0.2"},{"rune":"X","rune_set":"bacs2","hex":"#f73b6a7A","correct":32,"choice":-1,"rt":-1,"accuracy":0,"outcome":"-10","keys":[],"total_keys":0,"block":2,"trial":204,"stimulus":9,"robot":3,"valence":"lose","action":"go","sham":0,"trial_type":"pit-trial","trial_index":230,"time_elapsed":2992022,"internal_node_id":"0.0-206.0","task_version":"battery-v0.2"},{"rune":"G","rune_set":"bacs2","hex":"#3366ff99","correct":-1,"choice":-1,"rt":-1,"accuracy":1,"outcome":"+10","keys":[],"total_keys":0,"block":2,"trial":205,"stimulus":7,"robot":2,"valence":"win","action":"no-go","sham":0,"trial_type":"pit-trial","trial_index":231,"time_elapsed":2996037,"internal_node_id":"0.0-207.0","task_version":"battery-v0.2"},{"rune":"Z","rune_set":"bacs2","hex":"#f73b6a7A","correct":32,"choice":-1,"rt":-1,"accuracy":0,"outcome":"-10","keys":[],"total_keys":0,"block":2,"trial":206,"stimulus":8,"robot":3,"valence":"lose","action":"go","sham":0,"trial_type":"pit-trial","trial_index":232,"time_elapsed":3000049,"internal_node_id":"0.0-208.0","task_version":"battery-v0.2"},{"rune":"O","rune_set":"bacs2","hex":"#f73b6a7A","correct":-1,"choice":32,"rt":1017.9999999967404,"accuracy":0,"outcome":"-10","keys":[2517.9999999967404],"total_keys":1,"block":2,"trial":207,"stimulus":6,"robot":4,"valence":"lose","action":"no-go","sham":0,"trial_type":"pit-trial","trial_index":233,"time_elapsed":3003779,"internal_node_id":"0.0-209.0","task_version":"battery-v0.2"},{"rune":"X","rune_set":"bacs2","hex":"#f73b6a7A","correct":32,"choice":-1,"rt":-1,"accuracy":0,"outcome":"-10","keys":[],"total_keys":0,"block":2,"trial":208,"stimulus":9,"robot":3,"valence":"lose","action":"go","sham":0,"trial_type":"pit-trial","trial_index":234,"time_elapsed":3007791,"internal_node_id":"0.0-210.0","task_version":"battery-v0.2"},{"rune":"X","rune_set":"bacs2","hex":"#f73b6a7A","correct":32,"choice":32,"rt":550.000000002794,"accuracy":1,"outcome":"-1","keys":[2051.000000006985],"total_keys":1,"block":2,"trial":209,"stimulus":9,"robot":3,"valence":"lose","action":"go","sham":0,"trial_type":"pit-trial","trial_index":235,"time_elapsed":3011052,"internal_node_id":"0.0-211.0","task_version":"battery-v0.2"},{"rune":"J","rune_set":"bacs2","hex":"#3366ff99","correct":-1,"choice":-1,"rt":-1,"accuracy":1,"outcome":"+10","keys":[],"total_keys":0,"block":2,"trial":210,"stimulus":11,"robot":2,"valence":"win","action":"no-go","sham":0,"trial_type":"pit-trial","trial_index":236,"time_elapsed":3015064,"internal_node_id":"0.0-212.0","task_version":"battery-v0.2"},{"rune":"Z","rune_set":"bacs2","hex":"#f73b6a7A","correct":32,"choice":32,"rt":699.0000000079162,"accuracy":1,"outcome":"-10","keys":[2199.9999999967404],"total_keys":1,"block":2,"trial":211,"stimulus":8,"robot":3,"valence":"lose","action":"go","sham":1,"trial_type":"pit-trial","trial_index":237,"time_elapsed":3018478,"internal_node_id":"0.0-213.0","task_version":"battery-v0.2"},{"rune":"W","rune_set":"bacs2","hex":"#f73b6a7A","correct":-1,"choice":-1,"rt":-1,"accuracy":1,"outcome":"-1","keys":[],"total_keys":0,"block":2,"trial":212,"stimulus":10,"robot":4,"valence":"lose","action":"no-go","sham":0,"trial_type":"pit-trial","trial_index":238,"time_elapsed":3022491,"internal_node_id":"0.0-214.0","task_version":"battery-v0.2"},{"rune":"Z","rune_set":"bacs2","hex":"#f73b6a7A","correct":32,"choice":-1,"rt":-1,"accuracy":0,"outcome":"-10","keys":[],"total_keys":0,"block":2,"trial":213,"stimulus":8,"robot":3,"valence":"lose","action":"go","sham":0,"trial_type":"pit-trial","trial_index":239,"time_elapsed":3026501,"internal_node_id":"0.0-215.0","task_version":"battery-v0.2"},{"rune":"W","rune_set":"bacs2","hex":"#f73b6a7A","correct":-1,"choice":-1,"rt":-1,"accuracy":1,"outcome":"-1","keys":[],"total_keys":0,"block":2,"trial":214,"stimulus":10,"robot":4,"valence":"lose","action":"no-go","sham":0,"trial_type":"pit-trial","trial_index":240,"time_elapsed":3030512,"internal_node_id":"0.0-216.0","task_version":"battery-v0.2"},{"rune":"J","rune_set":"bacs2","hex":"#3366ff99","correct":-1,"choice":-1,"rt":-1,"accuracy":1,"outcome":"+10","keys":[],"total_keys":0,"block":2,"trial":215,"stimulus":11,"robot":2,"valence":"win","action":"no-go","sham":0,"trial_type":"pit-trial","trial_index":241,"time_elapsed":3034523,"internal_node_id":"0.0-217.0","task_version":"battery-v0.2"},{"rune":"X","rune_set":"bacs2","hex":"#f73b6a7A","correct":32,"choice":-1,"rt":-1,"accuracy":0,"outcome":"-10","keys":[],"total_keys":0,"block":2,"trial":216,"stimulus":9,"robot":3,"valence":"lose","action":"go","sham":0,"trial_type":"pit-trial","trial_index":242,"time_elapsed":3038534,"internal_node_id":"0.0-218.0","task_version":"battery-v0.2"},{"rune":"J","rune_set":"bacs2","hex":"#3366ff99","correct":-1,"choice":-1,"rt":-1,"accuracy":1,"outcome":"+10","keys":[],"total_keys":0,"block":2,"trial":217,"stimulus":11,"robot":2,"valence":"win","action":"no-go","sham":0,"trial_type":"pit-trial","trial_index":243,"time_elapsed":3042547,"internal_node_id":"0.0-219.0","task_version":"battery-v0.2"},{"rune":"W","rune_set":"bacs2","hex":"#f73b6a7A","correct":-1,"choice":32,"rt":735.0000000004657,"accuracy":0,"outcome":"-1","keys":[2235.0000000004657],"total_keys":1,"block":2,"trial":218,"stimulus":10,"robot":4,"valence":"lose","action":"no-go","sham":1,"trial_type":"pit-trial","trial_index":244,"time_elapsed":3045993,"internal_node_id":"0.0-220.0","task_version":"battery-v0.2"},{"rune":"X","rune_set":"bacs2","hex":"#f73b6a7A","correct":32,"choice":32,"rt":688.0000000088476,"accuracy":1,"outcome":"-1","keys":[2188.0000000088476],"total_keys":1,"block":2,"trial":219,"stimulus":9,"robot":3,"valence":"lose","action":"go","sham":0,"trial_type":"pit-trial","trial_index":245,"time_elapsed":3049391,"internal_node_id":"0.0-221.0","task_version":"battery-v0.2"},{"rune":"Z","rune_set":"bacs2","hex":"#f73b6a7A","correct":32,"choice":32,"rt":572,"accuracy":1,"outcome":"-10","keys":[2072],"total_keys":1,"block":2,"trial":220,"stimulus":8,"robot":3,"valence":"lose","action":"go","sham":1,"trial_type":"pit-trial","trial_index":246,"time_elapsed":3052679,"internal_node_id":"0.0-222.0","task_version":"battery-v0.2"},{"rune":"Z","rune_set":"bacs2","hex":"#f73b6a7A","correct":32,"choice":-1,"rt":-1,"accuracy":0,"outcome":"-10","keys":[],"total_keys":0,"block":2,"trial":221,"stimulus":8,"robot":3,"valence":"lose","action":"go","sham":0,"trial_type":"pit-trial","trial_index":247,"time_elapsed":3056689,"internal_node_id":"0.0-223.0","task_version":"battery-v0.2"},{"rune":"W","rune_set":"bacs2","hex":"#f73b6a7A","correct":-1,"choice":32,"rt":1001.0000000037253,"accuracy":0,"outcome":"-10","keys":[2501.0000000037253],"total_keys":1,"block":2,"trial":222,"stimulus":10,"robot":4,"valence":"lose","action":"no-go","sham":0,"trial_type":"pit-trial","trial_index":248,"time_elapsed":3060405,"internal_node_id":"0.0-224.0","task_version":"battery-v0.2"},{"rune":"X","rune_set":"bacs2","hex":"#f73b6a7A","correct":32,"choice":-1,"rt":-1,"accuracy":0,"outcome":"-1","keys":[],"total_keys":0,"block":2,"trial":223,"stimulus":9,"robot":3,"valence":"lose","action":"go","sham":1,"trial_type":"pit-trial","trial_index":249,"time_elapsed":3064447,"internal_node_id":"0.0-225.0","task_version":"battery-v0.2"},{"rune":"J","rune_set":"bacs2","hex":"#3366ff99","correct":-1,"choice":-1,"rt":-1,"accuracy":1,"outcome":"+10","keys":[],"total_keys":0,"block":2,"trial":224,"stimulus":11,"robot":2,"valence":"win","action":"no-go","sham":0,"trial_type":"pit-trial","trial_index":250,"time_elapsed":3068457,"internal_node_id":"0.0-226.0","task_version":"battery-v0.2"},{"rune":"X","rune_set":"bacs2","hex":"#f73b6a7A","correct":32,"choice":-1,"rt":-1,"accuracy":0,"outcome":"-1","keys":[],"total_keys":0,"block":2,"trial":225,"stimulus":9,"robot":3,"valence":"lose","action":"go","sham":1,"trial_type":"pit-trial","trial_index":251,"time_elapsed":3072467,"internal_node_id":"0.0-227.0","task_version":"battery-v0.2"},{"rune":"W","rune_set":"bacs2","hex":"#f73b6a7A","correct":-1,"choice":-1,"rt":-1,"accuracy":1,"outcome":"-1","keys":[],"total_keys":0,"block":2,"trial":226,"stimulus":10,"robot":4,"valence":"lose","action":"no-go","sham":0,"trial_type":"pit-trial","trial_index":252,"time_elapsed":3076477,"internal_node_id":"0.0-228.0","task_version":"battery-v0.2"},{"rune":"J","rune_set":"bacs2","hex":"#3366ff99","correct":-1,"choice":-1,"rt":-1,"accuracy":1,"outcome":"+10","keys":[],"total_keys":0,"block":2,"trial":227,"stimulus":11,"robot":2,"valence":"win","action":"no-go","sham":0,"trial_type":"pit-trial","trial_index":253,"time_elapsed":3080487,"internal_node_id":"0.0-229.0","task_version":"battery-v0.2"},{"rune":"Z","rune_set":"bacs2","hex":"#f73b6a7A","correct":32,"choice":32,"rt":440.9999999916181,"accuracy":1,"outcome":"-1","keys":[1940.999999991618],"total_keys":1,"block":2,"trial":228,"stimulus":8,"robot":3,"valence":"lose","action":"go","sham":0,"trial_type":"pit-trial","trial_index":254,"time_elapsed":3083639,"internal_node_id":"0.0-230.0","task_version":"battery-v0.2"},{"rune":"J","rune_set":"bacs2","hex":"#3366ff99","correct":-1,"choice":-1,"rt":-1,"accuracy":1,"outcome":"+10","keys":[],"total_keys":0,"block":2,"trial":229,"stimulus":11,"robot":2,"valence":"win","action":"no-go","sham":0,"trial_type":"pit-trial","trial_index":255,"time_elapsed":3087650,"internal_node_id":"0.0-231.0","task_version":"battery-v0.2"},{"rune":"X","rune_set":"bacs2","hex":"#f73b6a7A","correct":32,"choice":-1,"rt":-1,"accuracy":0,"outcome":"-1","keys":[],"total_keys":0,"block":2,"trial":230,"stimulus":9,"robot":3,"valence":"lose","action":"go","sham":1,"trial_type":"pit-trial","trial_index":256,"time_elapsed":3091660,"internal_node_id":"0.0-232.0","task_version":"battery-v0.2"},{"rune":"W","rune_set":"bacs2","hex":"#f73b6a7A","correct":-1,"choice":-1,"rt":-1,"accuracy":1,"outcome":"-1","keys":[],"total_keys":0,"block":2,"trial":231,"stimulus":10,"robot":4,"valence":"lose","action":"no-go","sham":0,"trial_type":"pit-trial","trial_index":257,"time_elapsed":3095671,"internal_node_id":"0.0-233.0","task_version":"battery-v0.2"},{"rune":"Z","rune_set":"bacs2","hex":"#f73b6a7A","correct":32,"choice":32,"rt":414.99999999348074,"accuracy":1,"outcome":"-1","keys":[1915.9999999976717],"total_keys":1,"block":2,"trial":232,"stimulus":8,"robot":3,"valence":"lose","action":"go","sham":0,"trial_type":"pit-trial","trial_index":258,"time_elapsed":3098798,"internal_node_id":"0.0-234.0","task_version":"battery-v0.2"},{"rune":"X","rune_set":"bacs2","hex":"#f73b6a7A","correct":32,"choice":-1,"rt":-1,"accuracy":0,"outcome":"-10","keys":[],"total_keys":0,"block":2,"trial":233,"stimulus":9,"robot":3,"valence":"lose","action":"go","sham":0,"trial_type":"pit-trial","trial_index":259,"time_elapsed":3102809,"internal_node_id":"0.0-235.0","task_version":"battery-v0.2"},{"rune":"J","rune_set":"bacs2","hex":"#3366ff99","correct":-1,"choice":-1,"rt":-1,"accuracy":1,"outcome":"+10","keys":[],"total_keys":0,"block":2,"trial":234,"stimulus":11,"robot":2,"valence":"win","action":"no-go","sham":0,"trial_type":"pit-trial","trial_index":260,"time_elapsed":3106820,"internal_node_id":"0.0-236.0","task_version":"battery-v0.2"},{"rune":"Z","rune_set":"bacs2","hex":"#f73b6a7A","correct":32,"choice":32,"rt":649.0000000051223,"accuracy":1,"outcome":"-1","keys":[2154.9999999990687],"total_keys":1,"block":2,"trial":235,"stimulus":8,"robot":3,"valence":"lose","action":"go","sham":0,"trial_type":"pit-trial","trial_index":261,"time_elapsed":3110186,"internal_node_id":"0.0-237.0","task_version":"battery-v0.2"},{"rune":"W","rune_set":"bacs2","hex":"#f73b6a7A","correct":-1,"choice":-1,"rt":-1,"accuracy":1,"outcome":"-1","keys":[],"total_keys":0,"block":2,"trial":236,"stimulus":10,"robot":4,"valence":"lose","action":"no-go","sham":0,"trial_type":"pit-trial","trial_index":262,"time_elapsed":3114196,"internal_node_id":"0.0-238.0","task_version":"battery-v0.2"},{"rune":"Z","rune_set":"bacs2","hex":"#f73b6a7A","correct":32,"choice":32,"rt":841.9999999897555,"accuracy":1,"outcome":"-1","keys":[2341.9999999897555],"total_keys":1,"block":2,"trial":237,"stimulus":8,"robot":3,"valence":"lose","action":"go","sham":0,"trial_type":"pit-trial","trial_index":263,"time_elapsed":3117748,"internal_node_id":"0.0-239.0","task_version":"battery-v0.2"},{"rune":"J","rune_set":"bacs2","hex":"#3366ff99","correct":-1,"choice":-1,"rt":-1,"accuracy":1,"outcome":"+1","keys":[],"total_keys":0,"block":2,"trial":238,"stimulus":11,"robot":2,"valence":"win","action":"no-go","sham":1,"trial_type":"pit-trial","trial_index":264,"time_elapsed":3121759,"internal_node_id":"0.0-240.0","task_version":"battery-v0.2"},{"rune":"X","rune_set":"bacs2","hex":"#f73b6a7A","correct":32,"choice":32,"rt":551.9999999962747,"accuracy":1,"outcome":"-10","keys":[2053],"total_keys":1,"block":2,"trial":239,"stimulus":9,"robot":3,"valence":"lose","action":"go","sham":1,"trial_type":"pit-trial","trial_index":265,"time_elapsed":3125022,"internal_node_id":"0.0-241.0","task_version":"battery-v0.2"},{"rune":"W","rune_set":"bacs2","hex":"#f73b6a7A","correct":-1,"choice":-1,"rt":-1,"accuracy":1,"outcome":"-1","keys":[],"total_keys":0,"block":2,"trial":240,"stimulus":10,"robot":4,"valence":"lose","action":"no-go","sham":0,"trial_type":"pit-trial","trial_index":266,"time_elapsed":3129032,"internal_node_id":"0.0-242.0","task_version":"battery-v0.2"},{"view_history":"[{\"page_index\":0,\"viewing_time\":2158.9999999995343}]","rt":2158.9999999995343,"trial_type":"pit-instructions","trial_index":267,"time_elapsed":3131201,"internal_node_id":"0.0-243.0","task_version":"battery-v0.2"},{"rt":17671.00000000233,"responses":{"age":"51","gender-categorical":"Male","gender-free-response":"","ethnicity":"Not Hispanic or Latino","race":["White"],"language":"Yes","fluency":"Very well"},"survey":"demographics","trial_type":"survey-demo","trial_index":268,"time_elapsed":3148885,"internal_node_id":"0.0-244.0","task_version":"battery-v0.2"},{"rt":37332.9999999986,"responses":{"difficulty":"2","fun":"4","clarity":"5","strategy":"Too many symbols to remember, so no.","feedback":"None"},"survey":"debrief","trial_type":"survey-debrief","trial_index":269,"time_elapsed":3186231,"internal_node_id":"0.0-245.0","task_version":"battery-v0.2","interactions":"[{\"event\":\"blur\",\"trial\":0,\"time\":564672},{\"event\":\"focus\",\"trial\":0,\"time\":747442},{\"event\":\"blur\",\"trial\":0,\"time\":748597},{\"event\":\"focus\",\"trial\":0,\"time\":957931},{\"event\":\"blur\",\"trial\":0,\"time\":959837},{\"event\":\"focus\",\"trial\":0,\"time\":1680486},{\"event\":\"blur\",\"trial\":0,\"time\":1693795},{\"event\":\"focus\",\"trial\":0,\"time\":1695168},{\"event\":\"blur\",\"trial\":0,\"time\":1695963},{\"event\":\"focus\",\"trial\":0,\"time\":1697838}]"}]