[{"view_history":"[{\"page_index\":0,\"viewing_time\":2366.704999934882},{\"page_index\":1,\"viewing_time\":2144.785000011325},{\"page_index\":2,\"viewing_time\":4653.8900000741705},{\"page_index\":3,\"viewing_time\":6728.049999917857},{\"page_index\":4,\"viewing_time\":3434.9300001049414},{\"page_index\":5,\"viewing_time\":4137.104999972507},{\"page_index\":6,\"viewing_time\":4818.094999995083},{\"page_index\":7,\"viewing_time\":10437.804999994114},{\"page_index\":8,\"viewing_time\":6770.969999954104},{\"page_index\":9,\"viewing_time\":5206.140000023879}]","rt":50699.38500004355,"trial_type":"pit-instructions","trial_index":0,"time_elapsed":50718,"internal_node_id":"0.0-0.0-0.0","task_version":"battery-v0.2"},{"rune":"1","rune_set":"elianto","hex":"#3366ff99","correct":32,"choice":32,"rt":562.0549999875948,"accuracy":1,"outcome":"+10","keys":[2067.57000007201],"total_keys":1,"block":0,"practice":1,"trial_type":"pit-trial","trial_index":1,"time_elapsed":53990,"internal_node_id":"0.0-0.0-1.0-0.0","task_version":"battery-v0.2"},{"rune":"1","rune_set":"elianto","hex":"#3366ff99","correct":32,"choice":32,"rt":484.2750000534579,"accuracy":1,"outcome":"+10","keys":[1984.2949999729171],"total_keys":1,"block":0,"practice":1,"trial_type":"pit-trial","trial_index":2,"time_elapsed":57180,"internal_node_id":"0.0-0.0-1.1-0.1","task_version":"battery-v0.2"},{"rune":"1","rune_set":"elianto","hex":"#3366ff99","correct":32,"choice":32,"rt":439.3599999602884,"accuracy":1,"outcome":"+10","keys":[1939.9949999060482],"total_keys":1,"block":0,"practice":1,"trial_type":"pit-trial","trial_index":3,"time_elapsed":60327,"internal_node_id":"0.0-0.0-1.2-0.2","task_version":"battery-v0.2"},{"rune":"1","rune_set":"elianto","hex":"#3366ff99","correct":32,"choice":32,"rt":1084.2300000367686,"accuracy":1,"outcome":"+10","keys":[2585.7750000432134],"total_keys":1,"block":0,"practice":1,"trial_type":"pit-trial","trial_index":4,"time_elapsed":64118,"internal_node_id":"0.0-0.0-1.3-0.3","task_version":"battery-v0.2"},{"view_history":"[{\"page_index\":0,\"viewing_time\":4769.985000020824},{\"page_index\":1,\"viewing_time\":6117.925000027753}]","rt":10888.20000004489,"trial_type":"pit-instructions","trial_index":5,"time_elapsed":75013,"internal_node_id":"0.0-0.0-2.0","task_version":"battery-v0.2"},{"rune":"2","rune_set":"elianto","hex":"#3366ff99","correct":-1,"choice":32,"rt":536.1800000537187,"accuracy":0,"outcome":"+1","keys":[2037.9349999129772],"total_keys":1,"block":0,"practice":2,"trial_type":"pit-trial","trial_index":6,"time_elapsed":78253,"internal_node_id":"0.0-0.0-3.0-0.0","task_version":"battery-v0.2"},{"rune":"2","rune_set":"elianto","hex":"#3366ff99","correct":-1,"choice":32,"rt":504.9499999731779,"accuracy":0,"outcome":"+1","keys":[2005.2099999738857],"total_keys":1,"block":0,"practice":2,"trial_type":"pit-trial","trial_index":7,"time_elapsed":81463,"internal_node_id":"0.0-0.0-3.1-0.1","task_version":"battery-v0.2"},{"rune":"2","rune_set":"elianto","hex":"#3366ff99","correct":-1,"choice":32,"rt":469.0199999604374,"accuracy":0,"outcome":"+1","keys":[1969.6449999464676],"total_keys":1,"block":0,"practice":2,"trial_type":"pit-trial","trial_index":8,"time_elapsed":84638,"internal_node_id":"0.0-0.0-3.2-0.2","task_version":"battery-v0.2"},{"rune":"2","rune_set":"elianto","hex":"#3366ff99","correct":-1,"choice":32,"rt":388.0699999863282,"accuracy":0,"outcome":"+1","keys":[1890.0399999693036],"total_keys":1,"block":0,"practice":2,"trial_type":"pit-trial","trial_index":9,"time_elapsed":87734,"internal_node_id":"0.0-0.0-3.3-0.3","task_version":"battery-v0.2"},{"rune":"2","rune_set":"elianto","hex":"#3366ff99","correct":-1,"choice":32,"rt":222.69999992568046,"accuracy":0,"outcome":"+1","keys":[1723.0050000362098],"total_keys":1,"block":0,"practice":2,"trial_type":"pit-trial","trial_index":10,"time_elapsed":90662,"internal_node_id":"0.0-0.0-3.4-0.4","task_version":"battery-v0.2"},{"rune":"2","rune_set":"elianto","hex":"#3366ff99","correct":-1,"choice":32,"rt":292.6050000824034,"accuracy":0,"outcome":"+1","keys":[1793.7750000273809],"total_keys":1,"block":0,"practice":2,"trial_type":"pit-trial","trial_index":11,"time_elapsed":93660,"internal_node_id":"0.0-0.0-3.5-0.5","task_version":"battery-v0.2"},{"rune":"2","rune_set":"elianto","hex":"#3366ff99","correct":-1,"choice":32,"rt":503.4499999601394,"accuracy":0,"outcome":"+1","keys":[2004.8449999885634],"total_keys":1,"block":0,"practice":2,"trial_type":"pit-trial","trial_index":12,"time_elapsed":96870,"internal_node_id":"0.0-0.0-3.6-0.6","task_version":"battery-v0.2"},{"rune":"2","rune_set":"elianto","hex":"#3366ff99","correct":-1,"choice":32,"rt":343.25999999418855,"accuracy":0,"outcome":"+1","keys":[1843.4000000124797],"total_keys":1,"block":0,"practice":2,"trial_type":"pit-trial","trial_index":13,"time_elapsed":99918,"internal_node_id":"0.0-0.0-3.7-0.7","task_version":"battery-v0.2"},{"rune":"2","rune_set":"elianto","hex":"#3366ff99","correct":-1,"choice":32,"rt":843.8300000270829,"accuracy":0,"outcome":"+1","keys":[2345.6800000276417],"total_keys":1,"block":0,"practice":2,"trial_type":"pit-trial","trial_index":14,"time_elapsed":103469,"internal_node_id":"0.0-0.0-3.8-0.8","task_version":"battery-v0.2"},{"rune":"2","rune_set":"elianto","hex":"#3366ff99","correct":-1,"choice":-1,"rt":-1,"accuracy":1,"outcome":"+10","keys":[],"total_keys":0,"block":0,"practice":2,"trial_type":"pit-trial","trial_index":15,"time_elapsed":107476,"internal_node_id":"0.0-0.0-3.9-0.9","task_version":"battery-v0.2"},{"rune":"2","rune_set":"elianto","hex":"#3366ff99","correct":-1,"choice":-1,"rt":-1,"accuracy":1,"outcome":"+10","keys":[],"total_keys":0,"block":0,"practice":2,"trial_type":"pit-trial","trial_index":16,"time_elapsed":111483,"internal_node_id":"0.0-0.0-3.10-0.10","task_version":"battery-v0.2"},{"rune":"2","rune_set":"elianto","hex":"#3366ff99","correct":-1,"choice":-1,"rt":-1,"accuracy":1,"outcome":"+10","keys":[],"total_keys":0,"block":0,"practice":2,"trial_type":"pit-trial","trial_index":17,"time_elapsed":115489,"internal_node_id":"0.0-0.0-3.11-0.11","task_version":"battery-v0.2"},{"view_history":"[{\"page_index\":0,\"viewing_time\":8339.9699999718},{\"page_index\":1,\"viewing_time\":5647.245000000112}]","rt":13987.53000004217,"trial_type":"pit-instructions","trial_index":18,"time_elapsed":129480,"internal_node_id":"0.0-0.0-4.0","task_version":"battery-v0.2"},{"rune":"3","rune_set":"elianto","hex":"#f73b6a7A","correct":-1,"choice":-1,"rt":-1,"accuracy":1,"outcome":"-1","keys":[],"total_keys":0,"block":0,"practice":3,"trial_type":"pit-trial","trial_index":19,"time_elapsed":133482,"internal_node_id":"0.0-0.0-5.0-0.0","task_version":"battery-v0.2"},{"rune":"3","rune_set":"elianto","hex":"#f73b6a7A","correct":-1,"choice":32,"rt":433.0949999857694,"accuracy":0,"outcome":"-10","keys":[1934.2650000471622],"total_keys":1,"block":0,"practice":3,"trial_type":"pit-trial","trial_index":20,"time_elapsed":136622,"internal_node_id":"0.0-0.0-5.1-0.1","task_version":"battery-v0.2"},{"rune":"3","rune_set":"elianto","hex":"#f73b6a7A","correct":-1,"choice":-1,"rt":-1,"accuracy":1,"outcome":"-1","keys":[],"total_keys":0,"block":0,"practice":3,"trial_type":"pit-trial","trial_index":21,"time_elapsed":140627,"internal_node_id":"0.0-0.0-5.2-0.2","task_version":"battery-v0.2"},{"rune":"3","rune_set":"elianto","hex":"#f73b6a7A","correct":-1,"choice":-1,"rt":-1,"accuracy":1,"outcome":"-1","keys":[],"total_keys":0,"block":0,"practice":3,"trial_type":"pit-trial","trial_index":22,"time_elapsed":144632,"internal_node_id":"0.0-0.0-5.3-0.3","task_version":"battery-v0.2"},{"rune":"3","rune_set":"elianto","hex":"#f73b6a7A","correct":-1,"choice":-1,"rt":-1,"accuracy":1,"outcome":"-1","keys":[],"total_keys":0,"block":0,"practice":3,"trial_type":"pit-trial","trial_index":23,"time_elapsed":148637,"internal_node_id":"0.0-0.0-5.4-0.4","task_version":"battery-v0.2"},{"view_history":"[{\"page_index\":0,\"viewing_time\":3393.4499999741092},{\"page_index\":1,\"viewing_time\":4721.835000091232}]","rt":8115.570000023581,"trial_type":"pit-instructions","trial_index":24,"time_elapsed":156755,"internal_node_id":"0.0-0.0-6.0","task_version":"battery-v0.2"},{"rune":"4","rune_set":"elianto","hex":"#f73b6a7A","correct":32,"choice":32,"rt":874.91500005126,"accuracy":1,"outcome":"-1","keys":[2376.6949999844655],"total_keys":1,"block":0,"practice":4,"trial_type":"pit-trial","trial_index":25,"time_elapsed":160335,"internal_node_id":"0.0-0.0-7.0-0.0","task_version":"battery-v0.2"},{"rune":"4","rune_set":"elianto","hex":"#f73b6a7A","correct":32,"choice":-1,"rt":-1,"accuracy":0,"outcome":"-10","keys":[],"total_keys":0,"block":0,"practice":4,"trial_type":"pit-trial","trial_index":26,"time_elapsed":164343,"internal_node_id":"0.0-0.0-7.1-0.1","task_version":"battery-v0.2"},{"rune":"4","rune_set":"elianto","hex":"#f73b6a7A","correct":32,"choice":32,"rt":532.8049999661744,"accuracy":1,"outcome":"-1","keys":[2033.8449999690056],"total_keys":1,"block":0,"practice":4,"trial_type":"pit-trial","trial_index":27,"time_elapsed":167583,"internal_node_id":"0.0-0.0-7.2-0.2","task_version":"battery-v0.2"},{"rune":"4","rune_set":"elianto","hex":"#f73b6a7A","correct":32,"choice":32,"rt":462.6899999566376,"accuracy":1,"outcome":"-1","keys":[1963.095000013709],"total_keys":1,"block":0,"practice":4,"trial_type":"pit-trial","trial_index":28,"time_elapsed":170750,"internal_node_id":"0.0-0.0-7.3-0.3","task_version":"battery-v0.2"},{"rune":"4","rune_set":"elianto","hex":"#f73b6a7A","correct":32,"choice":32,"rt":422.54000005777925,"accuracy":1,"outcome":"-1","keys":[1923.619999899529],"total_keys":1,"block":0,"practice":4,"trial_type":"pit-trial","trial_index":29,"time_elapsed":173879,"internal_node_id":"0.0-0.0-7.4-0.4","task_version":"battery-v0.2"},{"view_history":"[{\"page_index\":0,\"viewing_time\":5720.6249999580905},{\"page_index\":1,\"viewing_time\":4996.000000042841},{\"page_index\":2,\"viewing_time\":4335.16499993857},{\"page_index\":3,\"viewing_time\":3594.9849999742582},{\"page_index\":4,\"viewing_time\":1495.920000015758},{\"page_index\":5,\"viewing_time\":1855.0599999725819}]","rt":21998.04499989841,"trial_type":"pit-instructions","trial_index":30,"time_elapsed":195880,"internal_node_id":"0.0-0.0-8.0","task_version":"battery-v0.2"},{"responses":["Press SPACE","+10","-10","True","True"],"num_errors":1,"rt":14181.07500008773,"trial_type":"pit-comprehension","trial_index":31,"time_elapsed":210063,"internal_node_id":"0.0-0.0-9.0","task_version":"battery-v0.2"},{"view_history":"[{\"page_index\":0,\"viewing_time\":1772.759999963455},{\"page_index\":1,\"viewing_time\":2346.1499999975786}]","rt":4119.194999919273,"trial_type":"pit-instructions","trial_index":32,"time_elapsed":214185,"internal_node_id":"0.0-1.0","task_version":"battery-v0.2"},{"rune":"J","rune_set":"elianto","hex":"#3366ff99","correct":32,"choice":32,"rt":601.8749999348074,"accuracy":1,"outcome":"+10","keys":[2103.7700000451878],"total_keys":1,"block":1,"trial":1,"stimulus":1,"robot":1,"valence":"win","action":"go","sham":0,"trial_type":"pit-trial","trial_index":33,"time_elapsed":217493,"internal_node_id":"0.0-2.0","task_version":"battery-v0.2"},{"rune":"D","rune_set":"elianto","hex":"#f73b6a7A","correct":-1,"choice":32,"rt":1006.8650000030175,"accuracy":0,"outcome":"-10","keys":[2508.0249999882653],"total_keys":1,"block":1,"trial":2,"stimulus":2,"robot":4,"valence":"lose","action":"no-go","sham":0,"trial_type":"pit-trial","trial_index":34,"time_elapsed":221205,"internal_node_id":"0.0-3.0","task_version":"battery-v0.2"},{"rune":"V","rune_set":"elianto","hex":"#3366ff99","correct":-1,"choice":32,"rt":519.2999999271706,"accuracy":0,"outcome":"+1","keys":[2019.3149999249727],"total_keys":1,"block":1,"trial":3,"stimulus":0,"robot":2,"valence":"win","action":"no-go","sham":0,"trial_type":"pit-trial","trial_index":35,"time_elapsed":224429,"internal_node_id":"0.0-4.0","task_version":"battery-v0.2"},{"rune":"K","rune_set":"elianto","hex":"#3366ff99","correct":32,"choice":32,"rt":616.1050000227988,"accuracy":1,"outcome":"+10","keys":[2116.0900000249967],"total_keys":1,"block":1,"trial":4,"stimulus":3,"robot":1,"valence":"win","action":"go","sham":0,"trial_type":"pit-trial","trial_index":36,"time_elapsed":227751,"internal_node_id":"0.0-5.0","task_version":"battery-v0.2"},{"rune":"K","rune_set":"elianto","hex":"#3366ff99","correct":32,"choice":32,"rt":491.24500004108995,"accuracy":1,"outcome":"+10","keys":[1992.9700000211596],"total_keys":1,"block":1,"trial":5,"stimulus":3,"robot":1,"valence":"win","action":"go","sham":0,"trial_type":"pit-trial","trial_index":37,"time_elapsed":230950,"internal_node_id":"0.0-6.0","task_version":"battery-v0.2"},{"rune":"J","rune_set":"elianto","hex":"#3366ff99","correct":32,"choice":32,"rt":461.8999999947846,"accuracy":1,"outcome":"+10","keys":[1961.9799999054521],"total_keys":1,"block":1,"trial":6,"stimulus":1,"robot":1,"valence":"win","action":"go","sham":0,"trial_type":"pit-trial","trial_index":38,"time_elapsed":234117,"internal_node_id":"0.0-7.0","task_version":"battery-v0.2"},{"rune":"V","rune_set":"elianto","hex":"#3366ff99","correct":-1,"choice":32,"rt":1054.7950000036508,"accuracy":0,"outcome":"+1","keys":[2556.0399999376386],"total_keys":1,"block":1,"trial":7,"stimulus":0,"robot":2,"valence":"win","action":"no-go","sham":0,"trial_type":"pit-trial","trial_index":39,"time_elapsed":237878,"internal_node_id":"0.0-8.0","task_version":"battery-v0.2"},{"rune":"D","rune_set":"elianto","hex":"#f73b6a7A","correct":-1,"choice":-1,"rt":-1,"accuracy":1,"outcome":"-1","keys":[],"total_keys":0,"block":1,"trial":8,"stimulus":2,"robot":4,"valence":"lose","action":"no-go","sham":0,"trial_type":"pit-trial","trial_index":40,"time_elapsed":241882,"internal_node_id":"0.0-9.0","task_version":"battery-v0.2"},{"rune":"J","rune_set":"elianto","hex":"#3366ff99","correct":32,"choice":32,"rt":426.94499995559454,"accuracy":1,"outcome":"+10","keys":[1927.7100000763312],"total_keys":1,"block":1,"trial":9,"stimulus":1,"robot":1,"valence":"win","action":"go","sham":0,"trial_type":"pit-trial","trial_index":41,"time_elapsed":245013,"internal_node_id":"0.0-10.0","task_version":"battery-v0.2"},{"rune":"K","rune_set":"elianto","hex":"#3366ff99","correct":32,"choice":32,"rt":382.2750000981614,"accuracy":1,"outcome":"+10","keys":[1883.574999985285],"total_keys":1,"block":1,"trial":10,"stimulus":3,"robot":1,"valence":"win","action":"go","sham":0,"trial_type":"pit-trial","trial_index":42,"time_elapsed":248102,"internal_node_id":"0.0-11.0","task_version":"battery-v0.2"},{"rune":"D","rune_set":"elianto","hex":"#f73b6a7A","correct":-1,"choice":-1,"rt":-1,"accuracy":1,"outcome":"-1","keys":[],"total_keys":0,"block":1,"trial":11,"stimulus":2,"robot":4,"valence":"lose","action":"no-go","sham":0,"trial_type":"pit-trial","trial_index":43,"time_elapsed":252109,"internal_node_id":"0.0-12.0","task_version":"battery-v0.2"},{"rune":"V","rune_set":"elianto","hex":"#3366ff99","correct":-1,"choice":-1,"rt":-1,"accuracy":1,"outcome":"+10","keys":[],"total_keys":0,"block":1,"trial":12,"stimulus":0,"robot":2,"valence":"win","action":"no-go","sham":0,"trial_type":"pit-trial","trial_index":44,"time_elapsed":256114,"internal_node_id":"0.0-13.0","task_version":"battery-v0.2"},{"rune":"D","rune_set":"elianto","hex":"#f73b6a7A","correct":-1,"choice":-1,"rt":-1,"accuracy":1,"outcome":"-10","keys":[],"total_keys":0,"block":1,"trial":13,"stimulus":2,"robot":4,"valence":"lose","action":"no-go","sham":1,"trial_type":"pit-trial","trial_index":45,"time_elapsed":260118,"internal_node_id":"0.0-14.0","task_version":"battery-v0.2"},{"rune":"J","rune_set":"elianto","hex":"#3366ff99","correct":32,"choice":32,"rt":367.45000001974404,"accuracy":1,"outcome":"+10","keys":[1867.5900000380352],"total_keys":1,"block":1,"trial":14,"stimulus":1,"robot":1,"valence":"win","action":"go","sham":0,"trial_type":"pit-trial","trial_index":46,"time_elapsed":263193,"internal_node_id":"0.0-15.0","task_version":"battery-v0.2"},{"rune":"K","rune_set":"elianto","hex":"#3366ff99","correct":32,"choice":32,"rt":450.2699999138713,"accuracy":1,"outcome":"+1","keys":[1950.2550000324845],"total_keys":1,"block":1,"trial":15,"stimulus":3,"robot":1,"valence":"win","action":"go","sham":1,"trial_type":"pit-trial","trial_index":47,"time_elapsed":266351,"internal_node_id":"0.0-16.0","task_version":"battery-v0.2"},{"rune":"V","rune_set":"elianto","hex":"#3366ff99","correct":-1,"choice":-1,"rt":-1,"accuracy":1,"outcome":"+1","keys":[],"total_keys":0,"block":1,"trial":16,"stimulus":0,"robot":2,"valence":"win","action":"no-go","sham":1,"trial_type":"pit-trial","trial_index":48,"time_elapsed":270357,"internal_node_id":"0.0-17.0","task_version":"battery-v0.2"},{"rune":"D","rune_set":"elianto","hex":"#f73b6a7A","correct":-1,"choice":-1,"rt":-1,"accuracy":1,"outcome":"-1","keys":[],"total_keys":0,"block":1,"trial":17,"stimulus":2,"robot":4,"valence":"lose","action":"no-go","sham":0,"trial_type":"pit-trial","trial_index":49,"time_elapsed":274362,"internal_node_id":"0.0-18.0","task_version":"battery-v0.2"},{"rune":"V","rune_set":"elianto","hex":"#3366ff99","correct":-1,"choice":32,"rt":585.785000002943,"accuracy":0,"outcome":"+1","keys":[2087.3550000833347],"total_keys":1,"block":1,"trial":18,"stimulus":0,"robot":2,"valence":"win","action":"no-go","sham":0,"trial_type":"pit-trial","trial_index":50,"time_elapsed":277655,"internal_node_id":"0.0-19.0","task_version":"battery-v0.2"},{"rune":"K","rune_set":"elianto","hex":"#3366ff99","correct":32,"choice":32,"rt":1194.6450000395998,"accuracy":1,"outcome":"+10","keys":[2696.584999910556],"total_keys":1,"block":1,"trial":19,"stimulus":3,"robot":1,"valence":"win","action":"go","sham":0,"trial_type":"pit-trial","trial_index":51,"time_elapsed":281558,"internal_node_id":"0.0-20.0","task_version":"battery-v0.2"},{"rune":"J","rune_set":"elianto","hex":"#3366ff99","correct":32,"choice":32,"rt":582.1849999483675,"accuracy":1,"outcome":"+10","keys":[2083.684999961406],"total_keys":1,"block":1,"trial":20,"stimulus":1,"robot":1,"valence":"win","action":"go","sham":0,"trial_type":"pit-trial","trial_index":52,"time_elapsed":284846,"internal_node_id":"0.0-21.0","task_version":"battery-v0.2"},{"rune":"V","rune_set":"elianto","hex":"#3366ff99","correct":-1,"choice":-1,"rt":-1,"accuracy":1,"outcome":"+1","keys":[],"total_keys":0,"block":1,"trial":21,"stimulus":0,"robot":2,"valence":"win","action":"no-go","sham":1,"trial_type":"pit-trial","trial_index":53,"time_elapsed":288851,"internal_node_id":"0.0-22.0","task_version":"battery-v0.2"},{"rune":"K","rune_set":"elianto","hex":"#3366ff99","correct":32,"choice":32,"rt":626.6449999529868,"accuracy":1,"outcome":"+10","keys":[2126.964999944903],"total_keys":1,"block":1,"trial":22,"stimulus":3,"robot":1,"valence":"win","action":"go","sham":0,"trial_type":"pit-trial","trial_index":54,"time_elapsed":292182,"internal_node_id":"0.0-23.0","task_version":"battery-v0.2"},{"rune":"D","rune_set":"elianto","hex":"#f73b6a7A","correct":-1,"choice":-1,"rt":-1,"accuracy":1,"outcome":"-1","keys":[],"total_keys":0,"block":1,"trial":23,"stimulus":2,"robot":4,"valence":"lose","action":"no-go","sham":0,"trial_type":"pit-trial","trial_index":55,"time_elapsed":296188,"internal_node_id":"0.0-24.0","task_version":"battery-v0.2"},{"rune":"J","rune_set":"elianto","hex":"#3366ff99","correct":32,"choice":32,"rt":375.7800000021234,"accuracy":1,"outcome":"+10","keys":[1877.199999988079],"total_keys":1,"block":1,"trial":24,"stimulus":1,"robot":1,"valence":"win","action":"go","sham":0,"trial_type":"pit-trial","trial_index":56,"time_elapsed":299269,"internal_node_id":"0.0-25.0","task_version":"battery-v0.2"},{"rune":"D","rune_set":"elianto","hex":"#f73b6a7A","correct":-1,"choice":-1,"rt":-1,"accuracy":1,"outcome":"-10","keys":[],"total_keys":0,"block":1,"trial":25,"stimulus":2,"robot":4,"valence":"lose","action":"no-go","sham":1,"trial_type":"pit-trial","trial_index":57,"time_elapsed":303275,"internal_node_id":"0.0-26.0","task_version":"battery-v0.2"},{"rune":"K","rune_set":"elianto","hex":"#3366ff99","correct":32,"choice":32,"rt":402.2650000406429,"accuracy":1,"outcome":"+10","keys":[1902.6499999454245],"total_keys":1,"block":1,"trial":26,"stimulus":3,"robot":1,"valence":"win","action":"go","sham":0,"trial_type":"pit-trial","trial_index":58,"time_elapsed":306383,"internal_node_id":"0.0-27.0","task_version":"battery-v0.2"},{"rune":"V","rune_set":"elianto","hex":"#3366ff99","correct":-1,"choice":32,"rt":476.35000001173466,"accuracy":0,"outcome":"+1","keys":[1977.584999985993],"total_keys":1,"block":1,"trial":27,"stimulus":0,"robot":2,"valence":"win","action":"no-go","sham":0,"trial_type":"pit-trial","trial_index":59,"time_elapsed":309565,"internal_node_id":"0.0-28.0","task_version":"battery-v0.2"},{"rune":"J","rune_set":"elianto","hex":"#3366ff99","correct":32,"choice":32,"rt":368.58999996911734,"accuracy":1,"outcome":"+1","keys":[1868.635000078939],"total_keys":1,"block":1,"trial":28,"stimulus":1,"robot":1,"valence":"win","action":"go","sham":1,"trial_type":"pit-trial","trial_index":60,"time_elapsed":312638,"internal_node_id":"0.0-29.0","task_version":"battery-v0.2"},{"rune":"V","rune_set":"elianto","hex":"#3366ff99","correct":-1,"choice":-1,"rt":-1,"accuracy":1,"outcome":"+10","keys":[],"total_keys":0,"block":1,"trial":29,"stimulus":0,"robot":2,"valence":"win","action":"no-go","sham":0,"trial_type":"pit-trial","trial_index":61,"time_elapsed":316645,"internal_node_id":"0.0-30.0","task_version":"battery-v0.2"},{"rune":"D","rune_set":"elianto","hex":"#f73b6a7A","correct":-1,"choice":32,"rt":1086.4849999779835,"accuracy":0,"outcome":"-1","keys":[2587.8399999346584],"total_keys":1,"block":1,"trial":30,"stimulus":2,"robot":4,"valence":"lose","action":"no-go","sham":1,"trial_type":"pit-trial","trial_index":62,"time_elapsed":320437,"internal_node_id":"0.0-31.0","task_version":"battery-v0.2"},{"rune":"J","rune_set":"elianto","hex":"#3366ff99","correct":32,"choice":32,"rt":433.27499995939434,"accuracy":1,"outcome":"+10","keys":[1933.3399999886751],"total_keys":1,"block":1,"trial":31,"stimulus":1,"robot":1,"valence":"win","action":"go","sham":0,"trial_type":"pit-trial","trial_index":63,"time_elapsed":323580,"internal_node_id":"0.0-32.0","task_version":"battery-v0.2"},{"rune":"K","rune_set":"elianto","hex":"#3366ff99","correct":32,"choice":32,"rt":408.05500000715256,"accuracy":1,"outcome":"+10","keys":[1908.7099999887869],"total_keys":1,"block":1,"trial":32,"stimulus":3,"robot":1,"valence":"win","action":"go","sham":0,"trial_type":"pit-trial","trial_index":64,"time_elapsed":326694,"internal_node_id":"0.0-33.0","task_version":"battery-v0.2"},{"rune":"D","rune_set":"elianto","hex":"#f73b6a7A","correct":-1,"choice":32,"rt":1028.6349999951199,"accuracy":0,"outcome":"-10","keys":[2530.2649999503046],"total_keys":1,"block":1,"trial":33,"stimulus":2,"robot":4,"valence":"lose","action":"no-go","sham":0,"trial_type":"pit-trial","trial_index":65,"time_elapsed":330430,"internal_node_id":"0.0-34.0","task_version":"battery-v0.2"},{"rune":"K","rune_set":"elianto","hex":"#3366ff99","correct":32,"choice":32,"rt":406.30500006955117,"accuracy":1,"outcome":"+1","keys":[1907.8699999954551],"total_keys":1,"block":1,"trial":34,"stimulus":3,"robot":1,"valence":"win","action":"go","sham":1,"trial_type":"pit-trial","trial_index":66,"time_elapsed":333542,"internal_node_id":"0.0-35.0","task_version":"battery-v0.2"},{"rune":"E","rune_set":"elianto","hex":"#3366ff99","correct":32,"choice":32,"rt":727.0450000651181,"accuracy":1,"outcome":"+1","keys":[2228.529999963939],"total_keys":1,"block":1,"trial":35,"stimulus":4,"robot":1,"valence":"win","action":"go","sham":1,"trial_type":"pit-trial","trial_index":67,"time_elapsed":336974,"internal_node_id":"0.0-36.0","task_version":"battery-v0.2"},{"rune":"V","rune_set":"elianto","hex":"#3366ff99","correct":-1,"choice":-1,"rt":-1,"accuracy":1,"outcome":"+1","keys":[],"total_keys":0,"block":1,"trial":36,"stimulus":0,"robot":2,"valence":"win","action":"no-go","sham":1,"trial_type":"pit-trial","trial_index":68,"time_elapsed":340978,"internal_node_id":"0.0-37.0","task_version":"battery-v0.2"},{"rune":"E","rune_set":"elianto","hex":"#3366ff99","correct":32,"choice":32,"rt":818.1099999928847,"accuracy":1,"outcome":"+10","keys":[2318.570000003092],"total_keys":1,"block":1,"trial":37,"stimulus":4,"robot":1,"valence":"win","action":"go","sham":0,"trial_type":"pit-trial","trial_index":69,"time_elapsed":344501,"internal_node_id":"0.0-38.0","task_version":"battery-v0.2"},{"rune":"D","rune_set":"elianto","hex":"#f73b6a7A","correct":-1,"choice":-1,"rt":-1,"accuracy":1,"outcome":"-10","keys":[],"total_keys":0,"block":1,"trial":38,"stimulus":2,"robot":4,"valence":"lose","action":"no-go","sham":1,"trial_type":"pit-trial","trial_index":70,"time_elapsed":348505,"internal_node_id":"0.0-39.0","task_version":"battery-v0.2"},{"rune":"K","rune_set":"elianto","hex":"#3366ff99","correct":32,"choice":32,"rt":523.1349999085069,"accuracy":1,"outcome":"+10","keys":[2023.4300000593066],"total_keys":1,"block":1,"trial":39,"stimulus":3,"robot":1,"valence":"win","action":"go","sham":0,"trial_type":"pit-trial","trial_index":71,"time_elapsed":351733,"internal_node_id":"0.0-40.0","task_version":"battery-v0.2"},{"rune":"V","rune_set":"elianto","hex":"#3366ff99","correct":-1,"choice":-1,"rt":-1,"accuracy":1,"outcome":"+10","keys":[2853.264999925159],"total_keys":1,"block":1,"trial":40,"stimulus":0,"robot":2,"valence":"win","action":"no-go","sham":0,"trial_type":"pit-trial","trial_index":72,"time_elapsed":355737,"internal_node_id":"0.0-41.0","task_version":"battery-v0.2"},{"rune":"V","rune_set":"elianto","hex":"#3366ff99","correct":-1,"choice":32,"rt":627.5049999821931,"accuracy":0,"outcome":"+1","keys":[2128.8499999791384],"total_keys":1,"block":1,"trial":41,"stimulus":0,"robot":2,"valence":"win","action":"no-go","sham":0,"trial_type":"pit-trial","trial_index":73,"time_elapsed":359069,"internal_node_id":"0.0-42.0","task_version":"battery-v0.2"},{"rune":"S","rune_set":"elianto","hex":"#f73b6a7A","correct":-1,"choice":-1,"rt":-1,"accuracy":1,"outcome":"-1","keys":[],"total_keys":0,"block":1,"trial":42,"stimulus":6,"robot":4,"valence":"lose","action":"no-go","sham":0,"trial_type":"pit-trial","trial_index":74,"time_elapsed":363074,"internal_node_id":"0.0-43.0","task_version":"battery-v0.2"},{"rune":"W","rune_set":"elianto","hex":"#f73b6a7A","correct":32,"choice":-1,"rt":-1,"accuracy":0,"outcome":"-10","keys":[],"total_keys":0,"block":1,"trial":43,"stimulus":5,"robot":3,"valence":"lose","action":"go","sham":0,"trial_type":"pit-trial","trial_index":75,"time_elapsed":367079,"internal_node_id":"0.0-44.0","task_version":"battery-v0.2"},{"rune":"E","rune_set":"elianto","hex":"#3366ff99","correct":32,"choice":32,"rt":788.6199998902157,"accuracy":1,"outcome":"+10","keys":[2289.329999941401],"total_keys":1,"block":1,"trial":44,"stimulus":4,"robot":1,"valence":"win","action":"go","sham":0,"trial_type":"pit-trial","trial_index":76,"time_elapsed":370571,"internal_node_id":"0.0-45.0","task_version":"battery-v0.2"},{"rune":"E","rune_set":"elianto","hex":"#3366ff99","correct":32,"choice":32,"rt":529.065000009723,"accuracy":1,"outcome":"+10","keys":[2030.2499999525025],"total_keys":1,"block":1,"trial":45,"stimulus":4,"robot":1,"valence":"win","action":"go","sham":0,"trial_type":"pit-trial","trial_index":77,"time_elapsed":373804,"internal_node_id":"0.0-46.0","task_version":"battery-v0.2"},{"rune":"W","rune_set":"elianto","hex":"#f73b6a7A","correct":32,"choice":-1,"rt":-1,"accuracy":0,"outcome":"-10","keys":[],"total_keys":0,"block":1,"trial":46,"stimulus":5,"robot":3,"valence":"lose","action":"go","sham":0,"trial_type":"pit-trial","trial_index":78,"time_elapsed":377809,"internal_node_id":"0.0-47.0","task_version":"battery-v0.2"},{"rune":"V","rune_set":"elianto","hex":"#3366ff99","correct":-1,"choice":32,"rt":491.4949999656528,"accuracy":0,"outcome":"+1","keys":[1991.8899999465793],"total_keys":1,"block":1,"trial":47,"stimulus":0,"robot":2,"valence":"win","action":"no-go","sham":0,"trial_type":"pit-trial","trial_index":79,"time_elapsed":381006,"internal_node_id":"0.0-48.0","task_version":"battery-v0.2"},{"rune":"S","rune_set":"elianto","hex":"#f73b6a7A","correct":-1,"choice":32,"rt":572.3100000759587,"accuracy":0,"outcome":"-10","keys":[2073.1949999462813],"total_keys":1,"block":1,"trial":48,"stimulus":6,"robot":4,"valence":"lose","action":"no-go","sham":0,"trial_type":"pit-trial","trial_index":80,"time_elapsed":384284,"internal_node_id":"0.0-49.0","task_version":"battery-v0.2"},{"rune":"P","rune_set":"elianto","hex":"#3366ff99","correct":-1,"choice":32,"rt":472.85000002011657,"accuracy":0,"outcome":"+1","keys":[1974.2799999658018],"total_keys":1,"block":1,"trial":49,"stimulus":7,"robot":2,"valence":"win","action":"no-go","sham":0,"trial_type":"pit-trial","trial_index":81,"time_elapsed":387462,"internal_node_id":"0.0-50.0","task_version":"battery-v0.2"},{"rune":"W","rune_set":"elianto","hex":"#f73b6a7A","correct":32,"choice":32,"rt":1023.6049999948591,"accuracy":1,"outcome":"-1","keys":[2523.909999988973],"total_keys":1,"block":1,"trial":50,"stimulus":5,"robot":3,"valence":"lose","action":"go","sham":0,"trial_type":"pit-trial","trial_index":82,"time_elapsed":391190,"internal_node_id":"0.0-51.0","task_version":"battery-v0.2"},{"rune":"S","rune_set":"elianto","hex":"#f73b6a7A","correct":-1,"choice":32,"rt":622.6049999240786,"accuracy":0,"outcome":"-10","keys":[2122.990000061691],"total_keys":1,"block":1,"trial":51,"stimulus":6,"robot":4,"valence":"lose","action":"no-go","sham":0,"trial_type":"pit-trial","trial_index":83,"time_elapsed":394517,"internal_node_id":"0.0-52.0","task_version":"battery-v0.2"},{"rune":"E","rune_set":"elianto","hex":"#3366ff99","correct":32,"choice":32,"rt":903.35999999661,"accuracy":1,"outcome":"+10","keys":[2403.5300000105053],"total_keys":1,"block":1,"trial":52,"stimulus":4,"robot":1,"valence":"win","action":"go","sham":0,"trial_type":"pit-trial","trial_index":84,"time_elapsed":398126,"internal_node_id":"0.0-53.0","task_version":"battery-v0.2"},{"rune":"S","rune_set":"elianto","hex":"#f73b6a7A","correct":-1,"choice":32,"rt":727.294999989681,"accuracy":0,"outcome":"-10","keys":[2227.42000001017],"total_keys":1,"block":1,"trial":53,"stimulus":6,"robot":4,"valence":"lose","action":"no-go","sham":0,"trial_type":"pit-trial","trial_index":85,"time_elapsed":401559,"internal_node_id":"0.0-54.0","task_version":"battery-v0.2"},{"rune":"W","rune_set":"elianto","hex":"#f73b6a7A","correct":32,"choice":32,"rt":525.7400000700727,"accuracy":1,"outcome":"-1","keys":[2026.7049999674782],"total_keys":1,"block":1,"trial":54,"stimulus":5,"robot":3,"valence":"lose","action":"go","sham":0,"trial_type":"pit-trial","trial_index":86,"time_elapsed":404789,"internal_node_id":"0.0-55.0","task_version":"battery-v0.2"},{"rune":"E","rune_set":"elianto","hex":"#3366ff99","correct":32,"choice":32,"rt":615.749999997206,"accuracy":1,"outcome":"+10","keys":[2116.2550000008196],"total_keys":1,"block":1,"trial":55,"stimulus":4,"robot":1,"valence":"win","action":"go","sham":0,"trial_type":"pit-trial","trial_index":87,"time_elapsed":408109,"internal_node_id":"0.0-56.0","task_version":"battery-v0.2"},{"rune":"P","rune_set":"elianto","hex":"#3366ff99","correct":-1,"choice":32,"rt":502.5949999690056,"accuracy":0,"outcome":"+1","keys":[2003.110000048764],"total_keys":1,"block":1,"trial":56,"stimulus":7,"robot":2,"valence":"win","action":"no-go","sham":0,"trial_type":"pit-trial","trial_index":88,"time_elapsed":411317,"internal_node_id":"0.0-57.0","task_version":"battery-v0.2"},{"rune":"E","rune_set":"elianto","hex":"#3366ff99","correct":32,"choice":32,"rt":503.5850000567734,"accuracy":1,"outcome":"+10","keys":[2004.010000033304],"total_keys":1,"block":1,"trial":57,"stimulus":4,"robot":1,"valence":"win","action":"go","sham":0,"trial_type":"pit-trial","trial_index":89,"time_elapsed":414525,"internal_node_id":"0.0-58.0","task_version":"battery-v0.2"},{"rune":"S","rune_set":"elianto","hex":"#f73b6a7A","correct":-1,"choice":-1,"rt":-1,"accuracy":1,"outcome":"-1","keys":[],"total_keys":0,"block":1,"trial":58,"stimulus":6,"robot":4,"valence":"lose","action":"no-go","sham":0,"trial_type":"pit-trial","trial_index":90,"time_elapsed":418533,"internal_node_id":"0.0-59.0","task_version":"battery-v0.2"},{"rune":"W","rune_set":"elianto","hex":"#f73b6a7A","correct":32,"choice":32,"rt":759.3149999156594,"accuracy":1,"outcome":"-10","keys":[2260.6549999909475],"total_keys":1,"block":1,"trial":59,"stimulus":5,"robot":3,"valence":"lose","action":"go","sham":1,"trial_type":"pit-trial","trial_index":91,"time_elapsed":421998,"internal_node_id":"0.0-60.0","task_version":"battery-v0.2"},{"rune":"P","rune_set":"elianto","hex":"#3366ff99","correct":-1,"choice":32,"rt":519.4950000150129,"accuracy":0,"outcome":"+1","keys":[2020.0000000186265],"total_keys":1,"block":1,"trial":60,"stimulus":7,"robot":2,"valence":"win","action":"no-go","sham":0,"trial_type":"pit-trial","trial_index":92,"time_elapsed":425223,"internal_node_id":"0.0-61.0","task_version":"battery-v0.2"},{"rune":"W","rune_set":"elianto","hex":"#f73b6a7A","correct":32,"choice":-1,"rt":-1,"accuracy":0,"outcome":"-10","keys":[],"total_keys":0,"block":1,"trial":61,"stimulus":5,"robot":3,"valence":"lose","action":"go","sham":0,"trial_type":"pit-trial","trial_index":93,"time_elapsed":429228,"internal_node_id":"0.0-62.0","task_version":"battery-v0.2"},{"rune":"S","rune_set":"elianto","hex":"#f73b6a7A","correct":-1,"choice":-1,"rt":-1,"accuracy":1,"outcome":"-1","keys":[],"total_keys":0,"block":1,"trial":62,"stimulus":6,"robot":4,"valence":"lose","action":"no-go","sham":0,"trial_type":"pit-trial","trial_index":94,"time_elapsed":433233,"internal_node_id":"0.0-63.0","task_version":"battery-v0.2"},{"rune":"E","rune_set":"elianto","hex":"#3366ff99","correct":32,"choice":32,"rt":642.2550000716001,"accuracy":1,"outcome":"+1","keys":[2144.384999992326],"total_keys":1,"block":1,"trial":63,"stimulus":4,"robot":1,"valence":"win","action":"go","sham":1,"trial_type":"pit-trial","trial_index":95,"time_elapsed":436583,"internal_node_id":"0.0-64.0","task_version":"battery-v0.2"},{"rune":"P","rune_set":"elianto","hex":"#3366ff99","correct":-1,"choice":-1,"rt":-1,"accuracy":1,"outcome":"+1","keys":[],"total_keys":0,"block":1,"trial":64,"stimulus":7,"robot":2,"valence":"win","action":"no-go","sham":1,"trial_type":"pit-trial","trial_index":96,"time_elapsed":440586,"internal_node_id":"0.0-65.0","task_version":"battery-v0.2"},{"rune":"W","rune_set":"elianto","hex":"#f73b6a7A","correct":32,"choice":32,"rt":1186.8850000901148,"accuracy":1,"outcome":"-1","keys":[2688.8349999208003],"total_keys":1,"block":1,"trial":65,"stimulus":5,"robot":3,"valence":"lose","action":"go","sham":0,"trial_type":"pit-trial","trial_index":97,"time_elapsed":444478,"internal_node_id":"0.0-66.0","task_version":"battery-v0.2"},{"rune":"E","rune_set":"elianto","hex":"#3366ff99","correct":32,"choice":32,"rt":982.0049999980256,"accuracy":1,"outcome":"+10","keys":[2482.5749999145046],"total_keys":1,"block":1,"trial":66,"stimulus":4,"robot":1,"valence":"win","action":"go","sham":0,"trial_type":"pit-trial","trial_index":98,"time_elapsed":448166,"internal_node_id":"0.0-67.0","task_version":"battery-v0.2"},{"rune":"P","rune_set":"elianto","hex":"#3366ff99","correct":-1,"choice":-1,"rt":-1,"accuracy":1,"outcome":"+10","keys":[],"total_keys":0,"block":1,"trial":67,"stimulus":7,"robot":2,"valence":"win","action":"no-go","sham":0,"trial_type":"pit-trial","trial_index":99,"time_elapsed":452171,"internal_node_id":"0.0-68.0","task_version":"battery-v0.2"},{"rune":"S","rune_set":"elianto","hex":"#f73b6a7A","correct":-1,"choice":-1,"rt":-1,"accuracy":1,"outcome":"-1","keys":[],"total_keys":0,"block":1,"trial":68,"stimulus":6,"robot":4,"valence":"lose","action":"no-go","sham":0,"trial_type":"pit-trial","trial_index":100,"time_elapsed":456180,"internal_node_id":"0.0-69.0","task_version":"battery-v0.2"},{"rune":"W","rune_set":"elianto","hex":"#f73b6a7A","correct":32,"choice":-1,"rt":-1,"accuracy":0,"outcome":"-10","keys":[],"total_keys":0,"block":1,"trial":69,"stimulus":5,"robot":3,"valence":"lose","action":"go","sham":0,"trial_type":"pit-trial","trial_index":101,"time_elapsed":460186,"internal_node_id":"0.0-70.0","task_version":"battery-v0.2"},{"rune":"S","rune_set":"elianto","hex":"#f73b6a7A","correct":-1,"choice":-1,"rt":-1,"accuracy":1,"outcome":"-10","keys":[],"total_keys":0,"block":1,"trial":70,"stimulus":6,"robot":4,"valence":"lose","action":"no-go","sham":1,"trial_type":"pit-trial","trial_index":102,"time_elapsed":464192,"internal_node_id":"0.0-71.0","task_version":"battery-v0.2"},{"rune":"P","rune_set":"elianto","hex":"#3366ff99","correct":-1,"choice":-1,"rt":-1,"accuracy":1,"outcome":"+10","keys":[],"total_keys":0,"block":1,"trial":71,"stimulus":7,"robot":2,"valence":"win","action":"no-go","sham":0,"trial_type":"pit-trial","trial_index":103,"time_elapsed":468197,"internal_node_id":"0.0-72.0","task_version":"battery-v0.2"},{"rune":"E","rune_set":"elianto","hex":"#3366ff99","correct":32,"choice":32,"rt":815.7949999440461,"accuracy":1,"outcome":"+1","keys":[2316.0899999784306],"total_keys":1,"block":1,"trial":72,"stimulus":4,"robot":1,"valence":"win","action":"go","sham":1,"trial_type":"pit-trial","trial_index":104,"time_elapsed":471718,"internal_node_id":"0.0-73.0","task_version":"battery-v0.2"},{"rune":"G","rune_set":"elianto","hex":"#f73b6a7A","correct":32,"choice":-1,"rt":-1,"accuracy":0,"outcome":"-10","keys":[],"total_keys":0,"block":1,"trial":73,"stimulus":8,"robot":3,"valence":"lose","action":"go","sham":0,"trial_type":"pit-trial","trial_index":105,"time_elapsed":475723,"internal_node_id":"0.0-74.0","task_version":"battery-v0.2"},{"rune":"S","rune_set":"elianto","hex":"#f73b6a7A","correct":-1,"choice":-1,"rt":-1,"accuracy":1,"outcome":"-1","keys":[],"total_keys":0,"block":1,"trial":74,"stimulus":6,"robot":4,"valence":"lose","action":"no-go","sham":0,"trial_type":"pit-trial","trial_index":106,"time_elapsed":479728,"internal_node_id":"0.0-75.0","task_version":"battery-v0.2"},{"rune":"P","rune_set":"elianto","hex":"#3366ff99","correct":-1,"choice":-1,"rt":-1,"accuracy":1,"outcome":"+10","keys":[],"total_keys":0,"block":1,"trial":75,"stimulus":7,"robot":2,"valence":"win","action":"no-go","sham":0,"trial_type":"pit-trial","trial_index":107,"time_elapsed":483735,"internal_node_id":"0.0-76.0","task_version":"battery-v0.2"},{"rune":"E","rune_set":"elianto","hex":"#3366ff99","correct":32,"choice":32,"rt":972.8399999439716,"accuracy":1,"outcome":"+10","keys":[2474.0900000324473],"total_keys":1,"block":1,"trial":76,"stimulus":4,"robot":1,"valence":"win","action":"go","sham":0,"trial_type":"pit-trial","trial_index":108,"time_elapsed":487414,"internal_node_id":"0.0-77.0","task_version":"battery-v0.2"},{"rune":"P","rune_set":"elianto","hex":"#3366ff99","correct":-1,"choice":-1,"rt":-1,"accuracy":1,"outcome":"+10","keys":[],"total_keys":0,"block":1,"trial":77,"stimulus":7,"robot":2,"valence":"win","action":"no-go","sham":0,"trial_type":"pit-trial","trial_index":109,"time_elapsed":491419,"internal_node_id":"0.0-78.0","task_version":"battery-v0.2"},{"rune":"G","rune_set":"elianto","hex":"#f73b6a7A","correct":32,"choice":-1,"rt":-1,"accuracy":0,"outcome":"-10","keys":[],"total_keys":0,"block":1,"trial":78,"stimulus":8,"robot":3,"valence":"lose","action":"go","sham":0,"trial_type":"pit-trial","trial_index":110,"time_elapsed":495422,"internal_node_id":"0.0-79.0","task_version":"battery-v0.2"},{"rune":"E","rune_set":"elianto","hex":"#3366ff99","correct":32,"choice":32,"rt":783.1250000745058,"accuracy":1,"outcome":"+10","keys":[2283.2300000591204],"total_keys":1,"block":1,"trial":79,"stimulus":4,"robot":1,"valence":"win","action":"go","sham":0,"trial_type":"pit-trial","trial_index":111,"time_elapsed":498910,"internal_node_id":"0.0-80.0","task_version":"battery-v0.2"},{"rune":"S","rune_set":"elianto","hex":"#f73b6a7A","correct":-1,"choice":-1,"rt":-1,"accuracy":1,"outcome":"-10","keys":[],"total_keys":0,"block":1,"trial":80,"stimulus":6,"robot":4,"valence":"lose","action":"no-go","sham":1,"trial_type":"pit-trial","trial_index":112,"time_elapsed":502915,"internal_node_id":"0.0-81.0","task_version":"battery-v0.2"},{"rune":"A","rune_set":"elianto","hex":"#f73b6a7A","correct":32,"choice":32,"rt":825.1600000075996,"accuracy":1,"outcome":"-1","keys":[2325.469999923371],"total_keys":1,"block":1,"trial":81,"stimulus":9,"robot":3,"valence":"lose","action":"go","sham":0,"trial_type":"pit-trial","trial_index":113,"time_elapsed":506445,"internal_node_id":"0.0-82.0","task_version":"battery-v0.2"},{"rune":"S","rune_set":"elianto","hex":"#f73b6a7A","correct":-1,"choice":-1,"rt":-1,"accuracy":1,"outcome":"-1","keys":[],"total_keys":0,"block":1,"trial":82,"stimulus":6,"robot":4,"valence":"lose","action":"no-go","sham":0,"trial_type":"pit-trial","trial_index":114,"time_elapsed":510451,"internal_node_id":"0.0-83.0","task_version":"battery-v0.2"},{"rune":"G","rune_set":"elianto","hex":"#f73b6a7A","correct":32,"choice":-1,"rt":-1,"accuracy":0,"outcome":"-10","keys":[],"total_keys":0,"block":1,"trial":83,"stimulus":8,"robot":3,"valence":"lose","action":"go","sham":0,"trial_type":"pit-trial","trial_index":115,"time_elapsed":514457,"internal_node_id":"0.0-84.0","task_version":"battery-v0.2"},{"rune":"P","rune_set":"elianto","hex":"#3366ff99","correct":-1,"choice":-1,"rt":-1,"accuracy":1,"outcome":"+10","keys":[],"total_keys":0,"block":1,"trial":84,"stimulus":7,"robot":2,"valence":"win","action":"no-go","sham":0,"trial_type":"pit-trial","trial_index":116,"time_elapsed":518464,"internal_node_id":"0.0-85.0","task_version":"battery-v0.2"},{"rune":"P","rune_set":"elianto","hex":"#3366ff99","correct":-1,"choice":-1,"rt":-1,"accuracy":1,"outcome":"+10","keys":[],"total_keys":0,"block":1,"trial":85,"stimulus":7,"robot":2,"valence":"win","action":"no-go","sham":0,"trial_type":"pit-trial","trial_index":117,"time_elapsed":522469,"internal_node_id":"0.0-86.0","task_version":"battery-v0.2"},{"rune":"S","rune_set":"elianto","hex":"#f73b6a7A","correct":-1,"choice":-1,"rt":-1,"accuracy":1,"outcome":"-1","keys":[],"total_keys":0,"block":1,"trial":86,"stimulus":6,"robot":4,"valence":"lose","action":"no-go","sham":0,"trial_type":"pit-trial","trial_index":118,"time_elapsed":526475,"internal_node_id":"0.0-87.0","task_version":"battery-v0.2"},{"rune":"A","rune_set":"elianto","hex":"#f73b6a7A","correct":32,"choice":32,"rt":841.4149999152869,"accuracy":1,"outcome":"-1","keys":[2341.755000059493],"total_keys":1,"block":1,"trial":87,"stimulus":9,"robot":3,"valence":"lose","action":"go","sham":0,"trial_type":"pit-trial","trial_index":119,"time_elapsed":530022,"internal_node_id":"0.0-88.0","task_version":"battery-v0.2"},{"rune":"G","rune_set":"elianto","hex":"#f73b6a7A","correct":32,"choice":32,"rt":933.5750000318512,"accuracy":1,"outcome":"-1","keys":[2434.1349999886006],"total_keys":1,"block":1,"trial":88,"stimulus":8,"robot":3,"valence":"lose","action":"go","sham":0,"trial_type":"pit-trial","trial_index":120,"time_elapsed":533661,"internal_node_id":"0.0-89.0","task_version":"battery-v0.2"},{"rune":"G","rune_set":"elianto","hex":"#f73b6a7A","correct":32,"choice":32,"rt":476.73500003293157,"accuracy":1,"outcome":"-1","keys":[1978.999999933876],"total_keys":1,"block":1,"trial":89,"stimulus":8,"robot":3,"valence":"lose","action":"go","sham":0,"trial_type":"pit-trial","trial_index":121,"time_elapsed":536845,"internal_node_id":"0.0-90.0","task_version":"battery-v0.2"},{"rune":"A","rune_set":"elianto","hex":"#f73b6a7A","correct":32,"choice":32,"rt":654.6699999598786,"accuracy":1,"outcome":"-10","keys":[2155.0399999832734],"total_keys":1,"block":1,"trial":90,"stimulus":9,"robot":3,"valence":"lose","action":"go","sham":1,"trial_type":"pit-trial","trial_index":122,"time_elapsed":540204,"internal_node_id":"0.0-91.0","task_version":"battery-v0.2"},{"rune":"U","rune_set":"elianto","hex":"#3366ff99","correct":-1,"choice":32,"rt":623.7950000213459,"accuracy":0,"outcome":"+1","keys":[2124.2899999488145],"total_keys":1,"block":1,"trial":91,"stimulus":11,"robot":2,"valence":"win","action":"no-go","sham":0,"trial_type":"pit-trial","trial_index":123,"time_elapsed":543533,"internal_node_id":"0.0-92.0","task_version":"battery-v0.2"},{"rune":"L","rune_set":"elianto","hex":"#f73b6a7A","correct":-1,"choice":32,"rt":1286.9100000243634,"accuracy":0,"outcome":"-10","keys":[2787.6750000286847],"total_keys":1,"block":1,"trial":92,"stimulus":10,"robot":4,"valence":"lose","action":"no-go","sham":0,"trial_type":"pit-trial","trial_index":124,"time_elapsed":547525,"internal_node_id":"0.0-93.0","task_version":"battery-v0.2"},{"rune":"G","rune_set":"elianto","hex":"#f73b6a7A","correct":32,"choice":32,"rt":1285.9699999680743,"accuracy":1,"outcome":"-1","keys":[2787.2600000118837],"total_keys":1,"block":1,"trial":93,"stimulus":8,"robot":3,"valence":"lose","action":"go","sham":0,"trial_type":"pit-trial","trial_index":125,"time_elapsed":551518,"internal_node_id":"0.0-94.0","task_version":"battery-v0.2"},{"rune":"L","rune_set":"elianto","hex":"#f73b6a7A","correct":-1,"choice":-1,"rt":-1,"accuracy":1,"outcome":"-1","keys":[],"total_keys":0,"block":1,"trial":94,"stimulus":10,"robot":4,"valence":"lose","action":"no-go","sham":0,"trial_type":"pit-trial","trial_index":126,"time_elapsed":555523,"internal_node_id":"0.0-95.0","task_version":"battery-v0.2"},{"rune":"A","rune_set":"elianto","hex":"#f73b6a7A","correct":32,"choice":32,"rt":823.7150000641122,"accuracy":1,"outcome":"-1","keys":[2324.834999977611],"total_keys":1,"block":1,"trial":95,"stimulus":9,"robot":3,"valence":"lose","action":"go","sham":0,"trial_type":"pit-trial","trial_index":127,"time_elapsed":559053,"internal_node_id":"0.0-96.0","task_version":"battery-v0.2"},{"rune":"U","rune_set":"elianto","hex":"#3366ff99","correct":-1,"choice":-1,"rt":-1,"accuracy":1,"outcome":"+10","keys":[2957.9699999885634],"total_keys":1,"block":1,"trial":96,"stimulus":11,"robot":2,"valence":"win","action":"no-go","sham":0,"trial_type":"pit-trial","trial_index":128,"time_elapsed":563057,"internal_node_id":"0.0-97.0","task_version":"battery-v0.2"},{"rune":"U","rune_set":"elianto","hex":"#3366ff99","correct":-1,"choice":32,"rt":620.5799999879673,"accuracy":0,"outcome":"+1","keys":[2121.099999989383],"total_keys":1,"block":1,"trial":97,"stimulus":11,"robot":2,"valence":"win","action":"no-go","sham":0,"trial_type":"pit-trial","trial_index":129,"time_elapsed":566380,"internal_node_id":"0.0-98.0","task_version":"battery-v0.2"},{"rune":"L","rune_set":"elianto","hex":"#f73b6a7A","correct":-1,"choice":-1,"rt":-1,"accuracy":1,"outcome":"-1","keys":[],"total_keys":0,"block":1,"trial":98,"stimulus":10,"robot":4,"valence":"lose","action":"no-go","sham":0,"trial_type":"pit-trial","trial_index":130,"time_elapsed":570382,"internal_node_id":"0.0-99.0","task_version":"battery-v0.2"},{"rune":"G","rune_set":"elianto","hex":"#f73b6a7A","correct":32,"choice":32,"rt":932.9249999718741,"accuracy":1,"outcome":"-1","keys":[2434.4799999380484],"total_keys":1,"block":1,"trial":99,"stimulus":8,"robot":3,"valence":"lose","action":"go","sham":0,"trial_type":"pit-trial","trial_index":131,"time_elapsed":574022,"internal_node_id":"0.0-100.0","task_version":"battery-v0.2"},{"rune":"A","rune_set":"elianto","hex":"#f73b6a7A","correct":32,"choice":32,"rt":765.2849999722093,"accuracy":1,"outcome":"-1","keys":[2266.0749999340624],"total_keys":1,"block":1,"trial":100,"stimulus":9,"robot":3,"valence":"lose","action":"go","sham":0,"trial_type":"pit-trial","trial_index":132,"time_elapsed":577493,"internal_node_id":"0.0-101.0","task_version":"battery-v0.2"},{"rune":"G","rune_set":"elianto","hex":"#f73b6a7A","correct":32,"choice":32,"rt":589.2849999945611,"accuracy":1,"outcome":"-1","keys":[2090.6700000632554],"total_keys":1,"block":1,"trial":101,"stimulus":8,"robot":3,"valence":"lose","action":"go","sham":0,"trial_type":"pit-trial","trial_index":133,"time_elapsed":580788,"internal_node_id":"0.0-102.0","task_version":"battery-v0.2"},{"rune":"A","rune_set":"elianto","hex":"#f73b6a7A","correct":32,"choice":32,"rt":418.474999954924,"accuracy":1,"outcome":"-1","keys":[1924.254999961704],"total_keys":1,"block":1,"trial":102,"stimulus":9,"robot":3,"valence":"lose","action":"go","sham":0,"trial_type":"pit-trial","trial_index":134,"time_elapsed":583917,"internal_node_id":"0.0-103.0","task_version":"battery-v0.2"},{"rune":"U","rune_set":"elianto","hex":"#3366ff99","correct":-1,"choice":-1,"rt":-1,"accuracy":1,"outcome":"+10","keys":[2819.5300000952557],"total_keys":1,"block":1,"trial":103,"stimulus":11,"robot":2,"valence":"win","action":"no-go","sham":0,"trial_type":"pit-trial","trial_index":135,"time_elapsed":587922,"internal_node_id":"0.0-104.0","task_version":"battery-v0.2"},{"rune":"L","rune_set":"elianto","hex":"#f73b6a7A","correct":-1,"choice":-1,"rt":-1,"accuracy":1,"outcome":"-10","keys":[],"total_keys":0,"block":1,"trial":104,"stimulus":10,"robot":4,"valence":"lose","action":"no-go","sham":1,"trial_type":"pit-trial","trial_index":136,"time_elapsed":591928,"internal_node_id":"0.0-105.0","task_version":"battery-v0.2"},{"rune":"A","rune_set":"elianto","hex":"#f73b6a7A","correct":32,"choice":32,"rt":410.83499998785555,"accuracy":1,"outcome":"-1","keys":[1911.445000092499],"total_keys":1,"block":1,"trial":105,"stimulus":9,"robot":3,"valence":"lose","action":"go","sham":0,"trial_type":"pit-trial","trial_index":137,"time_elapsed":595044,"internal_node_id":"0.0-106.0","task_version":"battery-v0.2"},{"rune":"L","rune_set":"elianto","hex":"#f73b6a7A","correct":-1,"choice":32,"rt":567.9950000485405,"accuracy":0,"outcome":"-10","keys":[2068.070000037551],"total_keys":1,"block":1,"trial":106,"stimulus":10,"robot":4,"valence":"lose","action":"no-go","sham":0,"trial_type":"pit-trial","trial_index":138,"time_elapsed":598316,"internal_node_id":"0.0-107.0","task_version":"battery-v0.2"},{"rune":"U","rune_set":"elianto","hex":"#3366ff99","correct":-1,"choice":32,"rt":991.8250000337139,"accuracy":0,"outcome":"+1","keys":[2492.050000000745],"total_keys":1,"block":1,"trial":107,"stimulus":11,"robot":2,"valence":"win","action":"no-go","sham":0,"trial_type":"pit-trial","trial_index":139,"time_elapsed":602013,"internal_node_id":"0.0-108.0","task_version":"battery-v0.2"},{"rune":"G","rune_set":"elianto","hex":"#f73b6a7A","correct":32,"choice":32,"rt":701.9850000506267,"accuracy":1,"outcome":"-1","keys":[2202.3300000000745],"total_keys":1,"block":1,"trial":108,"stimulus":8,"robot":3,"valence":"lose","action":"go","sham":0,"trial_type":"pit-trial","trial_index":140,"time_elapsed":605420,"internal_node_id":"0.0-109.0","task_version":"battery-v0.2"},{"rune":"G","rune_set":"elianto","hex":"#f73b6a7A","correct":32,"choice":32,"rt":648.0350000783801,"accuracy":1,"outcome":"-1","keys":[2148.410000023432],"total_keys":1,"block":1,"trial":109,"stimulus":8,"robot":3,"valence":"lose","action":"go","sham":0,"trial_type":"pit-trial","trial_index":141,"time_elapsed":608774,"internal_node_id":"0.0-110.0","task_version":"battery-v0.2"},{"rune":"A","rune_set":"elianto","hex":"#f73b6a7A","correct":32,"choice":32,"rt":477.51499991863966,"accuracy":1,"outcome":"-1","keys":[1977.9799999669194],"total_keys":1,"block":1,"trial":110,"stimulus":9,"robot":3,"valence":"lose","action":"go","sham":0,"trial_type":"pit-trial","trial_index":142,"time_elapsed":611957,"internal_node_id":"0.0-111.0","task_version":"battery-v0.2"},{"rune":"L","rune_set":"elianto","hex":"#f73b6a7A","correct":-1,"choice":32,"rt":902.8599999146536,"accuracy":0,"outcome":"-10","keys":[2403.2950000837445],"total_keys":1,"block":1,"trial":111,"stimulus":10,"robot":4,"valence":"lose","action":"no-go","sham":0,"trial_type":"pit-trial","trial_index":143,"time_elapsed":615565,"internal_node_id":"0.0-112.0","task_version":"battery-v0.2"},{"rune":"U","rune_set":"elianto","hex":"#3366ff99","correct":-1,"choice":-1,"rt":-1,"accuracy":1,"outcome":"+10","keys":[],"total_keys":0,"block":1,"trial":112,"stimulus":11,"robot":2,"valence":"win","action":"no-go","sham":0,"trial_type":"pit-trial","trial_index":144,"time_elapsed":619569,"internal_node_id":"0.0-113.0","task_version":"battery-v0.2"},{"rune":"U","rune_set":"elianto","hex":"#3366ff99","correct":-1,"choice":-1,"rt":-1,"accuracy":1,"outcome":"+10","keys":[],"total_keys":0,"block":1,"trial":113,"stimulus":11,"robot":2,"valence":"win","action":"no-go","sham":0,"trial_type":"pit-trial","trial_index":145,"time_elapsed":623576,"internal_node_id":"0.0-114.0","task_version":"battery-v0.2"},{"rune":"L","rune_set":"elianto","hex":"#f73b6a7A","correct":-1,"choice":32,"rt":635.7049999060109,"accuracy":0,"outcome":"-10","keys":[2137.2999999439344],"total_keys":1,"block":1,"trial":114,"stimulus":10,"robot":4,"valence":"lose","action":"no-go","sham":0,"trial_type":"pit-trial","trial_index":146,"time_elapsed":626918,"internal_node_id":"0.0-115.0","task_version":"battery-v0.2"},{"rune":"G","rune_set":"elianto","hex":"#f73b6a7A","correct":32,"choice":32,"rt":734.7600000211969,"accuracy":1,"outcome":"-1","keys":[2235.205000033602],"total_keys":1,"block":1,"trial":115,"stimulus":8,"robot":3,"valence":"lose","action":"go","sham":0,"trial_type":"pit-trial","trial_index":147,"time_elapsed":630359,"internal_node_id":"0.0-116.0","task_version":"battery-v0.2"},{"rune":"A","rune_set":"elianto","hex":"#f73b6a7A","correct":32,"choice":32,"rt":493.29000001307577,"accuracy":1,"outcome":"-10","keys":[1994.1999999573454],"total_keys":1,"block":1,"trial":116,"stimulus":9,"robot":3,"valence":"lose","action":"go","sham":1,"trial_type":"pit-trial","trial_index":148,"time_elapsed":633559,"internal_node_id":"0.0-117.0","task_version":"battery-v0.2"},{"rune":"G","rune_set":"elianto","hex":"#f73b6a7A","correct":32,"choice":32,"rt":469.5649999193847,"accuracy":1,"outcome":"-1","keys":[1970.0050000101328],"total_keys":1,"block":1,"trial":117,"stimulus":8,"robot":3,"valence":"lose","action":"go","sham":0,"trial_type":"pit-trial","trial_index":149,"time_elapsed":636734,"internal_node_id":"0.0-118.0","task_version":"battery-v0.2"},{"rune":"U","rune_set":"elianto","hex":"#3366ff99","correct":-1,"choice":-1,"rt":-1,"accuracy":1,"outcome":"+10","keys":[],"total_keys":0,"block":1,"trial":118,"stimulus":11,"robot":2,"valence":"win","action":"no-go","sham":0,"trial_type":"pit-trial","trial_index":150,"time_elapsed":640739,"internal_node_id":"0.0-119.0","task_version":"battery-v0.2"},{"rune":"A","rune_set":"elianto","hex":"#f73b6a7A","correct":32,"choice":32,"rt":527.5550000369549,"accuracy":1,"outcome":"-10","keys":[2029.0149999782443],"total_keys":1,"block":1,"trial":119,"stimulus":9,"robot":3,"valence":"lose","action":"go","sham":1,"trial_type":"pit-trial","trial_index":151,"time_elapsed":643980,"internal_node_id":"0.0-120.0","task_version":"battery-v0.2"},{"rune":"L","rune_set":"elianto","hex":"#f73b6a7A","correct":-1,"choice":32,"rt":607.9450000543147,"accuracy":0,"outcome":"-10","keys":[2108.600000035949],"total_keys":1,"block":1,"trial":120,"stimulus":10,"robot":4,"valence":"lose","action":"no-go","sham":0,"trial_type":"pit-trial","trial_index":152,"time_elapsed":647292,"internal_node_id":"0.0-121.0","task_version":"battery-v0.2"},{"view_history":"[{\"page_index\":0,\"viewing_time\":3210.465000011027},{\"page_index\":1,\"viewing_time\":1125.98499993328}]","rt":4336.754999938421,"trial_type":"pit-instructions","trial_index":153,"time_elapsed":651630,"internal_node_id":"0.0-122.0","task_version":"battery-v0.2"},{"rune":"R","rune_set":"elianto","hex":"#f73b6a7A","correct":-1,"choice":-1,"rt":-1,"accuracy":1,"outcome":"-1","keys":[],"total_keys":0,"block":2,"trial":121,"stimulus":1,"robot":4,"valence":"lose","action":"no-go","sham":0,"trial_type":"pit-trial","trial_index":154,"time_elapsed":655635,"internal_node_id":"0.0-123.0","task_version":"battery-v0.2"},{"rune":"Y","rune_set":"elianto","hex":"#3366ff99","correct":32,"choice":32,"rt":488.965000025928,"accuracy":1,"outcome":"+10","keys":[1989.659999962896],"total_keys":1,"block":2,"trial":122,"stimulus":2,"robot":1,"valence":"win","action":"go","sham":0,"trial_type":"pit-trial","trial_index":155,"time_elapsed":658829,"internal_node_id":"0.0-124.0","task_version":"battery-v0.2"},{"rune":"H","rune_set":"elianto","hex":"#3366ff99","correct":-1,"choice":32,"rt":1039.0700000571087,"accuracy":0,"outcome":"+1","keys":[2539.244999992661],"total_keys":1,"block":2,"trial":123,"stimulus":3,"robot":2,"valence":"win","action":"no-go","sham":0,"trial_type":"pit-trial","trial_index":156,"time_elapsed":662574,"internal_node_id":"0.0-125.0","task_version":"battery-v0.2"},{"rune":"M","rune_set":"elianto","hex":"#f73b6a7A","correct":-1,"choice":-1,"rt":-1,"accuracy":1,"outcome":"-1","keys":[],"total_keys":0,"block":2,"trial":124,"stimulus":0,"robot":4,"valence":"lose","action":"no-go","sham":0,"trial_type":"pit-trial","trial_index":157,"time_elapsed":666578,"internal_node_id":"0.0-126.0","task_version":"battery-v0.2"},{"rune":"H","rune_set":"elianto","hex":"#3366ff99","correct":-1,"choice":32,"rt":1097.4500000011176,"accuracy":0,"outcome":"+1","keys":[2597.7149999234825],"total_keys":1,"block":2,"trial":125,"stimulus":3,"robot":2,"valence":"win","action":"no-go","sham":0,"trial_type":"pit-trial","trial_index":158,"time_elapsed":670382,"internal_node_id":"0.0-127.0","task_version":"battery-v0.2"},{"rune":"M","rune_set":"elianto","hex":"#f73b6a7A","correct":-1,"choice":32,"rt":1085.6100000673905,"accuracy":0,"outcome":"-10","keys":[2586.555000045337],"total_keys":1,"block":2,"trial":126,"stimulus":0,"robot":4,"valence":"lose","action":"no-go","sham":0,"trial_type":"pit-trial","trial_index":159,"time_elapsed":674173,"internal_node_id":"0.0-128.0","task_version":"battery-v0.2"},{"rune":"Y","rune_set":"elianto","hex":"#3366ff99","correct":32,"choice":32,"rt":998.3049998991191,"accuracy":1,"outcome":"+10","keys":[2499.504999956116],"total_keys":1,"block":2,"trial":127,"stimulus":2,"robot":1,"valence":"win","action":"go","sham":0,"trial_type":"pit-trial","trial_index":160,"time_elapsed":677877,"internal_node_id":"0.0-129.0","task_version":"battery-v0.2"},{"rune":"R","rune_set":"elianto","hex":"#f73b6a7A","correct":-1,"choice":-1,"rt":-1,"accuracy":1,"outcome":"-10","keys":[],"total_keys":0,"block":2,"trial":128,"stimulus":1,"robot":4,"valence":"lose","action":"no-go","sham":1,"trial_type":"pit-trial","trial_index":161,"time_elapsed":681882,"internal_node_id":"0.0-130.0","task_version":"battery-v0.2"},{"rune":"H","rune_set":"elianto","hex":"#3366ff99","correct":-1,"choice":-1,"rt":-1,"accuracy":1,"outcome":"+10","keys":[],"total_keys":0,"block":2,"trial":129,"stimulus":3,"robot":2,"valence":"win","action":"no-go","sham":0,"trial_type":"pit-trial","trial_index":162,"time_elapsed":685887,"internal_node_id":"0.0-131.0","task_version":"battery-v0.2"},{"rune":"M","rune_set":"elianto","hex":"#f73b6a7A","correct":-1,"choice":-1,"rt":-1,"accuracy":1,"outcome":"-1","keys":[],"total_keys":0,"block":2,"trial":130,"stimulus":0,"robot":4,"valence":"lose","action":"no-go","sham":0,"trial_type":"pit-trial","trial_index":163,"time_elapsed":689892,"internal_node_id":"0.0-132.0","task_version":"battery-v0.2"},{"rune":"Y","rune_set":"elianto","hex":"#3366ff99","correct":32,"choice":32,"rt":856.5650000236928,"accuracy":1,"outcome":"+10","keys":[2356.75999999512],"total_keys":1,"block":2,"trial":131,"stimulus":2,"robot":1,"valence":"win","action":"go","sham":0,"trial_type":"pit-trial","trial_index":164,"time_elapsed":693455,"internal_node_id":"0.0-133.0","task_version":"battery-v0.2"},{"rune":"R","rune_set":"elianto","hex":"#f73b6a7A","correct":-1,"choice":-1,"rt":-1,"accuracy":1,"outcome":"-10","keys":[],"total_keys":0,"block":2,"trial":132,"stimulus":1,"robot":4,"valence":"lose","action":"no-go","sham":1,"trial_type":"pit-trial","trial_index":165,"time_elapsed":697461,"internal_node_id":"0.0-134.0","task_version":"battery-v0.2"},{"rune":"Y","rune_set":"elianto","hex":"#3366ff99","correct":32,"choice":32,"rt":1055.2499999757856,"accuracy":1,"outcome":"+10","keys":[2555.610000039451],"total_keys":1,"block":2,"trial":133,"stimulus":2,"robot":1,"valence":"win","action":"go","sham":0,"trial_type":"pit-trial","trial_index":166,"time_elapsed":701221,"internal_node_id":"0.0-135.0","task_version":"battery-v0.2"},{"rune":"M","rune_set":"elianto","hex":"#f73b6a7A","correct":-1,"choice":-1,"rt":-1,"accuracy":1,"outcome":"-10","keys":[],"total_keys":0,"block":2,"trial":134,"stimulus":0,"robot":4,"valence":"lose","action":"no-go","sham":1,"trial_type":"pit-trial","trial_index":167,"time_elapsed":705226,"internal_node_id":"0.0-136.0","task_version":"battery-v0.2"},{"rune":"H","rune_set":"elianto","hex":"#3366ff99","correct":-1,"choice":-1,"rt":-1,"accuracy":1,"outcome":"+10","keys":[],"total_keys":0,"block":2,"trial":135,"stimulus":3,"robot":2,"valence":"win","action":"no-go","sham":0,"trial_type":"pit-trial","trial_index":168,"time_elapsed":709231,"internal_node_id":"0.0-137.0","task_version":"battery-v0.2"},{"rune":"R","rune_set":"elianto","hex":"#f73b6a7A","correct":-1,"choice":-1,"rt":-1,"accuracy":1,"outcome":"-1","keys":[],"total_keys":0,"block":2,"trial":136,"stimulus":1,"robot":4,"valence":"lose","action":"no-go","sham":0,"trial_type":"pit-trial","trial_index":169,"time_elapsed":713237,"internal_node_id":"0.0-138.0","task_version":"battery-v0.2"},{"rune":"R","rune_set":"elianto","hex":"#f73b6a7A","correct":-1,"choice":-1,"rt":-1,"accuracy":1,"outcome":"-1","keys":[],"total_keys":0,"block":2,"trial":137,"stimulus":1,"robot":4,"valence":"lose","action":"no-go","sham":0,"trial_type":"pit-trial","trial_index":170,"time_elapsed":717242,"internal_node_id":"0.0-139.0","task_version":"battery-v0.2"},{"rune":"M","rune_set":"elianto","hex":"#f73b6a7A","correct":-1,"choice":32,"rt":793.2000000728294,"accuracy":0,"outcome":"-10","keys":[2294.5299999555573],"total_keys":1,"block":2,"trial":138,"stimulus":0,"robot":4,"valence":"lose","action":"no-go","sham":0,"trial_type":"pit-trial","trial_index":171,"time_elapsed":720742,"internal_node_id":"0.0-140.0","task_version":"battery-v0.2"},{"rune":"H","rune_set":"elianto","hex":"#3366ff99","correct":-1,"choice":-1,"rt":-1,"accuracy":1,"outcome":"+10","keys":[],"total_keys":0,"block":2,"trial":139,"stimulus":3,"robot":2,"valence":"win","action":"no-go","sham":0,"trial_type":"pit-trial","trial_index":172,"time_elapsed":724747,"internal_node_id":"0.0-141.0","task_version":"battery-v0.2"},{"rune":"Y","rune_set":"elianto","hex":"#3366ff99","correct":32,"choice":32,"rt":624.3549999780953,"accuracy":1,"outcome":"+1","keys":[2125.27499999851],"total_keys":1,"block":2,"trial":140,"stimulus":2,"robot":1,"valence":"win","action":"go","sham":1,"trial_type":"pit-trial","trial_index":173,"time_elapsed":728077,"internal_node_id":"0.0-142.0","task_version":"battery-v0.2"},{"rune":"H","rune_set":"elianto","hex":"#3366ff99","correct":-1,"choice":-1,"rt":-1,"accuracy":1,"outcome":"+10","keys":[],"total_keys":0,"block":2,"trial":141,"stimulus":3,"robot":2,"valence":"win","action":"no-go","sham":0,"trial_type":"pit-trial","trial_index":174,"time_elapsed":732084,"internal_node_id":"0.0-143.0","task_version":"battery-v0.2"},{"rune":"R","rune_set":"elianto","hex":"#f73b6a7A","correct":-1,"choice":32,"rt":1138.4749999269843,"accuracy":0,"outcome":"-1","keys":[2638.6500000953674],"total_keys":1,"block":2,"trial":142,"stimulus":1,"robot":4,"valence":"lose","action":"no-go","sham":1,"trial_type":"pit-trial","trial_index":175,"time_elapsed":735926,"internal_node_id":"0.0-144.0","task_version":"battery-v0.2"},{"rune":"M","rune_set":"elianto","hex":"#f73b6a7A","correct":-1,"choice":-1,"rt":-1,"accuracy":1,"outcome":"-1","keys":[],"total_keys":0,"block":2,"trial":143,"stimulus":0,"robot":4,"valence":"lose","action":"no-go","sham":0,"trial_type":"pit-trial","trial_index":176,"time_elapsed":739933,"internal_node_id":"0.0-145.0","task_version":"battery-v0.2"},{"rune":"Y","rune_set":"elianto","hex":"#3366ff99","correct":32,"choice":32,"rt":656.3350000651553,"accuracy":1,"outcome":"+10","keys":[2156.8500000284985],"total_keys":1,"block":2,"trial":144,"stimulus":2,"robot":1,"valence":"win","action":"go","sham":0,"trial_type":"pit-trial","trial_index":177,"time_elapsed":743294,"internal_node_id":"0.0-146.0","task_version":"battery-v0.2"},{"rune":"M","rune_set":"elianto","hex":"#f73b6a7A","correct":-1,"choice":-1,"rt":-1,"accuracy":1,"outcome":"-1","keys":[],"total_keys":0,"block":2,"trial":145,"stimulus":0,"robot":4,"valence":"lose","action":"no-go","sham":0,"trial_type":"pit-trial","trial_index":178,"time_elapsed":747302,"internal_node_id":"0.0-147.0","task_version":"battery-v0.2"},{"rune":"Y","rune_set":"elianto","hex":"#3366ff99","correct":32,"choice":32,"rt":566.5299999527633,"accuracy":1,"outcome":"+10","keys":[2067.1549999387935],"total_keys":1,"block":2,"trial":146,"stimulus":2,"robot":1,"valence":"win","action":"go","sham":0,"trial_type":"pit-trial","trial_index":179,"time_elapsed":750575,"internal_node_id":"0.0-148.0","task_version":"battery-v0.2"},{"rune":"R","rune_set":"elianto","hex":"#f73b6a7A","correct":-1,"choice":-1,"rt":-1,"accuracy":1,"outcome":"-1","keys":[],"total_keys":0,"block":2,"trial":147,"stimulus":1,"robot":4,"valence":"lose","action":"no-go","sham":0,"trial_type":"pit-trial","trial_index":180,"time_elapsed":754581,"internal_node_id":"0.0-149.0","task_version":"battery-v0.2"},{"rune":"H","rune_set":"elianto","hex":"#3366ff99","correct":-1,"choice":-1,"rt":-1,"accuracy":1,"outcome":"+10","keys":[],"total_keys":0,"block":2,"trial":148,"stimulus":3,"robot":2,"valence":"win","action":"no-go","sham":0,"trial_type":"pit-trial","trial_index":181,"time_elapsed":758588,"internal_node_id":"0.0-150.0","task_version":"battery-v0.2"},{"rune":"Y","rune_set":"elianto","hex":"#3366ff99","correct":32,"choice":32,"rt":784.929999965243,"accuracy":1,"outcome":"+10","keys":[2285.154999932274],"total_keys":1,"block":2,"trial":149,"stimulus":2,"robot":1,"valence":"win","action":"go","sham":0,"trial_type":"pit-trial","trial_index":182,"time_elapsed":762078,"internal_node_id":"0.0-151.0","task_version":"battery-v0.2"},{"rune":"R","rune_set":"elianto","hex":"#f73b6a7A","correct":-1,"choice":-1,"rt":-1,"accuracy":1,"outcome":"-1","keys":[],"total_keys":0,"block":2,"trial":150,"stimulus":1,"robot":4,"valence":"lose","action":"no-go","sham":0,"trial_type":"pit-trial","trial_index":183,"time_elapsed":766084,"internal_node_id":"0.0-152.0","task_version":"battery-v0.2"},{"rune":"M","rune_set":"elianto","hex":"#f73b6a7A","correct":-1,"choice":-1,"rt":-1,"accuracy":1,"outcome":"-10","keys":[],"total_keys":0,"block":2,"trial":151,"stimulus":0,"robot":4,"valence":"lose","action":"no-go","sham":1,"trial_type":"pit-trial","trial_index":184,"time_elapsed":770088,"internal_node_id":"0.0-153.0","task_version":"battery-v0.2"},{"rune":"H","rune_set":"elianto","hex":"#3366ff99","correct":-1,"choice":-1,"rt":-1,"accuracy":1,"outcome":"+10","keys":[],"total_keys":0,"block":2,"trial":152,"stimulus":3,"robot":2,"valence":"win","action":"no-go","sham":0,"trial_type":"pit-trial","trial_index":185,"time_elapsed":774092,"internal_node_id":"0.0-154.0","task_version":"battery-v0.2"},{"rune":"H","rune_set":"elianto","hex":"#3366ff99","correct":-1,"choice":-1,"rt":-1,"accuracy":1,"outcome":"+10","keys":[],"total_keys":0,"block":2,"trial":153,"stimulus":3,"robot":2,"valence":"win","action":"no-go","sham":0,"trial_type":"pit-trial","trial_index":186,"time_elapsed":778097,"internal_node_id":"0.0-155.0","task_version":"battery-v0.2"},{"rune":"Y","rune_set":"elianto","hex":"#3366ff99","correct":32,"choice":32,"rt":538.9499999582767,"accuracy":1,"outcome":"+10","keys":[2039.9299999698997],"total_keys":1,"block":2,"trial":154,"stimulus":2,"robot":1,"valence":"win","action":"go","sham":0,"trial_type":"pit-trial","trial_index":187,"time_elapsed":781343,"internal_node_id":"0.0-156.0","task_version":"battery-v0.2"},{"rune":"M","rune_set":"elianto","hex":"#f73b6a7A","correct":-1,"choice":32,"rt":733.7249999400228,"accuracy":0,"outcome":"-10","keys":[2234.114999999292],"total_keys":1,"block":2,"trial":155,"stimulus":0,"robot":4,"valence":"lose","action":"no-go","sham":0,"trial_type":"pit-trial","trial_index":188,"time_elapsed":784782,"internal_node_id":"0.0-157.0","task_version":"battery-v0.2"},{"rune":"Z","rune_set":"elianto","hex":"#f73b6a7A","correct":32,"choice":-1,"rt":-1,"accuracy":0,"outcome":"-10","keys":[],"total_keys":0,"block":2,"trial":156,"stimulus":4,"robot":3,"valence":"lose","action":"go","sham":0,"trial_type":"pit-trial","trial_index":189,"time_elapsed":788787,"internal_node_id":"0.0-158.0","task_version":"battery-v0.2"},{"rune":"M","rune_set":"elianto","hex":"#f73b6a7A","correct":-1,"choice":-1,"rt":-1,"accuracy":1,"outcome":"-1","keys":[],"total_keys":0,"block":2,"trial":157,"stimulus":0,"robot":4,"valence":"lose","action":"no-go","sham":0,"trial_type":"pit-trial","trial_index":190,"time_elapsed":792792,"internal_node_id":"0.0-159.0","task_version":"battery-v0.2"},{"rune":"H","rune_set":"elianto","hex":"#3366ff99","correct":-1,"choice":-1,"rt":-1,"accuracy":1,"outcome":"+10","keys":[],"total_keys":0,"block":2,"trial":158,"stimulus":3,"robot":2,"valence":"win","action":"no-go","sham":0,"trial_type":"pit-trial","trial_index":191,"time_elapsed":796797,"internal_node_id":"0.0-160.0","task_version":"battery-v0.2"},{"rune":"Y","rune_set":"elianto","hex":"#3366ff99","correct":32,"choice":32,"rt":390.80499997362494,"accuracy":1,"outcome":"+10","keys":[1892.3850000137463],"total_keys":1,"block":2,"trial":159,"stimulus":2,"robot":1,"valence":"win","action":"go","sham":0,"trial_type":"pit-trial","trial_index":192,"time_elapsed":799895,"internal_node_id":"0.0-161.0","task_version":"battery-v0.2"},{"rune":"Z","rune_set":"elianto","hex":"#f73b6a7A","correct":32,"choice":-1,"rt":-1,"accuracy":0,"outcome":"-10","keys":[],"total_keys":0,"block":2,"trial":160,"stimulus":4,"robot":3,"valence":"lose","action":"go","sham":0,"trial_type":"pit-trial","trial_index":193,"time_elapsed":803902,"internal_node_id":"0.0-162.0","task_version":"battery-v0.2"},{"rune":"M","rune_set":"elianto","hex":"#f73b6a7A","correct":-1,"choice":-1,"rt":-1,"accuracy":1,"outcome":"-10","keys":[],"total_keys":0,"block":2,"trial":161,"stimulus":0,"robot":4,"valence":"lose","action":"no-go","sham":1,"trial_type":"pit-trial","trial_index":194,"time_elapsed":807907,"internal_node_id":"0.0-163.0","task_version":"battery-v0.2"},{"rune":"C","rune_set":"elianto","hex":"#3366ff99","correct":-1,"choice":32,"rt":1144.5700000040233,"accuracy":0,"outcome":"+1","keys":[2646.0400000214577],"total_keys":1,"block":2,"trial":162,"stimulus":5,"robot":2,"valence":"win","action":"no-go","sham":0,"trial_type":"pit-trial","trial_index":195,"time_elapsed":811758,"internal_node_id":"0.0-164.0","task_version":"battery-v0.2"},{"rune":"B","rune_set":"elianto","hex":"#3366ff99","correct":32,"choice":-1,"rt":-1,"accuracy":0,"outcome":"+1","keys":[],"total_keys":0,"block":2,"trial":163,"stimulus":6,"robot":1,"valence":"win","action":"go","sham":0,"trial_type":"pit-trial","trial_index":196,"time_elapsed":815765,"internal_node_id":"0.0-165.0","task_version":"battery-v0.2"},{"rune":"Z","rune_set":"elianto","hex":"#f73b6a7A","correct":32,"choice":32,"rt":1256.1350000323728,"accuracy":1,"outcome":"-1","keys":[2756.5450000111014],"total_keys":1,"block":2,"trial":164,"stimulus":4,"robot":3,"valence":"lose","action":"go","sham":0,"trial_type":"pit-trial","trial_index":197,"time_elapsed":819726,"internal_node_id":"0.0-166.0","task_version":"battery-v0.2"},{"rune":"C","rune_set":"elianto","hex":"#3366ff99","correct":-1,"choice":32,"rt":958.5400000214577,"accuracy":0,"outcome":"+1","keys":[2458.530000061728],"total_keys":1,"block":2,"trial":165,"stimulus":5,"robot":2,"valence":"win","action":"no-go","sham":0,"trial_type":"pit-trial","trial_index":198,"time_elapsed":823389,"internal_node_id":"0.0-167.0","task_version":"battery-v0.2"},{"rune":"Z","rune_set":"elianto","hex":"#f73b6a7A","correct":32,"choice":32,"rt":845.9199999924749,"accuracy":1,"outcome":"-1","keys":[2346.735000028275],"total_keys":1,"block":2,"trial":166,"stimulus":4,"robot":3,"valence":"lose","action":"go","sham":0,"trial_type":"pit-trial","trial_index":199,"time_elapsed":826943,"internal_node_id":"0.0-168.0","task_version":"battery-v0.2"},{"rune":"M","rune_set":"elianto","hex":"#f73b6a7A","correct":-1,"choice":-1,"rt":-1,"accuracy":1,"outcome":"-1","keys":[],"total_keys":0,"block":2,"trial":167,"stimulus":0,"robot":4,"valence":"lose","action":"no-go","sham":0,"trial_type":"pit-trial","trial_index":200,"time_elapsed":830949,"internal_node_id":"0.0-169.0","task_version":"battery-v0.2"},{"rune":"B","rune_set":"elianto","hex":"#3366ff99","correct":32,"choice":-1,"rt":-1,"accuracy":0,"outcome":"+1","keys":[],"total_keys":0,"block":2,"trial":168,"stimulus":6,"robot":1,"valence":"win","action":"go","sham":0,"trial_type":"pit-trial","trial_index":201,"time_elapsed":834954,"internal_node_id":"0.0-170.0","task_version":"battery-v0.2"},{"rune":"Z","rune_set":"elianto","hex":"#f73b6a7A","correct":32,"choice":32,"rt":795.2100000111386,"accuracy":1,"outcome":"-1","keys":[2295.689999940805],"total_keys":1,"block":2,"trial":169,"stimulus":4,"robot":3,"valence":"lose","action":"go","sham":0,"trial_type":"pit-trial","trial_index":202,"time_elapsed":838454,"internal_node_id":"0.0-171.0","task_version":"battery-v0.2"},{"rune":"T","rune_set":"elianto","hex":"#f73b6a7A","correct":-1,"choice":-1,"rt":-1,"accuracy":1,"outcome":"-1","keys":[],"total_keys":0,"block":2,"trial":170,"stimulus":7,"robot":4,"valence":"lose","action":"no-go","sham":0,"trial_type":"pit-trial","trial_index":203,"time_elapsed":842458,"internal_node_id":"0.0-172.0","task_version":"battery-v0.2"},{"rune":"B","rune_set":"elianto","hex":"#3366ff99","correct":32,"choice":-1,"rt":-1,"accuracy":0,"outcome":"+1","keys":[],"total_keys":0,"block":2,"trial":171,"stimulus":6,"robot":1,"valence":"win","action":"go","sham":0,"trial_type":"pit-trial","trial_index":204,"time_elapsed":846463,"internal_node_id":"0.0-173.0","task_version":"battery-v0.2"},{"rune":"C","rune_set":"elianto","hex":"#3366ff99","correct":-1,"choice":-1,"rt":-1,"accuracy":1,"outcome":"+10","keys":[],"total_keys":0,"block":2,"trial":172,"stimulus":5,"robot":2,"valence":"win","action":"no-go","sham":0,"trial_type":"pit-trial","trial_index":205,"time_elapsed":850469,"internal_node_id":"0.0-174.0","task_version":"battery-v0.2"},{"rune":"Z","rune_set":"elianto","hex":"#f73b6a7A","correct":32,"choice":32,"rt":638.5800000280142,"accuracy":1,"outcome":"-1","keys":[2138.9499999349937],"total_keys":1,"block":2,"trial":173,"stimulus":4,"robot":3,"valence":"lose","action":"go","sham":0,"trial_type":"pit-trial","trial_index":206,"time_elapsed":853814,"internal_node_id":"0.0-175.0","task_version":"battery-v0.2"},{"rune":"T","rune_set":"elianto","hex":"#f73b6a7A","correct":-1,"choice":32,"rt":901.6200000187382,"accuracy":0,"outcome":"-10","keys":[2402.6900000171736],"total_keys":1,"block":2,"trial":174,"stimulus":7,"robot":4,"valence":"lose","action":"no-go","sham":0,"trial_type":"pit-trial","trial_index":207,"time_elapsed":857422,"internal_node_id":"0.0-176.0","task_version":"battery-v0.2"},{"rune":"C","rune_set":"elianto","hex":"#3366ff99","correct":-1,"choice":32,"rt":1045.7799999276176,"accuracy":0,"outcome":"+1","keys":[2546.860000002198],"total_keys":1,"block":2,"trial":175,"stimulus":5,"robot":2,"valence":"win","action":"no-go","sham":0,"trial_type":"pit-trial","trial_index":208,"time_elapsed":861173,"internal_node_id":"0.0-177.0","task_version":"battery-v0.2"},{"rune":"B","rune_set":"elianto","hex":"#3366ff99","correct":32,"choice":32,"rt":775.264999945648,"accuracy":1,"outcome":"+10","keys":[2275.5299999844283],"total_keys":1,"block":2,"trial":176,"stimulus":6,"robot":1,"valence":"win","action":"go","sham":0,"trial_type":"pit-trial","trial_index":209,"time_elapsed":864654,"internal_node_id":"0.0-178.0","task_version":"battery-v0.2"},{"rune":"Z","rune_set":"elianto","hex":"#f73b6a7A","correct":32,"choice":32,"rt":702.809999929741,"accuracy":1,"outcome":"-1","keys":[2204.7899999888614],"total_keys":1,"block":2,"trial":177,"stimulus":4,"robot":3,"valence":"lose","action":"go","sham":0,"trial_type":"pit-trial","trial_index":210,"time_elapsed":868062,"internal_node_id":"0.0-179.0","task_version":"battery-v0.2"},{"rune":"B","rune_set":"elianto","hex":"#3366ff99","correct":32,"choice":32,"rt":1214.395000017248,"accuracy":1,"outcome":"+10","keys":[2714.739999966696],"total_keys":1,"block":2,"trial":178,"stimulus":6,"robot":1,"valence":"win","action":"go","sham":0,"trial_type":"pit-trial","trial_index":211,"time_elapsed":871981,"internal_node_id":"0.0-180.0","task_version":"battery-v0.2"},{"rune":"T","rune_set":"elianto","hex":"#f73b6a7A","correct":-1,"choice":-1,"rt":-1,"accuracy":1,"outcome":"-10","keys":[],"total_keys":0,"block":2,"trial":179,"stimulus":7,"robot":4,"valence":"lose","action":"no-go","sham":1,"trial_type":"pit-trial","trial_index":212,"time_elapsed":875987,"internal_node_id":"0.0-181.0","task_version":"battery-v0.2"},{"rune":"C","rune_set":"elianto","hex":"#3366ff99","correct":-1,"choice":-1,"rt":-1,"accuracy":1,"outcome":"+10","keys":[],"total_keys":0,"block":2,"trial":180,"stimulus":5,"robot":2,"valence":"win","action":"no-go","sham":0,"trial_type":"pit-trial","trial_index":213,"time_elapsed":879991,"internal_node_id":"0.0-182.0","task_version":"battery-v0.2"},{"rune":"Z","rune_set":"elianto","hex":"#f73b6a7A","correct":32,"choice":32,"rt":580.28499991633,"accuracy":1,"outcome":"-1","keys":[2081.514999968931],"total_keys":1,"block":2,"trial":181,"stimulus":4,"robot":3,"valence":"lose","action":"go","sham":0,"trial_type":"pit-trial","trial_index":214,"time_elapsed":883278,"internal_node_id":"0.0-183.0","task_version":"battery-v0.2"},{"rune":"B","rune_set":"elianto","hex":"#3366ff99","correct":32,"choice":32,"rt":925.2400000113994,"accuracy":1,"outcome":"+1","keys":[2426.1699999915436],"total_keys":1,"block":2,"trial":182,"stimulus":6,"robot":1,"valence":"win","action":"go","sham":1,"trial_type":"pit-trial","trial_index":215,"time_elapsed":886910,"internal_node_id":"0.0-184.0","task_version":"battery-v0.2"},{"rune":"T","rune_set":"elianto","hex":"#f73b6a7A","correct":-1,"choice":-1,"rt":-1,"accuracy":1,"outcome":"-1","keys":[],"total_keys":0,"block":2,"trial":183,"stimulus":7,"robot":4,"valence":"lose","action":"no-go","sham":0,"trial_type":"pit-trial","trial_index":216,"time_elapsed":890915,"internal_node_id":"0.0-185.0","task_version":"battery-v0.2"},{"rune":"C","rune_set":"elianto","hex":"#3366ff99","correct":-1,"choice":-1,"rt":-1,"accuracy":1,"outcome":"+10","keys":[],"total_keys":0,"block":2,"trial":184,"stimulus":5,"robot":2,"valence":"win","action":"no-go","sham":0,"trial_type":"pit-trial","trial_index":217,"time_elapsed":894921,"internal_node_id":"0.0-186.0","task_version":"battery-v0.2"},{"rune":"B","rune_set":"elianto","hex":"#3366ff99","correct":32,"choice":32,"rt":945.2900000615045,"accuracy":1,"outcome":"+1","keys":[2446.460000006482],"total_keys":1,"block":2,"trial":185,"stimulus":6,"robot":1,"valence":"win","action":"go","sham":1,"trial_type":"pit-trial","trial_index":218,"time_elapsed":898573,"internal_node_id":"0.0-187.0","task_version":"battery-v0.2"},{"rune":"C","rune_set":"elianto","hex":"#3366ff99","correct":-1,"choice":-1,"rt":-1,"accuracy":1,"outcome":"+10","keys":[],"total_keys":0,"block":2,"trial":186,"stimulus":5,"robot":2,"valence":"win","action":"no-go","sham":0,"trial_type":"pit-trial","trial_index":219,"time_elapsed":902580,"internal_node_id":"0.0-188.0","task_version":"battery-v0.2"},{"rune":"Z","rune_set":"elianto","hex":"#f73b6a7A","correct":32,"choice":32,"rt":727.0850000204518,"accuracy":1,"outcome":"-1","keys":[2228.590000071563],"total_keys":1,"block":2,"trial":187,"stimulus":4,"robot":3,"valence":"lose","action":"go","sham":0,"trial_type":"pit-trial","trial_index":220,"time_elapsed":906013,"internal_node_id":"0.0-189.0","task_version":"battery-v0.2"},{"rune":"T","rune_set":"elianto","hex":"#f73b6a7A","correct":-1,"choice":-1,"rt":-1,"accuracy":1,"outcome":"-10","keys":[],"total_keys":0,"block":2,"trial":188,"stimulus":7,"robot":4,"valence":"lose","action":"no-go","sham":1,"trial_type":"pit-trial","trial_index":221,"time_elapsed":910019,"internal_node_id":"0.0-190.0","task_version":"battery-v0.2"},{"rune":"B","rune_set":"elianto","hex":"#3366ff99","correct":32,"choice":32,"rt":1057.3199999053031,"accuracy":1,"outcome":"+10","keys":[2557.9600000055507],"total_keys":1,"block":2,"trial":189,"stimulus":6,"robot":1,"valence":"win","action":"go","sham":0,"trial_type":"pit-trial","trial_index":222,"time_elapsed":913782,"internal_node_id":"0.0-191.0","task_version":"battery-v0.2"},{"rune":"C","rune_set":"elianto","hex":"#3366ff99","correct":-1,"choice":-1,"rt":-1,"accuracy":1,"outcome":"+1","keys":[],"total_keys":0,"block":2,"trial":190,"stimulus":5,"robot":2,"valence":"win","action":"no-go","sham":1,"trial_type":"pit-trial","trial_index":223,"time_elapsed":917785,"internal_node_id":"0.0-192.0","task_version":"battery-v0.2"},{"rune":"T","rune_set":"elianto","hex":"#f73b6a7A","correct":-1,"choice":32,"rt":1092.3750000074506,"accuracy":0,"outcome":"-10","keys":[2593.185000005178],"total_keys":1,"block":2,"trial":191,"stimulus":7,"robot":4,"valence":"lose","action":"no-go","sham":0,"trial_type":"pit-trial","trial_index":224,"time_elapsed":921582,"internal_node_id":"0.0-193.0","task_version":"battery-v0.2"},{"rune":"Z","rune_set":"elianto","hex":"#f73b6a7A","correct":32,"choice":32,"rt":735.0149999838322,"accuracy":1,"outcome":"-10","keys":[2235.054999939166],"total_keys":1,"block":2,"trial":192,"stimulus":4,"robot":3,"valence":"lose","action":"go","sham":1,"trial_type":"pit-trial","trial_index":225,"time_elapsed":925023,"internal_node_id":"0.0-194.0","task_version":"battery-v0.2"},{"rune":"X","rune_set":"elianto","hex":"#3366ff99","correct":32,"choice":32,"rt":932.840000023134,"accuracy":1,"outcome":"+10","keys":[2433.024999918416],"total_keys":1,"block":2,"trial":193,"stimulus":8,"robot":1,"valence":"win","action":"go","sham":0,"trial_type":"pit-trial","trial_index":226,"time_elapsed":928661,"internal_node_id":"0.0-195.0","task_version":"battery-v0.2"},{"rune":"C","rune_set":"elianto","hex":"#3366ff99","correct":-1,"choice":-1,"rt":-1,"accuracy":1,"outcome":"+10","keys":[],"total_keys":0,"block":2,"trial":194,"stimulus":5,"robot":2,"valence":"win","action":"no-go","sham":0,"trial_type":"pit-trial","trial_index":227,"time_elapsed":932668,"internal_node_id":"0.0-196.0","task_version":"battery-v0.2"},{"rune":"T","rune_set":"elianto","hex":"#f73b6a7A","correct":-1,"choice":-1,"rt":-1,"accuracy":1,"outcome":"-1","keys":[],"total_keys":0,"block":2,"trial":195,"stimulus":7,"robot":4,"valence":"lose","action":"no-go","sham":0,"trial_type":"pit-trial","trial_index":228,"time_elapsed":936673,"internal_node_id":"0.0-197.0","task_version":"battery-v0.2"},{"rune":"F","rune_set":"elianto","hex":"#f73b6a7A","correct":32,"choice":-1,"rt":-1,"accuracy":0,"outcome":"-1","keys":[],"total_keys":0,"block":2,"trial":196,"stimulus":9,"robot":3,"valence":"lose","action":"go","sham":1,"trial_type":"pit-trial","trial_index":229,"time_elapsed":940678,"internal_node_id":"0.0-198.0","task_version":"battery-v0.2"},{"rune":"T","rune_set":"elianto","hex":"#f73b6a7A","correct":-1,"choice":-1,"rt":-1,"accuracy":1,"outcome":"-1","keys":[],"total_keys":0,"block":2,"trial":197,"stimulus":7,"robot":4,"valence":"lose","action":"no-go","sham":0,"trial_type":"pit-trial","trial_index":230,"time_elapsed":944682,"internal_node_id":"0.0-199.0","task_version":"battery-v0.2"},{"rune":"F","rune_set":"elianto","hex":"#f73b6a7A","correct":32,"choice":-1,"rt":-1,"accuracy":0,"outcome":"-10","keys":[],"total_keys":0,"block":2,"trial":198,"stimulus":9,"robot":3,"valence":"lose","action":"go","sham":0,"trial_type":"pit-trial","trial_index":231,"time_elapsed":948686,"internal_node_id":"0.0-200.0","task_version":"battery-v0.2"},{"rune":"X","rune_set":"elianto","hex":"#3366ff99","correct":32,"choice":32,"rt":950.2999999094754,"accuracy":1,"outcome":"+1","keys":[2450.4300000844523],"total_keys":1,"block":2,"trial":199,"stimulus":8,"robot":1,"valence":"win","action":"go","sham":1,"trial_type":"pit-trial","trial_index":232,"time_elapsed":952343,"internal_node_id":"0.0-201.0","task_version":"battery-v0.2"},{"rune":"C","rune_set":"elianto","hex":"#3366ff99","correct":-1,"choice":-1,"rt":-1,"accuracy":1,"outcome":"+10","keys":[],"total_keys":0,"block":2,"trial":200,"stimulus":5,"robot":2,"valence":"win","action":"no-go","sham":0,"trial_type":"pit-trial","trial_index":233,"time_elapsed":956349,"internal_node_id":"0.0-202.0","task_version":"battery-v0.2"},{"rune":"X","rune_set":"elianto","hex":"#3366ff99","correct":32,"choice":32,"rt":1190.5099999858066,"accuracy":1,"outcome":"+10","keys":[2691.454999963753],"total_keys":1,"block":2,"trial":201,"stimulus":8,"robot":1,"valence":"win","action":"go","sham":0,"trial_type":"pit-trial","trial_index":234,"time_elapsed":960245,"internal_node_id":"0.0-203.0","task_version":"battery-v0.2"},{"rune":"T","rune_set":"elianto","hex":"#f73b6a7A","correct":-1,"choice":-1,"rt":-1,"accuracy":1,"outcome":"-1","keys":[],"total_keys":0,"block":2,"trial":202,"stimulus":7,"robot":4,"valence":"lose","action":"no-go","sham":0,"trial_type":"pit-trial","trial_index":235,"time_elapsed":964249,"internal_node_id":"0.0-204.0","task_version":"battery-v0.2"},{"rune":"C","rune_set":"elianto","hex":"#3366ff99","correct":-1,"choice":-1,"rt":-1,"accuracy":1,"outcome":"+10","keys":[],"total_keys":0,"block":2,"trial":203,"stimulus":5,"robot":2,"valence":"win","action":"no-go","sham":0,"trial_type":"pit-trial","trial_index":236,"time_elapsed":968253,"internal_node_id":"0.0-205.0","task_version":"battery-v0.2"},{"rune":"F","rune_set":"elianto","hex":"#f73b6a7A","correct":32,"choice":32,"rt":942.6149999490008,"accuracy":1,"outcome":"-1","keys":[2443.5349999694154],"total_keys":1,"block":2,"trial":204,"stimulus":9,"robot":3,"valence":"lose","action":"go","sham":0,"trial_type":"pit-trial","trial_index":237,"time_elapsed":971901,"internal_node_id":"0.0-206.0","task_version":"battery-v0.2"},{"rune":"X","rune_set":"elianto","hex":"#3366ff99","correct":32,"choice":32,"rt":1006.1049999203533,"accuracy":1,"outcome":"+1","keys":[2506.249999976717],"total_keys":1,"block":2,"trial":205,"stimulus":8,"robot":1,"valence":"win","action":"go","sham":1,"trial_type":"pit-trial","trial_index":238,"time_elapsed":975613,"internal_node_id":"0.0-207.0","task_version":"battery-v0.2"},{"rune":"F","rune_set":"elianto","hex":"#f73b6a7A","correct":32,"choice":32,"rt":814.8749999236315,"accuracy":1,"outcome":"-1","keys":[2315.2199999894947],"total_keys":1,"block":2,"trial":206,"stimulus":9,"robot":3,"valence":"lose","action":"go","sham":0,"trial_type":"pit-trial","trial_index":239,"time_elapsed":979134,"internal_node_id":"0.0-208.0","task_version":"battery-v0.2"},{"rune":"C","rune_set":"elianto","hex":"#3366ff99","correct":-1,"choice":-1,"rt":-1,"accuracy":1,"outcome":"+10","keys":[],"total_keys":0,"block":2,"trial":207,"stimulus":5,"robot":2,"valence":"win","action":"no-go","sham":0,"trial_type":"pit-trial","trial_index":240,"time_elapsed":983140,"internal_node_id":"0.0-209.0","task_version":"battery-v0.2"},{"rune":"T","rune_set":"elianto","hex":"#f73b6a7A","correct":-1,"choice":32,"rt":567.754999967292,"accuracy":0,"outcome":"-10","keys":[2069.0199999371544],"total_keys":1,"block":2,"trial":208,"stimulus":7,"robot":4,"valence":"lose","action":"no-go","sham":0,"trial_type":"pit-trial","trial_index":241,"time_elapsed":986413,"internal_node_id":"0.0-210.0","task_version":"battery-v0.2"},{"rune":"X","rune_set":"elianto","hex":"#3366ff99","correct":32,"choice":-1,"rt":-1,"accuracy":0,"outcome":"+1","keys":[],"total_keys":0,"block":2,"trial":209,"stimulus":8,"robot":1,"valence":"win","action":"go","sham":0,"trial_type":"pit-trial","trial_index":242,"time_elapsed":990418,"internal_node_id":"0.0-211.0","task_version":"battery-v0.2"},{"rune":"F","rune_set":"elianto","hex":"#f73b6a7A","correct":32,"choice":32,"rt":745.8049999549985,"accuracy":1,"outcome":"-10","keys":[2246.350000030361],"total_keys":1,"block":2,"trial":210,"stimulus":9,"robot":3,"valence":"lose","action":"go","sham":1,"trial_type":"pit-trial","trial_index":243,"time_elapsed":993869,"internal_node_id":"0.0-212.0","task_version":"battery-v0.2"},{"rune":"Q","rune_set":"elianto","hex":"#3366ff99","correct":-1,"choice":32,"rt":1287.8550000023097,"accuracy":0,"outcome":"+10","keys":[2788.139999960549],"total_keys":1,"block":2,"trial":211,"stimulus":11,"robot":2,"valence":"win","action":"no-go","sham":1,"trial_type":"pit-trial","trial_index":244,"time_elapsed":997862,"internal_node_id":"0.0-213.0","task_version":"battery-v0.2"},{"rune":"N","rune_set":"elianto","hex":"#f73b6a7A","correct":32,"choice":-1,"rt":-1,"accuracy":0,"outcome":"-1","keys":[],"total_keys":0,"block":2,"trial":212,"stimulus":10,"robot":3,"valence":"lose","action":"go","sham":1,"trial_type":"pit-trial","trial_index":245,"time_elapsed":1001867,"internal_node_id":"0.0-214.0","task_version":"battery-v0.2"},{"rune":"F","rune_set":"elianto","hex":"#f73b6a7A","correct":32,"choice":32,"rt":704.2600000277162,"accuracy":1,"outcome":"-1","keys":[2204.6050000935793],"total_keys":1,"block":2,"trial":213,"stimulus":9,"robot":3,"valence":"lose","action":"go","sham":0,"trial_type":"pit-trial","trial_index":246,"time_elapsed":1005276,"internal_node_id":"0.0-215.0","task_version":"battery-v0.2"},{"rune":"Q","rune_set":"elianto","hex":"#3366ff99","correct":-1,"choice":32,"rt":1158.339999965392,"accuracy":0,"outcome":"+1","keys":[2659.7149999579415],"total_keys":1,"block":2,"trial":214,"stimulus":11,"robot":2,"valence":"win","action":"no-go","sham":0,"trial_type":"pit-trial","trial_index":247,"time_elapsed":1009141,"internal_node_id":"0.0-216.0","task_version":"battery-v0.2"},{"rune":"N","rune_set":"elianto","hex":"#f73b6a7A","correct":32,"choice":-1,"rt":-1,"accuracy":0,"outcome":"-10","keys":[],"total_keys":0,"block":2,"trial":215,"stimulus":10,"robot":3,"valence":"lose","action":"go","sham":0,"trial_type":"pit-trial","trial_index":248,"time_elapsed":1013147,"internal_node_id":"0.0-217.0","task_version":"battery-v0.2"},{"rune":"X","rune_set":"elianto","hex":"#3366ff99","correct":32,"choice":-1,"rt":-1,"accuracy":0,"outcome":"+1","keys":[],"total_keys":0,"block":2,"trial":216,"stimulus":8,"robot":1,"valence":"win","action":"go","sham":0,"trial_type":"pit-trial","trial_index":249,"time_elapsed":1017152,"internal_node_id":"0.0-218.0","task_version":"battery-v0.2"},{"rune":"Q","rune_set":"elianto","hex":"#3366ff99","correct":-1,"choice":32,"rt":995.1749999308959,"accuracy":0,"outcome":"+1","keys":[2496.0200000787154],"total_keys":1,"block":2,"trial":217,"stimulus":11,"robot":2,"valence":"win","action":"no-go","sham":0,"trial_type":"pit-trial","trial_index":250,"time_elapsed":1020852,"internal_node_id":"0.0-219.0","task_version":"battery-v0.2"},{"rune":"F","rune_set":"elianto","hex":"#f73b6a7A","correct":32,"choice":32,"rt":646.0949999745935,"accuracy":1,"outcome":"-10","keys":[2147.720000008121],"total_keys":1,"block":2,"trial":218,"stimulus":9,"robot":3,"valence":"lose","action":"go","sham":1,"trial_type":"pit-trial","trial_index":251,"time_elapsed":1024205,"internal_node_id":"0.0-220.0","task_version":"battery-v0.2"},{"rune":"X","rune_set":"elianto","hex":"#3366ff99","correct":32,"choice":-1,"rt":-1,"accuracy":0,"outcome":"+1","keys":[],"total_keys":0,"block":2,"trial":219,"stimulus":8,"robot":1,"valence":"win","action":"go","sham":0,"trial_type":"pit-trial","trial_index":252,"time_elapsed":1028210,"internal_node_id":"0.0-221.0","task_version":"battery-v0.2"},{"rune":"N","rune_set":"elianto","hex":"#f73b6a7A","correct":32,"choice":-1,"rt":-1,"accuracy":0,"outcome":"-10","keys":[],"total_keys":0,"block":2,"trial":220,"stimulus":10,"robot":3,"valence":"lose","action":"go","sham":0,"trial_type":"pit-trial","trial_index":253,"time_elapsed":1032216,"internal_node_id":"0.0-222.0","task_version":"battery-v0.2"},{"rune":"F","rune_set":"elianto","hex":"#f73b6a7A","correct":32,"choice":32,"rt":676.1299999197945,"accuracy":1,"outcome":"-1","keys":[2176.4849999453872],"total_keys":1,"block":2,"trial":221,"stimulus":9,"robot":3,"valence":"lose","action":"go","sham":0,"trial_type":"pit-trial","trial_index":254,"time_elapsed":1035598,"internal_node_id":"0.0-223.0","task_version":"battery-v0.2"},{"rune":"Q","rune_set":"elianto","hex":"#3366ff99","correct":-1,"choice":-1,"rt":-1,"accuracy":1,"outcome":"+10","keys":[],"total_keys":0,"block":2,"trial":222,"stimulus":11,"robot":2,"valence":"win","action":"no-go","sham":0,"trial_type":"pit-trial","trial_index":255,"time_elapsed":1039603,"internal_node_id":"0.0-224.0","task_version":"battery-v0.2"},{"rune":"N","rune_set":"elianto","hex":"#f73b6a7A","correct":32,"choice":32,"rt":1185.440000030212,"accuracy":1,"outcome":"-1","keys":[2685.8700000448152],"total_keys":1,"block":2,"trial":223,"stimulus":10,"robot":3,"valence":"lose","action":"go","sham":0,"trial_type":"pit-trial","trial_index":256,"time_elapsed":1043494,"internal_node_id":"0.0-225.0","task_version":"battery-v0.2"},{"rune":"X","rune_set":"elianto","hex":"#3366ff99","correct":32,"choice":-1,"rt":-1,"accuracy":0,"outcome":"+10","keys":[],"total_keys":0,"block":2,"trial":224,"stimulus":8,"robot":1,"valence":"win","action":"go","sham":1,"trial_type":"pit-trial","trial_index":257,"time_elapsed":1047499,"internal_node_id":"0.0-226.0","task_version":"battery-v0.2"},{"rune":"F","rune_set":"elianto","hex":"#f73b6a7A","correct":32,"choice":32,"rt":672.6199999684468,"accuracy":1,"outcome":"-10","keys":[2173.8899999763817],"total_keys":1,"block":2,"trial":225,"stimulus":9,"robot":3,"valence":"lose","action":"go","sham":1,"trial_type":"pit-trial","trial_index":258,"time_elapsed":1050878,"internal_node_id":"0.0-227.0","task_version":"battery-v0.2"},{"rune":"N","rune_set":"elianto","hex":"#f73b6a7A","correct":32,"choice":-1,"rt":-1,"accuracy":0,"outcome":"-1","keys":[],"total_keys":0,"block":2,"trial":226,"stimulus":10,"robot":3,"valence":"lose","action":"go","sham":1,"trial_type":"pit-trial","trial_index":259,"time_elapsed":1054882,"internal_node_id":"0.0-228.0","task_version":"battery-v0.2"},{"rune":"Q","rune_set":"elianto","hex":"#3366ff99","correct":-1,"choice":32,"rt":1130.2250000881031,"accuracy":0,"outcome":"+1","keys":[2630.654999986291],"total_keys":1,"block":2,"trial":227,"stimulus":11,"robot":2,"valence":"win","action":"no-go","sham":0,"trial_type":"pit-trial","trial_index":260,"time_elapsed":1058718,"internal_node_id":"0.0-229.0","task_version":"battery-v0.2"},{"rune":"X","rune_set":"elianto","hex":"#3366ff99","correct":32,"choice":-1,"rt":-1,"accuracy":0,"outcome":"+1","keys":[],"total_keys":0,"block":2,"trial":228,"stimulus":8,"robot":1,"valence":"win","action":"go","sham":0,"trial_type":"pit-trial","trial_index":261,"time_elapsed":1062723,"internal_node_id":"0.0-230.0","task_version":"battery-v0.2"},{"rune":"F","rune_set":"elianto","hex":"#f73b6a7A","correct":32,"choice":32,"rt":600.4800000227988,"accuracy":1,"outcome":"-10","keys":[2101.7500000307336],"total_keys":1,"block":2,"trial":229,"stimulus":9,"robot":3,"valence":"lose","action":"go","sham":1,"trial_type":"pit-trial","trial_index":262,"time_elapsed":1066030,"internal_node_id":"0.0-231.0","task_version":"battery-v0.2"},{"rune":"Q","rune_set":"elianto","hex":"#3366ff99","correct":-1,"choice":32,"rt":1063.2550000445917,"accuracy":0,"outcome":"+1","keys":[2563.3600000292063],"total_keys":1,"block":2,"trial":230,"stimulus":11,"robot":2,"valence":"win","action":"no-go","sham":0,"trial_type":"pit-trial","trial_index":263,"time_elapsed":1069798,"internal_node_id":"0.0-232.0","task_version":"battery-v0.2"},{"rune":"X","rune_set":"elianto","hex":"#3366ff99","correct":32,"choice":32,"rt":990.5649999855086,"accuracy":1,"outcome":"+10","keys":[2490.929999970831],"total_keys":1,"block":2,"trial":231,"stimulus":8,"robot":1,"valence":"win","action":"go","sham":0,"trial_type":"pit-trial","trial_index":264,"time_elapsed":1073493,"internal_node_id":"0.0-233.0","task_version":"battery-v0.2"},{"rune":"N","rune_set":"elianto","hex":"#f73b6a7A","correct":32,"choice":-1,"rt":-1,"accuracy":0,"outcome":"-1","keys":[],"total_keys":0,"block":2,"trial":232,"stimulus":10,"robot":3,"valence":"lose","action":"go","sham":1,"trial_type":"pit-trial","trial_index":265,"time_elapsed":1077501,"internal_node_id":"0.0-234.0","task_version":"battery-v0.2"},{"rune":"X","rune_set":"elianto","hex":"#3366ff99","correct":32,"choice":32,"rt":903.5349999321625,"accuracy":1,"outcome":"+1","keys":[2403.8849999196827],"total_keys":1,"block":2,"trial":233,"stimulus":8,"robot":1,"valence":"win","action":"go","sham":1,"trial_type":"pit-trial","trial_index":266,"time_elapsed":1081110,"internal_node_id":"0.0-235.0","task_version":"battery-v0.2"},{"rune":"N","rune_set":"elianto","hex":"#f73b6a7A","correct":32,"choice":32,"rt":1070.5949999392033,"accuracy":1,"outcome":"-1","keys":[2571.140000014566],"total_keys":1,"block":2,"trial":234,"stimulus":10,"robot":3,"valence":"lose","action":"go","sham":0,"trial_type":"pit-trial","trial_index":267,"time_elapsed":1084885,"internal_node_id":"0.0-236.0","task_version":"battery-v0.2"},{"rune":"F","rune_set":"elianto","hex":"#f73b6a7A","correct":32,"choice":32,"rt":678.82999998983,"accuracy":1,"outcome":"-1","keys":[2179.1299999458715],"total_keys":1,"block":2,"trial":235,"stimulus":9,"robot":3,"valence":"lose","action":"go","sham":0,"trial_type":"pit-trial","trial_index":268,"time_elapsed":1088270,"internal_node_id":"0.0-237.0","task_version":"battery-v0.2"},{"rune":"Q","rune_set":"elianto","hex":"#3366ff99","correct":-1,"choice":-1,"rt":-1,"accuracy":1,"outcome":"+10","keys":[],"total_keys":0,"block":2,"trial":236,"stimulus":11,"robot":2,"valence":"win","action":"no-go","sham":0,"trial_type":"pit-trial","trial_index":269,"time_elapsed":1092275,"internal_node_id":"0.0-238.0","task_version":"battery-v0.2"},{"rune":"F","rune_set":"elianto","hex":"#f73b6a7A","correct":32,"choice":32,"rt":536.5649999585003,"accuracy":1,"outcome":"-1","keys":[2037.3699999181554],"total_keys":1,"block":2,"trial":237,"stimulus":9,"robot":3,"valence":"lose","action":"go","sham":0,"trial_type":"pit-trial","trial_index":270,"time_elapsed":1095517,"internal_node_id":"0.0-239.0","task_version":"battery-v0.2"},{"rune":"N","rune_set":"elianto","hex":"#f73b6a7A","correct":32,"choice":32,"rt":550.9249999886379,"accuracy":1,"outcome":"-10","keys":[2050.885000033304],"total_keys":1,"block":2,"trial":238,"stimulus":10,"robot":3,"valence":"lose","action":"go","sham":1,"trial_type":"pit-trial","trial_index":271,"time_elapsed":1098774,"internal_node_id":"0.0-240.0","task_version":"battery-v0.2"},{"rune":"X","rune_set":"elianto","hex":"#3366ff99","correct":32,"choice":32,"rt":858.8250000029802,"accuracy":1,"outcome":"+10","keys":[2360.024999943562],"total_keys":1,"block":2,"trial":239,"stimulus":8,"robot":1,"valence":"win","action":"go","sham":0,"trial_type":"pit-trial","trial_index":272,"time_elapsed":1102338,"internal_node_id":"0.0-241.0","task_version":"battery-v0.2"},{"rune":"Q","rune_set":"elianto","hex":"#3366ff99","correct":-1,"choice":-1,"rt":-1,"accuracy":1,"outcome":"+1","keys":[],"total_keys":0,"block":2,"trial":240,"stimulus":11,"robot":2,"valence":"win","action":"no-go","sham":1,"trial_type":"pit-trial","trial_index":273,"time_elapsed":1106344,"internal_node_id":"0.0-242.0","task_version":"battery-v0.2"},{"view_history":"[{\"page_index\":0,\"viewing_time\":2100.274999975227}]","rt":2100.5700000096112,"trial_type":"pit-instructions","trial_index":274,"time_elapsed":1108448,"internal_node_id":"0.0-243.0","task_version":"battery-v0.2"},{"rt":18953.7400000263,"responses":{"age":"36","gender-categorical":"Male","gender-free-response":"","ethnicity":"Not Hispanic or Latino","race":["Asian"],"language":"No","fluency":"Very well"},"survey":"demographics","trial_type":"survey-demo","trial_index":275,"time_elapsed":1127404,"internal_node_id":"0.