[{"view_history":"[{\"page_index\":0,\"viewing_time\":7881},{\"page_index\":1,\"viewing_time\":9124},{\"page_index\":2,\"viewing_time\":6507},{\"page_index\":3,\"viewing_time\":6007},{\"page_index\":4,\"viewing_time\":10021},{\"page_index\":5,\"viewing_time\":7810},{\"page_index\":6,\"viewing_time\":9269},{\"page_index\":7,\"viewing_time\":8155},{\"page_index\":8,\"viewing_time\":9183},{\"page_index\":9,\"viewing_time\":9445}]","rt":83402,"trial_type":"pit-instructions","trial_index":0,"time_elapsed":83411,"internal_node_id":"0.0-0.0-0.0","task_version":"battery-v0.2"},{"rune":"1","rune_set":"elianto","hex":"#3366ff99","correct":32,"choice":32,"rt":285,"accuracy":1,"outcome":"+10","keys":[1789],"total_keys":1,"block":0,"practice":1,"trial_type":"pit-trial","trial_index":1,"time_elapsed":86419,"internal_node_id":"0.0-0.0-1.0-0.0","task_version":"battery-v0.2"},{"rune":"1","rune_set":"elianto","hex":"#3366ff99","correct":32,"choice":32,"rt":301,"accuracy":1,"outcome":"+10","keys":[1803],"total_keys":1,"block":0,"practice":1,"trial_type":"pit-trial","trial_index":2,"time_elapsed":89440,"internal_node_id":"0.0-0.0-1.1-0.1","task_version":"battery-v0.2"},{"rune":"1","rune_set":"elianto","hex":"#3366ff99","correct":32,"choice":32,"rt":232,"accuracy":1,"outcome":"+10","keys":[1736],"total_keys":1,"block":0,"practice":1,"trial_type":"pit-trial","trial_index":3,"time_elapsed":92396,"internal_node_id":"0.0-0.0-1.2-0.2","task_version":"battery-v0.2"},{"rune":"1","rune_set":"elianto","hex":"#3366ff99","correct":32,"choice":32,"rt":298,"accuracy":1,"outcome":"+10","keys":[1804],"total_keys":1,"block":0,"practice":1,"trial_type":"pit-trial","trial_index":4,"time_elapsed":95412,"internal_node_id":"0.0-0.0-1.3-0.3","task_version":"battery-v0.2"},{"view_history":"[{\"page_index\":0,\"viewing_time\":6917},{\"page_index\":1,\"viewing_time\":41658}]","rt":48575,"trial_type":"pit-instructions","trial_index":5,"time_elapsed":143990,"internal_node_id":"0.0-0.0-2.0","task_version":"battery-v0.2"},{"rune":"2","rune_set":"elianto","hex":"#3366ff99","correct":-1,"choice":32,"rt":477,"accuracy":0,"outcome":"+1","keys":[1981],"total_keys":1,"block":0,"practice":2,"trial_type":"pit-trial","trial_index":6,"time_elapsed":147174,"internal_node_id":"0.0-0.0-3.0-0.0","task_version":"battery-v0.2"},{"rune":"2","rune_set":"elianto","hex":"#3366ff99","correct":-1,"choice":32,"rt":1218,"accuracy":0,"outcome":"+1","keys":[2723],"total_keys":1,"block":0,"practice":2,"trial_type":"pit-trial","trial_index":7,"time_elapsed":151104,"internal_node_id":"0.0-0.0-3.1-0.1","task_version":"battery-v0.2"},{"rune":"2","rune_set":"elianto","hex":"#3366ff99","correct":-1,"choice":-1,"rt":-1,"accuracy":1,"outcome":"+10","keys":[],"total_keys":0,"block":0,"practice":2,"trial_type":"pit-trial","trial_index":8,"time_elapsed":155135,"internal_node_id":"0.0-0.0-3.2-0.2","task_version":"battery-v0.2"},{"rune":"2","rune_set":"elianto","hex":"#3366ff99","correct":-1,"choice":-1,"rt":-1,"accuracy":1,"outcome":"+10","keys":[],"total_keys":0,"block":0,"practice":2,"trial_type":"pit-trial","trial_index":9,"time_elapsed":159153,"internal_node_id":"0.0-0.0-3.3-0.3","task_version":"battery-v0.2"},{"rune":"2","rune_set":"elianto","hex":"#3366ff99","correct":-1,"choice":-1,"rt":-1,"accuracy":1,"outcome":"+10","keys":[],"total_keys":0,"block":0,"practice":2,"trial_type":"pit-trial","trial_index":10,"time_elapsed":163184,"internal_node_id":"0.0-0.0-3.4-0.4","task_version":"battery-v0.2"},{"view_history":"[{\"page_index\":0,\"viewing_time\":22410},{\"page_index\":1,\"viewing_time\":9088}]","rt":31498,"trial_type":"pit-instructions","trial_index":11,"time_elapsed":194687,"internal_node_id":"0.0-0.0-4.0","task_version":"battery-v0.2"},{"rune":"3","rune_set":"elianto","hex":"#f73b6a7A","correct":-1,"choice":32,"rt":380,"accuracy":0,"outcome":"-10","keys":[1890],"total_keys":1,"block":0,"practice":3,"trial_type":"pit-trial","trial_index":12,"time_elapsed":197787,"internal_node_id":"0.0-0.0-5.0-0.0","task_version":"battery-v0.2"},{"rune":"3","rune_set":"elianto","hex":"#f73b6a7A","correct":-1,"choice":-1,"rt":-1,"accuracy":1,"outcome":"-1","keys":[],"total_keys":0,"block":0,"practice":3,"trial_type":"pit-trial","trial_index":13,"time_elapsed":201811,"internal_node_id":"0.0-0.0-5.1-0.1","task_version":"battery-v0.2"},{"rune":"3","rune_set":"elianto","hex":"#f73b6a7A","correct":-1,"choice":-1,"rt":-1,"accuracy":1,"outcome":"-1","keys":[],"total_keys":0,"block":0,"practice":3,"trial_type":"pit-trial","trial_index":14,"time_elapsed":205818,"internal_node_id":"0.0-0.0-5.2-0.2","task_version":"battery-v0.2"},{"rune":"3","rune_set":"elianto","hex":"#f73b6a7A","correct":-1,"choice":-1,"rt":-1,"accuracy":1,"outcome":"-1","keys":[],"total_keys":0,"block":0,"practice":3,"trial_type":"pit-trial","trial_index":15,"time_elapsed":209840,"internal_node_id":"0.0-0.0-5.3-0.3","task_version":"battery-v0.2"},{"view_history":"[{\"page_index\":0,\"viewing_time\":2689},{\"page_index\":1,\"viewing_time\":3274}]","rt":5963,"trial_type":"pit-instructions","trial_index":16,"time_elapsed":215806,"internal_node_id":"0.0-0.0-6.0","task_version":"battery-v0.2"},{"rune":"4","rune_set":"elianto","hex":"#f73b6a7A","correct":32,"choice":32,"rt":299,"accuracy":1,"outcome":"-1","keys":[1801],"total_keys":1,"block":0,"practice":4,"trial_type":"pit-trial","trial_index":17,"time_elapsed":218819,"internal_node_id":"0.0-0.0-7.0-0.0","task_version":"battery-v0.2"},{"rune":"4","rune_set":"elianto","hex":"#f73b6a7A","correct":32,"choice":32,"rt":239,"accuracy":1,"outcome":"-1","keys":[1742],"total_keys":1,"block":0,"practice":4,"trial_type":"pit-trial","trial_index":18,"time_elapsed":221777,"internal_node_id":"0.0-0.0-7.1-0.1","task_version":"battery-v0.2"},{"rune":"4","rune_set":"elianto","hex":"#f73b6a7A","correct":32,"choice":32,"rt":171,"accuracy":1,"outcome":"-1","keys":[1675],"total_keys":1,"block":0,"practice":4,"trial_type":"pit-trial","trial_index":19,"time_elapsed":224659,"internal_node_id":"0.0-0.0-7.2-0.2","task_version":"battery-v0.2"},{"rune":"4","rune_set":"elianto","hex":"#f73b6a7A","correct":32,"choice":32,"rt":175,"accuracy":1,"outcome":"-1","keys":[1676],"total_keys":1,"block":0,"practice":4,"trial_type":"pit-trial","trial_index":20,"time_elapsed":227558,"internal_node_id":"0.0-0.0-7.3-0.3","task_version":"battery-v0.2"},{"view_history":"[{\"page_index\":0,\"viewing_time\":1893},{\"page_index\":1,\"viewing_time\":6446},{\"page_index\":2,\"viewing_time\":6638},{\"page_index\":3,\"viewing_time\":2594},{\"page_index\":4,\"viewing_time\":2987},{\"page_index\":5,\"viewing_time\":2665}]","rt":23223,"trial_type":"pit-instructions","trial_index":21,"time_elapsed":250784,"internal_node_id":"0.0-0.0-8.0","task_version":"battery-v0.2"},{"responses":["Press SPACE","+10","-1","True","True"],"num_errors":0,"rt":18971,"trial_type":"pit-comprehension","trial_index":22,"time_elapsed":269760,"internal_node_id":"0.0-0.0-9.0","task_version":"battery-v0.2"},{"view_history":"[{\"page_index\":0,\"viewing_time\":2297},{\"page_index\":1,\"viewing_time\":3515}]","rt":5812,"trial_type":"pit-instructions","trial_index":23,"time_elapsed":275576,"internal_node_id":"0.0-1.0","task_version":"battery-v0.2"},{"rune":"B","rune_set":"bacs2","hex":"#3366ff99","correct":32,"choice":32,"rt":579,"accuracy":1,"outcome":"+10","keys":[2085],"total_keys":1,"block":1,"trial":1,"stimulus":1,"robot":1,"valence":"win","action":"go","sham":0,"trial_type":"pit-trial","trial_index":24,"time_elapsed":278876,"internal_node_id":"0.0-2.0","task_version":"battery-v0.2"},{"rune":"V","rune_set":"bacs2","hex":"#3366ff99","correct":32,"choice":32,"rt":626,"accuracy":1,"outcome":"+10","keys":[2131],"total_keys":1,"block":1,"trial":2,"stimulus":3,"robot":1,"valence":"win","action":"go","sham":0,"trial_type":"pit-trial","trial_index":25,"time_elapsed":282217,"internal_node_id":"0.0-3.0","task_version":"battery-v0.2"},{"rune":"M","rune_set":"bacs2","hex":"#3366ff99","correct":-1,"choice":32,"rt":781,"accuracy":0,"outcome":"+10","keys":[2286],"total_keys":1,"block":1,"trial":3,"stimulus":0,"robot":2,"valence":"win","action":"no-go","sham":1,"trial_type":"pit-trial","trial_index":26,"time_elapsed":285719,"internal_node_id":"0.0-4.0","task_version":"battery-v0.2"},{"rune":"K","rune_set":"bacs2","hex":"#f73b6a7A","correct":-1,"choice":32,"rt":947,"accuracy":0,"outcome":"-1","keys":[2452],"total_keys":1,"block":1,"trial":4,"stimulus":2,"robot":4,"valence":"lose","action":"no-go","sham":1,"trial_type":"pit-trial","trial_index":27,"time_elapsed":289376,"internal_node_id":"0.0-5.0","task_version":"battery-v0.2"},{"rune":"B","rune_set":"bacs2","hex":"#3366ff99","correct":32,"choice":32,"rt":553,"accuracy":1,"outcome":"+10","keys":[2059],"total_keys":1,"block":1,"trial":5,"stimulus":1,"robot":1,"valence":"win","action":"go","sham":0,"trial_type":"pit-trial","trial_index":28,"time_elapsed":292647,"internal_node_id":"0.0-6.0","task_version":"battery-v0.2"},{"rune":"V","rune_set":"bacs2","hex":"#3366ff99","correct":32,"choice":32,"rt":427,"accuracy":1,"outcome":"+10","keys":[1934],"total_keys":1,"block":1,"trial":6,"stimulus":3,"robot":1,"valence":"win","action":"go","sham":0,"trial_type":"pit-trial","trial_index":29,"time_elapsed":295795,"internal_node_id":"0.0-7.0","task_version":"battery-v0.2"},{"rune":"K","rune_set":"bacs2","hex":"#f73b6a7A","correct":-1,"choice":32,"rt":364,"accuracy":0,"outcome":"-10","keys":[1871],"total_keys":1,"block":1,"trial":7,"stimulus":2,"robot":4,"valence":"lose","action":"no-go","sham":0,"trial_type":"pit-trial","trial_index":30,"time_elapsed":298881,"internal_node_id":"0.0-8.0","task_version":"battery-v0.2"},{"rune":"M","rune_set":"bacs2","hex":"#3366ff99","correct":-1,"choice":32,"rt":638,"accuracy":0,"outcome":"+1","keys":[2149],"total_keys":1,"block":1,"trial":8,"stimulus":0,"robot":2,"valence":"win","action":"no-go","sham":0,"trial_type":"pit-trial","trial_index":31,"time_elapsed":302235,"internal_node_id":"0.0-9.0","task_version":"battery-v0.2"},{"rune":"K","rune_set":"bacs2","hex":"#f73b6a7A","correct":-1,"choice":-1,"rt":-1,"accuracy":1,"outcome":"-10","keys":[],"total_keys":0,"block":1,"trial":9,"stimulus":2,"robot":4,"valence":"lose","action":"no-go","sham":1,"trial_type":"pit-trial","trial_index":32,"time_elapsed":306241,"internal_node_id":"0.0-10.0","task_version":"battery-v0.2"},{"rune":"B","rune_set":"bacs2","hex":"#3366ff99","correct":32,"choice":32,"rt":668,"accuracy":1,"outcome":"+1","keys":[2174],"total_keys":1,"block":1,"trial":10,"stimulus":1,"robot":1,"valence":"win","action":"go","sham":1,"trial_type":"pit-trial","trial_index":33,"time_elapsed":309621,"internal_node_id":"0.0-11.0","task_version":"battery-v0.2"},{"rune":"V","rune_set":"bacs2","hex":"#3366ff99","correct":32,"choice":32,"rt":821,"accuracy":1,"outcome":"+10","keys":[2329],"total_keys":1,"block":1,"trial":11,"stimulus":3,"robot":1,"valence":"win","action":"go","sham":0,"trial_type":"pit-trial","trial_index":34,"time_elapsed":313170,"internal_node_id":"0.0-12.0","task_version":"battery-v0.2"},{"rune":"M","rune_set":"bacs2","hex":"#3366ff99","correct":-1,"choice":32,"rt":663,"accuracy":0,"outcome":"+1","keys":[2167],"total_keys":1,"block":1,"trial":12,"stimulus":0,"robot":2,"valence":"win","action":"no-go","sham":0,"trial_type":"pit-trial","trial_index":35,"time_elapsed":316542,"internal_node_id":"0.0-13.0","task_version":"battery-v0.2"},{"rune":"K","rune_set":"bacs2","hex":"#f73b6a7A","correct":-1,"choice":-1,"rt":-1,"accuracy":1,"outcome":"-1","keys":[],"total_keys":0,"block":1,"trial":13,"stimulus":2,"robot":4,"valence":"lose","action":"no-go","sham":0,"trial_type":"pit-trial","trial_index":36,"time_elapsed":320558,"internal_node_id":"0.0-14.0","task_version":"battery-v0.2"},{"rune":"B","rune_set":"bacs2","hex":"#3366ff99","correct":32,"choice":32,"rt":375,"accuracy":1,"outcome":"+1","keys":[1881],"total_keys":1,"block":1,"trial":14,"stimulus":1,"robot":1,"valence":"win","action":"go","sham":1,"trial_type":"pit-trial","trial_index":37,"time_elapsed":323648,"internal_node_id":"0.0-15.0","task_version":"battery-v0.2"},{"rune":"V","rune_set":"bacs2","hex":"#3366ff99","correct":32,"choice":-1,"rt":-1,"accuracy":0,"outcome":"+1","keys":[3433],"total_keys":1,"block":1,"trial":15,"stimulus":3,"robot":1,"valence":"win","action":"go","sham":0,"trial_type":"pit-trial","trial_index":38,"time_elapsed":327653,"internal_node_id":"0.0-16.0","task_version":"battery-v0.2"},{"rune":"M","rune_set":"bacs2","hex":"#3366ff99","correct":-1,"choice":32,"rt":291,"accuracy":0,"outcome":"+1","keys":[1800],"total_keys":1,"block":1,"trial":16,"stimulus":0,"robot":2,"valence":"win","action":"no-go","sham":0,"trial_type":"pit-trial","trial_index":39,"time_elapsed":330663,"internal_node_id":"0.0-17.0","task_version":"battery-v0.2"},{"rune":"K","rune_set":"bacs2","hex":"#f73b6a7A","correct":-1,"choice":32,"rt":1168,"accuracy":0,"outcome":"-10","keys":[2669],"total_keys":1,"block":1,"trial":17,"stimulus":2,"robot":4,"valence":"lose","action":"no-go","sham":0,"trial_type":"pit-trial","trial_index":40,"time_elapsed":334547,"internal_node_id":"0.0-18.0","task_version":"battery-v0.2"},{"rune":"B","rune_set":"bacs2","hex":"#3366ff99","correct":32,"choice":32,"rt":760,"accuracy":1,"outcome":"+10","keys":[2261],"total_keys":1,"block":1,"trial":18,"stimulus":1,"robot":1,"valence":"win","action":"go","sham":0,"trial_type":"pit-trial","trial_index":41,"time_elapsed":338023,"internal_node_id":"0.0-19.0","task_version":"battery-v0.2"},{"rune":"M","rune_set":"bacs2","hex":"#3366ff99","correct":-1,"choice":32,"rt":231,"accuracy":0,"outcome":"+1","keys":[1738],"total_keys":1,"block":1,"trial":19,"stimulus":0,"robot":2,"valence":"win","action":"no-go","sham":0,"trial_type":"pit-trial","trial_index":42,"time_elapsed":340974,"internal_node_id":"0.0-20.0","task_version":"battery-v0.2"},{"rune":"V","rune_set":"bacs2","hex":"#3366ff99","correct":32,"choice":32,"rt":580,"accuracy":1,"outcome":"+10","keys":[2083],"total_keys":1,"block":1,"trial":20,"stimulus":3,"robot":1,"valence":"win","action":"go","sham":0,"trial_type":"pit-trial","trial_index":43,"time_elapsed":344267,"internal_node_id":"0.0-21.0","task_version":"battery-v0.2"},{"rune":"M","rune_set":"bacs2","hex":"#3366ff99","correct":-1,"choice":-1,"rt":-1,"accuracy":1,"outcome":"+10","keys":[],"total_keys":0,"block":1,"trial":21,"stimulus":0,"robot":2,"valence":"win","action":"no-go","sham":0,"trial_type":"pit-trial","trial_index":44,"time_elapsed":348297,"internal_node_id":"0.0-22.0","task_version":"battery-v0.2"},{"rune":"K","rune_set":"bacs2","hex":"#f73b6a7A","correct":-1,"choice":32,"rt":322,"accuracy":0,"outcome":"-10","keys":[1833],"total_keys":1,"block":1,"trial":22,"stimulus":2,"robot":4,"valence":"lose","action":"no-go","sham":0,"trial_type":"pit-trial","trial_index":45,"time_elapsed":351345,"internal_node_id":"0.0-23.0","task_version":"battery-v0.2"},{"rune":"B","rune_set":"bacs2","hex":"#3366ff99","correct":32,"choice":-1,"rt":-1,"accuracy":0,"outcome":"+1","keys":[],"total_keys":0,"block":1,"trial":23,"stimulus":1,"robot":1,"valence":"win","action":"go","sham":0,"trial_type":"pit-trial","trial_index":46,"time_elapsed":355374,"internal_node_id":"0.0-24.0","task_version":"battery-v0.2"},{"rune":"V","rune_set":"bacs2","hex":"#3366ff99","correct":32,"choice":32,"rt":206,"accuracy":1,"outcome":"+10","keys":[1708],"total_keys":1,"block":1,"trial":24,"stimulus":3,"robot":1,"valence":"win","action":"go","sham":0,"trial_type":"pit-trial","trial_index":47,"time_elapsed":358299,"internal_node_id":"0.0-25.0","task_version":"battery-v0.2"},{"rune":"M","rune_set":"bacs2","hex":"#3366ff99","correct":-1,"choice":32,"rt":220,"accuracy":0,"outcome":"+1","keys":[1727],"total_keys":1,"block":1,"trial":25,"stimulus":0,"robot":2,"valence":"win","action":"no-go","sham":0,"trial_type":"pit-trial","trial_index":48,"time_elapsed":361237,"internal_node_id":"0.0-26.0","task_version":"battery-v0.2"},{"rune":"B","rune_set":"bacs2","hex":"#3366ff99","correct":32,"choice":32,"rt":206,"accuracy":1,"outcome":"+1","keys":[1716],"total_keys":1,"block":1,"trial":26,"stimulus":1,"robot":1,"valence":"win","action":"go","sham":1,"trial_type":"pit-trial","trial_index":49,"time_elapsed":364163,"internal_node_id":"0.0-27.0","task_version":"battery-v0.2"},{"rune":"V","rune_set":"bacs2","hex":"#3366ff99","correct":32,"choice":-1,"rt":-1,"accuracy":0,"outcome":"+1","keys":[],"total_keys":0,"block":1,"trial":27,"stimulus":3,"robot":1,"valence":"win","action":"go","sham":0,"trial_type":"pit-trial","trial_index":50,"time_elapsed":368182,"internal_node_id":"0.0-28.0","task_version":"battery-v0.2"},{"rune":"K","rune_set":"bacs2","hex":"#f73b6a7A","correct":-1,"choice":32,"rt":552,"accuracy":0,"outcome":"-1","keys":[2053],"total_keys":1,"block":1,"trial":28,"stimulus":2,"robot":4,"valence":"lose","action":"no-go","sham":1,"trial_type":"pit-trial","trial_index":51,"time_elapsed":371439,"internal_node_id":"0.0-29.0","task_version":"battery-v0.2"},{"rune":"B","rune_set":"bacs2","hex":"#3366ff99","correct":32,"choice":32,"rt":710,"accuracy":1,"outcome":"+10","keys":[2215],"total_keys":1,"block":1,"trial":29,"stimulus":1,"robot":1,"valence":"win","action":"go","sham":0,"trial_type":"pit-trial","trial_index":52,"time_elapsed":374870,"internal_node_id":"0.0-30.0","task_version":"battery-v0.2"},{"rune":"M","rune_set":"bacs2","hex":"#3366ff99","correct":-1,"choice":-1,"rt":-1,"accuracy":1,"outcome":"+10","keys":[],"total_keys":0,"block":1,"trial":30,"stimulus":0,"robot":2,"valence":"win","action":"no-go","sham":0,"trial_type":"pit-trial","trial_index":53,"time_elapsed":378890,"internal_node_id":"0.0-31.0","task_version":"battery-v0.2"},{"rune":"K","rune_set":"bacs2","hex":"#f73b6a7A","correct":-1,"choice":-1,"rt":-1,"accuracy":1,"outcome":"-1","keys":[],"total_keys":0,"block":1,"trial":31,"stimulus":2,"robot":4,"valence":"lose","action":"no-go","sham":0,"trial_type":"pit-trial","trial_index":54,"time_elapsed":382906,"internal_node_id":"0.0-32.0","task_version":"battery-v0.2"},{"rune":"V","rune_set":"bacs2","hex":"#3366ff99","correct":32,"choice":32,"rt":660,"accuracy":1,"outcome":"+1","keys":[2161],"total_keys":1,"block":1,"trial":32,"stimulus":3,"robot":1,"valence":"win","action":"go","sham":1,"trial_type":"pit-trial","trial_index":55,"time_elapsed":386271,"internal_node_id":"0.0-33.0","task_version":"battery-v0.2"},{"rune":"V","rune_set":"bacs2","hex":"#3366ff99","correct":32,"choice":-1,"rt":-1,"accuracy":0,"outcome":"+1","keys":[],"total_keys":0,"block":1,"trial":33,"stimulus":3,"robot":1,"valence":"win","action":"go","sham":0,"trial_type":"pit-trial","trial_index":56,"time_elapsed":390298,"internal_node_id":"0.0-34.0","task_version":"battery-v0.2"},{"rune":"M","rune_set":"bacs2","hex":"#3366ff99","correct":-1,"choice":32,"rt":617,"accuracy":0,"outcome":"+1","keys":[23,2124],"total_keys":2,"block":1,"trial":34,"stimulus":0,"robot":2,"valence":"win","action":"no-go","sham":0,"trial_type":"pit-trial","trial_index":57,"time_elapsed":393640,"internal_node_id":"0.0-35.0","task_version":"battery-v0.2"},{"rune":"K","rune_set":"bacs2","hex":"#f73b6a7A","correct":-1,"choice":-1,"rt":-1,"accuracy":1,"outcome":"-1","keys":[],"total_keys":0,"block":1,"trial":35,"stimulus":2,"robot":4,"valence":"lose","action":"no-go","sham":0,"trial_type":"pit-trial","trial_index":58,"time_elapsed":397650,"internal_node_id":"0.0-36.0","task_version":"battery-v0.2"},{"rune":"R","rune_set":"bacs2","hex":"#3366ff99","correct":32,"choice":32,"rt":962,"accuracy":1,"outcome":"+10","keys":[2465],"total_keys":1,"block":1,"trial":36,"stimulus":4,"robot":1,"valence":"win","action":"go","sham":0,"trial_type":"pit-trial","trial_index":59,"time_elapsed":401333,"internal_node_id":"0.0-37.0","task_version":"battery-v0.2"},{"rune":"R","rune_set":"bacs2","hex":"#3366ff99","correct":32,"choice":32,"rt":919,"accuracy":1,"outcome":"+10","keys":[2423],"total_keys":1,"block":1,"trial":37,"stimulus":4,"robot":1,"valence":"win","action":"go","sham":0,"trial_type":"pit-trial","trial_index":60,"time_elapsed":404978,"internal_node_id":"0.0-38.0","task_version":"battery-v0.2"},{"rune":"K","rune_set":"bacs2","hex":"#f73b6a7A","correct":-1,"choice":-1,"rt":-1,"accuracy":1,"outcome":"-10","keys":[],"total_keys":0,"block":1,"trial":38,"stimulus":2,"robot":4,"valence":"lose","action":"no-go","sham":1,"trial_type":"pit-trial","trial_index":61,"time_elapsed":408997,"internal_node_id":"0.0-39.0","task_version":"battery-v0.2"},{"rune":"M","rune_set":"bacs2","hex":"#3366ff99","correct":-1,"choice":32,"rt":752,"accuracy":0,"outcome":"+1","keys":[2263],"total_keys":1,"block":1,"trial":39,"stimulus":0,"robot":2,"valence":"win","action":"no-go","sham":0,"trial_type":"pit-trial","trial_index":62,"time_elapsed":412469,"internal_node_id":"0.0-40.0","task_version":"battery-v0.2"},{"rune":"V","rune_set":"bacs2","hex":"#3366ff99","correct":32,"choice":-1,"rt":-1,"accuracy":0,"outcome":"+1","keys":[],"total_keys":0,"block":1,"trial":40,"stimulus":3,"robot":1,"valence":"win","action":"go","sham":0,"trial_type":"pit-trial","trial_index":63,"time_elapsed":416491,"internal_node_id":"0.0-41.0","task_version":"battery-v0.2"},{"rune":"L","rune_set":"bacs2","hex":"#f73b6a7A","correct":-1,"choice":32,"rt":942,"accuracy":0,"outcome":"-1","keys":[2446],"total_keys":1,"block":1,"trial":41,"stimulus":6,"robot":4,"valence":"lose","action":"no-go","sham":1,"trial_type":"pit-trial","trial_index":64,"time_elapsed":420145,"internal_node_id":"0.0-42.0","task_version":"battery-v0.2"},{"rune":"P","rune_set":"bacs2","hex":"#f73b6a7A","correct":32,"choice":32,"rt":833,"accuracy":1,"outcome":"-10","keys":[2341],"total_keys":1,"block":1,"trial":42,"stimulus":5,"robot":3,"valence":"lose","action":"go","sham":1,"trial_type":"pit-trial","trial_index":65,"time_elapsed":423691,"internal_node_id":"0.0-43.0","task_version":"battery-v0.2"},{"rune":"R","rune_set":"bacs2","hex":"#3366ff99","correct":32,"choice":32,"rt":586,"accuracy":1,"outcome":"+10","keys":[2089],"total_keys":1,"block":1,"trial":43,"stimulus":4,"robot":1,"valence":"win","action":"go","sham":0,"trial_type":"pit-trial","trial_index":66,"time_elapsed":426991,"internal_node_id":"0.0-44.0","task_version":"battery-v0.2"},{"rune":"M","rune_set":"bacs2","hex":"#3366ff99","correct":-1,"choice":32,"rt":773,"accuracy":0,"outcome":"+1","keys":[2274],"total_keys":1,"block":1,"trial":44,"stimulus":0,"robot":2,"valence":"win","action":"no-go","sham":0,"trial_type":"pit-trial","trial_index":67,"time_elapsed":430483,"internal_node_id":"0.0-45.0","task_version":"battery-v0.2"},{"rune":"P","rune_set":"bacs2","hex":"#f73b6a7A","correct":32,"choice":-1,"rt":-1,"accuracy":0,"outcome":"-1","keys":[],"total_keys":0,"block":1,"trial":45,"stimulus":5,"robot":3,"valence":"lose","action":"go","sham":1,"trial_type":"pit-trial","trial_index":68,"time_elapsed":434505,"internal_node_id":"0.0-46.0","task_version":"battery-v0.2"},{"rune":"L","rune_set":"bacs2","hex":"#f73b6a7A","correct":-1,"choice":32,"rt":866,"accuracy":0,"outcome":"-10","keys":[2377],"total_keys":1,"block":1,"trial":46,"stimulus":6,"robot":4,"valence":"lose","action":"no-go","sham":0,"trial_type":"pit-trial","trial_index":69,"time_elapsed":438100,"internal_node_id":"0.0-47.0","task_version":"battery-v0.2"},{"rune":"M","rune_set":"bacs2","hex":"#3366ff99","correct":-1,"choice":-1,"rt":-1,"accuracy":1,"outcome":"+1","keys":[],"total_keys":0,"block":1,"trial":47,"stimulus":0,"robot":2,"valence":"win","action":"no-go","sham":1,"trial_type":"pit-trial","trial_index":70,"time_elapsed":442121,"internal_node_id":"0.0-48.0","task_version":"battery-v0.2"},{"rune":"R","rune_set":"bacs2","hex":"#3366ff99","correct":32,"choice":32,"rt":713,"accuracy":1,"outcome":"+10","keys":[2215],"total_keys":1,"block":1,"trial":48,"stimulus":4,"robot":1,"valence":"win","action":"go","sham":0,"trial_type":"pit-trial","trial_index":71,"time_elapsed":445540,"internal_node_id":"0.0-49.0","task_version":"battery-v0.2"},{"rune":"L","rune_set":"bacs2","hex":"#f73b6a7A","correct":-1,"choice":-1,"rt":-1,"accuracy":1,"outcome":"-10","keys":[],"total_keys":0,"block":1,"trial":49,"stimulus":6,"robot":4,"valence":"lose","action":"no-go","sham":1,"trial_type":"pit-trial","trial_index":72,"time_elapsed":449554,"internal_node_id":"0.0-50.0","task_version":"battery-v0.2"},{"rune":"P","rune_set":"bacs2","hex":"#f73b6a7A","correct":32,"choice":-1,"rt":-1,"accuracy":0,"outcome":"-10","keys":[],"total_keys":0,"block":1,"trial":50,"stimulus":5,"robot":3,"valence":"lose","action":"go","sham":0,"trial_type":"pit-trial","trial_index":73,"time_elapsed":453573,"internal_node_id":"0.0-51.0","task_version":"battery-v0.2"},{"rune":"R","rune_set":"bacs2","hex":"#3366ff99","correct":32,"choice":32,"rt":632,"accuracy":1,"outcome":"+1","keys":[2137],"total_keys":1,"block":1,"trial":51,"stimulus":4,"robot":1,"valence":"win","action":"go","sham":1,"trial_type":"pit-trial","trial_index":74,"time_elapsed":456914,"internal_node_id":"0.0-52.0","task_version":"battery-v0.2"},{"rune":"S","rune_set":"bacs2","hex":"#3366ff99","correct":-1,"choice":32,"rt":688,"accuracy":0,"outcome":"+1","keys":[2192],"total_keys":1,"block":1,"trial":52,"stimulus":7,"robot":2,"valence":"win","action":"no-go","sham":0,"trial_type":"pit-trial","trial_index":75,"time_elapsed":460319,"internal_node_id":"0.0-53.0","task_version":"battery-v0.2"},{"rune":"P","rune_set":"bacs2","hex":"#f73b6a7A","correct":32,"choice":-1,"rt":-1,"accuracy":0,"outcome":"-10","keys":[3428],"total_keys":1,"block":1,"trial":53,"stimulus":5,"robot":3,"valence":"lose","action":"go","sham":0,"trial_type":"pit-trial","trial_index":76,"time_elapsed":464345,"internal_node_id":"0.0-54.0","task_version":"battery-v0.2"},{"rune":"R","rune_set":"bacs2","hex":"#3366ff99","correct":32,"choice":32,"rt":764,"accuracy":1,"outcome":"+1","keys":[2267],"total_keys":1,"block":1,"trial":54,"stimulus":4,"robot":1,"valence":"win","action":"go","sham":1,"trial_type":"pit-trial","trial_index":77,"time_elapsed":467831,"internal_node_id":"0.0-55.0","task_version":"battery-v0.2"},{"rune":"S","rune_set":"bacs2","hex":"#3366ff99","correct":-1,"choice":-1,"rt":-1,"accuracy":1,"outcome":"+1","keys":[],"total_keys":0,"block":1,"trial":55,"stimulus":7,"robot":2,"valence":"win","action":"no-go","sham":1,"trial_type":"pit-trial","trial_index":78,"time_elapsed":471848,"internal_node_id":"0.0-56.0","task_version":"battery-v0.2"},{"rune":"L","rune_set":"bacs2","hex":"#f73b6a7A","correct":-1,"choice":32,"rt":944,"accuracy":0,"outcome":"-10","keys":[2458],"total_keys":1,"block":1,"trial":56,"stimulus":6,"robot":4,"valence":"lose","action":"no-go","sham":0,"trial_type":"pit-trial","trial_index":79,"time_elapsed":475514,"internal_node_id":"0.0-57.0","task_version":"battery-v0.2"},{"rune":"P","rune_set":"bacs2","hex":"#f73b6a7A","correct":32,"choice":32,"rt":660,"accuracy":1,"outcome":"-1","keys":[2172],"total_keys":1,"block":1,"trial":57,"stimulus":5,"robot":3,"valence":"lose","action":"go","sham":0,"trial_type":"pit-trial","trial_index":80,"time_elapsed":478897,"internal_node_id":"0.0-58.0","task_version":"battery-v0.2"},{"rune":"R","rune_set":"bacs2","hex":"#3366ff99","correct":32,"choice":32,"rt":680,"accuracy":1,"outcome":"+10","keys":[2193],"total_keys":1,"block":1,"trial":58,"stimulus":4,"robot":1,"valence":"win","action":"go","sham":0,"trial_type":"pit-trial","trial_index":81,"time_elapsed":482304,"internal_node_id":"0.0-59.0","task_version":"battery-v0.2"},{"rune":"L","rune_set":"bacs2","hex":"#f73b6a7A","correct":-1,"choice":-1,"rt":-1,"accuracy":1,"outcome":"-10","keys":[],"total_keys":0,"block":1,"trial":59,"stimulus":6,"robot":4,"valence":"lose","action":"no-go","sham":1,"trial_type":"pit-trial","trial_index":82,"time_elapsed":486321,"internal_node_id":"0.0-60.0","task_version":"battery-v0.2"},{"rune":"S","rune_set":"bacs2","hex":"#3366ff99","correct":-1,"choice":-1,"rt":-1,"accuracy":1,"outcome":"+10","keys":[],"total_keys":0,"block":1,"trial":60,"stimulus":7,"robot":2,"valence":"win","action":"no-go","sham":0,"trial_type":"pit-trial","trial_index":83,"time_elapsed":490329,"internal_node_id":"0.0-61.0","task_version":"battery-v0.2"},{"rune":"P","rune_set":"bacs2","hex":"#f73b6a7A","correct":32,"choice":-1,"rt":-1,"accuracy":0,"outcome":"-10","keys":[],"total_keys":0,"block":1,"trial":61,"stimulus":5,"robot":3,"valence":"lose","action":"go","sham":0,"trial_type":"pit-trial","trial_index":84,"time_elapsed":494347,"internal_node_id":"0.0-62.0","task_version":"battery-v0.2"},{"rune":"S","rune_set":"bacs2","hex":"#3366ff99","correct":-1,"choice":-1,"rt":-1,"accuracy":1,"outcome":"+10","keys":[],"total_keys":0,"block":1,"trial":62,"stimulus":7,"robot":2,"valence":"win","action":"no-go","sham":0,"trial_type":"pit-trial","trial_index":85,"time_elapsed":498378,"internal_node_id":"0.0-63.0","task_version":"battery-v0.2"},{"rune":"L","rune_set":"bacs2","hex":"#f73b6a7A","correct":-1,"choice":-1,"rt":-1,"accuracy":1,"outcome":"-1","keys":[],"total_keys":0,"block":1,"trial":63,"stimulus":6,"robot":4,"valence":"lose","action":"no-go","sham":0,"trial_type":"pit-trial","trial_index":86,"time_elapsed":502392,"internal_node_id":"0.0-64.0","task_version":"battery-v0.2"},{"rune":"R","rune_set":"bacs2","hex":"#3366ff99","correct":32,"choice":-1,"rt":-1,"accuracy":0,"outcome":"+1","keys":[],"total_keys":0,"block":1,"trial":64,"stimulus":4,"robot":1,"valence":"win","action":"go","sham":0,"trial_type":"pit-trial","trial_index":87,"time_elapsed":506407,"internal_node_id":"0.0-65.0","task_version":"battery-v0.2"},{"rune":"R","rune_set":"bacs2","hex":"#3366ff99","correct":32,"choice":32,"rt":532,"accuracy":1,"outcome":"+1","keys":[2032],"total_keys":1,"block":1,"trial":65,"stimulus":4,"robot":1,"valence":"win","action":"go","sham":1,"trial_type":"pit-trial","trial_index":88,"time_elapsed":509646,"internal_node_id":"0.0-66.0","task_version":"battery-v0.2"},{"rune":"P","rune_set":"bacs2","hex":"#f73b6a7A","correct":32,"choice":32,"rt":380,"accuracy":1,"outcome":"-10","keys":[1886],"total_keys":1,"block":1,"trial":66,"stimulus":5,"robot":3,"valence":"lose","action":"go","sham":1,"trial_type":"pit-trial","trial_index":89,"time_elapsed":512742,"internal_node_id":"0.0-67.0","task_version":"battery-v0.2"},{"rune":"S","rune_set":"bacs2","hex":"#3366ff99","correct":-1,"choice":-1,"rt":-1,"accuracy":1,"outcome":"+10","keys":[],"total_keys":0,"block":1,"trial":67,"stimulus":7,"robot":2,"valence":"win","action":"no-go","sham":0,"trial_type":"pit-trial","trial_index":90,"time_elapsed":516765,"internal_node_id":"0.0-68.0","task_version":"battery-v0.2"},{"rune":"L","rune_set":"bacs2","hex":"#f73b6a7A","correct":-1,"choice":-1,"rt":-1,"accuracy":1,"outcome":"-1","keys":[],"total_keys":0,"block":1,"trial":68,"stimulus":6,"robot":4,"valence":"lose","action":"no-go","sham":0,"trial_type":"pit-trial","trial_index":91,"time_elapsed":520787,"internal_node_id":"0.0-69.0","task_version":"battery-v0.2"},{"rune":"P","rune_set":"bacs2","hex":"#f73b6a7A","correct":32,"choice":-1,"rt":-1,"accuracy":0,"outcome":"-10","keys":[],"total_keys":0,"block":1,"trial":69,"stimulus":5,"robot":3,"valence":"lose","action":"go","sham":0,"trial_type":"pit-trial","trial_index":92,"time_elapsed":524801,"internal_node_id":"0.0-70.0","task_version":"battery-v0.2"},{"rune":"L","rune_set":"bacs2","hex":"#f73b6a7A","correct":-1,"choice":-1,"rt":-1,"accuracy":1,"outcome":"-1","keys":[],"total_keys":0,"block":1,"trial":70,"stimulus":6,"robot":4,"valence":"lose","action":"no-go","sham":0,"trial_type":"pit-trial","trial_index":93,"time_elapsed":528830,"internal_node_id":"0.0-71.0","task_version":"battery-v0.2"},{"rune":"R","rune_set":"bacs2","hex":"#3366ff99","correct":32,"choice":32,"rt":618,"accuracy":1,"outcome":"+10","keys":[2126],"total_keys":1,"block":1,"trial":71,"stimulus":4,"robot":1,"valence":"win","action":"go","sham":0,"trial_type":"pit-trial","trial_index":94,"time_elapsed":532161,"internal_node_id":"0.0-72.0","task_version":"battery-v0.2"},{"rune":"S","rune_set":"bacs2","hex":"#3366ff99","correct":-1,"choice":32,"rt":767,"accuracy":0,"outcome":"+1","keys":[2273],"total_keys":1,"block":1,"trial":72,"stimulus":7,"robot":2,"valence":"win","action":"no-go","sham":0,"trial_type":"pit-trial","trial_index":95,"time_elapsed":535649,"internal_node_id":"0.0-73.0","task_version":"battery-v0.2"},{"rune":"U","rune_set":"bacs2","hex":"#f73b6a7A","correct":32,"choice":32,"rt":751,"accuracy":1,"outcome":"-1","keys":[2257],"total_keys":1,"block":1,"trial":73,"stimulus":8,"robot":3,"valence":"lose","action":"go","sham":0,"trial_type":"pit-trial","trial_index":96,"time_elapsed":539116,"internal_node_id":"0.0-74.0","task_version":"battery-v0.2"},{"rune":"R","rune_set":"bacs2","hex":"#3366ff99","correct":32,"choice":32,"rt":686,"accuracy":1,"outcome":"+10","keys":[2189],"total_keys":1,"block":1,"trial":74,"stimulus":4,"robot":1,"valence":"win","action":"go","sham":0,"trial_type":"pit-trial","trial_index":97,"time_elapsed":542519,"internal_node_id":"0.0-75.0","task_version":"battery-v0.2"},{"rune":"S","rune_set":"bacs2","hex":"#3366ff99","correct":-1,"choice":-1,"rt":-1,"accuracy":1,"outcome":"+10","keys":[],"total_keys":0,"block":1,"trial":75,"stimulus":7,"robot":2,"valence":"win","action":"no-go","sham":0,"trial_type":"pit-trial","trial_index":98,"time_elapsed":546540,"internal_node_id":"0.0-76.0","task_version":"battery-v0.2"},{"rune":"L","rune_set":"bacs2","hex":"#f73b6a7A","correct":-1,"choice":-1,"rt":-1,"accuracy":1,"outcome":"-1","keys":[],"total_keys":0,"block":1,"trial":76,"stimulus":6,"robot":4,"valence":"lose","action":"no-go","sham":0,"trial_type":"pit-trial","trial_index":99,"time_elapsed":550556,"internal_node_id":"0.0-77.0","task_version":"battery-v0.2"},{"rune":"U","rune_set":"bacs2","hex":"#f73b6a7A","correct":32,"choice":32,"rt":716,"accuracy":1,"outcome":"-1","keys":[2225],"total_keys":1,"block":1,"trial":77,"stimulus":8,"robot":3,"valence":"lose","action":"go","sham":0,"trial_type":"pit-trial","trial_index":100,"time_elapsed":553993,"internal_node_id":"0.0-78.0","task_version":"battery-v0.2"},{"rune":"S","rune_set":"bacs2","hex":"#3366ff99","correct":-1,"choice":-1,"rt":-1,"accuracy":1,"outcome":"+10","keys":[],"total_keys":0,"block":1,"trial":78,"stimulus":7,"robot":2,"valence":"win","action":"no-go","sham":0,"trial_type":"pit-trial","trial_index":101,"time_elapsed":558019,"internal_node_id":"0.0-79.0","task_version":"battery-v0.2"},{"rune":"R","rune_set":"bacs2","hex":"#3366ff99","correct":32,"choice":32,"rt":716,"accuracy":1,"outcome":"+10","keys":[2219],"total_keys":1,"block":1,"trial":79,"stimulus":4,"robot":1,"valence":"win","action":"go","sham":0,"trial_type":"pit-trial","trial_index":102,"time_elapsed":561450,"internal_node_id":"0.0-80.0","task_version":"battery-v0.2"},{"rune":"L","rune_set":"bacs2","hex":"#f73b6a7A","correct":-1,"choice":-1,"rt":-1,"accuracy":1,"outcome":"-1","keys":[],"total_keys":0,"block":1,"trial":80,"stimulus":6,"robot":4,"valence":"lose","action":"no-go","sham":0,"trial_type":"pit-trial","trial_index":103,"time_elapsed":565477,"internal_node_id":"0.0-81.0","task_version":"battery-v0.2"},{"rune":"A","rune_set":"bacs2","hex":"#f73b6a7A","correct":32,"choice":32,"rt":644,"accuracy":1,"outcome":"-1","keys":[2143],"total_keys":1,"block":1,"trial":81,"stimulus":9,"robot":3,"valence":"lose","action":"go","sham":0,"trial_type":"pit-trial","trial_index":104,"time_elapsed":568842,"internal_node_id":"0.0-82.0","task_version":"battery-v0.2"},{"rune":"L","rune_set":"bacs2","hex":"#f73b6a7A","correct":-1,"choice":-1,"rt":-1,"accuracy":1,"outcome":"-10","keys":[],"total_keys":0,"block":1,"trial":82,"stimulus":6,"robot":4,"valence":"lose","action":"no-go","sham":1,"trial_type":"pit-trial","trial_index":105,"time_elapsed":572857,"internal_node_id":"0.0-83.0","task_version":"battery-v0.2"},{"rune":"U","rune_set":"bacs2","hex":"#f73b6a7A","correct":32,"choice":32,"rt":494,"accuracy":1,"outcome":"-10","keys":[2000],"total_keys":1,"block":1,"trial":83,"stimulus":8,"robot":3,"valence":"lose","action":"go","sham":1,"trial_type":"pit-trial","trial_index":106,"time_elapsed":576066,"internal_node_id":"0.0-84.0","task_version":"battery-v0.2"},{"rune":"S","rune_set":"bacs2","hex":"#3366ff99","correct":-1,"choice":32,"rt":654,"accuracy":0,"outcome":"+1","keys":[2167],"total_keys":1,"block":1,"trial":84,"stimulus":7,"robot":2,"valence":"win","action":"no-go","sham":0,"trial_type":"pit-trial","trial_index":107,"time_elapsed":579450,"internal_node_id":"0.0-85.0","task_version":"battery-v0.2"},{"rune":"A","rune_set":"bacs2","hex":"#f73b6a7A","correct":32,"choice":32,"rt":756,"accuracy":1,"outcome":"-1","keys":[2262],"total_keys":1,"block":1,"trial":85,"stimulus":9,"robot":3,"valence":"lose","action":"go","sham":0,"trial_type":"pit-trial","trial_index":108,"time_elapsed":582922,"internal_node_id":"0.0-86.0","task_version":"battery-v0.2"},{"rune":"S","rune_set":"bacs2","hex":"#3366ff99","correct":-1,"choice":-1,"rt":-1,"accuracy":1,"outcome":"+10","keys":[],"total_keys":0,"block":1,"trial":86,"stimulus":7,"robot":2,"valence":"win","action":"no-go","sham":0,"trial_type":"pit-trial","trial_index":109,"time_elapsed":586941,"internal_node_id":"0.0-87.0","task_version":"battery-v0.2"},{"rune":"L","rune_set":"bacs2","hex":"#f73b6a7A","correct":-1,"choice":-1,"rt":-1,"accuracy":1,"outcome":"-10","keys":[],"total_keys":0,"block":1,"trial":87,"stimulus":6,"robot":4,"valence":"lose","action":"no-go","sham":1,"trial_type":"pit-trial","trial_index":110,"time_elapsed":590963,"internal_node_id":"0.0-88.0","task_version":"battery-v0.2"},{"rune":"U","rune_set":"bacs2","hex":"#f73b6a7A","correct":32,"choice":-1,"rt":-1,"accuracy":0,"outcome":"-10","keys":[],"total_keys":0,"block":1,"trial":88,"stimulus":8,"robot":3,"valence":"lose","action":"go","sham":0,"trial_type":"pit-trial","trial_index":111,"time_elapsed":594988,"internal_node_id":"0.0-89.0","task_version":"battery-v0.2"},{"rune":"U","rune_set":"bacs2","hex":"#f73b6a7A","correct":32,"choice":32,"rt":424,"accuracy":1,"outcome":"-1","keys":[1938],"total_keys":1,"block":1,"trial":89,"stimulus":8,"robot":3,"valence":"lose","action":"go","sham":0,"trial_type":"pit-trial","trial_index":112,"time_elapsed":598130,"internal_node_id":"0.0-90.0","task_version":"battery-v0.2"},{"rune":"F","rune_set":"bacs2","hex":"#f73b6a7A","correct":-1,"choice":32,"rt":656,"accuracy":0,"outcome":"-10","keys":[2163],"total_keys":1,"block":1,"trial":90,"stimulus":10,"robot":4,"valence":"lose","action":"no-go","sham":0,"trial_type":"pit-trial","trial_index":113,"time_elapsed":601498,"internal_node_id":"0.0-91.0","task_version":"battery-v0.2"},{"rune":"N","rune_set":"bacs2","hex":"#3366ff99","correct":-1,"choice":32,"rt":617,"accuracy":0,"outcome":"+1","keys":[2124],"total_keys":1,"block":1,"trial":91,"stimulus":11,"robot":2,"valence":"win","action":"no-go","sham":0,"trial_type":"pit-trial","trial_index":114,"time_elapsed":604830,"internal_node_id":"0.0-92.0","task_version":"battery-v0.2"},{"rune":"A","rune_set":"bacs2","hex":"#f73b6a7A","correct":32,"choice":32,"rt":653,"accuracy":1,"outcome":"-1","keys":[2159],"total_keys":1,"block":1,"trial":92,"stimulus":9,"robot":3,"valence":"lose","action":"go","sham":0,"trial_type":"pit-trial","trial_index":115,"time_elapsed":608207,"internal_node_id":"0.0-93.0","task_version":"battery-v0.2"},{"rune":"N","rune_set":"bacs2","hex":"#3366ff99","correct":-1,"choice":32,"rt":805,"accuracy":0,"outcome":"+1","keys":[2309],"total_keys":1,"block":1,"trial":93,"stimulus":11,"robot":2,"valence":"win","action":"no-go","sham":0,"trial_type":"pit-trial","trial_index":116,"time_elapsed":611728,"internal_node_id":"0.0-94.0","task_version":"battery-v0.2"},{"rune":"U","rune_set":"bacs2","hex":"#f73b6a7A","correct":32,"choice":32,"rt":671,"accuracy":1,"outcome":"-1","keys":[2176],"total_keys":1,"block":1,"trial":94,"stimulus":8,"robot":3,"valence":"lose","action":"go","sham":0,"trial_type":"pit-trial","trial_index":117,"time_elapsed":615120,"internal_node_id":"0.0-95.0","task_version":"battery-v0.2"},{"rune":"F","rune_set":"bacs2","hex":"#f73b6a7A","correct":-1,"choice":-1,"rt":-1,"accuracy":1,"outcome":"-1","keys":[],"total_keys":0,"block":1,"trial":95,"stimulus":10,"robot":4,"valence":"lose","action":"no-go","sham":0,"trial_type":"pit-trial","trial_index":118,"time_elapsed":619133,"internal_node_id":"0.0-96.0","task_version":"battery-v0.2"},{"rune":"A","rune_set":"bacs2","hex":"#f73b6a7A","correct":32,"choice":-1,"rt":-1,"accuracy":0,"outcome":"-1","keys":[],"total_keys":0,"block":1,"trial":96,"stimulus":9,"robot":3,"valence":"lose","action":"go","sham":1,"trial_type":"pit-trial","trial_index":119,"time_elapsed":623153,"internal_node_id":"0.0-97.0","task_version":"battery-v0.2"},{"rune":"F","rune_set":"bacs2","hex":"#f73b6a7A","correct":-1,"choice":-1,"rt":-1,"accuracy":1,"outcome":"-1","keys":[],"total_keys":0,"block":1,"trial":97,"stimulus":10,"robot":4,"valence":"lose","action":"no-go","sham":0,"trial_type":"pit-trial","trial_index":120,"time_elapsed":627169,"internal_node_id":"0.0-98.0","task_version":"battery-v0.2"},{"rune":"A","rune_set":"bacs2","hex":"#f73b6a7A","correct":32,"choice":-1,"rt":-1,"accuracy":0,"outcome":"-10","keys":[],"total_keys":0,"block":1,"trial":98,"stimulus":9,"robot":3,"valence":"lose","action":"go","sham":0,"trial_type":"pit-trial","trial_index":121,"time_elapsed":631188,"internal_node_id":"0.0-99.0","task_version":"battery-v0.2"},{"rune":"N","rune_set":"bacs2","hex":"#3366ff99","correct":-1,"choice":32,"rt":496,"accuracy":0,"outcome":"+1","keys":[2012],"total_keys":1,"block":1,"trial":99,"stimulus":11,"robot":2,"valence":"win","action":"no-go","sham":0,"trial_type":"pit-trial","trial_index":122,"time_elapsed":634421,"internal_node_id":"0.0-100.0","task_version":"battery-v0.2"},{"rune":"U","rune_set":"bacs2","hex":"#f73b6a7A","correct":32,"choice":32,"rt":816,"accuracy":1,"outcome":"-1","keys":[2326],"total_keys":1,"block":1,"trial":100,"stimulus":8,"robot":3,"valence":"lose","action":"go","sham":0,"trial_type":"pit-trial","trial_index":123,"time_elapsed":637962,"internal_node_id":"0.0-101.0","task_version":"battery-v0.2"},{"rune":"A","rune_set":"bacs2","hex":"#f73b6a7A","correct":32,"choice":-1,"rt":-1,"accuracy":0,"outcome":"-10","keys":[],"total_keys":0,"block":1,"trial":101,"stimulus":9,"robot":3,"valence":"lose","action":"go","sham":0,"trial_type":"pit-trial","trial_index":124,"time_elapsed":641989,"internal_node_id":"0.0-102.0","task_version":"battery-v0.2"},{"rune":"U","rune_set":"bacs2","hex":"#f73b6a7A","correct":32,"choice":32,"rt":408,"accuracy":1,"outcome":"-10","keys":[1916],"total_keys":1,"block":1,"trial":102,"stimulus":8,"robot":3,"valence":"lose","action":"go","sham":1,"trial_type":"pit-trial","trial_index":125,"time_elapsed":645119,"internal_node_id":"0.0-103.0","task_version":"battery-v0.2"},{"rune":"N","rune_set":"bacs2","hex":"#3366ff99","correct":-1,"choice":-1,"rt":-1,"accuracy":1,"outcome":"+1","keys":[],"total_keys":0,"block":1,"trial":103,"stimulus":11,"robot":2,"valence":"win","action":"no-go","sham":1,"trial_type":"pit-trial","trial_index":126,"time_elapsed":649138,"internal_node_id":"0.0-104.0","task_version":"battery-v0.2"},{"rune":"F","rune_set":"bacs2","hex":"#f73b6a7A","correct":-1,"choice":-1,"rt":-1,"accuracy":1,"outcome":"-1","keys":[],"total_keys":0,"block":1,"trial":104,"stimulus":10,"robot":4,"valence":"lose","action":"no-go","sham":0,"trial_type":"pit-trial","trial_index":127,"time_elapsed":653151,"internal_node_id":"0.0-105.0","task_version":"battery-v0.2"},{"rune":"U","rune_set":"bacs2","hex":"#f73b6a7A","correct":32,"choice":-1,"rt":-1,"accuracy":0,"outcome":"-10","keys":[],"total_keys":0,"block":1,"trial":105,"stimulus":8,"robot":3,"valence":"lose","action":"go","sham":0,"trial_type":"pit-trial","trial_index":128,"time_elapsed":657181,"internal_node_id":"0.0-106.0","task_version":"battery-v0.2"},{"rune":"F","rune_set":"bacs2","hex":"#f73b6a7A","correct":-1,"choice":-1,"rt":-1,"accuracy":1,"outcome":"-1","keys":[],"total_keys":0,"block":1,"trial":106,"stimulus":10,"robot":4,"valence":"lose","action":"no-go","sham":0,"trial_type":"pit-trial","trial_index":129,"time_elapsed":661197,"internal_node_id":"0.0-107.0","task_version":"battery-v0.2"},{"rune":"A","rune_set":"bacs2","hex":"#f73b6a7A","correct":32,"choice":-1,"rt":-1,"accuracy":0,"outcome":"-10","keys":[],"total_keys":0,"block":1,"trial":107,"stimulus":9,"robot":3,"valence":"lose","action":"go","sham":0,"trial_type":"pit-trial","trial_index":130,"time_elapsed":665217,"internal_node_id":"0.0-108.0","task_version":"battery-v0.2"},{"rune":"N","rune_set":"bacs2","hex":"#3366ff99","correct":-1,"choice":32,"rt":625,"accuracy":0,"outcome":"+1","keys":[2138],"total_keys":1,"block":1,"trial":108,"stimulus":11,"robot":2,"valence":"win","action":"no-go","sham":0,"trial_type":"pit-trial","trial_index":131,"time_elapsed":668563,"internal_node_id":"0.0-109.0","task_version":"battery-v0.2"},{"rune":"U","rune_set":"bacs2","hex":"#f73b6a7A","correct":32,"choice":32,"rt":689,"accuracy":1,"outcome":"-1","keys":[2190],"total_keys":1,"block":1,"trial":109,"stimulus":8,"robot":3,"valence":"lose","action":"go","sham":0,"trial_type":"pit-trial","trial_index":132,"time_elapsed":671960,"internal_node_id":"0.0-110.0","task_version":"battery-v0.2"},{"rune":"A","rune_set":"bacs2","hex":"#f73b6a7A","correct":32,"choice":32,"rt":430,"accuracy":1,"outcome":"-1","keys":[1939],"total_keys":1,"block":1,"trial":110,"stimulus":9,"robot":3,"valence":"lose","action":"go","sham":0,"trial_type":"pit-trial","trial_index":133,"time_elapsed":675116,"internal_node_id":"0.0-111.0","task_version":"battery-v0.2"},{"rune":"F","rune_set":"bacs2","hex":"#f73b6a7A","correct":-1,"choice":32,"rt":455,"accuracy":0,"outcome":"-10","keys":[1958],"total_keys":1,"block":1,"trial":111,"stimulus":10,"robot":4,"valence":"lose","action":"no-go","sham":0,"trial_type":"pit-trial","trial_index":134,"time_elapsed":678285,"internal_node_id":"0.0-112.0","task_version":"battery-v0.2"},{"rune":"N","rune_set":"bacs2","hex":"#3366ff99","correct":-1,"choice":32,"rt":546,"accuracy":0,"outcome":"+1","keys":[2046],"total_keys":1,"block":1,"trial":112,"stimulus":11,"robot":2,"valence":"win","action":"no-go","sham":0,"trial_type":"pit-trial","trial_index":135,"time_elapsed":681539,"internal_node_id":"0.0-113.0","task_version":"battery-v0.2"},{"rune":"F","rune_set":"bacs2","hex":"#f73b6a7A","correct":-1,"choice":-1,"rt":-1,"accuracy":1,"outcome":"-1","keys":[],"total_keys":0,"block":1,"trial":113,"stimulus":10,"robot":4,"valence":"lose","action":"no-go","sham":0,"trial_type":"pit-trial","trial_index":136,"time_elapsed":685549,"internal_node_id":"0.0-114.0","task_version":"battery-v0.2"},{"rune":"U","rune_set":"bacs2","hex":"#f73b6a7A","correct":32,"choice":32,"rt":989,"accuracy":1,"outcome":"-1","keys":[2491],"total_keys":1,"block":1,"trial":114,"stimulus":8,"robot":3,"valence":"lose","action":"go","sham":0,"trial_type":"pit-trial","trial_index":137,"time_elapsed":689246,"internal_node_id":"0.0-115.0","task_version":"battery-v0.2"},{"rune":"A","rune_set":"bacs2","hex":"#f73b6a7A","correct":32,"choice":32,"rt":491,"accuracy":1,"outcome":"-1","keys":[1991],"total_keys":1,"block":1,"trial":115,"stimulus":9,"robot":3,"valence":"lose","action":"go","sham":0,"trial_type":"pit-trial","trial_index":138,"time_elapsed":692456,"internal_node_id":"0.0-116.0","task_version":"battery-v0.2"},{"rune":"N","rune_set":"bacs2","hex":"#3366ff99","correct":-1,"choice":32,"rt":379,"accuracy":0,"outcome":"+10","keys":[1880],"total_keys":1,"block":1,"trial":116,"stimulus":11,"robot":2,"valence":"win","action":"no-go","sham":1,"trial_type":"pit-trial","trial_index":139,"time_elapsed":695553,"internal_node_id":"0.0-117.0","task_version":"battery-v0.2"},{"rune":"F","rune_set":"bacs2","hex":"#f73b6a7A","correct":-1,"choice":-1,"rt":-1,"accuracy":1,"outcome":"-1","keys":[],"total_keys":0,"block":1,"trial":117,"stimulus":10,"robot":4,"valence":"lose","action":"no-go","sham":0,"trial_type":"pit-trial","trial_index":140,"time_elapsed":699574,"internal_node_id":"0.0-118.0","task_version":"battery-v0.2"},{"rune":"U","rune_set":"bacs2","hex":"#f73b6a7A","correct":32,"choice":32,"rt":501,"accuracy":1,"outcome":"-1","keys":[2008],"total_keys":1,"block":1,"trial":118,"stimulus":8,"robot":3,"valence":"lose","action":"go","sham":0,"trial_type":"pit-trial","trial_index":141,"time_elapsed":702799,"internal_node_id":"0.0-119.0","task_version":"battery-v0.2"},{"rune":"A","rune_set":"bacs2","hex":"#f73b6a7A","correct":32,"choice":32,"rt":866,"accuracy":1,"outcome":"-1","keys":[2371],"total_keys":1,"block":1,"trial":119,"stimulus":9,"robot":3,"valence":"lose","action":"go","sham":0,"trial_type":"pit-trial","trial_index":142,"time_elapsed":706384,"internal_node_id":"0.0-120.0","task_version":"battery-v0.2"},{"rune":"N","rune_set":"bacs2","hex":"#3366ff99","correct":-1,"choice":32,"rt":677,"accuracy":0,"outcome":"+1","keys":[2183],"total_keys":1,"block":1,"trial":120,"stimulus":11,"robot":2,"valence":"win","action":"no-go","sham":0,"trial_type":"pit-trial","trial_index":143,"time_elapsed":709785,"internal_node_id":"0.0-121.0","task_version":"battery-v0.2"},{"view_history":"[{\"page_index\":0,\"viewing_time\":2421},{\"page_index\":1,\"viewing_time\":3057}]","rt":5479,"trial_type":"pit-instructions","trial_index":144,"time_elapsed":715266,"internal_node_id":"0.0-122.0","task_version":"battery-v0.2"},{"rune":"T","rune_set":"bacs2","hex":"#f73b6a7A","correct":-1,"choice":32,"rt":634,"accuracy":0,"outcome":"-10","keys":[2136],"total_keys":1,"block":2,"trial":121,"stimulus":1,"robot":4,"valence":"lose","action":"no-go","sham":0,"trial_type":"pit-trial","trial_index":145,"time_elapsed":718619,"internal_node_id":"0.0-123.0","task_version":"battery-v0.2"},{"rune":"Y","rune_set":"bacs2","hex":"#f73b6a7A","correct":-1,"choice":32,"rt":461,"accuracy":0,"outcome":"-10","keys":[1962],"total_keys":1,"block":2,"trial":122,"stimulus":0,"robot":4,"valence":"lose","action":"no-go","sham":0,"trial_type":"pit-trial","trial_index":146,"time_elapsed":721791,"internal_node_id":"0.0-124.0","task_version":"battery-v0.2"},{"rune":"H","rune_set":"bacs2","hex":"#3366ff99","correct":-1,"choice":-1,"rt":-1,"accuracy":1,"outcome":"+10","keys":[],"total_keys":0,"block":2,"trial":123,"stimulus":3,"robot":2,"valence":"win","action":"no-go","sham":0,"trial_type":"pit-trial","trial_index":147,"time_elapsed":725803,"internal_node_id":"0.0-125.0","task_version":"battery-v0.2"},{"rune":"Q","rune_set":"bacs2","hex":"#3366ff99","correct":32,"choice":-1,"rt":-1,"accuracy":0,"outcome":"+10","keys":[],"total_keys":0,"block":2,"trial":124,"stimulus":2,"robot":1,"valence":"win","action":"go","sham":1,"trial_type":"pit-trial","trial_index":148,"time_elapsed":729827,"internal_node_id":"0.0-126.0","task_version":"battery-v0.2"},{"rune":"H","rune_set":"bacs2","hex":"#3366ff99","correct":-1,"choice":-1,"rt":-1,"accuracy":1,"outcome":"+10","keys":[],"total_keys":0,"block":2,"trial":125,"stimulus":3,"robot":2,"valence":"win","action":"no-go","sham":0,"trial_type":"pit-trial","trial_index":149,"time_elapsed":733860,"internal_node_id":"0.0-127.0","task_version":"battery-v0.2"},{"rune":"T","rune_set":"bacs2","hex":"#f73b6a7A","correct":-1,"choice":-1,"rt":-1,"accuracy":1,"outcome":"-10","keys":[],"total_keys":0,"block":2,"trial":126,"stimulus":1,"robot":4,"valence":"lose","action":"no-go","sham":1,"trial_type":"pit-trial","trial_index":150,"time_elapsed":737877,"internal_node_id":"0.0-128.0","task_version":"battery-v0.2"},{"rune":"Y","rune_set":"bacs2","hex":"#f73b6a7A","correct":-1,"choice":32,"rt":269,"accuracy":0,"outcome":"-10","keys":[1772],"total_keys":1,"block":2,"trial":127,"stimulus":0,"robot":4,"valence":"lose","action":"no-go","sham":0,"trial_type":"pit-trial","trial_index":151,"time_elapsed":740868,"internal_node_id":"0.0-129.0","task_version":"battery-v0.2"},{"rune":"Q","rune_set":"bacs2","hex":"#3366ff99","correct":32,"choice":-1,"rt":-1,"accuracy":0,"outcome":"+1","keys":[],"total_keys":0,"block":2,"trial":128,"stimulus":2,"robot":1,"valence":"win","action":"go","sham":0,"trial_type":"pit-trial","trial_index":152,"time_elapsed":744889,"internal_node_id":"0.0-130.0","task_version":"battery-v0.2"},{"rune":"H","rune_set":"bacs2","hex":"#3366ff99","correct":-1,"choice":32,"rt":820,"accuracy":0,"outcome":"+10","keys":[2321],"total_keys":1,"block":2,"trial":129,"stimulus":3,"robot":2,"valence":"win","action":"no-go","sham":1,"trial_type":"pit-trial","trial_index":153,"time_elapsed":748414,"internal_node_id":"0.0-131.0","task_version":"battery-v0.2"},{"rune":"Q","rune_set":"bacs2","hex":"#3366ff99","correct":32,"choice":32,"rt":555,"accuracy":1,"outcome":"+10","keys":[2062],"total_keys":1,"block":2,"trial":130,"stimulus":2,"robot":1,"valence":"win","action":"go","sham":0,"trial_type":"pit-trial","trial_index":154,"time_elapsed":751685,"internal_node_id":"0.0-132.0","task_version":"battery-v0.2"},{"rune":"Y","rune_set":"bacs2","hex":"#f73b6a7A","correct":-1,"choice":-1,"rt":-1,"accuracy":1,"outcome":"-1","keys":[],"total_keys":0,"block":2,"trial":131,"stimulus":0,"robot":4,"valence":"lose","action":"no-go","sham":0,"trial_type":"pit-trial","trial_index":155,"time_elapsed":755704,"internal_node_id":"0.0-133.0","task_version":"battery-v0.2"},{"rune":"T","rune_set":"bacs2","hex":"#f73b6a7A","correct":-1,"choice":-1,"rt":-1,"accuracy":1,"outcome":"-1","keys":[],"total_keys":0,"block":2,"trial":132,"stimulus":1,"robot":4,"valence":"lose","action":"no-go","sham":0,"trial_type":"pit-trial","trial_index":156,"time_elapsed":759728,"internal_node_id":"0.0-134.0","task_version":"battery-v0.2"},{"rune":"Q","rune_set":"bacs2","hex":"#3366ff99","correct":32,"choice":-1,"rt":-1,"accuracy":0,"outcome":"+1","keys":[],"total_keys":0,"block":2,"trial":133,"stimulus":2,"robot":1,"valence":"win","action":"go","sham":0,"trial_type":"pit-trial","trial_index":157,"time_elapsed":763754,"internal_node_id":"0.0-135.0","task_version":"battery-v0.2"},{"rune":"T","rune_set":"bacs2","hex":"#f73b6a7A","correct":-1,"choice":-1,"rt":-1,"accuracy":1,"outcome":"-1","keys":[],"total_keys":0,"block":2,"trial":134,"stimulus":1,"robot":4,"valence":"lose","action":"no-go","sham":0,"trial_type":"pit-trial","trial_index":158,"time_elapsed":767758,"internal_node_id":"0.0-136.0","task_version":"battery-v0.2"},{"rune":"H","rune_set":"bacs2","hex":"#3366ff99","correct":-1,"choice":-1,"rt":-1,"accuracy":1,"outcome":"+10","keys":[2822],"total_keys":1,"block":2,"trial":135,"stimulus":3,"robot":2,"valence":"win","action":"no-go","sham":0,"trial_type":"pit-trial","trial_index":159,"time_elapsed":771775,"internal_node_id":"0.0-137.0","task_version":"battery-v0.2"},{"rune":"Y","rune_set":"bacs2","hex":"#f73b6a7A","correct":-1,"choice":-1,"rt":-1,"accuracy":1,"outcome":"-1","keys":[],"total_keys":0,"block":2,"trial":136,"stimulus":0,"robot":4,"valence":"lose","action":"no-go","sham":0,"trial_type":"pit-trial","trial_index":160,"time_elapsed":775801,"internal_node_id":"0.0-138.0","task_version":"battery-v0.2"},{"rune":"T","rune_set":"bacs2","hex":"#f73b6a7A","correct":-1,"choice":-1,"rt":-1,"accuracy":1,"outcome":"-1","keys":[],"total_keys":0,"block":2,"trial":137,"stimulus":1,"robot":4,"valence":"lose","action":"no-go","sham":0,"trial_type":"pit-trial","trial_index":161,"time_elapsed":779820,"internal_node_id":"0.0-139.0","task_version":"battery-v0.2"},{"rune":"Q","rune_set":"bacs2","hex":"#3366ff99","correct":32,"choice":32,"rt":509,"accuracy":1,"outcome":"+10","keys":[2012],"total_keys":1,"block":2,"trial":138,"stimulus":2,"robot":1,"valence":"win","action":"go","sham":0,"trial_type":"pit-trial","trial_index":162,"time_elapsed":783037,"internal_node_id":"0.0-140.0","task_version":"battery-v0.2"},{"rune":"H","rune_set":"bacs2","hex":"#3366ff99","correct":-1,"choice":32,"rt":662,"accuracy":0,"outcome":"+1","keys":[2172],"total_keys":1,"block":2,"trial":139,"stimulus":3,"robot":2,"valence":"win","action":"no-go","sham":0,"trial_type":"pit-trial","trial_index":163,"time_elapsed":786417,"internal_node_id":"0.0-141.0","task_version":"battery-v0.2"},{"rune":"Y","rune_set":"bacs2","hex":"#f73b6a7A","correct":-1,"choice":-1,"rt":-1,"accuracy":1,"outcome":"-1","keys":[],"total_keys":0,"block":2,"trial":140,"stimulus":0,"robot":4,"valence":"lose","action":"no-go","sham":0,"trial_type":"pit-trial","trial_index":164,"time_elapsed":790448,"internal_node_id":"0.0-142.0","task_version":"battery-v0.2"},{"rune":"Y","rune_set":"bacs2","hex":"#f73b6a7A","correct":-1,"choice":-1,"rt":-1,"accuracy":1,"outcome":"-1","keys":[],"total_keys":0,"block":2,"trial":141,"stimulus":0,"robot":4,"valence":"lose","action":"no-go","sham":0,"trial_type":"pit-trial","trial_index":165,"time_elapsed":794462,"internal_node_id":"0.0-143.0","task_version":"battery-v0.2"},{"rune":"T","rune_set":"bacs2","hex":"#f73b6a7A","correct":-1,"choice":-1,"rt":-1,"accuracy":1,"outcome":"-10","keys":[],"total_keys":0,"block":2,"trial":142,"stimulus":1,"robot":4,"valence":"lose","action":"no-go","sham":1,"trial_type":"pit-trial","trial_index":166,"time_elapsed":798490,"internal_node_id":"0.0-144.0","task_version":"battery-v0.2"},{"rune":"Q","rune_set":"bacs2","hex":"#3366ff99","correct":32,"choice":32,"rt":436,"accuracy":1,"outcome":"+10","keys":[1943],"total_keys":1,"block":2,"trial":143,"stimulus":2,"robot":1,"valence":"win","action":"go","sham":0,"trial_type":"pit-trial","trial_index":167,"time_elapsed":801652,"internal_node_id":"0.0-145.0","task_version":"battery-v0.2"},{"rune":"H","rune_set":"bacs2","hex":"#3366ff99","correct":-1,"choice":32,"rt":543,"accuracy":0,"outcome":"+1","keys":[2047],"total_keys":1,"block":2,"trial":144,"stimulus":3,"robot":2,"valence":"win","action":"no-go","sham":0,"trial_type":"pit-trial","trial_index":168,"time_elapsed":804918,"internal_node_id":"0.0-146.0","task_version":"battery-v0.2"},{"rune":"Q","rune_set":"bacs2","hex":"#3366ff99","correct":32,"choice":32,"rt":412,"accuracy":1,"outcome":"+10","keys":[1923],"total_keys":1,"block":2,"trial":145,"stimulus":2,"robot":1,"valence":"win","action":"go","sham":0,"trial_type":"pit-trial","trial_index":169,"time_elapsed":808048,"internal_node_id":"0.0-147.0","task_version":"battery-v0.2"},{"rune":"Y","rune_set":"bacs2","hex":"#f73b6a7A","correct":-1,"choice":-1,"rt":-1,"accuracy":1,"outcome":"-1","keys":[],"total_keys":0,"block":2,"trial":146,"stimulus":0,"robot":4,"valence":"lose","action":"no-go","sham":0,"trial_type":"pit-trial","trial_index":170,"time_elapsed":812065,"internal_node_id":"0.0-148.0","task_version":"battery-v0.2"},{"rune":"H","rune_set":"bacs2","hex":"#3366ff99","correct":-1,"choice":32,"rt":448,"accuracy":0,"outcome":"+10","keys":[1953],"total_keys":1,"block":2,"trial":147,"stimulus":3,"robot":2,"valence":"win","action":"no-go","sham":1,"trial_type":"pit-trial","trial_index":171,"time_elapsed":815236,"internal_node_id":"0.0-149.0","task_version":"battery-v0.2"},{"rune":"T","rune_set":"bacs2","hex":"#f73b6a7A","correct":-1,"choice":32,"rt":1178,"accuracy":0,"outcome":"-10","keys":[2681],"total_keys":1,"block":2,"trial":148,"stimulus":1,"robot":4,"valence":"lose","action":"no-go","sham":0,"trial_type":"pit-trial","trial_index":172,"time_elapsed":819127,"internal_node_id":"0.0-150.0","task_version":"battery-v0.2"},{"rune":"Q","rune_set":"bacs2","hex":"#3366ff99","correct":32,"choice":32,"rt":486,"accuracy":1,"outcome":"+1","keys":[2000],"total_keys":1,"block":2,"trial":149,"stimulus":2,"robot":1,"valence":"win","action":"go","sham":1,"trial_type":"pit-trial","trial_index":173,"time_elapsed":822336,"internal_node_id":"0.0-151.0","task_version":"battery-v0.2"},{"rune":"H","rune_set":"bacs2","hex":"#3366ff99","correct":-1,"choice":32,"rt":366,"accuracy":0,"outcome":"+1","keys":[1871],"total_keys":1,"block":2,"trial":150,"stimulus":3,"robot":2,"valence":"win","action":"no-go","sham":0,"trial_type":"pit-trial","trial_index":174,"time_elapsed":825416,"internal_node_id":"0.0-152.0","task_version":"battery-v0.2"},{"rune":"Y","rune_set":"bacs2","hex":"#f73b6a7A","correct":-1,"choice":-1,"rt":-1,"accuracy":1,"outcome":"-1","keys":[],"total_keys":0,"block":2,"trial":151,"stimulus":0,"robot":4,"valence":"lose","action":"no-go","sham":0,"trial_type":"pit-trial","trial_index":175,"time_elapsed":829427,"internal_node_id":"0.0-153.0","task_version":"battery-v0.2"},{"rune":"T","rune_set":"bacs2","hex":"#f73b6a7A","correct":-1,"choice":-1,"rt":-1,"accuracy":1,"outcome":"-1","keys":[],"total_keys":0,"block":2,"trial":152,"stimulus":1,"robot":4,"valence":"lose","action":"no-go","sham":0,"trial_type":"pit-trial","trial_index":176,"time_elapsed":833440,"internal_node_id":"0.0-154.0","task_version":"battery-v0.2"},{"rune":"H","rune_set":"bacs2","hex":"#3366ff99","correct":-1,"choice":32,"rt":938,"accuracy":0,"outcome":"+1","keys":[2442],"total_keys":1,"block":2,"trial":153,"stimulus":3,"robot":2,"valence":"win","action":"no-go","sham":0,"trial_type":"pit-trial","trial_index":177,"time_elapsed":837096,"internal_node_id":"0.0-155.0","task_version":"battery-v0.2"},{"rune":"Q","rune_set":"bacs2","hex":"#3366ff99","correct":32,"choice":-1,"rt":-1,"accuracy":0,"outcome":"+10","keys":[],"total_keys":0,"block":2,"trial":154,"stimulus":2,"robot":1,"valence":"win","action":"go","sham":1,"trial_type":"pit-trial","trial_index":178,"time_elapsed":841119,"internal_node_id":"0.0-156.0","task_version":"battery-v0.2"},{"rune":"E","rune_set":"bacs2","hex":"#f73b6a7A","correct":32,"choice":-1,"rt":-1,"accuracy":0,"outcome":"-1","keys":[],"total_keys":0,"block":2,"trial":155,"stimulus":4,"robot":3,"valence":"lose","action":"go","sham":1,"trial_type":"pit-trial","trial_index":179,"time_elapsed":845125,"internal_node_id":"0.0-157.0","task_version":"battery-v0.2"},{"rune":"Y","rune_set":"bacs2","hex":"#f73b6a7A","correct":-1,"choice":-1,"rt":-1,"accuracy":1,"outcome":"-1","keys":[],"total_keys":0,"block":2,"trial":156,"stimulus":0,"robot":4,"valence":"lose","action":"no-go","sham":0,"trial_type":"pit-trial","trial_index":180,"time_elapsed":849149,"internal_node_id":"0.0-158.0","task_version":"battery-v0.2"},{"rune":"E","rune_set":"bacs2","hex":"#f73b6a7A","correct":32,"choice":32,"rt":699,"accuracy":1,"outcome":"-1","keys":[2199],"total_keys":1,"block":2,"trial":157,"stimulus":4,"robot":3,"valence":"lose","action":"go","sham":0,"trial_type":"pit-trial","trial_index":181,"time_elapsed":852565,"internal_node_id":"0.0-159.0","task_version":"battery-v0.2"},{"rune":"Q","rune_set":"bacs2","hex":"#3366ff99","correct":32,"choice":32,"rt":472,"accuracy":1,"outcome":"+10","keys":[1979],"total_keys":1,"block":2,"trial":158,"stimulus":2,"robot":1,"valence":"win","action":"go","sham":0,"trial_type":"pit-trial","trial_index":182,"time_elapsed":855757,"internal_node_id":"0.0-160.0","task_version":"battery-v0.2"},{"rune":"Y","rune_set":"bacs2","hex":"#f73b6a7A","correct":-1,"choice":-1,"rt":-1,"accuracy":1,"outcome":"-1","keys":[],"total_keys":0,"block":2,"trial":159,"stimulus":0,"robot":4,"valence":"lose","action":"no-go","sham":0,"trial_type":"pit-trial","trial_index":183,"time_elapsed":859789,"internal_node_id":"0.0-161.0","task_version":"battery-v0.2"},{"rune":"H","rune_set":"bacs2","hex":"#3366ff99","correct":-1,"choice":32,"rt":486,"accuracy":0,"outcome":"+1","keys":[1992],"total_keys":1,"block":2,"trial":160,"stimulus":3,"robot":2,"valence":"win","action":"no-go","sham":0,"trial_type":"pit-trial","trial_index":184,"time_elapsed":862997,"internal_node_id":"0.0-162.0","task_version":"battery-v0.2"},{"rune":"C","rune_set":"bacs2","hex":"#3366ff99","correct":-1,"choice":32,"rt":717,"accuracy":0,"outcome":"+10","keys":[2224],"total_keys":1,"block":2,"trial":161,"stimulus":5,"robot":2,"valence":"win","action":"no-go","sham":1,"trial_type":"pit-trial","trial_index":185,"time_elapsed":866432,"internal_node_id":"0.0-163.0","task_version":"battery-v0.2"},{"rune":"O","rune_set":"bacs2","hex":"#3366ff99","correct":32,"choice":32,"rt":535,"accuracy":1,"outcome":"+1","keys":[2042],"total_keys":1,"block":2,"trial":162,"stimulus":6,"robot":1,"valence":"win","action":"go","sham":1,"trial_type":"pit-trial","trial_index":186,"time_elapsed":869688,"internal_node_id":"0.0-164.0","task_version":"battery-v0.2"},{"rune":"E","rune_set":"bacs2","hex":"#f73b6a7A","correct":32,"choice":32,"rt":768,"accuracy":1,"outcome":"-1","keys":[2267],"total_keys":1,"block":2,"trial":163,"stimulus":4,"robot":3,"valence":"lose","action":"go","sham":0,"trial_type":"pit-trial","trial_index":187,"time_elapsed":873174,"internal_node_id":"0.0-165.0","task_version":"battery-v0.2"},{"rune":"Y","rune_set":"bacs2","hex":"#f73b6a7A","correct":-1,"choice":-1,"rt":-1,"accuracy":1,"outcome":"-10","keys":[],"total_keys":0,"block":2,"trial":164,"stimulus":0,"robot":4,"valence":"lose","action":"no-go","sham":1,"trial_type":"pit-trial","trial_index":188,"time_elapsed":877190,"internal_node_id":"0.0-166.0","task_version":"battery-v0.2"},{"rune":"Y","rune_set":"bacs2","hex":"#f73b6a7A","correct":-1,"choice":32,"rt":373,"accuracy":0,"outcome":"-10","keys":[1873],"total_keys":1,"block":2,"trial":165,"stimulus":0,"robot":4,"valence":"lose","action":"no-go","sham":0,"trial_type":"pit-trial","trial_index":189,"time_elapsed":880279,"internal_node_id":"0.0-167.0","task_version":"battery-v0.2"},{"rune":"O","rune_set":"bacs2","hex":"#3366ff99","correct":32,"choice":32,"rt":450,"accuracy":1,"outcome":"+10","keys":[1960],"total_keys":1,"block":2,"trial":166,"stimulus":6,"robot":1,"valence":"win","action":"go","sham":0,"trial_type":"pit-trial","trial_index":190,"time_elapsed":883447,"internal_node_id":"0.0-168.0","task_version":"battery-v0.2"},{"rune":"E","rune_set":"bacs2","hex":"#f73b6a7A","correct":32,"choice":32,"rt":524,"accuracy":1,"outcome":"-1","keys":[2030],"total_keys":1,"block":2,"trial":167,"stimulus":4,"robot":3,"valence":"lose","action":"go","sham":0,"trial_type":"pit-trial","trial_index":191,"time_elapsed":886685,"internal_node_id":"0.0-169.0","task_version":"battery-v0.2"},{"rune":"C","rune_set":"bacs2","hex":"#3366ff99","correct":-1,"choice":32,"rt":663,"accuracy":0,"outcome":"+1","keys":[2169],"total_keys":1,"block":2,"trial":168,"stimulus":5,"robot":2,"valence":"win","action":"no-go","sham":0,"trial_type":"pit-trial","trial_index":192,"time_elapsed":890068,"internal_node_id":"0.0-170.0","task_version":"battery-v0.2"},{"rune":"G","rune_set":"bacs2","hex":"#f73b6a7A","correct":-1,"choice":32,"rt":574,"accuracy":0,"outcome":"-10","keys":[2081],"total_keys":1,"block":2,"trial":169,"stimulus":7,"robot":4,"valence":"lose","action":"no-go","sham":0,"trial_type":"pit-trial","trial_index":193,"time_elapsed":893355,"internal_node_id":"0.0-171.0","task_version":"battery-v0.2"},{"rune":"C","rune_set":"bacs2","hex":"#3366ff99","correct":-1,"choice":-1,"rt":-1,"accuracy":1,"outcome":"+10","keys":[],"total_keys":0,"block":2,"trial":170,"stimulus":5,"robot":2,"valence":"win","action":"no-go","sham":0,"trial_type":"pit-trial","trial_index":194,"time_elapsed":897371,"internal_node_id":"0.0-172.0","task_version":"battery-v0.2"},{"rune":"E","rune_set":"bacs2","hex":"#f73b6a7A","correct":32,"choice":32,"rt":479,"accuracy":1,"outcome":"-1","keys":[1989],"total_keys":1,"block":2,"trial":171,"stimulus":4,"robot":3,"valence":"lose","action":"go","sham":0,"trial_type":"pit-trial","trial_index":195,"time_elapsed":900577,"internal_node_id":"0.0-173.0","task_version":"battery-v0.2"},{"rune":"O","rune_set":"bacs2","hex":"#3366ff99","correct":32,"choice":32,"rt":454,"accuracy":1,"outcome":"+10","keys":[1958],"total_keys":1,"block":2,"trial":172,"stimulus":6,"robot":1,"valence":"win","action":"go","sham":0,"trial_type":"pit-trial","trial_index":196,"time_elapsed":903751,"internal_node_id":"0.0-174.0","task_version":"battery-v0.2"},{"rune":"G","rune_set":"bacs2","hex":"#f73b6a7A","correct":-1,"choice":-1,"rt":-1,"accuracy":1,"outcome":"-1","keys":[],"total_keys":0,"block":2,"trial":173,"stimulus":7,"robot":4,"valence":"lose","action":"no-go","sham":0,"trial_type":"pit-trial","trial_index":197,"time_elapsed":907761,"internal_node_id":"0.0-175.0","task_version":"battery-v0.2"},{"rune":"O","rune_set":"bacs2","hex":"#3366ff99","correct":32,"choice":32,"rt":440,"accuracy":1,"outcome":"+10","keys":[1943],"total_keys":1,"block":2,"trial":174,"stimulus":6,"robot":1,"valence":"win","action":"go","sham":0,"trial_type":"pit-trial","trial_index":198,"time_elapsed":910912,"internal_node_id":"0.0-176.0","task_version":"battery-v0.2"},{"rune":"C","rune_set":"bacs2","hex":"#3366ff99","correct":-1,"choice":-1,"rt":-1,"accuracy":1,"outcome":"+10","keys":[],"total_keys":0,"block":2,"trial":175,"stimulus":5,"robot":2,"valence":"win","action":"no-go","sham":0,"trial_type":"pit-trial","trial_index":199,"time_elapsed":914923,"internal_node_id":"0.0-177.0","task_version":"battery-v0.2"},{"rune":"E","rune_set":"bacs2","hex":"#f73b6a7A","correct":32,"choice":32,"rt":661,"accuracy":1,"outcome":"-1","keys":[2170],"total_keys":1,"block":2,"trial":176,"stimulus":4,"robot":3,"valence":"lose","action":"go","sham":0,"trial_type":"pit-trial","trial_index":200,"time_elapsed":918307,"internal_node_id":"0.0-178.0","task_version":"battery-v0.2"},{"rune":"O","rune_set":"bacs2","hex":"#3366ff99","correct":32,"choice":32,"rt":857,"accuracy":1,"outcome":"+10","keys":[2367],"total_keys":1,"block":2,"trial":177,"stimulus":6,"robot":1,"valence":"win","action":"go","sham":0,"trial_type":"pit-trial","trial_index":201,"time_elapsed":921883,"internal_node_id":"0.0-179.0","task_version":"battery-v0.2"},{"rune":"G","rune_set":"bacs2","hex":"#f73b6a7A","correct":-1,"choice":-1,"rt":-1,"accuracy":1,"outcome":"-1","keys":[],"total_keys":0,"block":2,"trial":178,"stimulus":7,"robot":4,"valence":"lose","action":"no-go","sham":0,"trial_type":"pit-trial","trial_index":202,"time_elapsed":925893,"internal_node_id":"0.0-180.0","task_version":"battery-v0.2"},{"rune":"C","rune_set":"bacs2","hex":"#3366ff99","correct":-1,"choice":-1,"rt":-1,"accuracy":1,"outcome":"+10","keys":[],"total_keys":0,"block":2,"trial":179,"stimulus":5,"robot":2,"valence":"win","action":"no-go","sham":0,"trial_type":"pit-trial","trial_index":203,"time_elapsed":929907,"internal_node_id":"0.0-181.0","task_version":"battery-v0.2"},{"rune":"E","rune_set":"bacs2","hex":"#f73b6a7A","correct":32,"choice":32,"rt":564,"accuracy":1,"outcome":"-1","keys":[2069],"total_keys":1,"block":2,"trial":180,"stimulus":4,"robot":3,"valence":"lose","action":"go","sham":0,"trial_type":"pit-trial","trial_index":204,"time_elapsed":933192,"internal_node_id":"0.0-182.0","task_version":"battery-v0.2"},{"rune":"G","rune_set":"bacs2","hex":"#f73b6a7A","correct":-1,"choice":-1,"rt":-1,"accuracy":1,"outcome":"-1","keys":[],"total_keys":0,"block":2,"trial":181,"stimulus":7,"robot":4,"valence":"lose","action":"no-go","sham":0,"trial_type":"pit-trial","trial_index":205,"time_elapsed":937222,"internal_node_id":"0.0-183.0","task_version":"battery-v0.2"},{"rune":"C","rune_set":"bacs2","hex":"#3366ff99","correct":-1,"choice":-1,"rt":-1,"accuracy":1,"outcome":"+10","keys":[],"total_keys":0,"block":2,"trial":182,"stimulus":5,"robot":2,"valence":"win","action":"no-go","sham":0,"trial_type":"pit-trial","trial_index":206,"time_elapsed":941239,"internal_node_id":"0.0-184.0","task_version":"battery-v0.2"},{"rune":"E","rune_set":"bacs2","hex":"#f73b6a7A","correct":32,"choice":32,"rt":449,"accuracy":1,"outcome":"-1","keys":[1958],"total_keys":1,"block":2,"trial":183,"stimulus":4,"robot":3,"valence":"lose","action":"go","sham":0,"trial_type":"pit-trial","trial_index":207,"time_elapsed":944416,"internal_node_id":"0.0-185.0","task_version":"battery-v0.2"},{"rune":"O","rune_set":"bacs2","hex":"#3366ff99","correct":32,"choice":32,"rt":708,"accuracy":1,"outcome":"+10","keys":[2216],"total_keys":1,"block":2,"trial":184,"stimulus":6,"robot":1,"valence":"win","action":"go","sham":0,"trial_type":"pit-trial","trial_index":208,"time_elapsed":947836,"internal_node_id":"0.0-186.0","task_version":"battery-v0.2"},{"rune":"G","rune_set":"bacs2","hex":"#f73b6a7A","correct":-1,"choice":-1,"rt":-1,"accuracy":1,"outcome":"-1","keys":[],"total_keys":0,"block":2,"trial":185,"stimulus":7,"robot":4,"valence":"lose","action":"no-go","sham":0,"trial_type":"pit-trial","trial_index":209,"time_elapsed":951856,"internal_node_id":"0.0-187.0","task_version":"battery-v0.2"},{"rune":"E","rune_set":"bacs2","hex":"#f73b6a7A","correct":32,"choice":32,"rt":458,"accuracy":1,"outcome":"-1","keys":[1965],"total_keys":1,"block":2,"trial":186,"stimulus":4,"robot":3,"valence":"lose","action":"go","sham":0,"trial_type":"pit-trial","trial_index":210,"time_elapsed":955040,"internal_node_id":"0.0-188.0","task_version":"battery-v0.2"},{"rune":"O","rune_set":"bacs2","hex":"#3366ff99","correct":32,"choice":32,"rt":387,"accuracy":1,"outcome":"+10","keys":[1889],"total_keys":1,"block":2,"trial":187,"stimulus":6,"robot":1,"valence":"win","action":"go","sham":0,"trial_type":"pit-trial","trial_index":211,"time_elapsed":958145,"internal_node_id":"0.0-189.0","task_version":"battery-v0.2"},{"rune":"C","rune_set":"bacs2","hex":"#3366ff99","correct":-1,"choice":-1,"rt":-1,"accuracy":1,"outcome":"+1","keys":[],"total_keys":0,"block":2,"trial":188,"stimulus":5,"robot":2,"valence":"win","action":"no-go","sham":1,"trial_type":"pit-trial","trial_index":212,"time_elapsed":962166,"internal_node_id":"0.0-190.0","task_version":"battery-v0.2"},{"rune":"C","rune_set":"bacs2","hex":"#3366ff99","correct":-1,"choice":32,"rt":553,"accuracy":0,"outcome":"+1","keys":[2061],"total_keys":1,"block":2,"trial":189,"stimulus":5,"robot":2,"valence":"win","action":"no-go","sham":0,"trial_type":"pit-trial","trial_index":213,"time_elapsed":965441,"internal_node_id":"0.0-191.0","task_version":"battery-v0.2"},{"rune":"G","rune_set":"bacs2","hex":"#f73b6a7A","correct":-1,"choice":-1,"rt":-1,"accuracy":1,"outcome":"-1","keys":[],"total_keys":0,"block":2,"trial":190,"stimulus":7,"robot":4,"valence":"lose","action":"no-go","sham":0,"trial_type":"pit-trial","trial_index":214,"time_elapsed":969456,"internal_node_id":"0.0-192.0","task_version":"battery-v0.2"},{"rune":"O","rune_set":"bacs2","hex":"#3366ff99","correct":32,"choice":32,"rt":409,"accuracy":1,"outcome":"+10","keys":[1909],"total_keys":1,"block":2,"trial":191,"stimulus":6,"robot":1,"valence":"win","action":"go","sham":0,"trial_type":"pit-trial","trial_index":215,"time_elapsed":972576,"internal_node_id":"0.0-193.0","task_version":"battery-v0.2"},{"rune":"E","rune_set":"bacs2","hex":"#f73b6a7A","correct":32,"choice":32,"rt":385,"accuracy":1,"outcome":"-1","keys":[1894],"total_keys":1,"block":2,"trial":192,"stimulus":4,"robot":3,"valence":"lose","action":"go","sham":0,"trial_type":"pit-trial","trial_index":216,"time_elapsed":975682,"internal_node_id":"0.0-194.0","task_version":"battery-v0.2"},{"rune":"C","rune_set":"bacs2","hex":"#3366ff99","correct":-1,"choice":32,"rt":558,"accuracy":0,"outcome":"+1","keys":[2066],"total_keys":1,"block":2,"trial":193,"stimulus":5,"robot":2,"valence":"win","action":"no-go","sham":0,"trial_type":"pit-trial","trial_index":217,"time_elapsed":978957,"internal_node_id":"0.0-195.0","task_version":"battery-v0.2"},{"rune":"X","rune_set":"bacs2","hex":"#f73b6a7A","correct":32,"choice":-1,"rt":-1,"accuracy":0,"outcome":"-10","keys":[],"total_keys":0,"block":2,"trial":194,"stimulus":9,"robot":3,"valence":"lose","action":"go","sham":0,"trial_type":"pit-trial","trial_index":218,"time_elapsed":982982,"internal_node_id":"0.0-196.0","task_version":"battery-v0.2"},{"rune":"Z","rune_set":"bacs2","hex":"#3366ff99","correct":32,"choice":32,"rt":493,"accuracy":1,"outcome":"+10","keys":[1997],"total_keys":1,"block":2,"trial":195,"stimulus":8,"robot":1,"valence":"win","action":"go","sham":0,"trial_type":"pit-trial","trial_index":219,"time_elapsed":986188,"internal_node_id":"0.0-197.0","task_version":"battery-v0.2"},{"rune":"G","rune_set":"bacs2","hex":"#f73b6a7A","correct":-1,"choice":-1,"rt":-1,"accuracy":1,"outcome":"-10","keys":[],"total_keys":0,"block":2,"trial":196,"stimulus":7,"robot":4,"valence":"lose","action":"no-go","sham":1,"trial_type":"pit-trial","trial_index":220,"time_elapsed":990199,"internal_node_id":"0.0-198.0","task_version":"battery-v0.2"},{"rune":"X","rune_set":"bacs2","hex":"#f73b6a7A","correct":32,"choice":32,"rt":351,"accuracy":1,"outcome":"-1","keys":[1860],"total_keys":1,"block":2,"trial":197,"stimulus":9,"robot":3,"valence":"lose","action":"go","sham":0,"trial_type":"pit-trial","trial_index":221,"time_elapsed":993270,"internal_node_id":"0.0-199.0","task_version":"battery-v0.2"},{"rune":"C","rune_set":"bacs2","hex":"#3366ff99","correct":-1,"choice":32,"rt":424,"accuracy":0,"outcome":"+1","keys":[1927],"total_keys":1,"block":2,"trial":198,"stimulus":5,"robot":2,"valence":"win","action":"no-go","sham":0,"trial_type":"pit-trial","trial_index":222,"time_elapsed":996408,"internal_node_id":"0.0-200.0","task_version":"battery-v0.2"},{"rune":"G","rune_set":"bacs2","hex":"#f73b6a7A","correct":-1,"choice":32,"rt":632,"accuracy":0,"outcome":"-1","keys":[2137],"total_keys":1,"block":2,"trial":199,"stimulus":7,"robot":4,"valence":"lose","action":"no-go","sham":1,"trial_type":"pit-trial","trial_index":223,"time_elapsed":999760,"internal_node_id":"0.0-201.0","task_version":"battery-v0.2"},{"rune":"Z","rune_set":"bacs2","hex":"#3366ff99","correct":32,"choice":32,"rt":462,"accuracy":1,"outcome":"+10","keys":[1975],"total_keys":1,"block":2,"trial":200,"stimulus":8,"robot":1,"valence":"win","action":"go","sham":0,"trial_type":"pit-trial","trial_index":224,"time_elapsed":1002943,"internal_node_id":"0.0-202.0","task_version":"battery-v0.2"},{"rune":"X","rune_set":"bacs2","hex":"#f73b6a7A","correct":32,"choice":32,"rt":467,"accuracy":1,"outcome":"-1","keys":[1977],"total_keys":1,"block":2,"trial":201,"stimulus":9,"robot":3,"valence":"lose","action":"go","sham":0,"trial_type":"pit-trial","trial_index":225,"time_elapsed":1006126,"internal_node_id":"0.0-203.0","task_version":"battery-v0.2"},{"rune":"G","rune_set":"bacs2","hex":"#f73b6a7A","correct":-1,"choice":-1,"rt":-1,"accuracy":1,"outcome":"-1","keys":[],"total_keys":0,"block":2,"trial":202,"stimulus":7,"robot":4,"valence":"lose","action":"no-go","sham":0,"trial_type":"pit-trial","trial_index":226,"time_elapsed":1010149,"internal_node_id":"0.0-204.0","task_version":"battery-v0.2"},{"rune":"Z","rune_set":"bacs2","hex":"#3366ff99","correct":32,"choice":32,"rt":468,"accuracy":1,"outcome":"+10","keys":[1972],"total_keys":1,"block":2,"trial":203,"stimulus":8,"robot":1,"valence":"win","action":"go","sham":0,"trial_type":"pit-trial","trial_index":227,"time_elapsed":1013330,"internal_node_id":"0.0-205.0","task_version":"battery-v0.2"},{"rune":"C","rune_set":"bacs2","hex":"#3366ff99","correct":-1,"choice":32,"rt":585,"accuracy":0,"outcome":"+1","keys":[2090],"total_keys":1,"block":2,"trial":204,"stimulus":5,"robot":2,"valence":"win","action":"no-go","sham":0,"trial_type":"pit-trial","trial_index":228,"time_elapsed":1016629,"internal_node_id":"0.0-206.0","task_version":"battery-v0.2"},{"rune":"Z","rune_set":"bacs2","hex":"#3366ff99","correct":32,"choice":32,"rt":501,"accuracy":1,"outcome":"+1","keys":[2008],"total_keys":1,"block":2,"trial":205,"stimulus":8,"robot":1,"valence":"win","action":"go","sham":1,"trial_type":"pit-trial","trial_index":229,"time_elapsed":1019852,"internal_node_id":"0.0-207.0","task_version":"battery-v0.2"},{"rune":"C","rune_set":"bacs2","hex":"#3366ff99","correct":-1,"choice":32,"rt":540,"accuracy":0,"outcome":"+1","keys":[2052],"total_keys":1,"block":2,"trial":206,"stimulus":5,"robot":2,"valence":"win","action":"no-go","sham":0,"trial_type":"pit-trial","trial_index":230,"time_elapsed":1023113,"internal_node_id":"0.0-208.0","task_version":"battery-v0.2"},{"rune":"G","rune_set":"bacs2","hex":"#f73b6a7A","correct":-1,"choice":32,"rt":526,"accuracy":0,"outcome":"-10","keys":[2040],"total_keys":1,"block":2,"trial":207,"stimulus":7,"robot":4,"valence":"lose","action":"no-go","sham":0,"trial_type":"pit-trial","trial_index":231,"time_elapsed":1026369,"internal_node_id":"0.0-209.0","task_version":"battery-v0.2"},{"rune":"X","rune_set":"bacs2","hex":"#f73b6a7A","correct":32,"choice":32,"rt":640,"accuracy":1,"outcome":"-1","keys":[2141],"total_keys":1,"block":2,"trial":208,"stimulus":9,"robot":3,"valence":"lose","action":"go","sham":0,"trial_type":"pit-trial","trial_index":232,"time_elapsed":1029716,"internal_node_id":"0.0-210.0","task_version":"battery-v0.2"},{"rune":"W","rune_set":"bacs2","hex":"#f73b6a7A","correct":32,"choice":32,"rt":600,"accuracy":1,"outcome":"-10","keys":[446,2104],"total_keys":2,"block":2,"trial":209,"stimulus":10,"robot":3,"valence":"lose","action":"go","sham":1,"trial_type":"pit-trial","trial_index":233,"time_elapsed":1033026,"internal_node_id":"0.0-211.0","task_version":"battery-v0.2"},{"rune":"Z","rune_set":"bacs2","hex":"#3366ff99","correct":32,"choice":32,"rt":468,"accuracy":1,"outcome":"+10","keys":[1970],"total_keys":1,"block":2,"trial":210,"stimulus":8,"robot":1,"valence":"win","action":"go","sham":0,"trial_type":"pit-trial","trial_index":234,"time_elapsed":1036215,"internal_node_id":"0.0-212.0","task_version":"battery-v0.2"},{"rune":"J","rune_set":"bacs2","hex":"#3366ff99","correct":-1,"choice":32,"rt":545,"accuracy":0,"outcome":"+1","keys":[2050],"total_keys":1,"block":2,"trial":211,"stimulus":11,"robot":2,"valence":"win","action":"no-go","sham":0,"trial_type":"pit-trial","trial_index":235,"time_elapsed":1039471,"internal_node_id":"0.0-213.0","task_version":"battery-v0.2"},{"rune":"X","rune_set":"bacs2","hex":"#f73b6a7A","correct":32,"choice":-1,"rt":-1,"accuracy":0,"outcome":"-10","keys":[],"total_keys":0,"block":2,"trial":212,"stimulus":9,"robot":3,"valence":"lose","action":"go","sham":0,"trial_type":"pit-trial","trial_index":236,"time_elapsed":1043496,"internal_node_id":"0.0-214.0","task_version":"battery-v0.2"},{"rune":"Z","rune_set":"bacs2","hex":"#3366ff99","correct":32,"choice":32,"rt":396,"accuracy":1,"outcome":"+10","keys":[1899],"total_keys":1,"block":2,"trial":213,"stimulus":8,"robot":1,"valence":"win","action":"go","sham":0,"trial_type":"pit-trial","trial_index":237,"time_elapsed":1046605,"internal_node_id":"0.0-215.0","task_version":"battery-v0.2"},{"rune":"X","rune_set":"bacs2","hex":"#f73b6a7A","correct":32,"choice":-1,"rt":-1,"accuracy":0,"outcome":"-10","keys":[],"total_keys":0,"block":2,"trial":214,"stimulus":9,"robot":3,"valence":"lose","action":"go","sham":0,"trial_type":"pit-trial","trial_index":238,"time_elapsed":1050629,"internal_node_id":"0.0-216.0","task_version":"battery-v0.2"},{"rune":"J","rune_set":"bacs2","hex":"#3366ff99","correct":-1,"choice":32,"rt":301,"accuracy":0,"outcome":"+1","keys":[1805],"total_keys":1,"block":2,"trial":215,"stimulus":11,"robot":2,"valence":"win","action":"no-go","sham":0,"trial_type":"pit-trial","trial_index":239,"time_elapsed":1053648,"internal_node_id":"0.0-217.0","task_version":"battery-v0.2"},{"rune":"W","rune_set":"bacs2","hex":"#f73b6a7A","correct":32,"choice":32,"rt":420,"accuracy":1,"outcome":"-1","keys":[1933],"total_keys":1,"block":2,"trial":216,"stimulus":10,"robot":3,"valence":"lose","action":"go","sham":0,"trial_type":"pit-trial","trial_index":240,"time_elapsed":1056796,"internal_node_id":"0.0-218.0","task_version":"battery-v0.2"},{"rune":"J","rune_set":"bacs2","hex":"#3366ff99","correct":-1,"choice":32,"rt":431,"accuracy":0,"outcome":"+1","keys":[1933],"total_keys":1,"block":2,"trial":217,"stimulus":11,"robot":2,"valence":"win","action":"no-go","sham":0,"trial_type":"pit-trial","trial_index":241,"time_elapsed":1059939,"internal_node_id":"0.0-219.0","task_version":"battery-v0.2"},{"rune":"X","rune_set":"bacs2","hex":"#f73b6a7A","correct":32,"choice":-1,"rt":-1,"accuracy":0,"outcome":"-10","keys":[],"total_keys":0,"block":2,"trial":218,"stimulus":9,"robot":3,"valence":"lose","action":"go","sham":0,"trial_type":"pit-trial","trial_index":242,"time_elapsed":1063962,"internal_node_id":"0.0-220.0","task_version":"battery-v0.2"},{"rune":"Z","rune_set":"bacs2","hex":"#3366ff99","correct":32,"choice":32,"rt":437,"accuracy":1,"outcome":"+10","keys":[1951],"total_keys":1,"block":2,"trial":219,"stimulus":8,"robot":1,"valence":"win","action":"go","sham":0,"trial_type":"pit-trial","trial_index":243,"time_elapsed":1067125,"internal_node_id":"0.0-221.0","task_version":"battery-v0.2"},{"rune":"W","rune_set":"bacs2","hex":"#f73b6a7A","correct":32,"choice":-1,"rt":-1,"accuracy":0,"outcome":"-10","keys":[],"total_keys":0,"block":2,"trial":220,"stimulus":10,"robot":3,"valence":"lose","action":"go","sham":0,"trial_type":"pit-trial","trial_index":244,"time_elapsed":1071147,"internal_node_id":"0.0-222.0","task_version":"battery-v0.2"},{"rune":"W","rune_set":"bacs2","hex":"#f73b6a7A","correct":32,"choice":32,"rt":273,"accuracy":1,"outcome":"-1","keys":[1775],"total_keys":1,"block":2,"trial":221,"stimulus":10,"robot":3,"valence":"lose","action":"go","sham":0,"trial_type":"pit-trial","trial_index":245,"time_elapsed":1074132,"internal_node_id":"0.0-223.0","task_version":"battery-v0.2"},{"rune":"J","rune_set":"bacs2","hex":"#3366ff99","correct":-1,"choice":32,"rt":354,"accuracy":0,"outcome":"+1","keys":[1856],"total_keys":1,"block":2,"trial":222,"stimulus":11,"robot":2,"valence":"win","action":"no-go","sham":0,"trial_type":"pit-trial","trial_index":246,"time_elapsed":1077201,"internal_node_id":"0.0-224.0","task_version":"battery-v0.2"},{"rune":"X","rune_set":"bacs2","hex":"#f73b6a7A","correct":32,"choice":32,"rt":340,"accuracy":1,"outcome":"-1","keys":[1845],"total_keys":1,"block":2,"trial":223,"stimulus":9,"robot":3,"valence":"lose","action":"go","sham":0,"trial_type":"pit-trial","trial_index":247,"time_elapsed":1080264,"internal_node_id":"0.0-225.0","task_version":"battery-v0.2"},{"rune":"Z","rune_set":"bacs2","hex":"#3366ff99","correct":32,"choice":32,"rt":359,"accuracy":1,"outcome":"+1","keys":[1867],"total_keys":1,"block":2,"trial":224,"stimulus":8,"robot":1,"valence":"win","action":"go","sham":1,"trial_type":"pit-trial","trial_index":248,"time_elapsed":1083350,"internal_node_id":"0.0-226.0","task_version":"battery-v0.2"},{"rune":"X","rune_set":"bacs2","hex":"#f73b6a7A","correct":32,"choice":32,"rt":973,"accuracy":1,"outcome":"-1","keys":[2474],"total_keys":1,"block":2,"trial":225,"stimulus":9,"robot":3,"valence":"lose","action":"go","sham":0,"trial_type":"pit-trial","trial_index":249,"time_elapsed":1087039,"internal_node_id":"0.0-227.0","task_version":"battery-v0.2"},{"rune":"W","rune_set":"bacs2","hex":"#f73b6a7A","correct":32,"choice":32,"rt":349,"accuracy":1,"outcome":"-10","keys":[1854],"total_keys":1,"block":2,"trial":226,"stimulus":10,"robot":3,"valence":"lose","action":"go","sham":1,"trial_type":"pit-trial","trial_index":250,"time_elapsed":1090107,"internal_node_id":"0.0-228.0","task_version":"battery-v0.2"},{"rune":"J","rune_set":"bacs2","hex":"#3366ff99","correct":-1,"choice":-1,"rt":-1,"accuracy":1,"outcome":"+10","keys":[],"total_keys":0,"block":2,"trial":227,"stimulus":11,"robot":2,"valence":"win","action":"no-go","sham":0,"trial_type":"pit-trial","trial_index":251,"time_elapsed":1094130,"internal_node_id":"0.0-229.0","task_version":"battery-v0.2"},{"rune":"Z","rune_set":"bacs2","hex":"#3366ff99","correct":32,"choice":32,"rt":605,"accuracy":1,"outcome":"+10","keys":[2114],"total_keys":1,"block":2,"trial":228,"stimulus":8,"robot":1,"valence":"win","action":"go","sham":0,"trial_type":"pit-trial","trial_index":252,"time_elapsed":1097461,"internal_node_id":"0.0-230.0","task_version":"battery-v0.2"},{"rune":"J","rune_set":"bacs2","hex":"#3366ff99","correct":-1,"choice":32,"rt":911,"accuracy":0,"outcome":"+1","keys":[2425],"total_keys":1,"block":2,"trial":229,"stimulus":11,"robot":2,"valence":"win","action":"no-go","sham":0,"trial_type":"pit-trial","trial_index":253,"time_elapsed":1101098,"internal_node_id":"0.0-231.0","task_version":"battery-v0.2"},{"rune":"Z","rune_set":"bacs2","hex":"#3366ff99","correct":32,"choice":32,"rt":352,"accuracy":1,"outcome":"+10","keys":[1858],"total_keys":1,"block":2,"trial":230,"stimulus":8,"robot":1,"valence":"win","action":"go","sham":0,"trial_type":"pit-trial","trial_index":254,"time_elapsed":1104158,"internal_node_id":"0.0-232.0","task_version":"battery-v0.2"},{"rune":"W","rune_set":"bacs2","hex":"#f73b6a7A","correct":32,"choice":32,"rt":699,"accuracy":1,"outcome":"-1","keys":[2205],"total_keys":1,"block":2,"trial":231,"stimulus":10,"robot":3,"valence":"lose","action":"go","sham":0,"trial_type":"pit-trial","trial_index":255,"time_elapsed":1107575,"internal_node_id":"0.0-233.0","task_version":"battery-v0.2"},{"rune":"X","rune_set":"bacs2","hex":"#f73b6a7A","correct":32,"choice":32,"rt":396,"accuracy":1,"outcome":"-1","keys":[1905],"total_keys":1,"block":2,"trial":232,"stimulus":9,"robot":3,"valence":"lose","action":"go","sham":0,"trial_type":"pit-trial","trial_index":256,"time_elapsed":1110690,"internal_node_id":"0.0-234.0","task_version":"battery-v0.2"},{"rune":"J","rune_set":"bacs2","hex":"#3366ff99","correct":-1,"choice":32,"rt":717,"accuracy":0,"outcome":"+1","keys":[2221],"total_keys":1,"block":2,"trial":233,"stimulus":11,"robot":2,"valence":"win","action":"no-go","sham":0,"trial_type":"pit-trial","trial_index":257,"time_elapsed":1114117,"internal_node_id":"0.0-235.0","task_version":"battery-v0.2"},{"rune":"X","rune_set":"bacs2","hex":"#f73b6a7A","correct":32,"choice":32,"rt":547,"accuracy":1,"outcome":"-10","keys":[2052],"total_keys":1,"block":2,"trial":234,"stimulus":9,"robot":3,"valence":"lose","action":"go","sham":1,"trial_type":"pit-trial","trial_index":258,"time_elapsed":1117378,"internal_node_id":"0.0-236.0","task_version":"battery-v0.2"},{"rune":"W","rune_set":"bacs2","hex":"#f73b6a7A","correct":32,"choice":32,"rt":467,"accuracy":1,"outcome":"-1","keys":[1970],"total_keys":1,"block":2,"trial":235,"stimulus":10,"robot":3,"valence":"lose","action":"go","sham":0,"trial_type":"pit-trial","trial_index":259,"time_elapsed":1120561,"internal_node_id":"0.0-237.0","task_version":"battery-v0.2"},{"rune":"Z","rune_set":"bacs2","hex":"#3366ff99","correct":32,"choice":32,"rt":344,"accuracy":1,"outcome":"+10","keys":[1853],"total_keys":1,"block":2,"trial":236,"stimulus":8,"robot":1,"valence":"win","action":"go","sham":0,"trial_type":"pit-trial","trial_index":260,"time_elapsed":1123627,"internal_node_id":"0.0-238.0","task_version":"battery-v0.2"},{"rune":"W","rune_set":"bacs2","hex":"#f73b6a7A","correct":32,"choice":32,"rt":597,"accuracy":1,"outcome":"-1","keys":[2108],"total_keys":1,"block":2,"trial":237,"stimulus":10,"robot":3,"valence":"lose","action":"go","sham":0,"trial_type":"pit-trial","trial_index":261,"time_elapsed":1126943,"internal_node_id":"0.0-239.0","task_version":"battery-v0.2"},{"rune":"X","rune_set":"bacs2","hex":"#f73b6a7A","correct":32,"choice":-1,"rt":-1,"accuracy":0,"outcome":"-10","keys":[],"total_keys":0,"block":2,"trial":238,"stimulus":9,"robot":3,"valence":"lose","action":"go","sham":0,"trial_type":"pit-trial","trial_index":262,"time_elapsed":1130958,"internal_node_id":"0.0-240.0","task_version":"battery-v0.2"},{"rune":"Z","rune_set":"bacs2","hex":"#3366ff99","correct":32,"choice":32,"rt":230,"accuracy":1,"outcome":"+10","keys":[1733],"total_keys":1,"block":2,"trial":239,"stimulus":8,"robot":1,"valence":"win","action":"go","sham":0,"trial_type":"pit-trial","trial_index":263,"time_elapsed":1133904,"internal_node_id":"0.0-241.0","task_version":"battery-v0.2"},{"rune":"J","rune_set":"bacs2","hex":"#3366ff99","correct":-1,"choice":32,"rt":262,"accuracy":0,"outcome":"+1","keys":[1767],"total_keys":1,"block":2,"trial":240,"stimulus":11,"robot":2,"valence":"win","action":"no-go","sham":0,"trial_type":"pit-trial","trial_index":264,"time_elapsed":1136875,"internal_node_id":"0.0-242.0","task_version":"battery-v0.2"},{"view_history":"[{\"page_index\":0,\"viewing_time\":3068}]","rt":3068,"trial_type":"pit-instructions","trial_index":265,"time_elapsed":1139946,"internal_node_id":"0.0-243.0","task_version":"battery-v0.2"},{"rt":15962,"responses":{"age":"44","gender-categorical":"Female","gender-free-response":"","ethnicity":"Not Hispanic or Latino","race":["White"],"language":"Yes","fluency":"Very well"},"survey":"demographics","trial_type":"survey-demo","trial_index":266,"time_elapsed":1155914,"internal_node_id":"0.0-244.0","task_version":"battery-v0.2"},{"rt":46692,"responses":{"difficulty":"2","fun":"4","clarity":"5","strategy":"I wanted to find some pattern, but I could not find it :/","feedback":"Thank you!"},"survey":"debrief","trial_type":"survey-debrief","trial_index":267,"time_elapsed":1202610,"internal_node_id":"0.0-245.0","task_version":"battery-v0.2","interactions":"[{\"event\":\"focus\",\"trial\":0,\"time\":5}]"}]