[{"view_history":"[{\"page_index\":0,\"viewing_time\":3562.130000034813},{\"page_index\":1,\"viewing_time\":4616.284999996424},{\"page_index\":2,\"viewing_time\":7775.454999995418},{\"page_index\":3,\"viewing_time\":18632.22999998834},{\"page_index\":4,\"viewing_time\":15760.055000020657},{\"page_index\":5,\"viewing_time\":9568.609999958426},{\"page_index\":6,\"viewing_time\":8759.2949999962},{\"page_index\":7,\"viewing_time\":14447.849999996834},{\"page_index\":8,\"viewing_time\":6928.270000033081},{\"page_index\":9,\"viewing_time\":5679.82999997912}]","rt":95731.21500003617,"trial_type":"pit-instructions","trial_index":0,"time_elapsed":95751,"internal_node_id":"0.0-0.0-0.0","task_version":"battery-v0.2"},{"rune":"1","rune_set":"elianto","hex":"#3366ff99","correct":32,"choice":-1,"rt":-1,"accuracy":0,"outcome":"+1","keys":[],"total_keys":0,"block":0,"practice":1,"trial_type":"pit-trial","trial_index":1,"time_elapsed":99760,"internal_node_id":"0.0-0.0-1.0-0.0","task_version":"battery-v0.2"},{"rune":"1","rune_set":"elianto","hex":"#3366ff99","correct":32,"choice":-1,"rt":-1,"accuracy":0,"outcome":"+1","keys":[],"total_keys":0,"block":0,"practice":1,"trial_type":"pit-trial","trial_index":2,"time_elapsed":103770,"internal_node_id":"0.0-0.0-1.1-0.1","task_version":"battery-v0.2"},{"rune":"1","rune_set":"elianto","hex":"#3366ff99","correct":32,"choice":-1,"rt":-1,"accuracy":0,"outcome":"+1","keys":[],"total_keys":0,"block":0,"practice":1,"trial_type":"pit-trial","trial_index":3,"time_elapsed":107779,"internal_node_id":"0.0-0.0-1.2-0.2","task_version":"battery-v0.2"},{"rune":"1","rune_set":"elianto","hex":"#3366ff99","correct":32,"choice":-1,"rt":-1,"accuracy":0,"outcome":"+1","keys":[],"total_keys":0,"block":0,"practice":1,"trial_type":"pit-trial","trial_index":4,"time_elapsed":111789,"internal_node_id":"0.0-0.0-1.3-0.3","task_version":"battery-v0.2"},{"rune":"1","rune_set":"elianto","hex":"#3366ff99","correct":32,"choice":32,"rt":961.1100000329316,"accuracy":1,"outcome":"+10","keys":[2460.9400000190362],"total_keys":1,"block":0,"practice":1,"trial_type":"pit-trial","trial_index":5,"time_elapsed":115460,"internal_node_id":"0.0-0.0-1.4-0.4","task_version":"battery-v0.2"},{"rune":"1","rune_set":"elianto","hex":"#3366ff99","correct":32,"choice":32,"rt":1086.1750000040047,"accuracy":1,"outcome":"+10","keys":[2586.6249999962747],"total_keys":1,"block":0,"practice":1,"trial_type":"pit-trial","trial_index":6,"time_elapsed":119252,"internal_node_id":"0.0-0.0-1.5-0.5","task_version":"battery-v0.2"},{"rune":"1","rune_set":"elianto","hex":"#3366ff99","correct":32,"choice":32,"rt":1268.3650000253692,"accuracy":1,"outcome":"+10","keys":[2769.345000036992],"total_keys":1,"block":0,"practice":1,"trial_type":"pit-trial","trial_index":7,"time_elapsed":123229,"internal_node_id":"0.0-0.0-1.6-0.6","task_version":"battery-v0.2"},{"view_history":"[{\"page_index\":0,\"viewing_time\":6674.630000023171},{\"page_index\":1,\"viewing_time\":38696.3799999794}]","rt":45371.47499999264,"trial_type":"pit-instructions","trial_index":8,"time_elapsed":168607,"internal_node_id":"0.0-0.0-2.0","task_version":"battery-v0.2"},{"rune":"2","rune_set":"elianto","hex":"#3366ff99","correct":-1,"choice":32,"rt":1060.6850000331178,"accuracy":0,"outcome":"+1","keys":[2560.834999952931],"total_keys":1,"block":0,"practice":2,"trial_type":"pit-trial","trial_index":9,"time_elapsed":172371,"internal_node_id":"0.0-0.0-3.0-0.0","task_version":"battery-v0.2"},{"rune":"2","rune_set":"elianto","hex":"#3366ff99","correct":-1,"choice":-1,"rt":-1,"accuracy":1,"outcome":"+10","keys":[],"total_keys":0,"block":0,"practice":2,"trial_type":"pit-trial","trial_index":10,"time_elapsed":176377,"internal_node_id":"0.0-0.0-3.1-0.1","task_version":"battery-v0.2"},{"rune":"2","rune_set":"elianto","hex":"#3366ff99","correct":-1,"choice":-1,"rt":-1,"accuracy":1,"outcome":"+10","keys":[],"total_keys":0,"block":0,"practice":2,"trial_type":"pit-trial","trial_index":11,"time_elapsed":180385,"internal_node_id":"0.0-0.0-3.2-0.2","task_version":"battery-v0.2"},{"rune":"2","rune_set":"elianto","hex":"#3366ff99","correct":-1,"choice":-1,"rt":-1,"accuracy":1,"outcome":"+10","keys":[],"total_keys":0,"block":0,"practice":2,"trial_type":"pit-trial","trial_index":12,"time_elapsed":184390,"internal_node_id":"0.0-0.0-3.3-0.3","task_version":"battery-v0.2"},{"view_history":"[{\"page_index\":0,\"viewing_time\":37132.59500003187},{\"page_index\":1,\"viewing_time\":6495.6099999835715}]","rt":43628.85500001721,"trial_type":"pit-instructions","trial_index":13,"time_elapsed":228022,"internal_node_id":"0.0-0.0-4.0","task_version":"battery-v0.2"},{"rune":"3","rune_set":"elianto","hex":"#f73b6a7A","correct":-1,"choice":-1,"rt":-1,"accuracy":1,"outcome":"-1","keys":[3016.3199999951757],"total_keys":1,"block":0,"practice":3,"trial_type":"pit-trial","trial_index":14,"time_elapsed":232027,"internal_node_id":"0.0-0.0-5.0-0.0","task_version":"battery-v0.2"},{"rune":"3","rune_set":"elianto","hex":"#f73b6a7A","correct":-1,"choice":-1,"rt":-1,"accuracy":1,"outcome":"-1","keys":[],"total_keys":0,"block":0,"practice":3,"trial_type":"pit-trial","trial_index":15,"time_elapsed":236035,"internal_node_id":"0.0-0.0-5.1-0.1","task_version":"battery-v0.2"},{"rune":"3","rune_set":"elianto","hex":"#f73b6a7A","correct":-1,"choice":32,"rt":851.4350000186823,"accuracy":0,"outcome":"-10","keys":[2352.009999973234],"total_keys":1,"block":0,"practice":3,"trial_type":"pit-trial","trial_index":16,"time_elapsed":239593,"internal_node_id":"0.0-0.0-5.2-0.2","task_version":"battery-v0.2"},{"rune":"3","rune_set":"elianto","hex":"#f73b6a7A","correct":-1,"choice":-1,"rt":-1,"accuracy":1,"outcome":"-1","keys":[],"total_keys":0,"block":0,"practice":3,"trial_type":"pit-trial","trial_index":17,"time_elapsed":243600,"internal_node_id":"0.0-0.0-5.3-0.3","task_version":"battery-v0.2"},{"rune":"3","rune_set":"elianto","hex":"#f73b6a7A","correct":-1,"choice":-1,"rt":-1,"accuracy":1,"outcome":"-1","keys":[],"total_keys":0,"block":0,"practice":3,"trial_type":"pit-trial","trial_index":18,"time_elapsed":247608,"internal_node_id":"0.0-0.0-5.4-0.4","task_version":"battery-v0.2"},{"rune":"3","rune_set":"elianto","hex":"#f73b6a7A","correct":-1,"choice":-1,"rt":-1,"accuracy":1,"outcome":"-1","keys":[],"total_keys":0,"block":0,"practice":3,"trial_type":"pit-trial","trial_index":19,"time_elapsed":251617,"internal_node_id":"0.0-0.0-5.5-0.5","task_version":"battery-v0.2"},{"view_history":"[{\"page_index\":0,\"viewing_time\":4314.055000024382},{\"page_index\":1,\"viewing_time\":3615.784999972675}]","rt":7930.4400000255555,"trial_type":"pit-instructions","trial_index":20,"time_elapsed":259550,"internal_node_id":"0.0-0.0-6.0","task_version":"battery-v0.2"},{"rune":"4","rune_set":"elianto","hex":"#f73b6a7A","correct":32,"choice":-1,"rt":-1,"accuracy":0,"outcome":"-10","keys":[],"total_keys":0,"block":0,"practice":4,"trial_type":"pit-trial","trial_index":21,"time_elapsed":263556,"internal_node_id":"0.0-0.0-7.0-0.0","task_version":"battery-v0.2"},{"rune":"4","rune_set":"elianto","hex":"#f73b6a7A","correct":32,"choice":-1,"rt":-1,"accuracy":0,"outcome":"-10","keys":[],"total_keys":0,"block":0,"practice":4,"trial_type":"pit-trial","trial_index":22,"time_elapsed":267564,"internal_node_id":"0.0-0.0-7.1-0.1","task_version":"battery-v0.2"},{"rune":"4","rune_set":"elianto","hex":"#f73b6a7A","correct":32,"choice":32,"rt":488.10000001685694,"accuracy":1,"outcome":"-1","keys":[1988.645000034012],"total_keys":1,"block":0,"practice":4,"trial_type":"pit-trial","trial_index":23,"time_elapsed":270760,"internal_node_id":"0.0-0.0-7.2-0.2","task_version":"battery-v0.2"},{"rune":"4","rune_set":"elianto","hex":"#f73b6a7A","correct":32,"choice":32,"rt":617.5900000380352,"accuracy":1,"outcome":"-1","keys":[2118.590000027325],"total_keys":1,"block":0,"practice":4,"trial_type":"pit-trial","trial_index":24,"time_elapsed":274085,"internal_node_id":"0.0-0.0-7.3-0.3","task_version":"battery-v0.2"},{"rune":"4","rune_set":"elianto","hex":"#f73b6a7A","correct":32,"choice":32,"rt":573.4850000008009,"accuracy":1,"outcome":"-1","keys":[2074.0849999710917],"total_keys":1,"block":0,"practice":4,"trial_type":"pit-trial","trial_index":25,"time_elapsed":277365,"internal_node_id":"0.0-0.0-7.4-0.4","task_version":"battery-v0.2"},{"view_history":"[{\"page_index\":0,\"viewing_time\":2430.9449999709614},{\"page_index\":1,\"viewing_time\":7496.305000036955},{\"page_index\":2,\"viewing_time\":16271.61499997601},{\"page_index\":3,\"viewing_time\":2816.4600000018254},{\"page_index\":4,\"viewing_time\":4711.539999989327},{\"page_index\":5,\"viewing_time\":3408.1899999873713}]","rt":37135.62999997521,"trial_type":"pit-instructions","trial_index":26,"time_elapsed":314502,"internal_node_id":"0.0-0.0-8.0","task_version":"battery-v0.2"},{"responses":["Press SPACE","+10","+10","True","True"],"num_errors":1,"rt":39429.699999978766,"trial_type":"pit-comprehension","trial_index":27,"time_elapsed":353936,"internal_node_id":"0.0-0.0-9.0","task_version":"battery-v0.2"},{"view_history":"[{\"page_index\":0,\"viewing_time\":2086.219999997411},{\"page_index\":1,\"viewing_time\":4200.094999978319}]","rt":6286.919999984093,"trial_type":"pit-instructions","trial_index":28,"time_elapsed":360230,"internal_node_id":"0.0-1.0","task_version":"battery-v0.2"},{"rune":"M","rune_set":"bacs2","hex":"#f73b6a7A","correct":-1,"choice":-1,"rt":-1,"accuracy":1,"outcome":"-1","keys":[3021.164999983739],"total_keys":1,"block":1,"trial":1,"stimulus":0,"robot":4,"valence":"lose","action":"no-go","sham":0,"trial_type":"pit-trial","trial_index":29,"time_elapsed":364238,"internal_node_id":"0.0-2.0","task_version":"battery-v0.2"},{"rune":"V","rune_set":"bacs2","hex":"#3366ff99","correct":-1,"choice":-1,"rt":-1,"accuracy":1,"outcome":"+10","keys":[],"total_keys":0,"block":1,"trial":2,"stimulus":3,"robot":2,"valence":"win","action":"no-go","sham":0,"trial_type":"pit-trial","trial_index":30,"time_elapsed":368246,"internal_node_id":"0.0-3.0","task_version":"battery-v0.2"},{"rune":"B","rune_set":"bacs2","hex":"#f73b6a7A","correct":-1,"choice":-1,"rt":-1,"accuracy":1,"outcome":"-1","keys":[],"total_keys":0,"block":1,"trial":3,"stimulus":1,"robot":4,"valence":"lose","action":"no-go","sham":0,"trial_type":"pit-trial","trial_index":31,"time_elapsed":372251,"internal_node_id":"0.0-4.0","task_version":"battery-v0.2"},{"rune":"K","rune_set":"bacs2","hex":"#3366ff99","correct":32,"choice":32,"rt":804.4600000139326,"accuracy":1,"outcome":"+10","keys":[2305.355000018608],"total_keys":1,"block":1,"trial":4,"stimulus":2,"robot":1,"valence":"win","action":"go","sham":0,"trial_type":"pit-trial","trial_index":32,"time_elapsed":375763,"internal_node_id":"0.0-5.0","task_version":"battery-v0.2"},{"rune":"V","rune_set":"bacs2","hex":"#3366ff99","correct":-1,"choice":32,"rt":571.8650000053458,"accuracy":0,"outcome":"+1","keys":[2072.860000014771],"total_keys":1,"block":1,"trial":5,"stimulus":3,"robot":2,"valence":"win","action":"no-go","sham":0,"trial_type":"pit-trial","trial_index":33,"time_elapsed":379040,"internal_node_id":"0.0-6.0","task_version":"battery-v0.2"},{"rune":"M","rune_set":"bacs2","hex":"#f73b6a7A","correct":-1,"choice":32,"rt":833.7750000064261,"accuracy":0,"outcome":"-1","keys":[2333.8950000470504],"total_keys":1,"block":1,"trial":6,"stimulus":0,"robot":4,"valence":"lose","action":"no-go","sham":1,"trial_type":"pit-trial","trial_index":34,"time_elapsed":382579,"internal_node_id":"0.0-7.0","task_version":"battery-v0.2"},{"rune":"B","rune_set":"bacs2","hex":"#f73b6a7A","correct":-1,"choice":-1,"rt":-1,"accuracy":1,"outcome":"-10","keys":[],"total_keys":0,"block":1,"trial":7,"stimulus":1,"robot":4,"valence":"lose","action":"no-go","sham":1,"trial_type":"pit-trial","trial_index":35,"time_elapsed":386587,"internal_node_id":"0.0-8.0","task_version":"battery-v0.2"},{"rune":"K","rune_set":"bacs2","hex":"#3366ff99","correct":32,"choice":32,"rt":469.44499999517575,"accuracy":1,"outcome":"+10","keys":[1971.1099999840371],"total_keys":1,"block":1,"trial":8,"stimulus":2,"robot":1,"valence":"win","action":"go","sham":0,"trial_type":"pit-trial","trial_index":36,"time_elapsed":389765,"internal_node_id":"0.0-9.0","task_version":"battery-v0.2"},{"rune":"V","rune_set":"bacs2","hex":"#3366ff99","correct":-1,"choice":32,"rt":418.14500000327826,"accuracy":0,"outcome":"+1","keys":[1918.965000018943],"total_keys":1,"block":1,"trial":9,"stimulus":3,"robot":2,"valence":"win","action":"no-go","sham":0,"trial_type":"pit-trial","trial_index":37,"time_elapsed":392890,"internal_node_id":"0.0-10.0","task_version":"battery-v0.2"},{"rune":"B","rune_set":"bacs2","hex":"#f73b6a7A","correct":-1,"choice":32,"rt":900.3800000064075,"accuracy":0,"outcome":"-10","keys":[2400.8599999942817],"total_keys":1,"block":1,"trial":10,"stimulus":1,"robot":4,"valence":"lose","action":"no-go","sham":0,"trial_type":"pit-trial","trial_index":38,"time_elapsed":396496,"internal_node_id":"0.0-11.0","task_version":"battery-v0.2"},{"rune":"K","rune_set":"bacs2","hex":"#3366ff99","correct":32,"choice":32,"rt":501.7750000115484,"accuracy":1,"outcome":"+1","keys":[2002.3550000041723],"total_keys":1,"block":1,"trial":11,"stimulus":2,"robot":1,"valence":"win","action":"go","sham":1,"trial_type":"pit-trial","trial_index":39,"time_elapsed":399704,"internal_node_id":"0.0-12.0","task_version":"battery-v0.2"},{"rune":"M","rune_set":"bacs2","hex":"#f73b6a7A","correct":-1,"choice":-1,"rt":-1,"accuracy":1,"outcome":"-10","keys":[],"total_keys":0,"block":1,"trial":12,"stimulus":0,"robot":4,"valence":"lose","action":"no-go","sham":1,"trial_type":"pit-trial","trial_index":40,"time_elapsed":403713,"internal_node_id":"0.0-13.0","task_version":"battery-v0.2"},{"rune":"B","rune_set":"bacs2","hex":"#f73b6a7A","correct":-1,"choice":32,"rt":621.6399999684654,"accuracy":0,"outcome":"-10","keys":[2122.784999955911],"total_keys":1,"block":1,"trial":13,"stimulus":1,"robot":4,"valence":"lose","action":"no-go","sham":0,"trial_type":"pit-trial","trial_index":41,"time_elapsed":407043,"internal_node_id":"0.0-14.0","task_version":"battery-v0.2"},{"rune":"V","rune_set":"bacs2","hex":"#3366ff99","correct":-1,"choice":32,"rt":502.9450000147335,"accuracy":0,"outcome":"+1","keys":[2003.7549999542534],"total_keys":1,"block":1,"trial":14,"stimulus":3,"robot":2,"valence":"win","action":"no-go","sham":0,"trial_type":"pit-trial","trial_index":42,"time_elapsed":410254,"internal_node_id":"0.0-15.0","task_version":"battery-v0.2"},{"rune":"M","rune_set":"bacs2","hex":"#f73b6a7A","correct":-1,"choice":32,"rt":806.200000050012,"accuracy":0,"outcome":"-10","keys":[2308.9200000395067],"total_keys":1,"block":1,"trial":15,"stimulus":0,"robot":4,"valence":"lose","action":"no-go","sham":0,"trial_type":"pit-trial","trial_index":43,"time_elapsed":413770,"internal_node_id":"0.0-16.0","task_version":"battery-v0.2"},{"rune":"K","rune_set":"bacs2","hex":"#3366ff99","correct":32,"choice":32,"rt":536.6700000013225,"accuracy":1,"outcome":"+1","keys":[2037.2649999917485],"total_keys":1,"block":1,"trial":16,"stimulus":2,"robot":1,"valence":"win","action":"go","sham":1,"trial_type":"pit-trial","trial_index":44,"time_elapsed":417014,"internal_node_id":"0.0-17.0","task_version":"battery-v0.2"},{"rune":"V","rune_set":"bacs2","hex":"#3366ff99","correct":-1,"choice":32,"rt":680.7750000152737,"accuracy":0,"outcome":"+1","keys":[2181.299999996554],"total_keys":1,"block":1,"trial":17,"stimulus":3,"robot":2,"valence":"win","action":"no-go","sham":0,"trial_type":"pit-trial","trial_index":45,"time_elapsed":420402,"internal_node_id":"0.0-18.0","task_version":"battery-v0.2"},{"rune":"B","rune_set":"bacs2","hex":"#f73b6a7A","correct":-1,"choice":32,"rt":1096.6200000257231,"accuracy":0,"outcome":"-10","keys":[2597.074999997858],"total_keys":1,"block":1,"trial":18,"stimulus":1,"robot":4,"valence":"lose","action":"no-go","sham":0,"trial_type":"pit-trial","trial_index":46,"time_elapsed":424207,"internal_node_id":"0.0-19.0","task_version":"battery-v0.2"},{"rune":"K","rune_set":"bacs2","hex":"#3366ff99","correct":32,"choice":32,"rt":694.2649999982677,"accuracy":1,"outcome":"+10","keys":[2195.3750000102445],"total_keys":1,"block":1,"trial":19,"stimulus":2,"robot":1,"valence":"win","action":"go","sham":0,"trial_type":"pit-trial","trial_index":47,"time_elapsed":427609,"internal_node_id":"0.0-20.0","task_version":"battery-v0.2"},{"rune":"M","rune_set":"bacs2","hex":"#f73b6a7A","correct":-1,"choice":-1,"rt":-1,"accuracy":1,"outcome":"-1","keys":[],"total_keys":0,"block":1,"trial":20,"stimulus":0,"robot":4,"valence":"lose","action":"no-go","sham":0,"trial_type":"pit-trial","trial_index":48,"time_elapsed":431617,"internal_node_id":"0.0-21.0","task_version":"battery-v0.2"},{"rune":"B","rune_set":"bacs2","hex":"#f73b6a7A","correct":-1,"choice":-1,"rt":-1,"accuracy":1,"outcome":"-1","keys":[],"total_keys":0,"block":1,"trial":21,"stimulus":1,"robot":4,"valence":"lose","action":"no-go","sham":0,"trial_type":"pit-trial","trial_index":49,"time_elapsed":435624,"internal_node_id":"0.0-22.0","task_version":"battery-v0.2"},{"rune":"M","rune_set":"bacs2","hex":"#f73b6a7A","correct":-1,"choice":-1,"rt":-1,"accuracy":1,"outcome":"-10","keys":[],"total_keys":0,"block":1,"trial":22,"stimulus":0,"robot":4,"valence":"lose","action":"no-go","sham":1,"trial_type":"pit-trial","trial_index":50,"time_elapsed":439631,"internal_node_id":"0.0-23.0","task_version":"battery-v0.2"},{"rune":"K","rune_set":"bacs2","hex":"#3366ff99","correct":32,"choice":32,"rt":738.8950000167824,"accuracy":1,"outcome":"+10","keys":[2240.06499996176],"total_keys":1,"block":1,"trial":23,"stimulus":2,"robot":1,"valence":"win","action":"go","sham":0,"trial_type":"pit-trial","trial_index":51,"time_elapsed":443076,"internal_node_id":"0.0-24.0","task_version":"battery-v0.2"},{"rune":"V","rune_set":"bacs2","hex":"#3366ff99","correct":-1,"choice":32,"rt":682.3800000129268,"accuracy":0,"outcome":"+1","keys":[2183.3049999549985],"total_keys":1,"block":1,"trial":24,"stimulus":3,"robot":2,"valence":"win","action":"no-go","sham":0,"trial_type":"pit-trial","trial_index":52,"time_elapsed":446465,"internal_node_id":"0.0-25.0","task_version":"battery-v0.2"},{"rune":"B","rune_set":"bacs2","hex":"#f73b6a7A","correct":-1,"choice":-1,"rt":-1,"accuracy":1,"outcome":"-1","keys":[],"total_keys":0,"block":1,"trial":25,"stimulus":1,"robot":4,"valence":"lose","action":"no-go","sham":0,"trial_type":"pit-trial","trial_index":53,"time_elapsed":450474,"internal_node_id":"0.0-26.0","task_version":"battery-v0.2"},{"rune":"V","rune_set":"bacs2","hex":"#3366ff99","correct":-1,"choice":32,"rt":640.1699999696575,"accuracy":0,"outcome":"+1","keys":[2140.9049999783747],"total_keys":1,"block":1,"trial":26,"stimulus":3,"robot":2,"valence":"win","action":"no-go","sham":0,"trial_type":"pit-trial","trial_index":54,"time_elapsed":453822,"internal_node_id":"0.0-27.0","task_version":"battery-v0.2"},{"rune":"K","rune_set":"bacs2","hex":"#3366ff99","correct":32,"choice":32,"rt":655.6449999916367,"accuracy":1,"outcome":"+10","keys":[2155.8500000392087],"total_keys":1,"block":1,"trial":27,"stimulus":2,"robot":1,"valence":"win","action":"go","sham":0,"trial_type":"pit-trial","trial_index":55,"time_elapsed":457184,"internal_node_id":"0.0-28.0","task_version":"battery-v0.2"},{"rune":"M","rune_set":"bacs2","hex":"#f73b6a7A","correct":-1,"choice":-1,"rt":-1,"accuracy":1,"outcome":"-1","keys":[],"total_keys":0,"block":1,"trial":28,"stimulus":0,"robot":4,"valence":"lose","action":"no-go","sham":0,"trial_type":"pit-trial","trial_index":56,"time_elapsed":461190,"internal_node_id":"0.0-29.0","task_version":"battery-v0.2"},{"rune":"K","rune_set":"bacs2","hex":"#3366ff99","correct":32,"choice":32,"rt":870.7799999974668,"accuracy":1,"outcome":"+10","keys":[2371.55999999959],"total_keys":1,"block":1,"trial":29,"stimulus":2,"robot":1,"valence":"win","action":"go","sham":0,"trial_type":"pit-trial","trial_index":57,"time_elapsed":464767,"internal_node_id":"0.0-30.0","task_version":"battery-v0.2"},{"rune":"M","rune_set":"bacs2","hex":"#f73b6a7A","correct":-1,"choice":-1,"rt":-1,"accuracy":1,"outcome":"-10","keys":[],"total_keys":0,"block":1,"trial":30,"stimulus":0,"robot":4,"valence":"lose","action":"no-go","sham":1,"trial_type":"pit-trial","trial_index":58,"time_elapsed":468772,"internal_node_id":"0.0-31.0","task_version":"battery-v0.2"},{"rune":"V","rune_set":"bacs2","hex":"#3366ff99","correct":-1,"choice":32,"rt":582.1149999974295,"accuracy":0,"outcome":"+10","keys":[2082.620000001043],"total_keys":1,"block":1,"trial":31,"stimulus":3,"robot":2,"valence":"win","action":"no-go","sham":1,"trial_type":"pit-trial","trial_index":59,"time_elapsed":472060,"internal_node_id":"0.0-32.0","task_version":"battery-v0.2"},{"rune":"B","rune_set":"bacs2","hex":"#f73b6a7A","correct":-1,"choice":32,"rt":906.325000047218,"accuracy":0,"outcome":"-10","keys":[2406.60999994725],"total_keys":1,"block":1,"trial":32,"stimulus":1,"robot":4,"valence":"lose","action":"no-go","sham":0,"trial_type":"pit-trial","trial_index":60,"time_elapsed":475672,"internal_node_id":"0.0-33.0","task_version":"battery-v0.2"},{"rune":"M","rune_set":"bacs2","hex":"#f73b6a7A","correct":-1,"choice":-1,"rt":-1,"accuracy":1,"outcome":"-1","keys":[],"total_keys":0,"block":1,"trial":33,"stimulus":0,"robot":4,"valence":"lose","action":"no-go","sham":0,"trial_type":"pit-trial","trial_index":61,"time_elapsed":479680,"internal_node_id":"0.0-34.0","task_version":"battery-v0.2"},{"rune":"V","rune_set":"bacs2","hex":"#3366ff99","correct":-1,"choice":32,"rt":587.8699999884702,"accuracy":0,"outcome":"+1","keys":[2088.220000034198],"total_keys":1,"block":1,"trial":34,"stimulus":3,"robot":2,"valence":"win","action":"no-go","sham":0,"trial_type":"pit-trial","trial_index":62,"time_elapsed":482978,"internal_node_id":"0.0-35.0","task_version":"battery-v0.2"},{"rune":"R","rune_set":"bacs2","hex":"#f73b6a7A","correct":32,"choice":32,"rt":851.9850000157021,"accuracy":1,"outcome":"-1","keys":[2352.7650000178255],"total_keys":1,"block":1,"trial":35,"stimulus":4,"robot":3,"valence":"lose","action":"go","sham":0,"trial_type":"pit-trial","trial_index":63,"time_elapsed":486536,"internal_node_id":"0.0-36.0","task_version":"battery-v0.2"},{"rune":"K","rune_set":"bacs2","hex":"#3366ff99","correct":32,"choice":32,"rt":579.1149999713525,"accuracy":1,"outcome":"+1","keys":[2079.845000000205],"total_keys":1,"block":1,"trial":36,"stimulus":2,"robot":1,"valence":"win","action":"go","sham":1,"trial_type":"pit-trial","trial_index":64,"time_elapsed":489823,"internal_node_id":"0.0-37.0","task_version":"battery-v0.2"},{"rune":"R","rune_set":"bacs2","hex":"#f73b6a7A","correct":32,"choice":-1,"rt":-1,"accuracy":0,"outcome":"-10","keys":[],"total_keys":0,"block":1,"trial":37,"stimulus":4,"robot":3,"valence":"lose","action":"go","sham":0,"trial_type":"pit-trial","trial_index":65,"time_elapsed":493840,"internal_node_id":"0.0-38.0","task_version":"battery-v0.2"},{"rune":"K","rune_set":"bacs2","hex":"#3366ff99","correct":32,"choice":32,"rt":446.5499999932945,"accuracy":1,"outcome":"+10","keys":[1946.9849999877624],"total_keys":1,"block":1,"trial":38,"stimulus":2,"robot":1,"valence":"win","action":"go","sham":0,"trial_type":"pit-trial","trial_index":66,"time_elapsed":496993,"internal_node_id":"0.0-39.0","task_version":"battery-v0.2"},{"rune":"V","rune_set":"bacs2","hex":"#3366ff99","correct":-1,"choice":32,"rt":393.96499999566004,"accuracy":0,"outcome":"+10","keys":[1896.8950000125915],"total_keys":1,"block":1,"trial":39,"stimulus":3,"robot":2,"valence":"win","action":"no-go","sham":1,"trial_type":"pit-trial","trial_index":67,"time_elapsed":500094,"internal_node_id":"0.0-40.0","task_version":"battery-v0.2"},{"rune":"M","rune_set":"bacs2","hex":"#f73b6a7A","correct":-1,"choice":32,"rt":803.8599999854341,"accuracy":0,"outcome":"-10","keys":[2304.3649999890476],"total_keys":1,"block":1,"trial":40,"stimulus":0,"robot":4,"valence":"lose","action":"no-go","sham":0,"trial_type":"pit-trial","trial_index":68,"time_elapsed":503603,"internal_node_id":"0.0-41.0","task_version":"battery-v0.2"},{"rune":"P","rune_set":"bacs2","hex":"#3366ff99","correct":-1,"choice":32,"rt":420.6349999876693,"accuracy":0,"outcome":"+1","keys":[1920.7049999968149],"total_keys":1,"block":1,"trial":41,"stimulus":5,"robot":2,"valence":"win","action":"no-go","sham":0,"trial_type":"pit-trial","trial_index":69,"time_elapsed":506732,"internal_node_id":"0.0-42.0","task_version":"battery-v0.2"},{"rune":"R","rune_set":"bacs2","hex":"#f73b6a7A","correct":32,"choice":32,"rt":678.0750000034459,"accuracy":1,"outcome":"-1","keys":[2178.2749999547377],"total_keys":1,"block":1,"trial":42,"stimulus":4,"robot":3,"valence":"lose","action":"go","sham":0,"trial_type":"pit-trial","trial_index":70,"time_elapsed":510117,"internal_node_id":"0.0-43.0","task_version":"battery-v0.2"},{"rune":"M","rune_set":"bacs2","hex":"#f73b6a7A","correct":-1,"choice":32,"rt":1247.3200000240467,"accuracy":0,"outcome":"-1","keys":[2747.8449999471195],"total_keys":1,"block":1,"trial":43,"stimulus":0,"robot":4,"valence":"lose","action":"no-go","sham":1,"trial_type":"pit-trial","trial_index":71,"time_elapsed":514069,"internal_node_id":"0.0-44.0","task_version":"battery-v0.2"},{"rune":"L","rune_set":"bacs2","hex":"#3366ff99","correct":32,"choice":32,"rt":544.5349999936298,"accuracy":1,"outcome":"+10","keys":[2045.0049999635667],"total_keys":1,"block":1,"trial":44,"stimulus":6,"robot":1,"valence":"win","action":"go","sham":0,"trial_type":"pit-trial","trial_index":72,"time_elapsed":517318,"internal_node_id":"0.0-45.0","task_version":"battery-v0.2"},{"rune":"L","rune_set":"bacs2","hex":"#3366ff99","correct":32,"choice":32,"rt":459.69999994849786,"accuracy":1,"outcome":"+10","keys":[1959.8550000227988],"total_keys":1,"block":1,"trial":45,"stimulus":6,"robot":1,"valence":"win","action":"go","sham":0,"trial_type":"pit-trial","trial_index":73,"time_elapsed":520487,"internal_node_id":"0.0-46.0","task_version":"battery-v0.2"},{"rune":"R","rune_set":"bacs2","hex":"#f73b6a7A","correct":32,"choice":32,"rt":767.8699999814853,"accuracy":1,"outcome":"-10","keys":[2268.164999957662],"total_keys":1,"block":1,"trial":46,"stimulus":4,"robot":3,"valence":"lose","action":"go","sham":1,"trial_type":"pit-trial","trial_index":74,"time_elapsed":523962,"internal_node_id":"0.0-47.0","task_version":"battery-v0.2"},{"rune":"P","rune_set":"bacs2","hex":"#3366ff99","correct":-1,"choice":32,"rt":470.9900000016205,"accuracy":0,"outcome":"+1","keys":[1971.5500000165775],"total_keys":1,"block":1,"trial":47,"stimulus":5,"robot":2,"valence":"win","action":"no-go","sham":0,"trial_type":"pit-trial","trial_index":75,"time_elapsed":527141,"internal_node_id":"0.0-48.0","task_version":"battery-v0.2"},{"rune":"M","rune_set":"bacs2","hex":"#f73b6a7A","correct":-1,"choice":32,"rt":913.8450000318699,"accuracy":0,"outcome":"-1","keys":[2414.0100000076927],"total_keys":1,"block":1,"trial":48,"stimulus":0,"robot":4,"valence":"lose","action":"no-go","sham":1,"trial_type":"pit-trial","trial_index":76,"time_elapsed":530759,"internal_node_id":"0.0-49.0","task_version":"battery-v0.2"},{"rune":"R","rune_set":"bacs2","hex":"#f73b6a7A","correct":32,"choice":32,"rt":748.4350000158884,"accuracy":1,"outcome":"-10","keys":[2248.729999992065],"total_keys":1,"block":1,"trial":49,"stimulus":4,"robot":3,"valence":"lose","action":"go","sham":1,"trial_type":"pit-trial","trial_index":77,"time_elapsed":534212,"internal_node_id":"0.0-50.0","task_version":"battery-v0.2"},{"rune":"S","rune_set":"bacs2","hex":"#f73b6a7A","correct":-1,"choice":32,"rt":847.7650000131689,"accuracy":0,"outcome":"-10","keys":[2349.449999979697],"total_keys":1,"block":1,"trial":50,"stimulus":7,"robot":4,"valence":"lose","action":"no-go","sham":0,"trial_type":"pit-trial","trial_index":78,"time_elapsed":537768,"internal_node_id":"0.0-51.0","task_version":"battery-v0.2"},{"rune":"L","rune_set":"bacs2","hex":"#3366ff99","correct":32,"choice":32,"rt":475.1999999862164,"accuracy":1,"outcome":"+1","keys":[1975.6749999942258],"total_keys":1,"block":1,"trial":51,"stimulus":6,"robot":1,"valence":"win","action":"go","sham":1,"trial_type":"pit-trial","trial_index":79,"time_elapsed":540948,"internal_node_id":"0.0-52.0","task_version":"battery-v0.2"},{"rune":"P","rune_set":"bacs2","hex":"#3366ff99","correct":-1,"choice":32,"rt":417.41500003263354,"accuracy":0,"outcome":"+1","keys":[1918.5050000087358],"total_keys":1,"block":1,"trial":52,"stimulus":5,"robot":2,"valence":"win","action":"no-go","sham":0,"trial_type":"pit-trial","trial_index":80,"time_elapsed":544071,"internal_node_id":"0.0-53.0","task_version":"battery-v0.2"},{"rune":"P","rune_set":"bacs2","hex":"#3366ff99","correct":-1,"choice":32,"rt":403.0950000160374,"accuracy":0,"outcome":"+1","keys":[1903.5600000061095],"total_keys":1,"block":1,"trial":53,"stimulus":5,"robot":2,"valence":"win","action":"no-go","sham":0,"trial_type":"pit-trial","trial_index":81,"time_elapsed":547178,"internal_node_id":"0.0-54.0","task_version":"battery-v0.2"},{"rune":"S","rune_set":"bacs2","hex":"#f73b6a7A","correct":-1,"choice":-1,"rt":-1,"accuracy":1,"outcome":"-1","keys":[],"total_keys":0,"block":1,"trial":54,"stimulus":7,"robot":4,"valence":"lose","action":"no-go","sham":0,"trial_type":"pit-trial","trial_index":82,"time_elapsed":551183,"internal_node_id":"0.0-55.0","task_version":"battery-v0.2"},{"rune":"R","rune_set":"bacs2","hex":"#f73b6a7A","correct":32,"choice":-1,"rt":-1,"accuracy":0,"outcome":"-10","keys":[],"total_keys":0,"block":1,"trial":55,"stimulus":4,"robot":3,"valence":"lose","action":"go","sham":0,"trial_type":"pit-trial","trial_index":83,"time_elapsed":555187,"internal_node_id":"0.0-56.0","task_version":"battery-v0.2"},{"rune":"L","rune_set":"bacs2","hex":"#3366ff99","correct":32,"choice":32,"rt":417.505000019446,"accuracy":1,"outcome":"+10","keys":[1917.6250000018626],"total_keys":1,"block":1,"trial":56,"stimulus":6,"robot":1,"valence":"win","action":"go","sham":0,"trial_type":"pit-trial","trial_index":84,"time_elapsed":558309,"internal_node_id":"0.0-57.0","task_version":"battery-v0.2"},{"rune":"S","rune_set":"bacs2","hex":"#f73b6a7A","correct":-1,"choice":32,"rt":843.2000000029802,"accuracy":0,"outcome":"-10","keys":[2343.479999981355],"total_keys":1,"block":1,"trial":57,"stimulus":7,"robot":4,"valence":"lose","action":"no-go","sham":0,"trial_type":"pit-trial","trial_index":85,"time_elapsed":561860,"internal_node_id":"0.0-58.0","task_version":"battery-v0.2"},{"rune":"R","rune_set":"bacs2","hex":"#f73b6a7A","correct":32,"choice":32,"rt":741.7900000000373,"accuracy":1,"outcome":"-1","keys":[2241.939999978058],"total_keys":1,"block":1,"trial":58,"stimulus":4,"robot":3,"valence":"lose","action":"go","sham":0,"trial_type":"pit-trial","trial_index":86,"time_elapsed":565310,"internal_node_id":"0.0-59.0","task_version":"battery-v0.2"},{"rune":"P","rune_set":"bacs2","hex":"#3366ff99","correct":-1,"choice":32,"rt":447.165000019595,"accuracy":0,"outcome":"+1","keys":[1947.7699999697506],"total_keys":1,"block":1,"trial":59,"stimulus":5,"robot":2,"valence":"win","action":"no-go","sham":0,"trial_type":"pit-trial","trial_index":87,"time_elapsed":568464,"internal_node_id":"0.0-60.0","task_version":"battery-v0.2"},{"rune":"L","rune_set":"bacs2","hex":"#3366ff99","correct":32,"choice":32,"rt":774.7000000090338,"accuracy":1,"outcome":"+1","keys":[2275.5550000001676],"total_keys":1,"block":1,"trial":60,"stimulus":6,"robot":1,"valence":"win","action":"go","sham":1,"trial_type":"pit-trial","trial_index":88,"time_elapsed":571945,"internal_node_id":"0.0-61.0","task_version":"battery-v0.2"},{"rune":"S","rune_set":"bacs2","hex":"#f73b6a7A","correct":-1,"choice":32,"rt":1086.6800000076182,"accuracy":0,"outcome":"-10","keys":[2587.100000004284],"total_keys":1,"block":1,"trial":61,"stimulus":7,"robot":4,"valence":"lose","action":"no-go","sham":0,"trial_type":"pit-trial","trial_index":89,"time_elapsed":575743,"internal_node_id":"0.0-62.0","task_version":"battery-v0.2"},{"rune":"R","rune_set":"bacs2","hex":"#f73b6a7A","correct":32,"choice":-1,"rt":-1,"accuracy":0,"outcome":"-10","keys":[],"total_keys":0,"block":1,"trial":62,"stimulus":4,"robot":3,"valence":"lose","action":"go","sham":0,"trial_type":"pit-trial","trial_index":90,"time_elapsed":579752,"internal_node_id":"0.0-63.0","task_version":"battery-v0.2"},{"rune":"P","rune_set":"bacs2","hex":"#3366ff99","correct":-1,"choice":32,"rt":406.48000000510365,"accuracy":0,"outcome":"+1","keys":[1907.569999981206],"total_keys":1,"block":1,"trial":63,"stimulus":5,"robot":2,"valence":"win","action":"no-go","sham":0,"trial_type":"pit-trial","trial_index":91,"time_elapsed":582866,"internal_node_id":"0.0-64.0","task_version":"battery-v0.2"},{"rune":"L","rune_set":"bacs2","hex":"#3366ff99","correct":32,"choice":32,"rt":454.230000032112,"accuracy":1,"outcome":"+10","keys":[1955.0300000119023],"total_keys":1,"block":1,"trial":64,"stimulus":6,"robot":1,"valence":"win","action":"go","sham":0,"trial_type":"pit-trial","trial_index":92,"time_elapsed":586027,"internal_node_id":"0.0-65.0","task_version":"battery-v0.2"},{"rune":"L","rune_set":"bacs2","hex":"#3366ff99","correct":32,"choice":32,"rt":376.60000001778826,"accuracy":1,"outcome":"+10","keys":[1877.3650000221096],"total_keys":1,"block":1,"trial":65,"stimulus":6,"robot":1,"valence":"win","action":"go","sham":0,"trial_type":"pit-trial","trial_index":93,"time_elapsed":589107,"internal_node_id":"0.0-66.0","task_version":"battery-v0.2"},{"rune":"S","rune_set":"bacs2","hex":"#f73b6a7A","correct":-1,"choice":-1,"rt":-1,"accuracy":1,"outcome":"-1","keys":[],"total_keys":0,"block":1,"trial":66,"stimulus":7,"robot":4,"valence":"lose","action":"no-go","sham":0,"trial_type":"pit-trial","trial_index":94,"time_elapsed":593111,"internal_node_id":"0.0-67.0","task_version":"battery-v0.2"},{"rune":"R","rune_set":"bacs2","hex":"#f73b6a7A","correct":32,"choice":32,"rt":1205.069999967236,"accuracy":1,"outcome":"-1","keys":[2705.7499999646097],"total_keys":1,"block":1,"trial":67,"stimulus":4,"robot":3,"valence":"lose","action":"go","sham":0,"trial_type":"pit-trial","trial_index":95,"time_elapsed":597021,"internal_node_id":"0.0-68.0","task_version":"battery-v0.2"},{"rune":"P","rune_set":"bacs2","hex":"#3366ff99","correct":-1,"choice":32,"rt":500.0700000091456,"accuracy":0,"outcome":"+1","keys":[2002.054999989923],"total_keys":1,"block":1,"trial":68,"stimulus":5,"robot":2,"valence":"win","action":"no-go","sham":0,"trial_type":"pit-trial","trial_index":96,"time_elapsed":600227,"internal_node_id":"0.0-69.0","task_version":"battery-v0.2"},{"rune":"P","rune_set":"bacs2","hex":"#3366ff99","correct":-1,"choice":32,"rt":525.7649999693967,"accuracy":0,"outcome":"+1","keys":[2026.7600000370294],"total_keys":1,"block":1,"trial":69,"stimulus":5,"robot":2,"valence":"win","action":"no-go","sham":0,"trial_type":"pit-trial","trial_index":97,"time_elapsed":603460,"internal_node_id":"0.0-70.0","task_version":"battery-v0.2"},{"rune":"R","rune_set":"bacs2","hex":"#f73b6a7A","correct":32,"choice":32,"rt":939.5599999697879,"accuracy":1,"outcome":"-1","keys":[2440.0100000202656],"total_keys":1,"block":1,"trial":70,"stimulus":4,"robot":3,"valence":"lose","action":"go","sham":0,"trial_type":"pit-trial","trial_index":98,"time_elapsed":607107,"internal_node_id":"0.0-71.0","task_version":"battery-v0.2"},{"rune":"S","rune_set":"bacs2","hex":"#f73b6a7A","correct":-1,"choice":32,"rt":527.2650000406429,"accuracy":0,"outcome":"-1","keys":[2027.6799999992363],"total_keys":1,"block":1,"trial":71,"stimulus":7,"robot":4,"valence":"lose","action":"no-go","sham":1,"trial_type":"pit-trial","trial_index":99,"time_elapsed":610339,"internal_node_id":"0.0-72.0","task_version":"battery-v0.2"},{"rune":"L","rune_set":"bacs2","hex":"#3366ff99","correct":32,"choice":32,"rt":563.9999999548309,"accuracy":1,"outcome":"+10","keys":[2064.680000010412],"total_keys":1,"block":1,"trial":72,"stimulus":6,"robot":1,"valence":"win","action":"go","sham":0,"trial_type":"pit-trial","trial_index":100,"time_elapsed":613612,"internal_node_id":"0.0-73.0","task_version":"battery-v0.2"},{"rune":"A","rune_set":"bacs2","hex":"#f73b6a7A","correct":32,"choice":-1,"rt":-1,"accuracy":0,"outcome":"-1","keys":[],"total_keys":0,"block":1,"trial":73,"stimulus":9,"robot":3,"valence":"lose","action":"go","sham":1,"trial_type":"pit-trial","trial_index":101,"time_elapsed":617620,"internal_node_id":"0.0-74.0","task_version":"battery-v0.2"},{"rune":"S","rune_set":"bacs2","hex":"#f73b6a7A","correct":-1,"choice":32,"rt":987.459999974817,"accuracy":0,"outcome":"-10","keys":[2488.3150000241585],"total_keys":1,"block":1,"trial":74,"stimulus":7,"robot":4,"valence":"lose","action":"no-go","sham":0,"trial_type":"pit-trial","trial_index":102,"time_elapsed":621314,"internal_node_id":"0.0-75.0","task_version":"battery-v0.2"},{"rune":"P","rune_set":"bacs2","hex":"#3366ff99","correct":-1,"choice":32,"rt":547.7149999933317,"accuracy":0,"outcome":"+10","keys":[2048.3450000174344],"total_keys":1,"block":1,"trial":75,"stimulus":5,"robot":2,"valence":"win","action":"no-go","sham":1,"trial_type":"pit-trial","trial_index":103,"time_elapsed":624568,"internal_node_id":"0.0-76.0","task_version":"battery-v0.2"},{"rune":"U","rune_set":"bacs2","hex":"#3366ff99","correct":32,"choice":32,"rt":624.3200000026263,"accuracy":1,"outcome":"+10","keys":[2124.850000021979],"total_keys":1,"block":1,"trial":76,"stimulus":8,"robot":1,"valence":"win","action":"go","sham":0,"trial_type":"pit-trial","trial_index":104,"time_elapsed":627900,"internal_node_id":"0.0-77.0","task_version":"battery-v0.2"},{"rune":"S","rune_set":"bacs2","hex":"#f73b6a7A","correct":-1,"choice":32,"rt":927.4250000016764,"accuracy":0,"outcome":"-10","keys":[2428.170000028331],"total_keys":1,"block":1,"trial":77,"stimulus":7,"robot":4,"valence":"lose","action":"no-go","sham":0,"trial_type":"pit-trial","trial_index":105,"time_elapsed":631534,"internal_node_id":"0.0-78.0","task_version":"battery-v0.2"},{"rune":"U","rune_set":"bacs2","hex":"#3366ff99","correct":32,"choice":32,"rt":324.06000001356006,"accuracy":1,"outcome":"+10","keys":[1824.205000011716],"total_keys":1,"block":1,"trial":78,"stimulus":8,"robot":1,"valence":"win","action":"go","sham":0,"trial_type":"pit-trial","trial_index":106,"time_elapsed":634565,"internal_node_id":"0.0-79.0","task_version":"battery-v0.2"},{"rune":"P","rune_set":"bacs2","hex":"#3366ff99","correct":-1,"choice":32,"rt":439.3500000005588,"accuracy":0,"outcome":"+1","keys":[1939.730000041891],"total_keys":1,"block":1,"trial":79,"stimulus":5,"robot":2,"valence":"win","action":"no-go","sham":0,"trial_type":"pit-trial","trial_index":107,"time_elapsed":637712,"internal_node_id":"0.0-80.0","task_version":"battery-v0.2"},{"rune":"A","rune_set":"bacs2","hex":"#f73b6a7A","correct":32,"choice":-1,"rt":-1,"accuracy":0,"outcome":"-10","keys":[],"total_keys":0,"block":1,"trial":80,"stimulus":9,"robot":3,"valence":"lose","action":"go","sham":0,"trial_type":"pit-trial","trial_index":108,"time_elapsed":641720,"internal_node_id":"0.0-81.0","task_version":"battery-v0.2"},{"rune":"P","rune_set":"bacs2","hex":"#3366ff99","correct":-1,"choice":32,"rt":434.9999999976717,"accuracy":0,"outcome":"+1","keys":[1936.165000020992],"total_keys":1,"block":1,"trial":81,"stimulus":5,"robot":2,"valence":"win","action":"no-go","sham":0,"trial_type":"pit-trial","trial_index":109,"time_elapsed":644863,"internal_node_id":"0.0-82.0","task_version":"battery-v0.2"},{"rune":"U","rune_set":"bacs2","hex":"#3366ff99","correct":32,"choice":32,"rt":357.8300000517629,"accuracy":1,"outcome":"+10","keys":[1858.1199999898672],"total_keys":1,"block":1,"trial":82,"stimulus":8,"robot":1,"valence":"win","action":"go","sham":0,"trial_type":"pit-trial","trial_index":110,"time_elapsed":647928,"internal_node_id":"0.0-83.0","task_version":"battery-v0.2"},{"rune":"S","rune_set":"bacs2","hex":"#f73b6a7A","correct":-1,"choice":32,"rt":811.5700000198558,"accuracy":0,"outcome":"-1","keys":[2312.5850000069477],"total_keys":1,"block":1,"trial":83,"stimulus":7,"robot":4,"valence":"lose","action":"no-go","sham":1,"trial_type":"pit-trial","trial_index":111,"time_elapsed":651448,"internal_node_id":"0.0-84.0","task_version":"battery-v0.2"},{"rune":"A","rune_set":"bacs2","hex":"#f73b6a7A","correct":32,"choice":32,"rt":789.0250000054948,"accuracy":1,"outcome":"-1","keys":[2289.0299999853596],"total_keys":1,"block":1,"trial":84,"stimulus":9,"robot":3,"valence":"lose","action":"go","sham":0,"trial_type":"pit-trial","trial_index":112,"time_elapsed":654946,"internal_node_id":"0.0-85.0","task_version":"battery-v0.2"},{"rune":"U","rune_set":"bacs2","hex":"#3366ff99","correct":32,"choice":32,"rt":421.05999996419996,"accuracy":1,"outcome":"+1","keys":[1921.7749999952503],"total_keys":1,"block":1,"trial":85,"stimulus":8,"robot":1,"valence":"win","action":"go","sham":1,"trial_type":"pit-trial","trial_index":113,"time_elapsed":658075,"internal_node_id":"0.0-86.0","task_version":"battery-v0.2"},{"rune":"S","rune_set":"bacs2","hex":"#f73b6a7A","correct":-1,"choice":32,"rt":717.0500000356697,"accuracy":0,"outcome":"-10","keys":[2217.735000012908],"total_keys":1,"block":1,"trial":86,"stimulus":7,"robot":4,"valence":"lose","action":"no-go","sham":0,"trial_type":"pit-trial","trial_index":114,"time_elapsed":661496,"internal_node_id":"0.0-87.0","task_version":"battery-v0.2"},{"rune":"P","rune_set":"bacs2","hex":"#3366ff99","correct":-1,"choice":32,"rt":380.04499999806285,"accuracy":0,"outcome":"+10","keys":[1880.1050000474788],"total_keys":1,"block":1,"trial":87,"stimulus":5,"robot":2,"valence":"win","action":"no-go","sham":1,"trial_type":"pit-trial","trial_index":115,"time_elapsed":664581,"internal_node_id":"0.0-88.0","task_version":"battery-v0.2"},{"rune":"A","rune_set":"bacs2","hex":"#f73b6a7A","correct":32,"choice":32,"rt":227.07500000251457,"accuracy":1,"outcome":"-10","keys":[1727.6150000398047],"total_keys":1,"block":1,"trial":88,"stimulus":9,"robot":3,"valence":"lose","action":"go","sham":1,"trial_type":"pit-trial","trial_index":116,"time_elapsed":667516,"internal_node_id":"0.0-89.0","task_version":"battery-v0.2"},{"rune":"U","rune_set":"bacs2","hex":"#3366ff99","correct":32,"choice":32,"rt":459.08500003861263,"accuracy":1,"outcome":"+10","keys":[1959.8450000048615],"total_keys":1,"block":1,"trial":89,"stimulus":8,"robot":1,"valence":"win","action":"go","sham":0,"trial_type":"pit-trial","trial_index":117,"time_elapsed":670682,"internal_node_id":"0.0-90.0","task_version":"battery-v0.2"},{"rune":"N","rune_set":"bacs2","hex":"#3366ff99","correct":-1,"choice":32,"rt":339.1649999539368,"accuracy":0,"outcome":"+1","keys":[1839.6400000201538],"total_keys":1,"block":1,"trial":90,"stimulus":11,"robot":2,"valence":"win","action":"no-go","sham":0,"trial_type":"pit-trial","trial_index":118,"time_elapsed":673730,"internal_node_id":"0.0-91.0","task_version":"battery-v0.2"},{"rune":"F","rune_set":"bacs2","hex":"#f73b6a7A","correct":32,"choice":32,"rt":1216.3549999822862,"accuracy":1,"outcome":"-1","keys":[2717.164999980014],"total_keys":1,"block":1,"trial":91,"stimulus":10,"robot":3,"valence":"lose","action":"go","sham":0,"trial_type":"pit-trial","trial_index":119,"time_elapsed":677654,"internal_node_id":"0.0-92.0","task_version":"battery-v0.2"},{"rune":"A","rune_set":"bacs2","hex":"#f73b6a7A","correct":32,"choice":32,"rt":690.3150000143796,"accuracy":1,"outcome":"-1","keys":[2190.6449999660254],"total_keys":1,"block":1,"trial":92,"stimulus":9,"robot":3,"valence":"lose","action":"go","sham":0,"trial_type":"pit-trial","trial_index":120,"time_elapsed":681051,"internal_node_id":"0.0-93.0","task_version":"battery-v0.2"},{"rune":"N","rune_set":"bacs2","hex":"#3366ff99","correct":-1,"choice":32,"rt":524.0449999691918,"accuracy":0,"outcome":"+1","keys":[2025.900000007823],"total_keys":1,"block":1,"trial":93,"stimulus":11,"robot":2,"valence":"win","action":"no-go","sham":0,"trial_type":"pit-trial","trial_index":121,"time_elapsed":684282,"internal_node_id":"0.0-94.0","task_version":"battery-v0.2"},{"rune":"U","rune_set":"bacs2","hex":"#3366ff99","correct":32,"choice":32,"rt":361.86499998439103,"accuracy":1,"outcome":"+10","keys":[1862.9549999604933],"total_keys":1,"block":1,"trial":94,"stimulus":8,"robot":1,"valence":"win","action":"go","sham":0,"trial_type":"pit-trial","trial_index":122,"time_elapsed":687351,"internal_node_id":"0.0-95.0","task_version":"battery-v0.2"},{"rune":"A","rune_set":"bacs2","hex":"#f73b6a7A","correct":32,"choice":32,"rt":1045.3949999646284,"accuracy":1,"outcome":"-1","keys":[2545.990000013262],"total_keys":1,"block":1,"trial":95,"stimulus":9,"robot":3,"valence":"lose","action":"go","sham":0,"trial_type":"pit-trial","trial_index":123,"time_elapsed":691104,"internal_node_id":"0.0-96.0","task_version":"battery-v0.2"},{"rune":"F","rune_set":"bacs2","hex":"#f73b6a7A","correct":32,"choice":32,"rt":755.4399999789894,"accuracy":1,"outcome":"-1","keys":[2255.5300000240095],"total_keys":1,"block":1,"trial":96,"stimulus":10,"robot":3,"valence":"lose","action":"go","sham":0,"trial_type":"pit-trial","trial_index":124,"time_elapsed":694563,"internal_node_id":"0.0-97.0","task_version":"battery-v0.2"},{"rune":"U","rune_set":"bacs2","hex":"#3366ff99","correct":32,"choice":32,"rt":403.2749999896623,"accuracy":1,"outcome":"+1","keys":[1903.80999998888],"total_keys":1,"block":1,"trial":97,"stimulus":8,"robot":1,"valence":"win","action":"go","sham":1,"trial_type":"pit-trial","trial_index":125,"time_elapsed":697674,"internal_node_id":"0.0-98.0","task_version":"battery-v0.2"},{"rune":"A","rune_set":"bacs2","hex":"#f73b6a7A","correct":32,"choice":-1,"rt":-1,"accuracy":0,"outcome":"-10","keys":[],"total_keys":0,"block":1,"trial":98,"stimulus":9,"robot":3,"valence":"lose","action":"go","sham":0,"trial_type":"pit-trial","trial_index":126,"time_elapsed":701683,"internal_node_id":"0.0-99.0","task_version":"battery-v0.2"},{"rune":"N","rune_set":"bacs2","hex":"#3366ff99","correct":-1,"choice":32,"rt":486.65500001516193,"accuracy":0,"outcome":"+1","keys":[1988.6900000274181],"total_keys":1,"block":1,"trial":99,"stimulus":11,"robot":2,"valence":"win","action":"no-go","sham":0,"trial_type":"pit-trial","trial_index":127,"time_elapsed":704878,"internal_node_id":"0.0-100.0","task_version":"battery-v0.2"},{"rune":"F","rune_set":"bacs2","hex":"#f73b6a7A","correct":32,"choice":32,"rt":1058.820000034757,"accuracy":1,"outcome":"-1","keys":[2559.484999976121],"total_keys":1,"block":1,"trial":100,"stimulus":10,"robot":3,"valence":"lose","action":"go","sham":0,"trial_type":"pit-trial","trial_index":128,"time_elapsed":708644,"internal_node_id":"0.0-101.0","task_version":"battery-v0.2"},{"rune":"F","rune_set":"bacs2","hex":"#f73b6a7A","correct":32,"choice":32,"rt":610.7199999969453,"accuracy":1,"outcome":"-1","keys":[2111.54000001261],"total_keys":1,"block":1,"trial":101,"stimulus":10,"robot":3,"valence":"lose","action":"go","sham":0,"trial_type":"pit-trial","trial_index":129,"time_elapsed":711960,"internal_node_id":"0.0-102.0","task_version":"battery-v0.2"},{"rune":"N","rune_set":"bacs2","hex":"#3366ff99","correct":-1,"choice":32,"rt":510.4150000261143,"accuracy":0,"outcome":"+1","keys":[2011.179999972228],"total_keys":1,"block":1,"trial":102,"stimulus":11,"robot":2,"valence":"win","action":"no-go","sham":0,"trial_type":"pit-trial","trial_index":130,"time_elapsed":715176,"internal_node_id":"0.0-103.0","task_version":"battery-v0.2"},{"rune":"A","rune_set":"bacs2","hex":"#f73b6a7A","correct":32,"choice":32,"rt":763.8499999884516,"accuracy":1,"outcome":"-1","keys":[2265.0400000275113],"total_keys":1,"block":1,"trial":103,"stimulus":9,"robot":3,"valence":"lose","action":"go","sham":0,"trial_type":"pit-trial","trial_index":131,"time_elapsed":718646,"internal_node_id":"0.0-104.0","task_version":"battery-v0.2"},{"rune":"U","rune_set":"bacs2","hex":"#3366ff99","correct":32,"choice":32,"rt":364.97999995481223,"accuracy":1,"outcome":"+10","keys":[1865.5500000459142],"total_keys":1,"block":1,"trial":104,"stimulus":8,"robot":1,"valence":"win","action":"go","sham":0,"trial_type":"pit-trial","trial_index":132,"time_elapsed":721717,"internal_node_id":"0.0-105.0","task_version":"battery-v0.2"},{"rune":"N","rune_set":"bacs2","hex":"#3366ff99","correct":-1,"choice":32,"rt":351.16999997990206,"accuracy":0,"outcome":"+10","keys":[1851.4149999828078],"total_keys":1,"block":1,"trial":105,"stimulus":11,"robot":2,"valence":"win","action":"no-go","sham":1,"trial_type":"pit-trial","trial_index":133,"time_elapsed":724775,"internal_node_id":"0.0-106.0","task_version":"battery-v0.2"},{"rune":"F","rune_set":"bacs2","hex":"#f73b6a7A","correct":32,"choice":-1,"rt":-1,"accuracy":0,"outcome":"-10","keys":[1338.0599999800324,2863.9550000079907],"total_keys":2,"block":1,"trial":106,"stimulus":10,"robot":3,"valence":"lose","action":"go","sham":0,"trial_type":"pit-trial","trial_index":134,"time_elapsed":728785,"internal_node_id":"0.0-107.0","task_version":"battery-v0.2"},{"rune":"A","rune_set":"bacs2","hex":"#f73b6a7A","correct":32,"choice":32,"rt":621.0000000428408,"accuracy":1,"outcome":"-1","keys":[2123.085000028368],"total_keys":1,"block":1,"trial":107,"stimulus":9,"robot":3,"valence":"lose","action":"go","sham":0,"trial_type":"pit-trial","trial_index":135,"time_elapsed":732114,"internal_node_id":"0.0-108.0","task_version":"battery-v0.2"},{"rune":"U","rune_set":"bacs2","hex":"#3366ff99","correct":32,"choice":32,"rt":313.77000000793487,"accuracy":1,"outcome":"+10","keys":[1814.585000043735],"total_keys":1,"block":1,"trial":108,"stimulus":8,"robot":1,"valence":"win","action":"go","sham":0,"trial_type":"pit-trial","trial_index":136,"time_elapsed":735133,"internal_node_id":"0.0-109.0","task_version":"battery-v0.2"},{"rune":"U","rune_set":"bacs2","hex":"#3366ff99","correct":32,"choice":32,"rt":419.2499999771826,"accuracy":1,"outcome":"+10","keys":[1920.1350000221282],"total_keys":1,"block":1,"trial":109,"stimulus":8,"robot":1,"valence":"win","action":"go","sham":0,"trial_type":"pit-trial","trial_index":137,"time_elapsed":738257,"internal_node_id":"0.0-110.0","task_version":"battery-v0.2"},{"rune":"N","rune_set":"bacs2","hex":"#3366ff99","correct":-1,"choice":32,"rt":439.32000000495464,"accuracy":0,"outcome":"+1","keys":[1941.2199999787845],"total_keys":1,"block":1,"trial":110,"stimulus":11,"robot":2,"valence":"win","action":"no-go","sham":0,"trial_type":"pit-trial","trial_index":138,"time_elapsed":741404,"internal_node_id":"0.0-111.0","task_version":"battery-v0.2"},{"rune":"A","rune_set":"bacs2","hex":"#f73b6a7A","correct":32,"choice":32,"rt":652.7500000083819,"accuracy":1,"outcome":"-10","keys":[2153.5700000240467],"total_keys":1,"block":1,"trial":111,"stimulus":9,"robot":3,"valence":"lose","action":"go","sham":1,"trial_type":"pit-trial","trial_index":139,"time_elapsed":744763,"internal_node_id":"0.0-112.0","task_version":"battery-v0.2"},{"rune":"F","rune_set":"bacs2","hex":"#f73b6a7A","correct":32,"choice":32,"rt":570.7750000292435,"accuracy":1,"outcome":"-1","keys":[2073.1749999686144],"total_keys":1,"block":1,"trial":112,"stimulus":10,"robot":3,"valence":"lose","action":"go","sham":0,"trial_type":"pit-trial","trial_index":140,"time_elapsed":748041,"internal_node_id":"0.0-113.0","task_version":"battery-v0.2"},{"rune":"N","rune_set":"bacs2","hex":"#3366ff99","correct":-1,"choice":32,"rt":313.91999998595566,"accuracy":0,"outcome":"+1","keys":[1814.6900000283495],"total_keys":1,"block":1,"trial":113,"stimulus":11,"robot":2,"valence":"win","action":"no-go","sham":0,"trial_type":"pit-trial","trial_index":141,"time_elapsed":751060,"internal_node_id":"0.0-114.0","task_version":"battery-v0.2"},{"rune":"U","rune_set":"bacs2","hex":"#3366ff99","correct":32,"choice":32,"rt":309.8600000375882,"accuracy":1,"outcome":"+10","keys":[1810.7349999481812],"total_keys":1,"block":1,"trial":114,"stimulus":8,"robot":1,"valence":"win","action":"go","sham":0,"trial_type":"pit-trial","trial_index":142,"time_elapsed":754076,"internal_node_id":"0.0-115.0","task_version":"battery-v0.2"},{"rune":"F","rune_set":"bacs2","hex":"#f73b6a7A","correct":32,"choice":32,"rt":683.5749999736436,"accuracy":1,"outcome":"-1","keys":[2184.2549999710172],"total_keys":1,"block":1,"trial":115,"stimulus":10,"robot":3,"valence":"lose","action":"go","sham":0,"trial_type":"pit-trial","trial_index":143,"time_elapsed":757464,"internal_node_id":"0.0-116.0","task_version":"battery-v0.2"},{"rune":"A","rune_set":"bacs2","hex":"#f73b6a7A","correct":32,"choice":32,"rt":451.04499999433756,"accuracy":1,"outcome":"-1","keys":[1951.6000000294298],"total_keys":1,"block":1,"trial":116,"stimulus":9,"robot":3,"valence":"lose","action":"go","sham":0,"trial_type":"pit-trial","trial_index":144,"time_elapsed":760620,"internal_node_id":"0.0-117.0","task_version":"battery-v0.2"},{"rune":"A","rune_set":"bacs2","hex":"#f73b6a7A","correct":32,"choice":32,"rt":282.2499999892898,"accuracy":1,"outcome":"-1","keys":[1783.3199999877252],"total_keys":1,"block":1,"trial":117,"stimulus":9,"robot":3,"valence":"lose","action":"go","sham":0,"trial_type":"pit-trial","trial_index":145,"time_elapsed":763612,"internal_node_id":"0.0-118.0","task_version":"battery-v0.2"},{"rune":"F","rune_set":"bacs2","hex":"#f73b6a7A","correct":32,"choice":32,"rt":407.4900000123307,"accuracy":1,"outcome":"-1","keys":[1907.770000048913],"total_keys":1,"block":1,"trial":118,"stimulus":10,"robot":3,"valence":"lose","action":"go","sham":0,"trial_type":"pit-trial","trial_index":146,"time_elapsed":766728,"internal_node_id":"0.0-119.0","task_version":"battery-v0.2"},{"rune":"N","rune_set":"bacs2","hex":"#3366ff99","correct":-1,"choice":32,"rt":214.08000000519678,"accuracy":0,"outcome":"+1","keys":[1714.7899999981746],"total_keys":1,"block":1,"trial":119,"stimulus":11,"robot":2,"valence":"win","action":"no-go","sham":0,"trial_type":"pit-trial","trial_index":147,"time_elapsed":769652,"internal_node_id":"0.0-120.0","task_version":"battery-v0.2"},{"rune":"U","rune_set":"bacs2","hex":"#3366ff99","correct":32,"choice":32,"rt":427.3549999925308,"accuracy":1,"outcome":"+10","keys":[1927.3699999903329],"total_keys":1,"block":1,"trial":120,"stimulus":8,"robot":1,"valence":"win","action":"go","sham":0,"trial_type":"pit-trial","trial_index":148,"time_elapsed":772787,"internal_node_id":"0.0-121.0","task_version":"battery-v0.2"},{"view_history":"[{\"page_index\":0,\"viewing_time\":34341.96500002872},{\"page_index\":1,\"viewing_time\":2367.889999994077}]","rt":36710.43999999529,"trial_type":"pit-instructions","trial_index":149,"time_elapsed":809501,"internal_node_id":"0.0-122.0","task_version":"battery-v0.2"},{"rune":"X","rune_set":"bacs2","hex":"#f73b6a7A","correct":-1,"choice":32,"rt":603.8950000074692,"accuracy":0,"outcome":"-10","keys":[2104.7099999850616],"total_keys":1,"block":2,"trial":121,"stimulus":2,"robot":4,"valence":"lose","action":"no-go","sham":0,"trial_type":"pit-trial","trial_index":150,"time_elapsed":812812,"internal_node_id":"0.0-123.0","task_version":"battery-v0.2"},{"rune":"J","rune_set":"bacs2","hex":"#3366ff99","correct":-1,"choice":32,"rt":500.995000009425,"accuracy":0,"outcome":"+1","keys":[2001.6450000111945],"total_keys":1,"block":2,"trial":122,"stimulus":0,"robot":2,"valence":"win","action":"no-go","sham":0,"trial_type":"pit-trial","trial_index":151,"time_elapsed":816021,"internal_node_id":"0.0-124.0","task_version":"battery-v0.2"},{"rune":"W","rune_set":"bacs2","hex":"#3366ff99","correct":32,"choice":32,"rt":442.9649999947287,"accuracy":1,"outcome":"+10","keys":[1943.5900000389665],"total_keys":1,"block":2,"trial":123,"stimulus":1,"robot":1,"valence":"win","action":"go","sham":0,"trial_type":"pit-trial","trial_index":152,"time_elapsed":819169,"internal_node_id":"0.0-125.0","task_version":"battery-v0.2"},{"rune":"Z","rune_set":"bacs2","hex":"#3366ff99","correct":32,"choice":32,"rt":419.2449999973178,"accuracy":1,"outcome":"+10","keys":[1919.4450000068173],"total_keys":1,"block":2,"trial":124,"stimulus":3,"robot":1,"valence":"win","action":"go","sham":0,"trial_type":"pit-trial","trial_index":153,"time_elapsed":822292,"internal_node_id":"0.0-126.0","task_version":"battery-v0.2"},{"rune":"X","rune_set":"bacs2","hex":"#f73b6a7A","correct":-1,"choice":32,"rt":780.8550000190735,"accuracy":0,"outcome":"-10","keys":[2281.365000002552],"total_keys":1,"block":2,"trial":125,"stimulus":2,"robot":4,"valence":"lose","action":"no-go","sham":0,"trial_type":"pit-trial","trial_index":154,"time_elapsed":825781,"internal_node_id":"0.0-127.0","task_version":"battery-v0.2"},{"rune":"W","rune_set":"bacs2","hex":"#3366ff99","correct":32,"choice":32,"rt":303.5150000359863,"accuracy":1,"outcome":"+1","keys":[1805.034999968484],"total_keys":1,"block":2,"trial":126,"stimulus":1,"robot":1,"valence":"win","action":"go","sham":1,"trial_type":"pit-trial","trial_index":155,"time_elapsed":828792,"internal_node_id":"0.0-128.0","task_version":"battery-v0.2"},{"rune":"Z","rune_set":"bacs2","hex":"#3366ff99","correct":32,"choice":32,"rt":277.00000000186265,"accuracy":1,"outcome":"+10","keys":[1777.6149999699555],"total_keys":1,"block":2,"trial":127,"stimulus":3,"robot":1,"valence":"win","action":"go","sham":0,"trial_type":"pit-trial","trial_index":156,"time_elapsed":831776,"internal_node_id":"0.0-129.0","task_version":"battery-v0.2"},{"rune":"J","rune_set":"bacs2","hex":"#3366ff99","correct":-1,"choice":32,"rt":422.75999998673797,"accuracy":0,"outcome":"+10","keys":[1923.4750000177883],"total_keys":1,"block":2,"trial":128,"stimulus":0,"robot":2,"valence":"win","action":"no-go","sham":1,"trial_type":"pit-trial","trial_index":157,"time_elapsed":834906,"internal_node_id":"0.0-130.0","task_version":"battery-v0.2"},{"rune":"J","rune_set":"bacs2","hex":"#3366ff99","correct":-1,"choice":32,"rt":509.98000003164634,"accuracy":0,"outcome":"+1","keys":[2010.4849999770522],"total_keys":1,"block":2,"trial":129,"stimulus":0,"robot":2,"valence":"win","action":"no-go","sham":0,"trial_type":"pit-trial","trial_index":158,"time_elapsed":838122,"internal_node_id":"0.0-131.0","task_version":"battery-v0.2"},{"rune":"X","rune_set":"bacs2","hex":"#f73b6a7A","correct":-1,"choice":32,"rt":867.8749999962747,"accuracy":0,"outcome":"-10","keys":[2368.22000000393],"total_keys":1,"block":2,"trial":130,"stimulus":2,"robot":4,"valence":"lose","action":"no-go","sham":0,"trial_type":"pit-trial","trial_index":159,"time_elapsed":841695,"internal_node_id":"0.0-132.0","task_version":"battery-v0.2"},{"rune":"Z","rune_set":"bacs2","hex":"#3366ff99","correct":32,"choice":32,"rt":508.5799999651499,"accuracy":1,"outcome":"+10","keys":[2008.7349999812432],"total_keys":1,"block":2,"trial":131,"stimulus":3,"robot":1,"valence":"win","action":"go","sham":0,"trial_type":"pit-trial","trial_index":160,"time_elapsed":844910,"internal_node_id":"0.0-133.0","task_version":"battery-v0.2"},{"rune":"W","rune_set":"bacs2","hex":"#3366ff99","correct":32,"choice":32,"rt":320.8299999823794,"accuracy":1,"outcome":"+1","keys":[1821.6099999845028],"total_keys":1,"block":2,"trial":132,"stimulus":1,"robot":1,"valence":"win","action":"go","sham":1,"trial_type":"pit-trial","trial_index":161,"time_elapsed":847940,"internal_node_id":"0.0-134.0","task_version":"battery-v0.2"},{"rune":"W","rune_set":"bacs2","hex":"#3366ff99","correct":32,"choice":32,"rt":386.3349999883212,"accuracy":1,"outcome":"+10","keys":[1886.6150000249036],"total_keys":1,"block":2,"trial":133,"stimulus":1,"robot":1,"valence":"win","action":"go","sham":0,"trial_type":"pit-trial","trial_index":162,"time_elapsed":851034,"internal_node_id":"0.0-135.0","task_version":"battery-v0.2"},{"rune":"X","rune_set":"bacs2","hex":"#f73b6a7A","correct":-1,"choice":-1,"rt":-1,"accuracy":1,"outcome":"-10","keys":[],"total_keys":0,"block":2,"trial":134,"stimulus":2,"robot":4,"valence":"lose","action":"no-go","sham":1,"trial_type":"pit-trial","trial_index":163,"time_elapsed":855038,"internal_node_id":"0.0-136.0","task_version":"battery-v0.2"},{"rune":"Z","rune_set":"bacs2","hex":"#3366ff99","correct":32,"choice":32,"rt":417.3299999674782,"accuracy":1,"outcome":"+1","keys":[1918.0449999985285],"total_keys":1,"block":2,"trial":135,"stimulus":3,"robot":1,"valence":"win","action":"go","sham":1,"trial_type":"pit-trial","trial_index":164,"time_elapsed":858160,"internal_node_id":"0.0-137.0","task_version":"battery-v0.2"},{"rune":"J","rune_set":"bacs2","hex":"#3366ff99","correct":-1,"choice":32,"rt":572.4150000023656,"accuracy":0,"outcome":"+1","keys":[2073.2300000381656],"total_keys":1,"block":2,"trial":136,"stimulus":0,"robot":2,"valence":"win","action":"no-go","sham":0,"trial_type":"pit-trial","trial_index":165,"time_elapsed":861440,"internal_node_id":"0.0-138.0","task_version":"battery-v0.2"},{"rune":"W","rune_set":"bacs2","hex":"#3366ff99","correct":32,"choice":32,"rt":444.504999963101,"accuracy":1,"outcome":"+10","keys":[1944.939999957569],"total_keys":1,"block":2,"trial":137,"stimulus":1,"robot":1,"valence":"win","action":"go","sham":0,"trial_type":"pit-trial","trial_index":166,"time_elapsed":864591,"internal_node_id":"0.0-139.0","task_version":"battery-v0.2"},{"rune":"J","rune_set":"bacs2","hex":"#3366ff99","correct":-1,"choice":32,"rt":477.3750000167638,"accuracy":0,"outcome":"+1","keys":[1978.4199999994598],"total_keys":1,"block":2,"trial":138,"stimulus":0,"robot":2,"valence":"win","action":"no-go","sham":0,"trial_type":"pit-trial","trial_index":167,"time_elapsed":867777,"internal_node_id":"0.0-140.0","task_version":"battery-v0.2"},{"rune":"X","rune_set":"bacs2","hex":"#f73b6a7A","correct":-1,"choice":32,"rt":863.7899999739602,"accuracy":0,"outcome":"-10","keys":[2364.945000037551],"total_keys":1,"block":2,"trial":139,"stimulus":2,"robot":4,"valence":"lose","action":"no-go","sham":0,"trial_type":"pit-trial","trial_index":168,"time_elapsed":871349,"internal_node_id":"0.0-141.0","task_version":"battery-v0.2"},{"rune":"Z","rune_set":"bacs2","hex":"#3366ff99","correct":32,"choice":32,"rt":444.4399999920279,"accuracy":1,"outcome":"+10","keys":[1945.575000019744],"total_keys":1,"block":2,"trial":140,"stimulus":3,"robot":1,"valence":"win","action":"go","sham":0,"trial_type":"pit-trial","trial_index":169,"time_elapsed":874502,"internal_node_id":"0.0-142.0","task_version":"battery-v0.2"},{"rune":"Z","rune_set":"bacs2","hex":"#3366ff99","correct":32,"choice":32,"rt":575.5549999885261,"accuracy":1,"outcome":"+10","keys":[2075.715000042692],"total_keys":1,"block":2,"trial":141,"stimulus":3,"robot":1,"valence":"win","action":"go","sham":0,"trial_type":"pit-trial","trial_index":170,"time_elapsed":877785,"internal_node_id":"0.0-143.0","task_version":"battery-v0.2"},{"rune":"W","rune_set":"bacs2","hex":"#3366ff99","correct":32,"choice":32,"rt":477.710000006482,"accuracy":1,"outcome":"+10","keys":[1977.7749999775551],"total_keys":1,"block":2,"trial":142,"stimulus":1,"robot":1,"valence":"win","action":"go","sham":0,"trial_type":"pit-trial","trial_index":171,"time_elapsed":880970,"internal_node_id":"0.0-144.0","task_version":"battery-v0.2"},{"rune":"J","rune_set":"bacs2","hex":"#3366ff99","correct":-1,"choice":32,"rt":449.91500000469387,"accuracy":0,"outcome":"+10","keys":[1950.5800000042655],"total_keys":1,"block":2,"trial":143,"stimulus":0,"robot":2,"valence":"win","action":"no-go","sham":1,"trial_type":"pit-trial","trial_index":172,"time_elapsed":884126,"internal_node_id":"0.0-145.0","task_version":"battery-v0.2"},{"rune":"X","rune_set":"bacs2","hex":"#f73b6a7A","correct":-1,"choice":-1,"rt":-1,"accuracy":1,"outcome":"-1","keys":[],"total_keys":0,"block":2,"trial":144,"stimulus":2,"robot":4,"valence":"lose","action":"no-go","sham":0,"trial_type":"pit-trial","trial_index":173,"time_elapsed":888130,"internal_node_id":"0.0-146.0","task_version":"battery-v0.2"},{"rune":"Z","rune_set":"bacs2","hex":"#3366ff99","correct":32,"choice":32,"rt":415.78999999910593,"accuracy":1,"outcome":"+10","keys":[1916.3699999917299],"total_keys":1,"block":2,"trial":145,"stimulus":3,"robot":1,"valence":"win","action":"go","sham":0,"trial_type":"pit-trial","trial_index":174,"time_elapsed":891249,"internal_node_id":"0.0-147.0","task_version":"battery-v0.2"},{"rune":"J","rune_set":"bacs2","hex":"#3366ff99","correct":-1,"choice":32,"rt":423.7149999826215,"accuracy":0,"outcome":"+1","keys":[1924.6249999850988],"total_keys":1,"block":2,"trial":146,"stimulus":0,"robot":2,"valence":"win","action":"no-go","sham":0,"trial_type":"pit-trial","trial_index":175,"time_elapsed":894378,"internal_node_id":"0.0-148.0","task_version":"battery-v0.2"},{"rune":"W","rune_set":"bacs2","hex":"#3366ff99","correct":32,"choice":32,"rt":524.9649999896064,"accuracy":1,"outcome":"+10","keys":[2025.8550000144169],"total_keys":1,"block":2,"trial":147,"stimulus":1,"robot":1,"valence":"win","action":"go","sham":0,"trial_type":"pit-trial","trial_index":176,"time_elapsed":897610,"internal_node_id":"0.0-149.0","task_version":"battery-v0.2"},{"rune":"X","rune_set":"bacs2","hex":"#f73b6a7A","correct":-1,"choice":-1,"rt":-1,"accuracy":1,"outcome":"-1","keys":[],"total_keys":0,"block":2,"trial":148,"stimulus":2,"robot":4,"valence":"lose","action":"no-go","sham":0,"trial_type":"pit-trial","trial_index":177,"time_elapsed":901619,"internal_node_id":"0.0-150.0","task_version":"battery-v0.2"},{"rune":"J","rune_set":"bacs2","hex":"#3366ff99","correct":-1,"choice":32,"rt":656.7799999611452,"accuracy":0,"outcome":"+1","keys":[2156.9449999951757],"total_keys":1,"block":2,"trial":149,"stimulus":0,"robot":2,"valence":"win","action":"no-go","sham":0,"trial_type":"pit-trial","trial_index":178,"time_elapsed":904985,"internal_node_id":"0.0-151.0","task_version":"battery-v0.2"},{"rune":"Z","rune_set":"bacs2","hex":"#3366ff99","correct":32,"choice":32,"rt":512.8850000328384,"accuracy":1,"outcome":"+10","keys":[2014.0250000404194],"total_keys":1,"block":2,"trial":150,"stimulus":3,"robot":1,"valence":"win","action":"go","sham":0,"trial_type":"pit-trial","trial_index":179,"time_elapsed":908203,"internal_node_id":"0.0-152.0","task_version":"battery-v0.2"},{"rune":"X","rune_set":"bacs2","hex":"#f73b6a7A","correct":-1,"choice":-1,"rt":-1,"accuracy":1,"outcome":"-1","keys":[],"total_keys":0,"block":2,"trial":151,"stimulus":2,"robot":4,"valence":"lose","action":"no-go","sham":0,"trial_type":"pit-trial","trial_index":180,"time_elapsed":912210,"internal_node_id":"0.0-153.0","task_version":"battery-v0.2"},{"rune":"W","rune_set":"bacs2","hex":"#3366ff99","correct":32,"choice":32,"rt":298.56999998446554,"accuracy":1,"outcome":"+10","keys":[1798.8400000031106],"total_keys":1,"block":2,"trial":152,"stimulus":1,"robot":1,"valence":"win","action":"go","sham":0,"trial_type":"pit-trial","trial_index":181,"time_elapsed":915216,"internal_node_id":"0.0-154.0","task_version":"battery-v0.2"},{"rune":"G","rune_set":"bacs2","hex":"#3366ff99","correct":32,"choice":32,"rt":818.1449999683537,"accuracy":1,"outcome":"+10","keys":[2318.395000009332],"total_keys":1,"block":2,"trial":153,"stimulus":4,"robot":1,"valence":"win","action":"go","sham":0,"trial_type":"pit-trial","trial_index":182,"time_elapsed":918741,"internal_node_id":"0.0-155.0","task_version":"battery-v0.2"},{"rune":"J","rune_set":"bacs2","hex":"#3366ff99","correct":-1,"choice":32,"rt":404.9349999986589,"accuracy":0,"outcome":"+10","keys":[1904.9949999898672],"total_keys":1,"block":2,"trial":154,"stimulus":0,"robot":2,"valence":"win","action":"no-go","sham":1,"trial_type":"pit-trial","trial_index":183,"time_elapsed":921852,"internal_node_id":"0.0-156.0","task_version":"battery-v0.2"},{"rune":"X","rune_set":"bacs2","hex":"#f73b6a7A","correct":-1,"choice":-1,"rt":-1,"accuracy":1,"outcome":"-1","keys":[],"total_keys":0,"block":2,"trial":155,"stimulus":2,"robot":4,"valence":"lose","action":"no-go","sham":0,"trial_type":"pit-trial","trial_index":184,"time_elapsed":925858,"internal_node_id":"0.0-157.0","task_version":"battery-v0.2"},{"rune":"Z","rune_set":"bacs2","hex":"#3366ff99","correct":32,"choice":32,"rt":488.51499997545034,"accuracy":1,"outcome":"+10","keys":[1988.7649999582209],"total_keys":1,"block":2,"trial":156,"stimulus":3,"robot":1,"valence":"win","action":"go","sham":0,"trial_type":"pit-trial","trial_index":185,"time_elapsed":929054,"internal_node_id":"0.0-158.0","task_version":"battery-v0.2"},{"rune":"G","rune_set":"bacs2","hex":"#3366ff99","correct":32,"choice":32,"rt":520.4749999684282,"accuracy":1,"outcome":"+10","keys":[2021.3849999709055],"total_keys":1,"block":2,"trial":157,"stimulus":4,"robot":1,"valence":"win","action":"go","sham":0,"trial_type":"pit-trial","trial_index":186,"time_elapsed":932282,"internal_node_id":"0.0-159.0","task_version":"battery-v0.2"},{"rune":"J","rune_set":"bacs2","hex":"#3366ff99","correct":-1,"choice":-1,"rt":-1,"accuracy":1,"outcome":"+10","keys":[2873.169999977108],"total_keys":1,"block":2,"trial":158,"stimulus":0,"robot":2,"valence":"win","action":"no-go","sham":0,"trial_type":"pit-trial","trial_index":187,"time_elapsed":936289,"internal_node_id":"0.0-160.0","task_version":"battery-v0.2"},{"rune":"Z","rune_set":"bacs2","hex":"#3366ff99","correct":32,"choice":32,"rt":429.28000004030764,"accuracy":1,"outcome":"+10","keys":[1929.3450000113808],"total_keys":1,"block":2,"trial":159,"stimulus":3,"robot":1,"valence":"win","action":"go","sham":0,"trial_type":"pit-trial","trial_index":188,"time_elapsed":939427,"internal_node_id":"0.0-161.0","task_version":"battery-v0.2"},{"rune":"X","rune_set":"bacs2","hex":"#f73b6a7A","correct":-1,"choice":-1,"rt":-1,"accuracy":1,"outcome":"-1","keys":[],"total_keys":0,"block":2,"trial":160,"stimulus":2,"robot":4,"valence":"lose","action":"no-go","sham":0,"trial_type":"pit-trial","trial_index":189,"time_elapsed":943437,"internal_node_id":"0.0-162.0","task_version":"battery-v0.2"},{"rune":"O","rune_set":"bacs2","hex":"#f73b6a7A","correct":32,"choice":-1,"rt":-1,"accuracy":0,"outcome":"-10","keys":[],"total_keys":0,"block":2,"trial":161,"stimulus":5,"robot":3,"valence":"lose","action":"go","sham":0,"trial_type":"pit-trial","trial_index":190,"time_elapsed":947443,"internal_node_id":"0.0-163.0","task_version":"battery-v0.2"},{"rune":"C","rune_set":"bacs2","hex":"#f73b6a7A","correct":-1,"choice":32,"rt":657.6449999702163,"accuracy":0,"outcome":"-10","keys":[2157.9100000089966],"total_keys":1,"block":2,"trial":162,"stimulus":6,"robot":4,"valence":"lose","action":"no-go","sham":0,"trial_type":"pit-trial","trial_index":191,"time_elapsed":950805,"internal_node_id":"0.0-164.0","task_version":"battery-v0.2"},{"rune":"J","rune_set":"bacs2","hex":"#3366ff99","correct":-1,"choice":32,"rt":401.3450000202283,"accuracy":0,"outcome":"+1","keys":[1901.8849999993108],"total_keys":1,"block":2,"trial":163,"stimulus":0,"robot":2,"valence":"win","action":"no-go","sham":0,"trial_type":"pit-trial","trial_index":192,"time_elapsed":953915,"internal_node_id":"0.0-165.0","task_version":"battery-v0.2"},{"rune":"G","rune_set":"bacs2","hex":"#3366ff99","correct":32,"choice":32,"rt":333.5199999855831,"accuracy":1,"outcome":"+10","keys":[1833.794999984093],"total_keys":1,"block":2,"trial":164,"stimulus":4,"robot":1,"valence":"win","action":"go","sham":0,"trial_type":"pit-trial","trial_index":193,"time_elapsed":956956,"internal_node_id":"0.0-166.0","task_version":"battery-v0.2"},{"rune":"G","rune_set":"bacs2","hex":"#3366ff99","correct":32,"choice":32,"rt":297.2299999673851,"accuracy":1,"outcome":"+10","keys":[1797.51500004204],"total_keys":1,"block":2,"trial":165,"stimulus":4,"robot":1,"valence":"win","action":"go","sham":0,"trial_type":"pit-trial","trial_index":194,"time_elapsed":959959,"internal_node_id":"0.0-167.0","task_version":"battery-v0.2"},{"rune":"O","rune_set":"bacs2","hex":"#f73b6a7A","correct":32,"choice":32,"rt":635.405000008177,"accuracy":1,"outcome":"-1","keys":[2135.6849999865517],"total_keys":1,"block":2,"trial":166,"stimulus":5,"robot":3,"valence":"lose","action":"go","sham":0,"trial_type":"pit-trial","trial_index":195,"time_elapsed":963299,"internal_node_id":"0.0-168.0","task_version":"battery-v0.2"},{"rune":"C","rune_set":"bacs2","hex":"#f73b6a7A","correct":-1,"choice":32,"rt":637.3449999955483,"accuracy":0,"outcome":"-10","keys":[2137.975000019651],"total_keys":1,"block":2,"trial":167,"stimulus":6,"robot":4,"valence":"lose","action":"no-go","sham":0,"trial_type":"pit-trial","trial_index":196,"time_elapsed":966643,"internal_node_id":"0.0-169.0","task_version":"battery-v0.2"},{"rune":"J","rune_set":"bacs2","hex":"#3366ff99","correct":-1,"choice":32,"rt":298.68000000715256,"accuracy":0,"outcome":"+1","keys":[1800.9450000245124],"total_keys":1,"block":2,"trial":168,"stimulus":0,"robot":2,"valence":"win","action":"no-go","sham":0,"trial_type":"pit-trial","trial_index":197,"time_elapsed":969647,"internal_node_id":"0.0-170.0","task_version":"battery-v0.2"},{"rune":"E","rune_set":"bacs2","hex":"#3366ff99","correct":-1,"choice":32,"rt":324.95499996002764,"accuracy":0,"outcome":"+1","keys":[1825.8200000273064],"total_keys":1,"block":2,"trial":169,"stimulus":7,"robot":2,"valence":"win","action":"no-go","sham":0,"trial_type":"pit-trial","trial_index":198,"time_elapsed":972677,"internal_node_id":"0.0-171.0","task_version":"battery-v0.2"},{"rune":"O","rune_set":"bacs2","hex":"#f73b6a7A","correct":32,"choice":32,"rt":916.5999999968335,"accuracy":1,"outcome":"-1","keys":[2417.349999945145],"total_keys":1,"block":2,"trial":170,"stimulus":5,"robot":3,"valence":"lose","action":"go","sham":0,"trial_type":"pit-trial","trial_index":199,"time_elapsed":976302,"internal_node_id":"0.0-172.0","task_version":"battery-v0.2"},{"rune":"C","rune_set":"bacs2","hex":"#f73b6a7A","correct":-1,"choice":-1,"rt":-1,"accuracy":1,"outcome":"-10","keys":[],"total_keys":0,"block":2,"trial":171,"stimulus":6,"robot":4,"valence":"lose","action":"no-go","sham":1,"trial_type":"pit-trial","trial_index":200,"time_elapsed":980310,"internal_node_id":"0.0-173.0","task_version":"battery-v0.2"},{"rune":"G","rune_set":"bacs2","hex":"#3366ff99","correct":32,"choice":32,"rt":323.499999998603,"accuracy":1,"outcome":"+10","keys":[1824.2800000007264],"total_keys":1,"block":2,"trial":172,"stimulus":4,"robot":1,"valence":"win","action":"go","sham":0,"trial_type":"pit-trial","trial_index":201,"time_elapsed":983342,"internal_node_id":"0.0-174.0","task_version":"battery-v0.2"},{"rune":"C","rune_set":"bacs2","hex":"#f73b6a7A","correct":-1,"choice":32,"rt":953.2550000003539,"accuracy":0,"outcome":"-10","keys":[2454.0100000449456],"total_keys":1,"block":2,"trial":173,"stimulus":6,"robot":4,"valence":"lose","action":"no-go","sham":0,"trial_type":"pit-trial","trial_index":202,"time_elapsed":987001,"internal_node_id":"0.0-175.0","task_version":"battery-v0.2"},{"rune":"O","rune_set":"bacs2","hex":"#f73b6a7A","correct":32,"choice":32,"rt":654.4550000107847,"accuracy":1,"outcome":"-1","keys":[2155.6499999715015],"total_keys":1,"block":2,"trial":174,"stimulus":5,"robot":3,"valence":"lose","action":"go","sham":0,"trial_type":"pit-trial","trial_index":203,"time_elapsed":990363,"internal_node_id":"0.0-176.0","task_version":"battery-v0.2"},{"rune":"E","rune_set":"bacs2","hex":"#3366ff99","correct":-1,"choice":32,"rt":432.78500001179054,"accuracy":0,"outcome":"+1","keys":[1933.6000000475906],"total_keys":1,"block":2,"trial":175,"stimulus":7,"robot":2,"valence":"win","action":"no-go","sham":0,"trial_type":"pit-trial","trial_index":204,"time_elapsed":993505,"internal_node_id":"0.0-177.0","task_version":"battery-v0.2"},{"rune":"G","rune_set":"bacs2","hex":"#3366ff99","correct":32,"choice":32,"rt":694.0450000111014,"accuracy":1,"outcome":"+10","keys":[2194.9749999912456],"total_keys":1,"block":2,"trial":176,"stimulus":4,"robot":1,"valence":"win","action":"go","sham":0,"trial_type":"pit-trial","trial_index":205,"time_elapsed":996907,"internal_node_id":"0.0-178.0","task_version":"battery-v0.2"},{"rune":"O","rune_set":"bacs2","hex":"#f73b6a7A","correct":32,"choice":32,"rt":952.579999982845,"accuracy":1,"outcome":"-1","keys":[2456.01500000339],"total_keys":1,"block":2,"trial":177,"stimulus":5,"robot":3,"valence":"lose","action":"go","sham":0,"trial_type":"pit-trial","trial_index":206,"time_elapsed":1000568,"internal_node_id":"0.0-179.0","task_version":"battery-v0.2"},{"rune":"E","rune_set":"bacs2","hex":"#3366ff99","correct":-1,"choice":32,"rt":467.9149999865331,"accuracy":0,"outcome":"+10","keys":[1969.6550000226125],"total_keys":1,"block":2,"trial":178,"stimulus":7,"robot":2,"valence":"win","action":"no-go","sham":1,"trial_type":"pit-trial","trial_index":207,"time_elapsed":1003746,"internal_node_id":"0.0-180.0","task_version":"battery-v0.2"},{"rune":"C","rune_set":"bacs2","hex":"#f73b6a7A","correct":-1,"choice":-1,"rt":-1,"accuracy":1,"outcome":"-10","keys":[],"total_keys":0,"block":2,"trial":179,"stimulus":6,"robot":4,"valence":"lose","action":"no-go","sham":1,"trial_type":"pit-trial","trial_index":208,"time_elapsed":1007754,"internal_node_id":"0.0-181.0","task_version":"battery-v0.2"},{"rune":"G","rune_set":"bacs2","hex":"#3366ff99","correct":32,"choice":32,"rt":486.69500002870336,"accuracy":1,"outcome":"+10","keys":[1986.8400000268593],"total_keys":1,"block":2,"trial":180,"stimulus":4,"robot":1,"valence":"win","action":"go","sham":0,"trial_type":"pit-trial","trial_index":209,"time_elapsed":1010949,"internal_node_id":"0.0-182.0","task_version":"battery-v0.2"},{"rune":"O","rune_set":"bacs2","hex":"#f73b6a7A","correct":32,"choice":32,"rt":530.7249999605119,"accuracy":1,"outcome":"-1","keys":[2031.5350000164472],"total_keys":1,"block":2,"trial":181,"stimulus":5,"robot":3,"valence":"lose","action":"go","sham":0,"trial_type":"pit-trial","trial_index":210,"time_elapsed":1014188,"internal_node_id":"0.0-183.0","task_version":"battery-v0.2"},{"rune":"E","rune_set":"bacs2","hex":"#3366ff99","correct":-1,"choice":32,"rt":305.86500000208616,"accuracy":0,"outcome":"+1","keys":[1806.1149999848567],"total_keys":1,"block":2,"trial":182,"stimulus":7,"robot":2,"valence":"win","action":"no-go","sham":0,"trial_type":"pit-trial","trial_index":211,"time_elapsed":1017199,"internal_node_id":"0.0-184.0","task_version":"battery-v0.2"},{"rune":"C","rune_set":"bacs2","hex":"#f73b6a7A","correct":-1,"choice":32,"rt":1002.5250000180677,"accuracy":0,"outcome":"-1","keys":[2503.6400000099093],"total_keys":1,"block":2,"trial":183,"stimulus":6,"robot":4,"valence":"lose","action":"no-go","sham":1,"trial_type":"pit-trial","trial_index":212,"time_elapsed":1020910,"internal_node_id":"0.0-185.0","task_version":"battery-v0.2"},{"rune":"G","rune_set":"bacs2","hex":"#3366ff99","correct":32,"choice":32,"rt":491.4800000260584,"accuracy":1,"outcome":"+10","keys":[1991.9699999736622],"total_keys":1,"block":2,"trial":184,"stimulus":4,"robot":1,"valence":"win","action":"go","sham":0,"trial_type":"pit-trial","trial_index":213,"time_elapsed":1024106,"internal_node_id":"0.0-186.0","task_version":"battery-v0.2"},{"rune":"O","rune_set":"bacs2","hex":"#f73b6a7A","correct":32,"choice":32,"rt":926.9799999892712,"accuracy":1,"outcome":"-1","keys":[2427.6149999932386],"total_keys":1,"block":2,"trial":185,"stimulus":5,"robot":3,"valence":"lose","action":"go","sham":0,"trial_type":"pit-trial","trial_index":214,"time_elapsed":1027740,"internal_node_id":"0.0-187.0","task_version":"battery-v0.2"},{"rune":"G","rune_set":"bacs2","hex":"#3366ff99","correct":32,"choice":32,"rt":370.7249999861233,"accuracy":1,"outcome":"+10","keys":[1871.3250000146218],"total_keys":1,"block":2,"trial":186,"stimulus":4,"robot":1,"valence":"win","action":"go","sham":0,"trial_type":"pit-trial","trial_index":215,"time_elapsed":1030829,"internal_node_id":"0.0-188.0","task_version":"battery-v0.2"},{"rune":"C","rune_set":"bacs2","hex":"#f73b6a7A","correct":-1,"choice":32,"rt":1111.0049999551848,"accuracy":0,"outcome":"-10","keys":[2611.830000008922],"total_keys":1,"block":2,"trial":187,"stimulus":6,"robot":4,"valence":"lose","action":"no-go","sham":0,"trial_type":"pit-trial","trial_index":216,"time_elapsed":1034646,"internal_node_id":"0.0-189.0","task_version":"battery-v0.2"},{"rune":"E","rune_set":"bacs2","hex":"#3366ff99","correct":-1,"choice":32,"rt":363.04500000551343,"accuracy":0,"outcome":"+1","keys":[1864.0599999926053],"total_keys":1,"block":2,"trial":188,"stimulus":7,"robot":2,"valence":"win","action":"no-go","sham":0,"trial_type":"pit-trial","trial_index":217,"time_elapsed":1037717,"internal_node_id":"0.0-190.0","task_version":"battery-v0.2"},{"rune":"O","rune_set":"bacs2","hex":"#f73b6a7A","correct":32,"choice":32,"rt":594.5999999530613,"accuracy":1,"outcome":"-1","keys":[2094.9250000412576],"total_keys":1,"block":2,"trial":189,"stimulus":5,"robot":3,"valence":"lose","action":"go","sham":0,"trial_type":"pit-trial","trial_index":218,"time_elapsed":1041020,"internal_node_id":"0.0-191.0","task_version":"battery-v0.2"},{"rune":"C","rune_set":"bacs2","hex":"#f73b6a7A","correct":-1,"choice":32,"rt":1181.8349999957718,"accuracy":0,"outcome":"-10","keys":[2683.8800000259653],"total_keys":1,"block":2,"trial":190,"stimulus":6,"robot":4,"valence":"lose","action":"no-go","sham":0,"trial_type":"pit-trial","trial_index":219,"time_elapsed":1044910,"internal_node_id":"0.0-192.0","task_version":"battery-v0.2"},{"rune":"E","rune_set":"bacs2","hex":"#3366ff99","correct":-1,"choice":32,"rt":295.1149999862537,"accuracy":0,"outcome":"+1","keys":[1795.7400000304915],"total_keys":1,"block":2,"trial":191,"stimulus":7,"robot":2,"valence":"win","action":"no-go","sham":0,"trial_type":"pit-trial","trial_index":220,"time_elapsed":1047911,"internal_node_id":"0.0-193.0","task_version":"battery-v0.2"},{"rune":"G","rune_set":"bacs2","hex":"#3366ff99","correct":32,"choice":32,"rt":303.97499998798594,"accuracy":1,"outcome":"+10","keys":[1805.8249999885447],"total_keys":1,"block":2,"trial":192,"stimulus":4,"robot":1,"valence":"win","action":"go","sham":0,"trial_type":"pit-trial","trial_index":221,"time_elapsed":1050922,"internal_node_id":"0.0-194.0","task_version":"battery-v0.2"},{"rune":"H","rune_set":"bacs2","hex":"#f73b6a7A","correct":32,"choice":32,"rt":640.7149999868125,"accuracy":1,"outcome":"-1","keys":[2141.460000013467],"total_keys":1,"block":2,"trial":193,"stimulus":8,"robot":3,"valence":"lose","action":"go","sham":0,"trial_type":"pit-trial","trial_index":222,"time_elapsed":1054272,"internal_node_id":"0.0-195.0","task_version":"battery-v0.2"},{"rune":"G","rune_set":"bacs2","hex":"#3366ff99","correct":32,"choice":32,"rt":288.9300000388175,"accuracy":1,"outcome":"+1","keys":[1789.615000016056],"total_keys":1,"block":2,"trial":194,"stimulus":4,"robot":1,"valence":"win","action":"go","sham":1,"trial_type":"pit-trial","trial_index":223,"time_elapsed":1057268,"internal_node_id":"0.0-196.0","task_version":"battery-v0.2"},{"rune":"C","rune_set":"bacs2","hex":"#f73b6a7A","correct":-1,"choice":-1,"rt":-1,"accuracy":1,"outcome":"-1","keys":[],"total_keys":0,"block":2,"trial":195,"stimulus":6,"robot":4,"valence":"lose","action":"no-go","sham":0,"trial_type":"pit-trial","trial_index":224,"time_elapsed":1061277,"internal_node_id":"0.0-197.0","task_version":"battery-v0.2"},{"rune":"E","rune_set":"bacs2","hex":"#3366ff99","correct":-1,"choice":32,"rt":350.97500000847504,"accuracy":0,"outcome":"+10","keys":[1851.2050000135787],"total_keys":1,"block":2,"trial":196,"stimulus":7,"robot":2,"valence":"win","action":"no-go","sham":1,"trial_type":"pit-trial","trial_index":225,"time_elapsed":1064335,"internal_node_id":"0.0-198.0","task_version":"battery-v0.2"},{"rune":"E","rune_set":"bacs2","hex":"#3366ff99","correct":-1,"choice":32,"rt":434.84499998157844,"accuracy":0,"outcome":"+1","keys":[1935.4950000415556],"total_keys":1,"block":2,"trial":197,"stimulus":7,"robot":2,"valence":"win","action":"no-go","sham":0,"trial_type":"pit-trial","trial_index":226,"time_elapsed":1067476,"internal_node_id":"0.0-199.0","task_version":"battery-v0.2"},{"rune":"G","rune_set":"bacs2","hex":"#3366ff99","correct":32,"choice":32,"rt":431.67000001994893,"accuracy":1,"outcome":"+10","keys":[1932.570000004489],"total_keys":1,"block":2,"trial":198,"stimulus":4,"robot":1,"valence":"win","action":"go","sham":0,"trial_type":"pit-trial","trial_index":227,"time_elapsed":1070613,"internal_node_id":"0.0-200.0","task_version":"battery-v0.2"},{"rune":"C","rune_set":"bacs2","hex":"#f73b6a7A","correct":-1,"choice":-1,"rt":-1,"accuracy":1,"outcome":"-10","keys":[],"total_keys":0,"block":2,"trial":199,"stimulus":6,"robot":4,"valence":"lose","action":"no-go","sham":1,"trial_type":"pit-trial","trial_index":228,"time_elapsed":1074623,"internal_node_id":"0.0-201.0","task_version":"battery-v0.2"},{"rune":"H","rune_set":"bacs2","hex":"#f73b6a7A","correct":32,"choice":32,"rt":651.7900000326335,"accuracy":1,"outcome":"-10","keys":[2152.044999995269],"total_keys":1,"block":2,"trial":200,"stimulus":8,"robot":3,"valence":"lose","action":"go","sham":1,"trial_type":"pit-trial","trial_index":229,"time_elapsed":1077981,"internal_node_id":"0.0-202.0","task_version":"battery-v0.2"},{"rune":"E","rune_set":"bacs2","hex":"#3366ff99","correct":-1,"choice":32,"rt":296.99499998241663,"accuracy":0,"outcome":"+1","keys":[1798.3750000130385],"total_keys":1,"block":2,"trial":201,"stimulus":7,"robot":2,"valence":"win","action":"no-go","sham":0,"trial_type":"pit-trial","trial_index":230,"time_elapsed":1080984,"internal_node_id":"0.0-203.0","task_version":"battery-v0.2"},{"rune":"C","rune_set":"bacs2","hex":"#f73b6a7A","correct":-1,"choice":-1,"rt":-1,"accuracy":1,"outcome":"-10","keys":[],"total_keys":0,"block":2,"trial":202,"stimulus":6,"robot":4,"valence":"lose","action":"no-go","sham":1,"trial_type":"pit-trial","trial_index":231,"time_elapsed":1084987,"internal_node_id":"0.0-204.0","task_version":"battery-v0.2"},{"rune":"Q","rune_set":"bacs2","hex":"#f73b6a7A","correct":32,"choice":32,"rt":567.1299999812618,"accuracy":1,"outcome":"-1","keys":[2068.614999996498],"total_keys":1,"block":2,"trial":203,"stimulus":9,"robot":3,"valence":"lose","action":"go","sham":0,"trial_type":"pit-trial","trial_index":232,"time_elapsed":1088261,"internal_node_id":"0.0-205.0","task_version":"battery-v0.2"},{"rune":"H","rune_set":"bacs2","hex":"#f73b6a7A","correct":32,"choice":32,"rt":542.7750000380911,"accuracy":1,"outcome":"-10","keys":[2043.1799999787472],"total_keys":1,"block":2,"trial":204,"stimulus":8,"robot":3,"valence":"lose","action":"go","sham":1,"trial_type":"pit-trial","trial_index":233,"time_elapsed":1091510,"internal_node_id":"0.0-206.0","task_version":"battery-v0.2"},{"rune":"H","rune_set":"bacs2","hex":"#f73b6a7A","correct":32,"choice":-1,"rt":-1,"accuracy":0,"outcome":"-10","keys":[2827.255000011064],"total_keys":1,"block":2,"trial":205,"stimulus":8,"robot":3,"valence":"lose","action":"go","sham":0,"trial_type":"pit-trial","trial_index":234,"time_elapsed":1095516,"internal_node_id":"0.0-207.0","task_version":"battery-v0.2"},{"rune":"E","rune_set":"bacs2","hex":"#3366ff99","correct":-1,"choice":32,"rt":424.66499999864027,"accuracy":0,"outcome":"+1","keys":[1924.8500000103377],"total_keys":1,"block":2,"trial":206,"stimulus":7,"robot":2,"valence":"win","action":"no-go","sham":0,"trial_type":"pit-trial","trial_index":235,"time_elapsed":1098648,"internal_node_id":"0.0-208.0","task_version":"battery-v0.2"},{"rune":"Q","rune_set":"bacs2","hex":"#f73b6a7A","correct":32,"choice":32,"rt":622.4749999819323,"accuracy":1,"outcome":"-1","keys":[2122.6950000273064],"total_keys":1,"block":2,"trial":207,"stimulus":9,"robot":3,"valence":"lose","action":"go","sham":0,"trial_type":"pit-trial","trial_index":236,"time_elapsed":1101976,"internal_node_id":"0.0-209.0","task_version":"battery-v0.2"},{"rune":"C","rune_set":"bacs2","hex":"#f73b6a7A","correct":-1,"choice":-1,"rt":-1,"accuracy":1,"outcome":"-1","keys":[],"total_keys":0,"block":2,"trial":208,"stimulus":6,"robot":4,"valence":"lose","action":"no-go","sham":0,"trial_type":"pit-trial","trial_index":237,"time_elapsed":1105982,"internal_node_id":"0.0-210.0","task_version":"battery-v0.2"},{"rune":"H","rune_set":"bacs2","hex":"#f73b6a7A","correct":32,"choice":-1,"rt":-1,"accuracy":0,"outcome":"-10","keys":[],"total_keys":0,"block":2,"trial":209,"stimulus":8,"robot":3,"valence":"lose","action":"go","sham":0,"trial_type":"pit-trial","trial_index":238,"time_elapsed":1109987,"internal_node_id":"0.0-211.0","task_version":"battery-v0.2"},{"rune":"T","rune_set":"bacs2","hex":"#f73b6a7A","correct":-1,"choice":32,"rt":460.87000000989065,"accuracy":0,"outcome":"-10","keys":[1965.7350000343286],"total_keys":1,"block":2,"trial":210,"stimulus":10,"robot":4,"valence":"lose","action":"no-go","sham":0,"trial_type":"pit-trial","trial_index":239,"time_elapsed":1113157,"internal_node_id":"0.0-212.0","task_version":"battery-v0.2"},{"rune":"Y","rune_set":"bacs2","hex":"#3366ff99","correct":-1,"choice":32,"rt":500.21500000730157,"accuracy":0,"outcome":"+1","keys":[2000.6750000175089],"total_keys":1,"block":2,"trial":211,"stimulus":11,"robot":2,"valence":"win","action":"no-go","sham":0,"trial_type":"pit-trial","trial_index":240,"time_elapsed":1116366,"internal_node_id":"0.0-213.0","task_version":"battery-v0.2"},{"rune":"Q","rune_set":"bacs2","hex":"#f73b6a7A","correct":32,"choice":32,"rt":923.1550000258721,"accuracy":1,"outcome":"-1","keys":[2423.5300000291318],"total_keys":1,"block":2,"trial":212,"stimulus":9,"robot":3,"valence":"lose","action":"go","sham":0,"trial_type":"pit-trial","trial_index":241,"time_elapsed":1119996,"internal_node_id":"0.0-214.0","task_version":"battery-v0.2"},{"rune":"T","rune_set":"bacs2","hex":"#f73b6a7A","correct":-1,"choice":32,"rt":829.9499999848194,"accuracy":0,"outcome":"-10","keys":[2330.0099999760278],"total_keys":1,"block":2,"trial":213,"stimulus":10,"robot":4,"valence":"lose","action":"no-go","sham":0,"trial_type":"pit-trial","trial_index":242,"time_elapsed":1123533,"internal_node_id":"0.0-215.0","task_version":"battery-v0.2"},{"rune":"Q","rune_set":"bacs2","hex":"#f73b6a7A","correct":32,"choice":32,"rt":542.4549999879673,"accuracy":1,"outcome":"-1","keys":[2043.0349999805912],"total_keys":1,"block":2,"trial":214,"stimulus":9,"robot":3,"valence":"lose","action":"go","sham":0,"trial_type":"pit-trial","trial_index":243,"time_elapsed":1126784,"internal_node_id":"0.0-216.0","task_version":"battery-v0.2"},{"rune":"Y","rune_set":"bacs2","hex":"#3366ff99","correct":-1,"choice":32,"rt":623.7400000100024,"accuracy":0,"outcome":"+10","keys":[2124.5050000143237],"total_keys":1,"block":2,"trial":215,"stimulus":11,"robot":2,"valence":"win","action":"no-go","sham":1,"trial_type":"pit-trial","trial_index":244,"time_elapsed":1130114,"internal_node_id":"0.0-217.0","task_version":"battery-v0.2"},{"rune":"H","rune_set":"bacs2","hex":"#f73b6a7A","correct":32,"choice":-1,"rt":-1,"accuracy":0,"outcome":"-1","keys":[],"total_keys":0,"block":2,"trial":216,"stimulus":8,"robot":3,"valence":"lose","action":"go","sham":1,"trial_type":"pit-trial","trial_index":245,"time_elapsed":1134120,"internal_node_id":"0.0-218.0","task_version":"battery-v0.2"},{"rune":"Y","rune_set":"bacs2","hex":"#3366ff99","correct":-1,"choice":32,"rt":464.9900000076741,"accuracy":0,"outcome":"+1","keys":[1965.700000000652],"total_keys":1,"block":2,"trial":217,"stimulus":11,"robot":2,"valence":"win","action":"no-go","sham":0,"trial_type":"pit-trial","trial_index":246,"time_elapsed":1137294,"internal_node_id":"0.0-219.0","task_version":"battery-v0.2"},{"rune":"T","rune_set":"bacs2","hex":"#f73b6a7A","correct":-1,"choice":32,"rt":1228.9899999741465,"accuracy":0,"outcome":"-10","keys":[2729.9349999520928],"total_keys":1,"block":2,"trial":218,"stimulus":10,"robot":4,"valence":"lose","action":"no-go","sham":0,"trial_type":"pit-trial","trial_index":247,"time_elapsed":1141230,"internal_node_id":"0.0-220.0","task_version":"battery-v0.2"},{"rune":"Q","rune_set":"bacs2","hex":"#f73b6a7A","correct":32,"choice":32,"rt":1221.320000011474,"accuracy":1,"outcome":"-1","keys":[2722.5150000303984],"total_keys":1,"block":2,"trial":219,"stimulus":9,"robot":3,"valence":"lose","action":"go","sham":0,"trial_type":"pit-trial","trial_index":248,"time_elapsed":1145158,"internal_node_id":"0.0-221.0","task_version":"battery-v0.2"},{"rune":"H","rune_set":"bacs2","hex":"#f73b6a7A","correct":32,"choice":32,"rt":941.1399999517016,"accuracy":1,"outcome":"-1","keys":[2441.995000001043],"total_keys":1,"block":2,"trial":220,"stimulus":8,"robot":3,"valence":"lose","action":"go","sham":0,"trial_type":"pit-trial","trial_index":249,"time_elapsed":1148810,"internal_node_id":"0.0-222.0","task_version":"battery-v0.2"},{"rune":"Q","rune_set":"bacs2","hex":"#f73b6a7A","correct":32,"choice":-1,"rt":-1,"accuracy":0,"outcome":"-10","keys":[],"total_keys":0,"block":2,"trial":221,"stimulus":9,"robot":3,"valence":"lose","action":"go","sham":0,"trial_type":"pit-trial","trial_index":250,"time_elapsed":1152818,"internal_node_id":"0.0-223.0","task_version":"battery-v0.2"},{"rune":"T","rune_set":"bacs2","hex":"#f73b6a7A","correct":-1,"choice":32,"rt":1151.4549999847077,"accuracy":0,"outcome":"-1","keys":[2651.6800000099465],"total_keys":1,"block":2,"trial":222,"stimulus":10,"robot":4,"valence":"lose","action":"no-go","sham":1,"trial_type":"pit-trial","trial_index":251,"time_elapsed":1156677,"internal_node_id":"0.0-224.0","task_version":"battery-v0.2"},{"rune":"H","rune_set":"bacs2","hex":"#f73b6a7A","correct":32,"choice":32,"rt":840.6749999849126,"accuracy":1,"outcome":"-1","keys":[2341.4300000295043],"total_keys":1,"block":2,"trial":223,"stimulus":8,"robot":3,"valence":"lose","action":"go","sham":0,"trial_type":"pit-trial","trial_index":252,"time_elapsed":1160227,"internal_node_id":"0.0-225.0","task_version":"battery-v0.2"},{"rune":"Y","rune_set":"bacs2","hex":"#3366ff99","correct":-1,"choice":32,"rt":396.14999998593703,"accuracy":0,"outcome":"+10","keys":[1896.4299999643117],"total_keys":1,"block":2,"trial":224,"stimulus":11,"robot":2,"valence":"win","action":"no-go","sham":1,"trial_type":"pit-trial","trial_index":253,"time_elapsed":1163329,"internal_node_id":"0.0-226.0","task_version":"battery-v0.2"},{"rune":"Q","rune_set":"bacs2","hex":"#f73b6a7A","correct":32,"choice":-1,"rt":-1,"accuracy":0,"outcome":"-10","keys":[],"total_keys":0,"block":2,"trial":225,"stimulus":9,"robot":3,"valence":"lose","action":"go","sham":0,"trial_type":"pit-trial","trial_index":254,"time_elapsed":1167336,"internal_node_id":"0.0-227.0","task_version":"battery-v0.2"},{"rune":"T","rune_set":"bacs2","hex":"#f73b6a7A","correct":-1,"choice":32,"rt":1055.2349999779835,"accuracy":0,"outcome":"-10","keys":[2555.350000038743,2846.6800000169314],"total_keys":2,"block":2,"trial":226,"stimulus":10,"robot":4,"valence":"lose","action":"no-go","sham":0,"trial_type":"pit-trial","trial_index":255,"time_elapsed":1171098,"internal_node_id":"0.0-228.0","task_version":"battery-v0.2"},{"rune":"Y","rune_set":"bacs2","hex":"#3366ff99","correct":-1,"choice":32,"rt":361.8900000001304,"accuracy":0,"outcome":"+1","keys":[1862.280000001192],"total_keys":1,"block":2,"trial":227,"stimulus":11,"robot":2,"valence":"win","action":"no-go","sham":0,"trial_type":"pit-trial","trial_index":256,"time_elapsed":1174164,"internal_node_id":"0.0-229.0","task_version":"battery-v0.2"},{"rune":"H","rune_set":"bacs2","hex":"#f73b6a7A","correct":32,"choice":32,"rt":786.0400000354275,"accuracy":1,"outcome":"-1","keys":[2286.934999981895],"total_keys":1,"block":2,"trial":228,"stimulus":8,"robot":3,"valence":"lose","action":"go","sham":0,"trial_type":"pit-trial","trial_index":257,"time_elapsed":1177657,"internal_node_id":"0.0-230.0","task_version":"battery-v0.2"},{"rune":"Q","rune_set":"bacs2","hex":"#f73b6a7A","correct":32,"choice":32,"rt":876.2149999965914,"accuracy":1,"outcome":"-1","keys":[2376.2899999856018],"total_keys":1,"block":2,"trial":229,"stimulus":9,"robot":3,"valence":"lose","action":"go","sham":0,"trial_type":"pit-trial","trial_index":258,"time_elapsed":1181239,"internal_node_id":"0.0-231.0","task_version":"battery-v0.2"},{"rune":"T","rune_set":"bacs2","hex":"#f73b6a7A","correct":-1,"choice":32,"rt":562.1800000080839,"accuracy":0,"outcome":"-10","keys":[2062.549999973271],"total_keys":1,"block":2,"trial":230,"stimulus":10,"robot":4,"valence":"lose","action":"no-go","sham":0,"trial_type":"pit-trial","trial_index":259,"time_elapsed":1184508,"internal_node_id":"0.0-232.0","task_version":"battery-v0.2"},{"rune":"H","rune_set":"bacs2","hex":"#f73b6a7A","correct":32,"choice":32,"rt":800.8600000175647,"accuracy":1,"outcome":"-1","keys":[2301.000000035856],"total_keys":1,"block":2,"trial":231,"stimulus":8,"robot":3,"valence":"lose","action":"go","sham":0,"trial_type":"pit-trial","trial_index":260,"time_elapsed":1188013,"internal_node_id":"0.0-233.0","task_version":"battery-v0.2"},{"rune":"Y","rune_set":"bacs2","hex":"#3366ff99","correct":-1,"choice":32,"rt":382.709999976214,"accuracy":0,"outcome":"+1","keys":[1883.750000037253],"total_keys":1,"block":2,"trial":232,"stimulus":11,"robot":2,"valence":"win","action":"no-go","sham":0,"trial_type":"pit-trial","trial_index":261,"time_elapsed":1191101,"internal_node_id":"0.0-234.0","task_version":"battery-v0.2"},{"rune":"H","rune_set":"bacs2","hex":"#f73b6a7A","correct":32,"choice":32,"rt":552.8650000342168,"accuracy":1,"outcome":"-1","keys":[2053.6749999737367],"total_keys":1,"block":2,"trial":233,"stimulus":8,"robot":3,"valence":"lose","action":"go","sham":0,"trial_type":"pit-trial","trial_index":262,"time_elapsed":1194359,"internal_node_id":"0.0-235.0","task_version":"battery-v0.2"},{"rune":"Q","rune_set":"bacs2","hex":"#f73b6a7A","correct":32,"choice":-1,"rt":-1,"accuracy":0,"outcome":"-10","keys":[],"total_keys":0,"block":2,"trial":234,"stimulus":9,"robot":3,"valence":"lose","action":"go","sham":0,"trial_type":"pit-trial","trial_index":263,"time_elapsed":1198368,"internal_node_id":"0.0-236.0","task_version":"battery-v0.2"},{"rune":"T","rune_set":"bacs2","hex":"#f73b6a7A","correct":-1,"choice":32,"rt":524.6299999998882,"accuracy":0,"outcome":"-1","keys":[2024.7350000427105],"total_keys":1,"block":2,"trial":235,"stimulus":10,"robot":4,"valence":"lose","action":"no-go","sham":1,"trial_type":"pit-trial","trial_index":264,"time_elapsed":1201600,"internal_node_id":"0.0-237.0","task_version":"battery-v0.2"},{"rune":"Y","rune_set":"bacs2","hex":"#3366ff99","correct":-1,"choice":32,"rt":448.0850000400096,"accuracy":0,"outcome":"+1","keys":[1948.629999998957],"total_keys":1,"block":2,"trial":236,"stimulus":11,"robot":2,"valence":"win","action":"no-go","sham":0,"trial_type":"pit-trial","trial_index":265,"time_elapsed":1204756,"internal_node_id":"0.0-238.0","task_version":"battery-v0.2"},{"rune":"Q","rune_set":"bacs2","hex":"#f73b6a7A","correct":32,"choice":32,"rt":625.3499999875203,"accuracy":1,"outcome":"-1","keys":[2125.914999982342],"total_keys":1,"block":2,"trial":237,"stimulus":9,"robot":3,"valence":"lose","action":"go","sham":0,"trial_type":"pit-trial","trial_index":266,"time_elapsed":1208089,"internal_node_id":"0.0-239.0","task_version":"battery-v0.2"},{"rune":"Y","rune_set":"bacs2","hex":"#3366ff99","correct":-1,"choice":32,"rt":289.760000014212,"accuracy":0,"outcome":"+1","keys":[1790.824999974575],"total_keys":1,"block":2,"trial":238,"stimulus":11,"robot":2,"valence":"win","action":"no-go","sham":0,"trial_type":"pit-trial","trial_index":267,"time_elapsed":1211085,"internal_node_id":"0.0-240.0","task_version":"battery-v0.2"},{"rune":"H","rune_set":"bacs2","hex":"#f73b6a7A","correct":32,"choice":32,"rt":601.2099999934435,"accuracy":1,"outcome":"-1","keys":[2101.635000028182],"total_keys":1,"block":2,"trial":239,"stimulus":8,"robot":3,"valence":"lose","action":"go","sham":0,"trial_type":"pit-trial","trial_index":268,"time_elapsed":1214391,"internal_node_id":"0.0-241.0","task_version":"battery-v0.2"},{"rune":"T","rune_set":"bacs2","hex":"#f73b6a7A","correct":-1,"choice":32,"rt":1164.6450000116602,"accuracy":0,"outcome":"-10","keys":[2667.0399999711663],"total_keys":1,"block":2,"trial":240,"stimulus":10,"robot":4,"valence":"lose","action":"no-go","sham":0,"trial_type":"pit-trial","trial_index":269,"time_elapsed":1218265,"internal_node_id":"0.0-242.0","task_version":"battery-v0.2"},{"view_history":"[{\"page_index\":0,\"viewing_time\":4022.934999957215}]","rt":4023.4249999630265,"trial_type":"pit-instructions","trial_index":270,"time_elapsed":1222293,"internal_node_id":"0.0-243.0","task_version":"battery-v0.2"},{"rt":16453.7250000285,"responses":{"age":"45","gender-categorical":"Male","gender-free-response":