[{"view_history":"[{\"page_index\":0,\"viewing_time\":5394.819999986794},{\"page_index\":1,\"viewing_time\":6275.595000013709},{\"page_index\":2,\"viewing_time\":7925.56499998318},{\"page_index\":3,\"viewing_time\":17134.175000013784},{\"page_index\":4,\"viewing_time\":15183.179999992717},{\"page_index\":5,\"viewing_time\":5418.354999972507},{\"page_index\":6,\"viewing_time\":7121.03500001831},{\"page_index\":7,\"viewing_time\":52775.88500001002},{\"page_index\":8,\"viewing_time\":5822.385000006761},{\"page_index\":9,\"viewing_time\":5829.105000011623}]","rt":128884.16999997571,"trial_type":"pit-instructions","trial_index":0,"time_elapsed":128930,"internal_node_id":"0.0-0.0-0.0","task_version":"battery-v0.2"},{"rune":"1","rune_set":"elianto","hex":"#3366ff99","correct":32,"choice":-1,"rt":-1,"accuracy":0,"outcome":"+1","keys":[3578.0849999864586],"total_keys":1,"block":0,"practice":1,"trial_type":"pit-trial","trial_index":1,"time_elapsed":132954,"internal_node_id":"0.0-0.0-1.0-0.0","task_version":"battery-v0.2"},{"rune":"1","rune_set":"elianto","hex":"#3366ff99","correct":32,"choice":32,"rt":778.7849999731407,"accuracy":1,"outcome":"+10","keys":[2283.850000007078],"total_keys":1,"block":0,"practice":1,"trial_type":"pit-trial","trial_index":2,"time_elapsed":136481,"internal_node_id":"0.0-0.0-1.1-0.1","task_version":"battery-v0.2"},{"rune":"1","rune_set":"elianto","hex":"#3366ff99","correct":32,"choice":-1,"rt":-1,"accuracy":0,"outcome":"+1","keys":[],"total_keys":0,"block":0,"practice":1,"trial_type":"pit-trial","trial_index":3,"time_elapsed":140533,"internal_node_id":"0.0-0.0-1.2-0.2","task_version":"battery-v0.2"},{"rune":"1","rune_set":"elianto","hex":"#3366ff99","correct":32,"choice":32,"rt":918.050000036601,"accuracy":1,"outcome":"+10","keys":[2420.3050000360236],"total_keys":1,"block":0,"practice":1,"trial_type":"pit-trial","trial_index":4,"time_elapsed":144183,"internal_node_id":"0.0-0.0-1.3-0.3","task_version":"battery-v0.2"},{"rune":"1","rune_set":"elianto","hex":"#3366ff99","correct":32,"choice":32,"rt":1043.6850000405684,"accuracy":1,"outcome":"+10","keys":[2545.78499996569],"total_keys":1,"block":0,"practice":1,"trial_type":"pit-trial","trial_index":5,"time_elapsed":147957,"internal_node_id":"0.0-0.0-1.4-0.4","task_version":"battery-v0.2"},{"rune":"1","rune_set":"elianto","hex":"#3366ff99","correct":32,"choice":32,"rt":797.6449999841861,"accuracy":1,"outcome":"+10","keys":[2301.8150000134483],"total_keys":1,"block":0,"practice":1,"trial_type":"pit-trial","trial_index":6,"time_elapsed":151499,"internal_node_id":"0.0-0.0-1.5-0.5","task_version":"battery-v0.2"},{"view_history":"[{\"page_index\":0,\"viewing_time\":10638.580000028014},{\"page_index\":1,\"viewing_time\":7223.98999996949}]","rt":17864.265000040177,"trial_type":"pit-instructions","trial_index":7,"time_elapsed":169380,"internal_node_id":"0.0-0.0-2.0","task_version":"battery-v0.2"},{"rune":"2","rune_set":"elianto","hex":"#3366ff99","correct":-1,"choice":32,"rt":1094.184999994468,"accuracy":0,"outcome":"+1","keys":[2597.014999948442],"total_keys":1,"block":0,"practice":2,"trial_type":"pit-trial","trial_index":8,"time_elapsed":173195,"internal_node_id":"0.0-0.0-3.0-0.0","task_version":"battery-v0.2"},{"rune":"2","rune_set":"elianto","hex":"#3366ff99","correct":-1,"choice":32,"rt":1055.8900000178255,"accuracy":0,"outcome":"+1","keys":[2561.249999969732],"total_keys":1,"block":0,"practice":2,"trial_type":"pit-trial","trial_index":9,"time_elapsed":176988,"internal_node_id":"0.0-0.0-3.1-0.1","task_version":"battery-v0.2"},{"rune":"2","rune_set":"elianto","hex":"#3366ff99","correct":-1,"choice":32,"rt":862.8700000117533,"accuracy":0,"outcome":"+1","keys":[2364.9050000240095],"total_keys":1,"block":0,"practice":2,"trial_type":"pit-trial","trial_index":10,"time_elapsed":180584,"internal_node_id":"0.0-0.0-3.2-0.2","task_version":"battery-v0.2"},{"rune":"2","rune_set":"elianto","hex":"#3366ff99","correct":-1,"choice":32,"rt":523.2599999872036,"accuracy":0,"outcome":"+1","keys":[2026.9100000150502],"total_keys":1,"block":0,"practice":2,"trial_type":"pit-trial","trial_index":11,"time_elapsed":183841,"internal_node_id":"0.0-0.0-3.3-0.3","task_version":"battery-v0.2"},{"rune":"2","rune_set":"elianto","hex":"#3366ff99","correct":-1,"choice":32,"rt":742.9150000098161,"accuracy":0,"outcome":"+1","keys":[2246.4550000149757],"total_keys":1,"block":0,"practice":2,"trial_type":"pit-trial","trial_index":12,"time_elapsed":187313,"internal_node_id":"0.0-0.0-3.4-0.4","task_version":"battery-v0.2"},{"rune":"2","rune_set":"elianto","hex":"#3366ff99","correct":-1,"choice":32,"rt":676.7649999819696,"accuracy":0,"outcome":"+1","keys":[2181.574999995064],"total_keys":1,"block":0,"practice":2,"trial_type":"pit-trial","trial_index":13,"time_elapsed":190726,"internal_node_id":"0.0-0.0-3.5-0.5","task_version":"battery-v0.2"},{"rune":"2","rune_set":"elianto","hex":"#3366ff99","correct":-1,"choice":32,"rt":539.7450000164099,"accuracy":0,"outcome":"+1","keys":[2042.554999992717],"total_keys":1,"block":0,"practice":2,"trial_type":"pit-trial","trial_index":14,"time_elapsed":194000,"internal_node_id":"0.0-0.0-3.6-0.6","task_version":"battery-v0.2"},{"rune":"2","rune_set":"elianto","hex":"#3366ff99","correct":-1,"choice":32,"rt":619.8950000107288,"accuracy":0,"outcome":"+1","keys":[2122.269999992568],"total_keys":1,"block":0,"practice":2,"trial_type":"pit-trial","trial_index":15,"time_elapsed":197356,"internal_node_id":"0.0-0.0-3.7-0.7","task_version":"battery-v0.2"},{"rune":"2","rune_set":"elianto","hex":"#3366ff99","correct":-1,"choice":32,"rt":561.9249999872409,"accuracy":0,"outcome":"+1","keys":[2062.080000003334],"total_keys":1,"block":0,"practice":2,"trial_type":"pit-trial","trial_index":16,"time_elapsed":200647,"internal_node_id":"0.0-0.0-3.8-0.8","task_version":"battery-v0.2"},{"rune":"2","rune_set":"elianto","hex":"#3366ff99","correct":-1,"choice":32,"rt":745.5249999766238,"accuracy":0,"outcome":"+1","keys":[2249.1849999642],"total_keys":1,"block":0,"practice":2,"trial_type":"pit-trial","trial_index":17,"time_elapsed":204138,"internal_node_id":"0.0-0.0-3.9-0.9","task_version":"battery-v0.2"},{"rune":"2","rune_set":"elianto","hex":"#3366ff99","correct":-1,"choice":32,"rt":580.4049999569543,"accuracy":0,"outcome":"+1","keys":[2080.714999989141],"total_keys":1,"block":0,"practice":2,"trial_type":"pit-trial","trial_index":18,"time_elapsed":207445,"internal_node_id":"0.0-0.0-3.10-0.10","task_version":"battery-v0.2"},{"rune":"2","rune_set":"elianto","hex":"#3366ff99","correct":-1,"choice":32,"rt":481.8699999595992,"accuracy":0,"outcome":"+1","keys":[1984.6600000164472],"total_keys":1,"block":0,"practice":2,"trial_type":"pit-trial","trial_index":19,"time_elapsed":210655,"internal_node_id":"0.0-0.0-3.11-0.11","task_version":"battery-v0.2"},{"rune":"2","rune_set":"elianto","hex":"#3366ff99","correct":-1,"choice":32,"rt":726.4849999919534,"accuracy":0,"outcome":"+1","keys":[2226.810000021942],"total_keys":1,"block":0,"practice":2,"trial_type":"pit-trial","trial_index":20,"time_elapsed":214111,"internal_node_id":"0.0-0.0-3.12-0.12","task_version":"battery-v0.2"},{"rune":"2","rune_set":"elianto","hex":"#3366ff99","correct":-1,"choice":32,"rt":760.6999999843538,"accuracy":0,"outcome":"+1","keys":[2267.5300000119023],"total_keys":1,"block":0,"practice":2,"trial_type":"pit-trial","trial_index":21,"time_elapsed":217629,"internal_node_id":"0.0-0.0-3.13-0.13","task_version":"battery-v0.2"},{"rune":"2","rune_set":"elianto","hex":"#3366ff99","correct":-1,"choice":-1,"rt":-1,"accuracy":1,"outcome":"+10","keys":[2892.8650000016205],"total_keys":1,"block":0,"practice":2,"trial_type":"pit-trial","trial_index":22,"time_elapsed":221659,"internal_node_id":"0.0-0.0-3.14-0.14","task_version":"battery-v0.2"},{"rune":"2","rune_set":"elianto","hex":"#3366ff99","correct":-1,"choice":32,"rt":707.4500000453554,"accuracy":0,"outcome":"+1","keys":[2212.055000010878],"total_keys":1,"block":0,"practice":2,"trial_type":"pit-trial","trial_index":23,"time_elapsed":225097,"internal_node_id":"0.0-0.0-3.15-0.15","task_version":"battery-v0.2"},{"rune":"2","rune_set":"elianto","hex":"#3366ff99","correct":-1,"choice":32,"rt":558.8699999498203,"accuracy":0,"outcome":"+1","keys":[2073.3650000183843],"total_keys":1,"block":0,"practice":2,"trial_type":"pit-trial","trial_index":24,"time_elapsed":228396,"internal_node_id":"0.0-0.0-3.16-0.16","task_version":"battery-v0.2"},{"rune":"2","rune_set":"elianto","hex":"#3366ff99","correct":-1,"choice":32,"rt":495.10000000009313,"accuracy":0,"outcome":"+1","keys":[2001.17499998305],"total_keys":1,"block":0,"practice":2,"trial_type":"pit-trial","trial_index":25,"time_elapsed":231620,"internal_node_id":"0.0-0.0-3.17-0.17","task_version":"battery-v0.2"},{"rune":"2","rune_set":"elianto","hex":"#3366ff99","correct":-1,"choice":32,"rt":435.5849999701604,"accuracy":0,"outcome":"+1","keys":[1935.5450000148267],"total_keys":1,"block":0,"practice":2,"trial_type":"pit-trial","trial_index":26,"time_elapsed":234784,"internal_node_id":"0.0-0.0-3.18-0.18","task_version":"battery-v0.2"},{"rune":"2","rune_set":"elianto","hex":"#3366ff99","correct":-1,"choice":32,"rt":601.9000000087544,"accuracy":0,"outcome":"+1","keys":[2104.8500000033528],"total_keys":1,"block":0,"practice":2,"trial_type":"pit-trial","trial_index":27,"time_elapsed":238118,"internal_node_id":"0.0-0.0-3.19-0.19","task_version":"battery-v0.2"},{"rune":"2","rune_set":"elianto","hex":"#3366ff99","correct":-1,"choice":-1,"rt":-1,"accuracy":1,"outcome":"+10","keys":[],"total_keys":0,"block":0,"practice":2,"trial_type":"pit-trial","trial_index":28,"time_elapsed":242146,"internal_node_id":"0.0-0.0-3.20-0.20","task_version":"battery-v0.2"},{"rune":"2","rune_set":"elianto","hex":"#3366ff99","correct":-1,"choice":32,"rt":47.50500002410263,"accuracy":0,"outcome":"+1","keys":[1547.9350000387058],"total_keys":1,"block":0,"practice":2,"trial_type":"pit-trial","trial_index":29,"time_elapsed":244920,"internal_node_id":"0.0-0.0-3.21-0.21","task_version":"battery-v0.2"},{"rune":"2","rune_set":"elianto","hex":"#3366ff99","correct":-1,"choice":32,"rt":460.3950000018813,"accuracy":0,"outcome":"+1","keys":[1972.475000016857],"total_keys":1,"block":0,"practice":2,"trial_type":"pit-trial","trial_index":30,"time_elapsed":248112,"internal_node_id":"0.0-0.0-3.22-0.22","task_version":"battery-v0.2"},{"rune":"2","rune_set":"elianto","hex":"#3366ff99","correct":-1,"choice":32,"rt":670.9050000063144,"accuracy":0,"outcome":"+1","keys":[2176.3149999896996],"total_keys":1,"block":0,"practice":2,"trial_type":"pit-trial","trial_index":31,"time_elapsed":251516,"internal_node_id":"0.0-0.0-3.23-0.23","task_version":"battery-v0.2"},{"rune":"2","rune_set":"elianto","hex":"#3366ff99","correct":-1,"choice":32,"rt":155.84999998100102,"accuracy":0,"outcome":"+1","keys":[1656.0049999970943],"total_keys":1,"block":0,"practice":2,"trial_type":"pit-trial","trial_index":32,"time_elapsed":254401,"internal_node_id":"0.0-0.0-3.24-0.24","task_version":"battery-v0.2"},{"rune":"2","rune_set":"elianto","hex":"#3366ff99","correct":-1,"choice":32,"rt":457.9300000332296,"accuracy":0,"outcome":"+1","keys":[1957.8749999636784],"total_keys":1,"block":0,"practice":2,"trial_type":"pit-trial","trial_index":33,"time_elapsed":257589,"internal_node_id":"0.0-0.0-3.25-0.25","task_version":"battery-v0.2"},{"rune":"2","rune_set":"elianto","hex":"#3366ff99","correct":-1,"choice":32,"rt":599.7949999873526,"accuracy":0,"outcome":"+1","keys":[2101.855000015348],"total_keys":1,"block":0,"practice":2,"trial_type":"pit-trial","trial_index":34,"time_elapsed":260921,"internal_node_id":"0.0-0.0-3.26-0.26","task_version":"battery-v0.2"},{"rune":"2","rune_set":"elianto","hex":"#3366ff99","correct":-1,"choice":32,"rt":957.8050000127405,"accuracy":0,"outcome":"+1","keys":[2459.534999972675],"total_keys":1,"block":0,"practice":2,"trial_type":"pit-trial","trial_index":35,"time_elapsed":264603,"internal_node_id":"0.0-0.0-3.27-0.27","task_version":"battery-v0.2"},{"rune":"2","rune_set":"elianto","hex":"#3366ff99","correct":-1,"choice":32,"rt":362.56999999750406,"accuracy":0,"outcome":"+1","keys":[1867.324999999255],"total_keys":1,"block":0,"practice":2,"trial_type":"pit-trial","trial_index":36,"time_elapsed":267700,"internal_node_id":"0.0-0.0-3.28-0.28","task_version":"battery-v0.2"},{"rune":"2","rune_set":"elianto","hex":"#3366ff99","correct":-1,"choice":32,"rt":442.8850000258535,"accuracy":0,"outcome":"+1","keys":[1945.6399999908172],"total_keys":1,"block":0,"practice":2,"trial_type":"pit-trial","trial_index":37,"time_elapsed":270876,"internal_node_id":"0.0-0.0-3.29-0.29","task_version":"battery-v0.2"},{"rune":"2","rune_set":"elianto","hex":"#3366ff99","correct":-1,"choice":32,"rt":330.6900000316091,"accuracy":0,"outcome":"+1","keys":[1832.2899999911897],"total_keys":1,"block":0,"practice":2,"trial_type":"pit-trial","trial_index":38,"time_elapsed":273925,"internal_node_id":"0.0-0.0-3.30-0.30","task_version":"battery-v0.2"},{"rune":"2","rune_set":"elianto","hex":"#3366ff99","correct":-1,"choice":32,"rt":408.8449999690056,"accuracy":0,"outcome":"+1","keys":[1908.8400000473484],"total_keys":1,"block":0,"practice":2,"trial_type":"pit-trial","trial_index":39,"time_elapsed":277059,"internal_node_id":"0.0-0.0-3.31-0.31","task_version":"battery-v0.2"},{"rune":"2","rune_set":"elianto","hex":"#3366ff99","correct":-1,"choice":32,"rt":320.9400000050664,"accuracy":0,"outcome":"+1","keys":[1825.1000000163913],"total_keys":1,"block":0,"practice":2,"trial_type":"pit-trial","trial_index":40,"time_elapsed":280105,"internal_node_id":"0.0-0.0-3.32-0.32","task_version":"battery-v0.2"},{"rune":"2","rune_set":"elianto","hex":"#3366ff99","correct":-1,"choice":32,"rt":311.7750000092201,"accuracy":0,"outcome":"+1","keys":[1811.8300000205636],"total_keys":1,"block":0,"practice":2,"trial_type":"pit-trial","trial_index":41,"time_elapsed":283147,"internal_node_id":"0.0-0.0-3.33-0.33","task_version":"battery-v0.2"},{"rune":"2","rune_set":"elianto","hex":"#3366ff99","correct":-1,"choice":32,"rt":434.4099999871105,"accuracy":0,"outcome":"+1","keys":[1938.2849999819882],"total_keys":1,"block":0,"practice":2,"trial_type":"pit-trial","trial_index":42,"time_elapsed":286303,"internal_node_id":"0.0-0.0-3.34-0.34","task_version":"battery-v0.2"},{"rune":"2","rune_set":"elianto","hex":"#3366ff99","correct":-1,"choice":32,"rt":802.7100000181235,"accuracy":0,"outcome":"+1","keys":[2314.394999993965],"total_keys":1,"block":0,"practice":2,"trial_type":"pit-trial","trial_index":43,"time_elapsed":289833,"internal_node_id":"0.0-0.0-3.35-0.35","task_version":"battery-v0.2"},{"rune":"2","rune_set":"elianto","hex":"#3366ff99","correct":-1,"choice":32,"rt":455.5199999595061,"accuracy":0,"outcome":"+1","keys":[1956.4750000135973],"total_keys":1,"block":0,"practice":2,"trial_type":"pit-trial","trial_index":44,"time_elapsed":293052,"internal_node_id":"0.0-0.0-3.36-0.36","task_version":"battery-v0.2"},{"rune":"2","rune_set":"elianto","hex":"#3366ff99","correct":-1,"choice":32,"rt":379.4399999896996,"accuracy":0,"outcome":"+1","keys":[1882.7800000435673],"total_keys":1,"block":0,"practice":2,"trial_type":"pit-trial","trial_index":45,"time_elapsed":296186,"internal_node_id":"0.0-0.0-3.37-0.37","task_version":"battery-v0.2"},{"rune":"2","rune_set":"elianto","hex":"#3366ff99","correct":-1,"choice":32,"rt":374.24500001361594,"accuracy":0,"outcome":"+1","keys":[1881.0749999829568],"total_keys":1,"block":0,"practice":2,"trial_type":"pit-trial","trial_index":46,"time_elapsed":299289,"internal_node_id":"0.0-0.0-3.38-0.38","task_version":"battery-v0.2"},{"rune":"2","rune_set":"elianto","hex":"#3366ff99","correct":-1,"choice":32,"rt":342.5450000213459,"accuracy":0,"outcome":"+1","keys":[1844.2449999856763],"total_keys":1,"block":0,"practice":2,"trial_type":"pit-trial","trial_index":47,"time_elapsed":302351,"internal_node_id":"0.0-0.0-3.39-0.39","task_version":"battery-v0.2"},{"rune":"2","rune_set":"elianto","hex":"#3366ff99","correct":-1,"choice":32,"rt":386.30000001285225,"accuracy":0,"outcome":"+1","keys":[1892.8299999679439],"total_keys":1,"block":0,"practice":2,"trial_type":"pit-trial","trial_index":48,"time_elapsed":305496,"internal_node_id":"0.0-0.0-3.40-0.40","task_version":"battery-v0.2"},{"rune":"2","rune_set":"elianto","hex":"#3366ff99","correct":-1,"choice":32,"rt":388.20000004488975,"accuracy":0,"outcome":"+1","keys":[1889.3500000122003],"total_keys":1,"block":0,"practice":2,"trial_type":"pit-trial","trial_index":49,"time_elapsed":308605,"internal_node_id":"0.0-0.0-3.41-0.41","task_version":"battery-v0.2"},{"rune":"2","rune_set":"elianto","hex":"#3366ff99","correct":-1,"choice":32,"rt":496.06000003404915,"accuracy":0,"outcome":"+1","keys":[2001.2400000123307],"total_keys":1,"block":0,"practice":2,"trial_type":"pit-trial","trial_index":50,"time_elapsed":311820,"internal_node_id":"0.0-0.0-3.42-0.42","task_version":"battery-v0.2"},{"rune":"2","rune_set":"elianto","hex":"#3366ff99","correct":-1,"choice":32,"rt":492.64000001130626,"accuracy":0,"outcome":"+1","keys":[1997.239999996964],"total_keys":1,"block":0,"practice":2,"trial_type":"pit-trial","trial_index":51,"time_elapsed":315039,"internal_node_id":"0.0-0.0-3.43-0.43","task_version":"battery-v0.2"},{"rune":"2","rune_set":"elianto","hex":"#3366ff99","correct":-1,"choice":32,"rt":407.55499998340383,"accuracy":0,"outcome":"+1","keys":[1908.3949999767356],"total_keys":1,"block":0,"practice":2,"trial_type":"pit-trial","trial_index":52,"time_elapsed":318176,"internal_node_id":"0.0-0.0-3.44-0.44","task_version":"battery-v0.2"},{"rune":"2","rune_set":"elianto","hex":"#3366ff99","correct":-1,"choice":32,"rt":292.35499998321757,"accuracy":0,"outcome":"+1","keys":[1792.9199999780394],"total_keys":1,"block":0,"practice":2,"trial_type":"pit-trial","trial_index":53,"time_elapsed":321192,"internal_node_id":"0.0-0.0-3.45-0.45","task_version":"battery-v0.2"},{"rune":"2","rune_set":"elianto","hex":"#3366ff99","correct":-1,"choice":32,"rt":1172.5499999593012,"accuracy":0,"outcome":"+1","keys":[1447.5699999602512,2679.7899999655783],"total_keys":2,"block":0,"practice":2,"trial_type":"pit-trial","trial_index":54,"time_elapsed":325097,"internal_node_id":"0.0-0.0-3.46-0.46","task_version":"battery-v0.2"},{"rune":"2","rune_set":"elianto","hex":"#3366ff99","correct":-1,"choice":32,"rt":902.509999985341,"accuracy":0,"outcome":"+1","keys":[2410.154999990482],"total_keys":1,"block":0,"practice":2,"trial_type":"pit-trial","trial_index":55,"time_elapsed":328751,"internal_node_id":"0.0-0.0-3.47-0.47","task_version":"battery-v0.2"},{"rune":"2","rune_set":"elianto","hex":"#3366ff99","correct":-1,"choice":32,"rt":1022.7350000059232,"accuracy":0,"outcome":"+1","keys":[1491.1199999623932,2528.424999967683],"total_keys":2,"block":0,"practice":2,"trial_type":"pit-trial","trial_index":56,"time_elapsed":332503,"internal_node_id":"0.0-0.0-3.48-0.48","task_version":"battery-v0.2"},{"rune":"2","rune_set":"elianto","hex":"#3366ff99","correct":-1,"choice":32,"rt":673.7449999782257,"accuracy":0,"outcome":"+1","keys":[2178.6499999579974],"total_keys":1,"block":0,"practice":2,"trial_type":"pit-trial","trial_index":57,"time_elapsed":335924,"internal_node_id":"0.0-0.0-3.49-0.49","task_version":"battery-v0.2"},{"rune":"2","rune_set":"elianto","hex":"#3366ff99","correct":-1,"choice":32,"rt":739.5649999962188,"accuracy":0,"outcome":"+1","keys":[2249.2349999956787],"total_keys":1,"block":0,"practice":2,"trial_type":"pit-trial","trial_index":58,"time_elapsed":339391,"internal_node_id":"0.0-0.0-3.50-0.50","task_version":"battery-v0.2"},{"rune":"2","rune_set":"elianto","hex":"#3366ff99","correct":-1,"choice":32,"rt":636.0350000322796,"accuracy":0,"outcome":"+1","keys":[2136.1550000146963],"total_keys":1,"block":0,"practice":2,"trial_type":"pit-trial","trial_index":59,"time_elapsed":342755,"internal_node_id":"0.0-0.0-3.51-0.51","task_version":"battery-v0.2"},{"rune":"2","rune_set":"elianto","hex":"#3366ff99","correct":-1,"choice":32,"rt":420.0249999994412,"accuracy":0,"outcome":"+1","keys":[1920.4250000184402],"total_keys":1,"block":0,"practice":2,"trial_type":"pit-trial","trial_index":60,"time_elapsed":345907,"internal_node_id":"0.0-0.0-3.52-0.52","task_version":"battery-v0.2"},{"rune":"2","rune_set":"elianto","hex":"#3366ff99","correct":-1,"choice":-1,"rt":-1,"accuracy":1,"outcome":"+10","keys":[1357.0699999690987],"total_keys":1,"block":0,"practice":2,"trial_type":"pit-trial","trial_index":61,"time_elapsed":349935,"internal_node_id":"0.0-0.0-3.53-0.53","task_version":"battery-v0.2"},{"rune":"2","rune_set":"elianto","hex":"#3366ff99","correct":-1,"choice":32,"rt":299.27499999757856,"accuracy":0,"outcome":"+1","keys":[1805.709999985993],"total_keys":1,"block":0,"practice":2,"trial_type":"pit-trial","trial_index":62,"time_elapsed":352967,"internal_node_id":"0.0-0.0-3.54-0.54","task_version":"battery-v0.2"},{"rune":"2","rune_set":"elianto","hex":"#3366ff99","correct":-1,"choice":32,"rt":893.0800000089221,"accuracy":0,"outcome":"+1","keys":[1310.8500000089407,2393.854999972973],"total_keys":2,"block":0,"practice":2,"trial_type":"pit-trial","trial_index":63,"time_elapsed":356586,"internal_node_id":"0.0-0.0-3.55-0.55","task_version":"battery-v0.2"},{"rune":"2","rune_set":"elianto","hex":"#3366ff99","correct":-1,"choice":32,"rt":731.180000002496,"accuracy":0,"outcome":"+1","keys":[2231.030000024475],"total_keys":1,"block":0,"practice":2,"trial_type":"pit-trial","trial_index":64,"time_elapsed":360049,"internal_node_id":"0.0-0.0-3.56-0.56","task_version":"battery-v0.2"},{"rune":"2","rune_set":"elianto","hex":"#3366ff99","correct":-1,"choice":32,"rt":434.63500001234934,"accuracy":0,"outcome":"+1","keys":[1935.1449999958277],"total_keys":1,"block":0,"practice":2,"trial_type":"pit-trial","trial_index":65,"time_elapsed":363208,"internal_node_id":"0.0-0.0-3.57-0.57","task_version":"battery-v0.2"},{"rune":"2","rune_set":"elianto","hex":"#3366ff99","correct":-1,"choice":32,"rt":680.6099999812432,"accuracy":0,"outcome":"+1","keys":[2182.405000028666],"total_keys":1,"block":0,"practice":2,"trial_type":"pit-trial","trial_index":66,"time_elapsed":366612,"internal_node_id":"0.0-0.0-3.58-0.58","task_version":"battery-v0.2"},{"rune":"2","rune_set":"elianto","hex":"#3366ff99","correct":-1,"choice":32,"rt":98.08999998494983,"accuracy":0,"outcome":"+1","keys":[1599.35500001302],"total_keys":1,"block":0,"practice":2,"trial_type":"pit-trial","trial_index":67,"time_elapsed":369439,"internal_node_id":"0.0-0.0-3.59-0.59","task_version":"battery-v0.2"},{"rune":"2","rune_set":"elianto","hex":"#3366ff99","correct":-1,"choice":32,"rt":308.725000009872,"accuracy":0,"outcome":"+1","keys":[1808.6800000164658],"total_keys":1,"block":0,"practice":2,"trial_type":"pit-trial","trial_index":68,"time_elapsed":372463,"internal_node_id":"0.0-0.0-3.60-0.60","task_version":"battery-v0.2"},{"rune":"2","rune_set":"elianto","hex":"#3366ff99","correct":-1,"choice":32,"rt":333.11999996658415,"accuracy":0,"outcome":"+1","keys":[1834.3100000056438],"total_keys":1,"block":0,"practice":2,"trial_type":"pit-trial","trial_index":69,"time_elapsed":375542,"internal_node_id":"0.0-0.0-3.61-0.61","task_version":"battery-v0.2"},{"rune":"2","rune_set":"elianto","hex":"#3366ff99","correct":-1,"choice":32,"rt":323.3100000070408,"accuracy":0,"outcome":"+1","keys":[1829.0750000160187],"total_keys":1,"block":0,"practice":2,"trial_type":"pit-trial","trial_index":70,"time_elapsed":378592,"internal_node_id":"0.0-0.0-3.62-0.62","task_version":"battery-v0.2"},{"rune":"2","rune_set":"elianto","hex":"#3366ff99","correct":-1,"choice":32,"rt":379.7449999838136,"accuracy":0,"outcome":"+1","keys":[1881.4049999928102],"total_keys":1,"block":0,"practice":2,"trial_type":"pit-trial","trial_index":71,"time_elapsed":381710,"internal_node_id":"0.0-0.0-3.63-0.63","task_version":"battery-v0.2"},{"rune":"2","rune_set":"elianto","hex":"#3366ff99","correct":-1,"choice":32,"rt":328.4550000098534,"accuracy":0,"outcome":"+1","keys":[1829.619999974966],"total_keys":1,"block":0,"practice":2,"trial_type":"pit-trial","trial_index":72,"time_elapsed":384771,"internal_node_id":"0.0-0.0-3.64-0.64","task_version":"battery-v0.2"},{"rune":"2","rune_set":"elianto","hex":"#3366ff99","correct":-1,"choice":32,"rt":26.68499998981133,"accuracy":0,"outcome":"+1","keys":[1528.0950000160374],"total_keys":1,"block":0,"practice":2,"trial_type":"pit-trial","trial_index":73,"time_elapsed":387524,"internal_node_id":"0.0-0.0-3.65-0.65","task_version":"battery-v0.2"},{"rune":"2","rune_set":"elianto","hex":"#3366ff99","correct":-1,"choice":32,"rt":488.3799999952316,"accuracy":0,"outcome":"+1","keys":[1459.195000003092,1990.8399999840185],"total_keys":2,"block":0,"practice":2,"trial_type":"pit-trial","trial_index":74,"time_elapsed":390737,"internal_node_id":"0.0-0.0-3.66-0.66","task_version":"battery-v0.2"},{"rune":"2","rune_set":"elianto","hex":"#3366ff99","correct":-1,"choice":32,"rt":441.47000001976267,"accuracy":0,"outcome":"+1","keys":[1469.7049999958836,1943.7449999968521],"total_keys":2,"block":0,"practice":2,"trial_type":"pit-trial","trial_index":75,"time_elapsed":393901,"internal_node_id":"0.0-0.0-3.67-0.67","task_version":"battery-v0.2"},{"rune":"2","rune_set":"elianto","hex":"#3366ff99","correct":-1,"choice":32,"rt":283.8200000114739,"accuracy":0,"outcome":"+1","keys":[1792.3449999652803],"total_keys":1,"block":0,"practice":2,"trial_type":"pit-trial","trial_index":76,"time_elapsed":396920,"internal_node_id":"0.0-0.0-3.68-0.68","task_version":"battery-v0.2"},{"rune":"2","rune_set":"elianto","hex":"#3366ff99","correct":-1,"choice":32,"rt":1020.4199999570847,"accuracy":0,"outcome":"+1","keys":[2522.5900000077672],"total_keys":1,"block":0,"practice":2,"trial_type":"pit-trial","trial_index":77,"time_elapsed":400660,"internal_node_id":"0.0-0.0-3.69-0.69","task_version":"battery-v0.2"},{"rune":"2","rune_set":"elianto","hex":"#3366ff99","correct":-1,"choice":32,"rt":502.6400000206195,"accuracy":0,"outcome":"+1","keys":[2003.9649999816902],"total_keys":1,"block":0,"practice":2,"trial_type":"pit-trial","trial_index":78,"time_elapsed":403887,"internal_node_id":"0.0-0.0-3.70-0.70","task_version":"battery-v0.2"},{"rune":"2","rune_set":"elianto","hex":"#3366ff99","correct":-1,"choice":32,"rt":431.47999997017905,"accuracy":0,"outcome":"+1","keys":[1933.9250000193715],"total_keys":1,"block":0,"practice":2,"trial_type":"pit-trial","trial_index":79,"time_elapsed":407077,"internal_node_id":"0.0-0.0-3.71-0.71","task_version":"battery-v0.2"},{"rune":"2","rune_set":"elianto","hex":"#3366ff99","correct":-1,"choice":32,"rt":817.6000000094064,"accuracy":0,"outcome":"+1","keys":[1499.7450000373647,2317.9200000013225],"total_keys":2,"block":0,"practice":2,"trial_type":"pit-trial","trial_index":80,"time_elapsed":410617,"internal_node_id":"0.0-0.0-3.72-0.72","task_version":"battery-v0.2"},{"rune":"2","rune_set":"elianto","hex":"#3366ff99","correct":-1,"choice":32,"rt":396.9599999836646,"accuracy":0,"outcome":"+1","keys":[1896.7950000078417],"total_keys":1,"block":0,"practice":2,"trial_type":"pit-trial","trial_index":81,"time_elapsed":413745,"internal_node_id":"0.0-0.0-3.73-0.73","task_version":"battery-v0.2"},{"rune":"2","rune_set":"elianto","hex":"#3366ff99","correct":-1,"choice":32,"rt":431.99999997159466,"accuracy":0,"outcome":"+1","keys":[1936.7650000494905],"total_keys":1,"block":0,"practice":2,"trial_type":"pit-trial","trial_index":82,"time_elapsed":416910,"internal_node_id":"0.0-0.0-3.74-0.74","task_version":"battery-v0.2"},{"rune":"2","rune_set":"elianto","hex":"#3366ff99","correct":-1,"choice":32,"rt":480.51999998278916,"accuracy":0,"outcome":"+1","keys":[1988.0949999787845],"total_keys":1,"block":0,"practice":2,"trial_type":"pit-trial","trial_index":83,"time_elapsed":420117,"internal_node_id":"0.0-0.0-3.75-0.75","task_version":"battery-v0.2"},{"rune":"2","rune_set":"elianto","hex":"#3366ff99","correct":-1,"choice":32,"rt":442.7000000141561,"accuracy":0,"outcome":"+1","keys":[1945.2349999919534],"total_keys":1,"block":0,"practice":2,"trial_type":"pit-trial","trial_index":84,"time_elapsed":423292,"internal_node_id":"0.0-0.0-3.76-0.76","task_version":"battery-v0.2"},{"rune":"2","rune_set":"elianto","hex":"#3366ff99","correct":-1,"choice":32,"rt":427.43500001961365,"accuracy":0,"outcome":"+1","keys":[1928.3850000356324],"total_keys":1,"block":0,"practice":2,"trial_type":"pit-trial","trial_index":85,"time_elapsed":426433,"internal_node_id":"0.0-0.0-3.77-0.77","task_version":"battery-v0.2"},{"rune":"2","rune_set":"elianto","hex":"#3366ff99","correct":-1,"choice":32,"rt":264.774999988731,"accuracy":0,"outcome":"+1","keys":[1768.8600000110455],"total_keys":1,"block":0,"practice":2,"trial_type":"pit-trial","trial_index":86,"time_elapsed":429425,"internal_node_id":"0.0-0.0-3.78-0.78","task_version":"battery-v0.2"},{"rune":"2","rune_set":"elianto","hex":"#3366ff99","correct":-1,"choice":32,"rt":782.7650000108406,"accuracy":0,"outcome":"+1","keys":[1319.2450000206009,2286.110000044573],"total_keys":2,"block":0,"practice":2,"trial_type":"pit-trial","trial_index":87,"time_elapsed":432930,"internal_node_id":"0.0-0.0-3.79-0.79","task_version":"battery-v0.2"},{"rune":"2","rune_set":"elianto","hex":"#3366ff99","correct":-1,"choice":32,"rt":688.2150000310503,"accuracy":0,"outcome":"+1","keys":[2193.634999974165,2742.789999989327],"total_keys":2,"block":0,"practice":2,"trial_type":"pit-trial","trial_index":88,"time_elapsed":436364,"internal_node_id":"0.0-0.0-3.80-0.80","task_version":"battery-v0.2"},{"rune":"2","rune_set":"elianto","hex":"#3366ff99","correct":-1,"choice":32,"rt":672.8599999914877,"accuracy":0,"outcome":"+1","keys":[2176.1249999981374],"total_keys":1,"block":0,"practice":2,"trial_type":"pit-trial","trial_index":89,"time_elapsed":439767,"internal_node_id":"0.0-0.0-3.81-0.81","task_version":"battery-v0.2"},{"rune":"2","rune_set":"elianto","hex":"#3366ff99","correct":-1,"choice":32,"rt":351.6450000461191,"accuracy":0,"outcome":"+1","keys":[1854.2550000129268],"total_keys":1,"block":0,"practice":2,"trial_type":"pit-trial","trial_index":90,"time_elapsed":442849,"internal_node_id":"0.0-0.0-3.82-0.82","task_version":"battery-v0.2"},{"rune":"2","rune_set":"elianto","hex":"#3366ff99","correct":-1,"choice":32,"rt":284.44499999750406,"accuracy":0,"outcome":"+1","keys":[1788.3100000326522],"total_keys":1,"block":0,"practice":2,"trial_type":"pit-trial","trial_index":91,"time_elapsed":445869,"internal_node_id":"0.0-0.0-3.83-0.83","task_version":"battery-v0.2"},{"rune":"2","rune_set":"elianto","hex":"#3366ff99","correct":-1,"choice":32,"rt":251.75499997567385,"accuracy":0,"outcome":"+1","keys":[1762.8849999746308],"total_keys":1,"block":0,"practice":2,"trial_type":"pit-trial","trial_index":92,"time_elapsed":448862,"internal_node_id":"0.0-0.0-3.84-0.84","task_version":"battery-v0.2"},{"rune":"2","rune_set":"elianto","hex":"#3366ff99","correct":-1,"choice":32,"rt":502.2599999792874,"accuracy":0,"outcome":"+1","keys":[1465.7800000277348,2002.3000000510365],"total_keys":2,"block":0,"practice":2,"trial_type":"pit-trial","trial_index":93,"time_elapsed":452093,"internal_node_id":"0.0-0.0-3.85-0.85","task_version":"battery-v0.2"},{"rune":"2","rune_set":"elianto","hex":"#3366ff99","correct":-1,"choice":32,"rt":259.21499996911734,"accuracy":0,"outcome":"+1","keys":[1766.7899999651127],"total_keys":1,"block":0,"practice":2,"trial_type":"pit-trial","trial_index":94,"time_elapsed":455094,"internal_node_id":"0.0-0.0-3.86-0.86","task_version":"battery-v0.2"},{"rune":"2","rune_set":"elianto","hex":"#3366ff99","correct":-1,"choice":32,"rt":605.7199999922886,"accuracy":0,"outcome":"+1","keys":[2106.694999965839],"total_keys":1,"block":0,"practice":2,"trial_type":"pit-trial","trial_index":95,"time_elapsed":458426,"internal_node_id":"0.0-0.0-3.87-0.87","task_version":"battery-v0.2"},{"rune":"2","rune_set":"elianto","hex":"#3366ff99","correct":-1,"choice":32,"rt":351.5400000032969,"accuracy":0,"outcome":"+1","keys":[1852.3300000233576],"total_keys":1,"block":0,"practice":2,"trial_type":"pit-trial","trial_index":96,"time_elapsed":461509,"internal_node_id":"0.0-0.0-3.88-0.88","task_version":"battery-v0.2"},{"rune":"2","rune_set":"elianto","hex":"#3366ff99","correct":-1,"choice":32,"rt":407.3600000119768,"accuracy":0,"outcome":"+1","keys":[1908.6349999997765],"total_keys":1,"block":0,"practice":2,"trial_type":"pit-trial","trial_index":97,"time_elapsed":464668,"internal_node_id":"0.0-0.0-3.89-0.89","task_version":"battery-v0.2"},{"rune":"2","rune_set":"elianto","hex":"#3366ff99","correct":-1,"choice":32,"rt":920.140000001993,"accuracy":0,"outcome":"+1","keys":[2426.895000040531],"total_keys":1,"block":0,"practice":2,"trial_type":"pit-trial","trial_index":98,"time_elapsed":468313,"internal_node_id":"0.0-0.0-3.90-0.90","task_version":"battery-v0.2"},{"rune":"2","rune_set":"elianto","hex":"#3366ff99","correct":-1,"choice":-1,"rt":-1,"accuracy":1,"outcome":"+10","keys":[3692.8049999987707],"total_keys":1,"block":0,"practice":2,"trial_type":"pit-trial","trial_index":99,"time_elapsed":472541,"internal_node_id":"0.0-0.0-3.91-0.91","task_version":"battery-v0.2"},{"rune":"2","rune_set":"elianto","hex":"#3366ff99","correct":-1,"choice":-1,"rt":-1,"accuracy":1,"outcome":"+10","keys":[],"total_keys":0,"block":0,"practice":2,"trial_type":"pit-trial","trial_index":100,"time_elapsed":476578,"internal_node_id":"0.0-0.0-3.92-0.92","task_version":"battery-v0.2"},{"rune":"2","rune_set":"elianto","hex":"#3366ff99","correct":-1,"choice":-1,"rt":-1,"accuracy":1,"outcome":"+10","keys":[],"total_keys":0,"block":0,"practice":2,"trial_type":"pit-trial","trial_index":101,"time_elapsed":480614,"internal_node_id":"0.0-0.0-3.93-0.93","task_version":"battery-v0.2"},{"view_history":"[{\"page_index\":0,\"viewing_time\":21743.865000025835},{\"page_index\":1,\"viewing_time\":6879.379999998491}]","rt":28624.895000015385,"trial_type":"pit-instructions","trial_index":102,"time_elapsed":509251,"internal_node_id":"0.0-0.0-4.0","task_version":"battery-v0.2"},{"rune":"3","rune_set":"elianto","hex":"#f73b6a7A","correct":-1,"choice":32,"rt":549.5450000162236,"accuracy":0,"outcome":"-10","keys":[2050.119999970775],"total_keys":1,"block":0,"practice":3,"trial_type":"pit-trial","trial_index":103,"time_elapsed":512520,"internal_node_id":"0.0-0.0-5.0-0.0","task_version":"battery-v0.2"},{"rune":"3","rune_set":"elianto","hex":"#f73b6a7A","correct":-1,"choice":-1,"rt":-1,"accuracy":1,"outcome":"-1","keys":[],"total_keys":0,"block":0,"practice":3,"trial_type":"pit-trial","trial_index":104,"time_elapsed":516558,"internal_node_id":"0.0-0.0-5.1-0.1","task_version":"battery-v0.2"},{"rune":"3","rune_set":"elianto","hex":"#f73b6a7A","correct":-1,"choice":-1,"rt":-1,"accuracy":1,"outcome":"-1","keys":[],"total_keys":0,"block":0,"practice":3,"trial_type":"pit-trial","trial_index":105,"time_elapsed":520584,"internal_node_id":"0.0-0.0-5.2-0.2","task_version":"battery-v0.2"},{"rune":"3","rune_set":"elianto","hex":"#f73b6a7A","correct":-1,"choice":-1,"rt":-1,"accuracy":1,"outcome":"-1","keys":[],"total_keys":0,"block":0,"practice":3,"trial_type":"pit-trial","trial_index":106,"time_elapsed":524619,"internal_node_id":"0.0-0.0-5.3-0.3","task_version":"battery-v0.2"},{"view_history":"[{\"page_index\":0,\"viewing_time\":3304.424999980256},{\"page_index\":1,\"viewing_time\":5810.5999999679625}]","rt":9116.52999999933,"trial_type":"pit-instructions","trial_index":107,"time_elapsed":533749,"internal_node_id":"0.0-0.0-6.0","task_version":"battery-v0.2"},{"rune":"4","rune_set":"elianto","hex":"#f73b6a7A","correct":32,"choice":32,"rt":696.5300000156276,"accuracy":1,"outcome":"-1","keys":[2204.9300000071526],"total_keys":1,"block":0,"practice":4,"trial_type":"pit-trial","trial_index":108,"time_elapsed":537167,"internal_node_id":"0.0-0.0-7.0-0.0","task_version":"battery-v0.2"},{"rune":"4","rune_set":"elianto","hex":"#f73b6a7A","correct":32,"choice":32,"rt":563.9899999951012,"accuracy":1,"outcome":"-1","keys":[2071.234999981243],"total_keys":1,"block":0,"practice":4,"trial_type":"pit-trial","trial_index":109,"time_elapsed":540464,"internal_node_id":"0.0-0.0-7.1-0.1","task_version":"battery-v0.2"},{"rune":"4","rune_set":"elianto","hex":"#f73b6a7A","correct":32,"choice":32,"rt":418.0649999761954,"accuracy":1,"outcome":"-1","keys":[1919.2949999705888],"total_keys":1,"block":0,"practice":4,"trial_type":"pit-trial","trial_index":110,"time_elapsed":543618,"internal_node_id":"0.0-0.0-7.2-0.2","task_version":"battery-v0.2"},{"rune":"4","rune_set":"elianto","hex":"#f73b6a7A","correct":32,"choice":32,"rt":587.7600000239909,"accuracy":1,"outcome":"-1","keys":[2094.5150000043213],"total_keys":1,"block":0,"practice":4,"trial_type":"pit-trial","trial_index":111,"time_elapsed":546935,"internal_node_id":"0.0-0.0-7.3-0.3","task_version":"battery-v0.2"},{"view_history":"[{\"page_index\":0,\"viewing_time\":3566.129999991972},{\"page_index\":1,\"viewing_time\":4866.34500004584},{\"page_index\":2,\"viewing_time\":5668.179999978747},{\"page_index\":3,\"viewing_time\":5561.054999998305},{\"page_index\":4,\"viewing_time\":3273.9450000226498},{\"page_index\":5,\"viewing_time\":3091.324999986682}]","rt":26029.120000021067,"trial_type":"pit-instructions","trial_index":112,"time_elapsed":572986,"internal_node_id":"0.0-0.0-8.0","task_version":"battery-v0.2"},{"responses":["Press SPACE","+10","-1","True","True"],"num_errors":0,"rt":27334.565000026487,"trial_type":"pit-comprehension","trial_index":113,"time_elapsed":600337,"internal_node_id":"0.0-0.0-9.0","task_version":"battery-v0.2"},{"view_history":"[{\"page_index\":0,\"viewing_time\":5195.675000024494},{\"page_index\":1,\"viewing_time\":4013.8300000107847}]","rt":9211.835000023711,"trial_type":"pit-instructions","trial_index":114,"time_elapsed":609565,"internal_node_id":"0.0-1.0","task_version":"battery-v0.2"},{"rune":"F","rune_set":"elianto","hex":"#f73b6a7A","correct":-1,"choice":32,"rt":898.3350000344217,"accuracy":0,"outcome":"-10","keys":[2400.450000015553],"total_keys":1,"block":1,"trial":1,"stimulus":2,"robot":4,"valence":"lose","action":"no-go","sham":0,"trial_type":"pit-trial","trial_index":115,"time_elapsed":613207,"internal_node_id":"0.0-2.0","task_version":"battery-v0.2"},{"rune":"Q","rune_set":"elianto","hex":"#3366ff99","correct":-1,"choice":32,"rt":1116.9699999736622,"accuracy":0,"outcome":"+1","keys":[2619.094999972731],"total_keys":1,"block":1,"trial":2,"stimulus":0,"robot":2,"valence":"win","action":"no-go","sham":0,"trial_type":"pit-trial","trial_index":116,"time_elapsed":617059,"internal_node_id":"0.0-3.0","task_version":"battery-v0.2"},{"rune":"N","rune_set":"elianto","hex":"#3366ff99","correct":32,"choice":32,"rt":839.0099999960512,"accuracy":1,"outcome":"+1","keys":[2344.010000000708],"total_keys":1,"block":1,"trial":3,"stimulus":1,"robot":1,"valence":"win","action":"go","sham":1,"trial_type":"pit-trial","trial_index":117,"time_elapsed":620627,"internal_node_id":"0.0-4.0","task_version":"battery-v0.2"},{"rune":"X","rune_set":"elianto","hex":"#3366ff99","correct":32,"choice":-1,"rt":-1,"accuracy":0,"outcome":"+1","keys":[],"total_keys":0,"block":1,"trial":4,"stimulus":3,"robot":1,"valence":"win","action":"go","sham":0,"trial_type":"pit-trial","trial_index":118,"time_elapsed":624648,"internal_node_id":"0.0-5.0","task_version":"battery-v0.2"},{"rune":"F","rune_set":"elianto","hex":"#f73b6a7A","correct":-1,"choice":32,"rt":983.8250000029802,"accuracy":0,"outcome":"-10","keys":[2486.464999965392],"total_keys":1,"block":1,"trial":5,"stimulus":2,"robot":4,"valence":"lose","action":"no-go","sham":0,"trial_type":"pit-trial","trial_index":119,"time_elapsed":628365,"internal_node_id":"0.0-6.0","task_version":"battery-v0.2"},{"rune":"N","rune_set":"elianto","hex":"#3366ff99","correct":32,"choice":-1,"rt":-1,"accuracy":0,"outcome":"+10","keys":[],"total_keys":0,"block":1,"trial":6,"stimulus":1,"robot":1,"valence":"win","action":"go","sham":1,"trial_type":"pit-trial","trial_index":120,"time_elapsed":632400,"internal_node_id":"0.0-7.0","task_version":"battery-v0.2"},{"rune":"X","rune_set":"elianto","hex":"#3366ff99","correct":32,"choice":32,"rt":902.5749999564141,"accuracy":1,"outcome":"+1","keys":[2412.4700000393204],"total_keys":1,"block":1,"trial":7,"stimulus":3,"robot":1,"valence":"win","action":"go","sham":1,"trial_type":"pit-trial","trial_index":121,"time_elapsed":636039,"internal_node_id":"0.0-8.0","task_version":"battery-v0.2"},{"rune":"Q","rune_set":"elianto","hex":"#3366ff99","correct":-1,"choice":-1,"rt":-1,"accuracy":1,"outcome":"+10","keys":[],"total_keys":0,"block":1,"trial":8,"stimulus":0,"robot":2,"valence":"win","action":"no-go","sham":0,"trial_type":"pit-trial","trial_index":122,"time_elapsed":640069,"internal_node_id":"0.0-9.0","task_version":"battery-v0.2"},{"rune":"Q","rune_set":"elianto","hex":"#3366ff99","correct":-1,"choice":-1,"rt":-1,"accuracy":1,"outcome":"+10","keys":[],"total_keys":0,"block":1,"trial":9,"stimulus":0,"robot":2,"valence":"win","action":"no-go","sham":0,"trial_type":"pit-trial","trial_index":123,"time_elapsed":644136,"internal_node_id":"0.0-10.0","task_version":"battery-v0.2"},{"rune":"X","rune_set":"elianto","hex":"#3366ff99","correct":32,"choice":-1,"rt":-1,"accuracy":0,"outcome":"+1","keys":[],"total_keys":0,"block":1,"trial":10,"stimulus":3,"robot":1,"valence":"win","action":"go","sham":0,"trial_type":"pit-trial","trial_index":124,"time_elapsed":648173,"internal_node_id":"0.0-11.0","task_version":"battery-v0.2"},{"rune":"N","rune_set":"elianto","hex":"#3366ff99","correct":32,"choice":-1,"rt":-1,"accuracy":0,"outcome":"+1","keys":[],"total_keys":0,"block":1,"trial":11,"stimulus":1,"robot":1,"valence":"win","action":"go","sham":0,"trial_type":"pit-trial","trial_index":125,"time_elapsed":652224,"internal_node_id":"0.0-12.0","task_version":"battery-v0.2"},{"rune":"F","rune_set":"elianto","hex":"#f73b6a7A","correct":-1,"choice":32,"rt":1048.549999948591,"accuracy":0,"outcome":"-1","keys":[2557.8699999605305],"total_keys":1,"block":1,"trial":12,"stimulus":2,"robot":4,"valence":"lose","action":"no-go","sham":1,"trial_type":"pit-trial","trial_index":126,"time_elapsed":656002,"internal_node_id":"0.0-13.0","task_version":"battery-v0.2"},{"rune":"X","rune_set":"elianto","hex":"#3366ff99","correct":32,"choice":-1,"rt":-1,"accuracy":0,"outcome":"+10","keys":[],"total_keys":0,"block":1,"trial":13,"stimulus":3,"robot":1,"valence":"win","action":"go","sham":1,"trial_type":"pit-trial","trial_index":127,"time_elapsed":660033,"internal_node_id":"0.0-14.0","task_version":"battery-v0.2"},{"rune":"N","rune_set":"elianto","hex":"#3366ff99","correct":32,"choice":-1,"rt":-1,"accuracy":0,"outcome":"+1","keys":[],"total_keys":0,"block":1,"trial":14,"stimulus":1,"robot":1,"valence":"win","action":"go","sham":0,"trial_type":"pit-trial","trial_index":128,"time_elapsed":664069,"internal_node_id":"0.0-15.0","task_version":"battery-v0.2"},{"rune":"F","rune_set":"elianto","hex":"#f73b6a7A","correct":-1,"choice":32,"rt":735.3249999578111,"accuracy":0,"outcome":"-10","keys":[2239.5350000006147],"total_keys":1,"block":1,"trial":15,"stimulus":2,"robot":4,"valence":"lose","action":"no-go","sham":0,"trial_type":"pit-trial","trial_index":129,"time_elapsed":667534,"internal_node_id":"0.0-16.0","task_version":"battery-v0.2"},{"rune":"Q","rune_set":"elianto","hex":"#3366ff99","correct":-1,"choice":-1,"rt":-1,"accuracy":1,"outcome":"+1","keys":[],"total_keys":0,"block":1,"trial":16,"stimulus":0,"robot":2,"valence":"win","action":"no-go","sham":1,"trial_type":"pit-trial","trial_index":130,"time_elapsed":671562,"internal_node_id":"0.0-17.0","task_version":"battery-v0.2"},{"rune":"Q","rune_set":"elianto","hex":"#3366ff99","correct":-1,"choice":32,"rt":1034.8849999718368,"accuracy":0,"outcome":"+1","keys":[2535.4499999666587],"total_keys":1,"block":1,"trial":17,"stimulus":0,"robot":2,"valence":"win","action":"no-go","sham":0,"trial_type":"pit-trial","trial_index":131,"time_elapsed":675334,"internal_node_id":"0.0-18.0","task_version":"battery-v0.2"},{"rune":"X","rune_set":"elianto","hex":"#3366ff99","correct":32,"choice":32,"rt":869.364999991376,"accuracy":1,"outcome":"+1","keys":[2379.4299999717623],"total_keys":1,"block":1,"trial":18,"stimulus":3,"robot":1,"valence":"win","action":"go","sham":1,"trial_type":"pit-trial","trial_index":132,"time_elapsed":678944,"internal_node_id":"0.0-19.0","task_version":"battery-v0.2"},{"rune":"F","rune_set":"elianto","hex":"#f73b6a7A","correct":-1,"choice":32,"rt":1082.395000034012,"accuracy":0,"outcome":"-10","keys":[2589.6450000000186],"total_keys":1,"block":1,"trial":19,"stimulus":2,"robot":4,"valence":"lose","action":"no-go","sham":0,"trial_type":"pit-trial","trial_index":133,"time_elapsed":682760,"internal_node_id":"0.0-20.0","task_version":"battery-v0.2"},{"rune":"N","rune_set":"elianto","hex":"#3366ff99","correct":32,"choice":-1,"rt":-1,"accuracy":0,"outcome":"+1","keys":[3022.289999993518],"total_keys":1,"block":1,"trial":20,"stimulus":1,"robot":1,"valence":"win","action":"go","sham":0,"trial_type":"pit-trial","trial_index":134,"time_elapsed":686786,"internal_node_id":"0.0-21.0","task_version":"battery-v0.2"},{"rune":"F","rune_set":"elianto","hex":"#f73b6a7A","correct":-1,"choice":32,"rt":864.1700000152923,"accuracy":0,"outcome":"-10","keys":[2365.60499999905],"total_keys":1,"block":1,"trial":21,"stimulus":2,"robot":4,"valence":"lose","action":"no-go","sham":0,"trial_type":"pit-trial","trial_index":135,"time_elapsed":690379,"internal_node_id":"0.0-22.0","task_version":"battery-v0.2"},{"rune":"X","rune_set":"elianto","hex":"#3366ff99","correct":32,"choice":-1,"rt":-1,"accuracy":0,"outcome":"+10","keys":[],"total_keys":0,"block":1,"trial":22,"stimulus":3,"robot":1,"valence":"win","action":"go","sham":1,"trial_type":"pit-trial","trial_index":136,"time_elapsed":694410,"internal_node_id":"0.0-23.0","task_version":"battery-v0.2"},{"rune":"Q","rune_set":"elianto","hex":"#3366ff99","correct":-1,"choice":-1,"rt":-1,"accuracy":1,"outcome":"+10","keys":[],"total_keys":0,"block":1,"trial":23,"stimulus":0,"robot":2,"valence":"win","action":"no-go","sham":0,"trial_type":"pit-trial","trial_index":137,"time_elapsed":698439,"internal_node_id":"0.0-24.0","task_version":"battery-v0.2"},{"rune":"N","rune_set":"elianto","hex":"#3366ff99","correct":32,"choice":-1,"rt":-1,"accuracy":0,"outcome":"+1","keys":[],"total_keys":0,"block":1,"trial":24,"stimulus":1,"robot":1,"valence":"win","action":"go","sham":0,"trial_type":"pit-trial","trial_index":138,"time_elapsed":702469,"internal_node_id":"0.0-25.0","task_version":"battery-v0.2"},{"rune":"N","rune_set":"elianto","hex":"#3366ff99","correct":32,"choice":-1,"rt":-1,"accuracy":0,"outcome":"+1","keys":[],"total_keys":0,"block":1,"trial":25,"stimulus":1,"robot":1,"valence":"win","action":"go","sham":0,"trial_type":"pit-trial","trial_index":139,"time_elapsed":706500,"internal_node_id":"0.0-26.0","task_version":"battery-v0.2"},{"rune":"Q","rune_set":"elianto","hex":"#3366ff99","correct":-1,"choice":-1,"rt":-1,"accuracy":1,"outcome":"+1","keys":[],"total_keys":0,"block":1,"trial":26,"stimulus":0,"robot":2,"valence":"win","action":"no-go","sham":1,"trial_type":"pit-trial","trial_index":140,"time_elapsed":710532,"internal_node_id":"0.0-27.0","task_version":"battery-v0.2"},{"rune":"X","rune_set":"elianto","hex":"#3366ff99","correct":32,"choice":-1,"rt":-1,"accuracy":0,"outcome":"+1","keys":[],"total_keys":0,"block":1,"trial":27,"stimulus":3,"robot":1,"valence":"win","action":"go","sham":0,"trial_type":"pit-trial","trial_index":141,"time_elapsed":714576,"internal_node_id":"0.0-28.0","task_version":"battery-v0.2"},{"rune":"F","rune_set":"elianto","hex":"#f73b6a7A","correct":-1,"choice":-1,"rt":-1,"accuracy":1,"outcome":"-1","keys":[],"total_keys":0,"block":1,"trial":28,"stimulus":2,"robot":4,"valence":"lose","action":"no-go","sham":0,"trial_type":"pit-trial","trial_index":142,"time_elapsed":718611,"internal_node_id":"0.0-29.0","task_version":"battery-v0.2"},{"rune":"Q","rune_set":"elianto","hex":"#3366ff99","correct":-1,"choice":-1,"rt":-1,"accuracy":1,"outcome":"+10","keys":[2829.830000002403],"total_keys":1,"block":1,"trial":29,"stimulus":0,"robot":2,"valence":"win","action":"no-go","sham":0,"trial_type":"pit-trial","trial_index":143,"time_elapsed":722657,"internal_node_id":"0.0-30.0","task_version":"battery-v0.2"},{"rune":"F","rune_set":"elianto","hex":"#f73b6a7A","correct":-1,"choice":-1,"rt":-1,"accuracy":1,"outcome":"-1","keys":[],"total_keys":0,"block":1,"trial":30,"stimulus":2,"robot":4,"valence":"lose","action":"no-go","sham":0,"trial_type":"pit-trial","trial_index":144,"time_elapsed":726699,"internal_node_id":"0.0-31.0","task_version":"battery-v0.2"},{"rune":"N","rune_set":"elianto","hex":"#3366ff99","correct":32,"choice":-1,"rt":-1,"accuracy":0,"outcome":"+10","keys":[],"total_keys":0,"block":1,"trial":31,"stimulus":1,"robot":1,"valence":"win","action":"go","sham":1,"trial_type":"pit-trial","trial_index":145,"time_elapsed":730789,"internal_node_id":"0.0-32.0","task_version":"battery-v0.2"},{"rune":"X","rune_set":"elianto","hex":"#3366ff99","correct":32,"choice":-1,"rt":-1,"accuracy":0,"outcome":"+1","keys":[],"total_keys":0,"block":1,"trial":32,"stimulus":3,"robot":1,"valence":"win","action":"go","sham":0,"trial_type":"pit-trial","trial_index":146,"time_elapsed":734826,"internal_node_id":"0.0-33.0","task_version":"battery-v0.2"},{"rune":"Q","rune_set":"elianto","hex":"#3366ff99","correct":-1,"choice":-1,"rt":-1,"accuracy":1,"outcome":"+10","keys":[],"total_keys":0,"block":1,"trial":33,"stimulus":0,"robot":2,"valence":"win","action":"no-go","sham":0,"trial_type":"pit-trial","trial_index":147,"time_elapsed":738858,"internal_node_id":"0.0-34.0","task_version":"battery-v0.2"},{"rune":"F","rune_set":"elianto","hex":"#f73b6a7A","correct":-1,"choice":-1,"rt":-1,"accuracy":1,"outcome":"-1","keys":[],"total_keys":0,"block":1,"trial":34,"stimulus":2,"robot":4,"valence":"lose","action":"no-go","sham":0,"trial_type":"pit-trial","trial_index":148,"time_elapsed":742879,"internal_node_id":"0.0-35.0","task_version":"battery-v0.2"},{"rune":"T","rune_set":"elianto","hex":"#3366ff99","correct":32,"choice":-1,"rt":-1,"accuracy":0,"outcome":"+1","keys":[],"total_keys":0,"block":1,"trial":35,"stimulus":4,"robot":1,"valence":"win","action":"go","sham":0,"trial_type":"pit-trial","trial_index":149,"time_elapsed":746908,"internal_node_id":"0.0-36.0","task_version":"battery-v0.2"},{"rune":"X","rune_set":"elianto","hex":"#3366ff99","correct":32,"choice":-1,"rt":-1,"accuracy":0,"outcome":"+10","keys":[],"total_keys":0,"block":1,"trial":36,"stimulus":3,"robot":1,"valence":"win","action":"go","sham":1,"trial_type":"pit-trial","trial_index":150,"time_elapsed":750937,"internal_node_id":"0.0-37.0","task_version":"battery-v0.2"},{"rune":"X","rune_set":"elianto","hex":"#3366ff99","correct":32,"choice":-1,"rt":-1,"accuracy":0,"outcome":"+10","keys":[],"total_keys":0,"block":1,"trial":37,"stimulus":3,"robot":1,"valence":"win","action":"go","sham":1,"trial_type":"pit-trial","trial_index":151,"time_elapsed":754970,"internal_node_id":"0.0-38.0","task_version":"battery-v0.2"},{"rune":"T","rune_set":"elianto","hex":"#3366ff99","correct":32,"choice":-1,"rt":-1,"accuracy":0,"outcome":"+1","keys":[],"total_keys":0,"block":1,"trial":38,"stimulus":4,"robot":1,"valence":"win","action":"go","sham":0,"trial_type":"pit-trial","trial_index":152,"time_elapsed":758998,"internal_node_id":"0.0-39.0","task_version":"battery-v0.2"},{"rune":"Q","rune_set":"elianto","hex":"#3366ff99","correct":-1,"choice":-1,"rt":-1,"accuracy":1,"outcome":"+10","keys":[],"total_keys":0,"block":1,"trial":39,"stimulus":0,"robot":2,"valence":"win","action":"no-go","sham":0,"trial_type":"pit-trial","trial_index":153,"time_elapsed":763026,"internal_node_id":"0.0-40.0","task_version":"battery-v0.2"},{"rune":"F","rune_set":"elianto","hex":"#f73b6a7A","correct":-1,"choice":-1,"rt":-1,"accuracy":1,"outcome":"-1","keys":[],"total_keys":0,"block":1,"trial":40,"stimulus":2,"robot":4,"valence":"lose","action":"no-go","sham":0,"trial_type":"pit-trial","trial_index":154,"time_elapsed":767060,"internal_node_id":"0.0-41.0","task_version":"battery-v0.2"},{"rune":"C","rune_set":"elianto","hex":"#f73b6a7A","correct":-1,"choice":-1,"rt":-1,"accuracy":1,"outcome":"-1","keys":[],"total_keys":0,"block":1,"trial":41,"stimulus":6,"robot":4,"valence":"lose","action":"no-go","sham":0,"trial_type":"pit-trial","trial_index":155,"time_elapsed":771092,"internal_node_id":"0.0-42.0","task_version":"battery-v0.2"},{"rune":"B","rune_set":"elianto","hex":"#f73b6a7A","correct":32,"choice":-1,"rt":-1,"accuracy":0,"outcome":"-10","keys":[],"total_keys":0,"block":1,"trial":42,"stimulus":5,"robot":3,"valence":"lose","action":"go","sham":0,"trial_type":"pit-trial","trial_index":156,"time_elapsed":775126,"internal_node_id":"0.0-43.0","task_version":"battery-v0.2"},{"rune":"T","rune_set":"elianto","hex":"#3366ff99","correct":32,"choice":-1,"rt":-1,"accuracy":0,"outcome":"+1","keys":[],"total_keys":0,"block":1,"trial":43,"stimulus":4,"robot":1,"valence":"win","action":"go","sham":0,"trial_type":"pit-trial","trial_index":157,"time_elapsed":779158,"internal_node_id":"0.0-44.0","task_version":"battery-v0.2"},{"rune":"Q","rune_set":"elianto","hex":"#3366ff99","correct":-1,"choice":-1,"rt":-1,"accuracy":1,"outcome":"+10","keys":[],"total_keys":0,"block":1,"trial":44,"stimulus":0,"robot":2,"valence":"win","action":"no-go","sham":0,"trial_type":"pit-trial","trial_index":158,"time_elapsed":783192,"internal_node_id":"0.0-45.0","task_version":"battery-v0.2"},{"rune":"T","rune_set":"elianto","hex":"#3366ff99","correct":32,"choice":-1,"rt":-1,"accuracy":0,"outcome":"+1","keys":[],"total_keys":0,"block":1,"trial":45,"stimulus":4,"robot":1,"valence":"win","action":"go","sham":0,"trial_type":"pit-trial","trial_index":159,"time_elapsed":787225,"internal_node_id":"0.0-46.0","task_version":"battery-v0.2"},{"rune":"B","rune_set":"elianto","hex":"#f73b6a7A","correct":32,"choice":-1,"rt":-1,"accuracy":0,"outcome":"-10","keys":[],"total_keys":0,"block":1,"trial":46,"stimulus":5,"robot":3,"valence":"lose","action":"go","sham":0,"trial_type":"pit-trial","trial_index":160,"time_elapsed":791259,"internal_node_id":"0.0-47.0","task_version":"battery-v0.2"},{"rune":"Q","rune_set":"elianto","hex":"#3366ff99","correct":-1,"choice":-1,"rt":-1,"accuracy":1,"outcome":"+10","keys":[],"total_keys":0,"block":1,"trial":47,"stimulus":0,"robot":2,"valence":"win","action":"no-go","sham":0,"trial_type":"pit-trial","trial_index":161,"time_elapsed":795281,"internal_node_id":"0.0-48.0","task_version":"battery-v0.2"},{"rune":"C","rune_set":"elianto","hex":"#f73b6a7A","correct":-1,"choice":32,"rt":938.1049999501556,"accuracy":0,"outcome":"-10","keys":[2447.6550000254065],"total_keys":1,"block":1,"trial":48,"stimulus":6,"robot":4,"valence":"lose","action":"no-go","sham":0,"trial_type":"pit-trial","trial_index":162,"time_elapsed":798959,"internal_node_id":"0.0-49.0","task_version":"battery-v0.2"},{"rune":"Z","rune_set":"elianto","hex":"#3366ff99","correct":-1,"choice":-1,"rt":-1,"accuracy":1,"outcome":"+1","keys":[],"total_keys":0,"block":1,"trial":49,"stimulus":7,"robot":2,"valence":"win","action":"no-go","sham":1,"trial_type":"pit-trial","trial_index":163,"time_elapsed":802993,"internal_node_id":"0.0-50.0","task_version":"battery-v0.2"},{"rune":"T","rune_set":"elianto","hex":"#3366ff99","correct":32,"choice":-1,"rt":-1,"accuracy":0,"outcome":"+1","keys":[],"total_keys":0,"block":1,"trial":50,"stimulus":4,"robot":1,"valence":"win","action":"go","sham":0,"trial_type":"pit-trial","trial_index":164,"time_elapsed":807037,"internal_node_id":"0.0-51.0","task_version":"battery-v0.2"},{"rune":"C","rune_set":"elianto","hex":"#f73b6a7A","correct":-1,"choice":32,"rt":683.2550000399351,"accuracy":0,"outcome":"-10","keys":[2184.1199999907985],"total_keys":1,"block":1,"trial":51,"stimulus":6,"robot":4,"valence":"lose","action":"no-go","sham":0,"trial_type":"pit-trial","trial_index":165,"time_elapsed":810449,"internal_node_id":"0.0-52.0","task_version":"battery-v0.2"},{"rune":"B","rune_set":"elianto","hex":"#f73b6a7A","correct":32,"choice":-1,"rt":-1,"accuracy":0,"outcome":"-10","keys":[],"total_keys":0,"block":1,"trial":52,"stimulus":5,"robot":3,"valence":"lose","action":"go","sham":0,"trial_type":"pit-trial","trial_index":166,"time_elapsed":814470,"internal_node_id":"0.0-53.0","task_version":"battery-v0.2"},{"rune":"Z","rune_set":"elianto","hex":"#3366ff99","correct":-1,"choice":-1,"rt":-1,"accuracy":1,"outcome":"+10","keys":[],"total_keys":0,"block":1,"trial":53,"stimulus":7,"robot":2,"valence":"win","action":"no-go","sham":0,"trial_type":"pit-trial","trial_index":167,"time_elapsed":818503,"internal_node_id":"0.0-54.0","task_version":"battery-v0.2"},{"rune":"C","rune_set":"elianto","hex":"#f73b6a7A","correct":-1,"choice":-1,"rt":-1,"accuracy":1,"outcome":"-1","keys":[],"total_keys":0,"block":1,"trial":54,"stimulus":6,"robot":4,"valence":"lose","action":"no-go","sham":0,"trial_type":"pit-trial","trial_index":168,"time_elapsed":822536,"internal_node_id":"0.0-55.0","task_version":"battery-v0.2"},{"rune":"T","rune_set":"elianto","hex":"#3366ff99","correct":32,"choice":-1,"rt":-1,"accuracy":0,"outcome":"+1","keys":[],"total_keys":0,"block":1,"trial":55,"stimulus":4,"robot":1,"valence":"win","action":"go","sham":0,"trial_type":"pit-trial","trial_index":169,"time_elapsed":826569,"internal_node_id":"0.0-56.0","task_version":"battery-v0.2"},{"rune":"B","rune_set":"elianto","hex":"#f73b6a7A","correct":32,"choice":-1,"rt":-1,"accuracy":0,"outcome":"-10","keys":[],"total_keys":0,"block":1,"trial":56,"stimulus":5,"robot":3,"valence":"lose","action":"go","sham":0,"trial_type":"pit-trial","trial_index":170,"time_elapsed":830594,"internal_node_id":"0.0-57.0","task_version":"battery-v0.2"},{"rune":"Z","rune_set":"elianto","hex":"#3366ff99","correct":-1,"choice":-1,"rt":-1,"accuracy":1,"outcome":"+10","keys":[],"total_keys":0,"block":1,"trial":57,"stimulus":7,"robot":2,"valence":"win","action":"no-go","sham":0,"trial_type":"pit-trial","trial_index":171,"time_elapsed":834621,"internal_node_id":"0.0-58.0","task_version":"battery-v0.2"},{"rune":"T","rune_set":"elianto","hex":"#3366ff99","correct":32,"choice":-1,"rt":-1,"accuracy":0,"outcome":"+1","keys":[],"total_keys":0,"block":1,"trial":58,"stimulus":4,"robot":1,"valence":"win","action":"go","sham":0,"trial_type":"pit-trial","trial_index":172,"time_elapsed":838646,"internal_node_id":"0.0-59.0","task_version":"battery-v0.2"},{"rune":"C","rune_set":"elianto","hex":"#f73b6a7A","correct":-1,"choice":-1,"rt":-1,"accuracy":1,"outcome":"-1","keys":[],"total_keys":0,"block":1,"trial":59,"stimulus":6,"robot":4,"valence":"lose","action":"no-go","sham":0,"trial_type":"pit-trial","trial_index":173,"time_elapsed":842678,"internal_node_id":"0.0-60.0","task_version":"battery-v0.2"},{"rune":"B","rune_set":"elianto","hex":"#f73b6a7A","correct":32,"choice":32,"rt":941.835000005085,"accuracy":1,"outcome":"-10","keys":[2444.024999975227],"total_keys":1,"block":1,"trial":60,"stimulus":5,"robot":3,"valence":"lose","action":"go","sham":1,"trial_type":"pit-trial","trial_index":174,"time_elapsed":846338,"internal_node_id":"0.0-61.0","task_version":"battery-v0.2"},{"rune":"B","rune_set":"elianto","hex":"#f73b6a7A","correct":32,"choice":-1,"rt":-1,"accuracy":0,"outcome":"-10","keys":[],"total_keys":0,"block":1,"trial":61,"stimulus":5,"robot":3,"valence":"lose","action":"go","sham":0,"trial_type":"pit-trial","trial_index":175,"time_elapsed":850377,"internal_node_id":"0.0-62.0","task_version":"battery-v0.2"},{"rune":"C","rune_set":"elianto","hex":"#f73b6a7A","correct":-1,"choice":-1,"rt":-1,"accuracy":1,"outcome":"-10","keys":[],"total_keys":0,"block":1,"trial":62,"stimulus":6,"robot":4,"valence":"lose","action":"no-go","sham":1,"trial_type":"pit-trial","trial_index":176,"time_elapsed":854415,"internal_node_id":"0.0-63.0","task_version":"battery-v0.2"},{"rune":"T","rune_set":"elianto","hex":"#3366ff99","correct":32,"choice":-1,"rt":-1,"accuracy":0,"outcome":"+1","keys":[],"total_keys":0,"block":1,"trial":63,"stimulus":4,"robot":1,"valence":"win","action":"go","sham":0,"trial_type":"pit-trial","trial_index":177,"time_elapsed":858444,"internal_node_id":"0.0-64.0","task_version":"battery-v0.2"},{"rune":"Z","rune_set":"elianto","hex":"#3366ff99","correct":-1,"choice":32,"rt":457.50499999849126,"accuracy":0,"outcome":"+1","keys":[1965.154999983497],"total_keys":1,"block":1,"trial":64,"stimulus":7,"robot":2,"valence":"win","action":"no-go","sham":0,"trial_type":"pit-trial","trial_index":178,"time_elapsed":861662,"internal_node_id":"0.0-65.0","task_version":"battery-v0.2"},{"rune":"B","rune_set":"elianto","hex":"#f73b6a7A","correct":32,"choice":-1,"rt":-1,"accuracy":0,"outcome":"-1","keys":[],"total_keys":0,"block":1,"trial":65,"stimulus":5,"robot":3,"valence":"lose","action":"go","sham":1,"trial_type":"pit-trial","trial_index":179,"time_elapsed":865706,"internal_node_id":"0.0-66.0","task_version":"battery-v0.2"},{"rune":"Z","rune_set":"elianto","hex":"#3366ff99","correct":-1,"choice":-1,"rt":-1,"accuracy":1,"outcome":"+10","keys":[],"total_keys":0,"block":1,"trial":66,"stimulus":7,"robot":2,"valence":"win","action":"no-go","sham":0,"trial_type":"pit-trial","trial_index":180,"time_elapsed":869740,"internal_node_id":"0.0-67.0","task_version":"battery-v0.2"},{"rune":"C","rune_set":"elianto","hex":"#f73b6a7A","correct":-1,"choice":-1,"rt":-1,"accuracy":1,"outcome":"-10","keys":[],"total_keys":0,"block":1,"trial":67,"stimulus":6,"robot":4,"valence":"lose","action":"no-go","sham":1,"trial_type":"pit-trial","trial_index":181,"time_elapsed":873772,"internal_node_id":"0.0-68.0","task_version":"battery-v0.2"},{"rune":"T","rune_set":"elianto","hex":"#3366ff99","correct":32,"choice":32,"rt":793.8950000097975,"accuracy":1,"outcome":"+10","keys":[2295.8199999993667],"total_keys":1,"block":1,"trial":68,"stimulus":4,"robot":1,"valence":"win","action":"go","sham":0,"trial_type":"pit-trial","trial_index":182,"time_elapsed":877295,"internal_node_id":"0.0-69.0","task_version":"battery-v0.2"},{"rune":"C","rune_set":"elianto","hex":"#f73b6a7A","correct":-1,"choice":32,"rt":934.0000000083819,"accuracy":0,"outcome":"-1","keys":[2437.760000000708],"total_keys":1,"block":1,"trial":69,"stimulus":6,"robot":4,"valence":"lose","action":"no-go","sham":1,"trial_type":"pit-trial","trial_index":183,"time_elapsed":880959,"internal_node_id":"0.0-70.0","task_version":"battery-v0.2"},{"rune":"Z","rune_set":"elianto","hex":"#3366ff99","correct":-1,"choice":32,"rt":658.1899999873713,"accuracy":0,"outcome":"+10","keys":[2159.7099999780767],"total_keys":1,"block":1,"trial":70,"stimulus":7,"robot":2,"valence":"win","action":"no-go","sham":1,"trial_type":"pit-trial","trial_index":184,"time_elapsed":884359,"internal_node_id":"0.0-71.0","task_version":"battery-v0.2"},{"rune":"B","rune_set":"elianto","hex":"#f73b6a7A","correct":32,"choice":-1,"rt":-1,"accuracy":0,"outcome":"-10","keys":[],"total_keys":0,"block":1,"trial":71,"stimulus":5,"robot":3,"valence":"lose","action":"go","sham":0,"trial_type":"pit-trial","trial_index":185,"time_elapsed":888393,"internal_node_id":"0.0-72.0","task_version":"battery-v0.2"},{"rune":"T","rune_set":"elianto","hex":"#3366ff99","correct":32,"choice":32,"rt":390.07500000298023,"accuracy":1,"outcome":"+1","keys":[1889.995000034105],"total_keys":1,"block":1,"trial":72,"stimulus":4,"robot":1,"valence":"win","action":"go","sham":1,"trial_type":"pit-trial","trial_index":186,"time_elapsed":891513,"internal_node_id":"0.0-73.0","task_version":"battery-v0.2"},{"rune":"Z","rune_set":"elianto","hex":"#3366ff99","correct":-1,"choice":-1,"rt":-1,"accuracy":1,"outcome":"+1","keys":[],"total_keys":0,"block":1,"trial":73,"stimulus":7,"robot":2,"valence":"win","action":"no-go","sham":1,"trial_type":"pit-trial","trial_index":187,"time_elapsed":895552,"internal_node_id":"0.0-74.0","task_version":"battery-v0.2"},{"rune":"H","rune_set":"elianto","hex":"#f73b6a7A","correct":32,"choice":-1,"rt":-1,"accuracy":0,"outcome":"-10","keys":[],"total_keys":0,"block":1,"trial":74,"stimulus":8,"robot":3,"valence":"lose","action":"go","sham":0,"trial_type":"pit-trial","trial_index":188,"time_elapsed":899585,"internal_node_id":"0.0-75.0","task_version":"battery-v0.2"},{"rune":"C","rune_set":"elianto","hex":"#f73b6a7A","correct":-1,"choice":32,"rt":1063.0999999702908,"accuracy":0,"outcome":"-10","keys":[2571.07999996515],"total_keys":1,"block":1,"trial":75,"stimulus":6,"robot":4,"valence":"lose","action":"no-go","sham":0,"trial_type":"pit-trial","trial_index":189,"time_elapsed":903382,"internal_node_id":"0.0-76.0","task_version":"battery-v0.2"},{"rune":"T","rune_set":"elianto","hex":"#3366ff99","correct":32,"choice":-1,"rt":-1,"accuracy":0,"outcome":"+10","keys":[],"total_keys":0,"block":1,"trial":76,"stimulus":4,"robot":1,"valence":"win","action":"go","sham":1,"trial_type":"pit-trial","trial_index":190,"time_elapsed":907411,"internal_node_id":"0.0-77.0","task_version":"battery-v0.2"},{"rune":"T","rune_set":"elianto","hex":"#3366ff99","correct":32,"choice":-1,"rt":-1,"accuracy":0,"outcome":"+1","keys":[],"total_keys":0,"block":1,"trial":77,"stimulus":4,"robot":1,"valence":"win","action":"go","sham":0,"trial_type":"pit-trial","trial_index":191,"time_elapsed":911450,"internal_node_id":"0.0-78.0","task_version":"battery-v0.2"},{"rune":"H","rune_set":"elianto","hex":"#f73b6a7A","correct":32,"choice":-1,"rt":-1,"accuracy":0,"outcome":"-10","keys":[],"total_keys":0,"block":1,"trial":78,"stimulus":8,"robot":3,"valence":"lose","action":"go","sham":0,"trial_type":"pit-trial","trial_index":192,"time_elapsed":915477,"internal_node_id":"0.0-79.0","task_version":"battery-v0.2"},{"rune":"Z","rune_set":"elianto","hex":"#3366ff99","correct":-1,"choice":-1,"rt":-1,"accuracy":1,"outcome":"+10","keys":[],"total_keys":0,"block":1,"trial":79,"stimulus":7,"robot":2,"valence":"win","action":"no-go","sham":0,"trial_type":"pit-trial","trial_index":193,"time_elapsed":919504,"internal_node_id":"0.0-80.0","task_version":"battery-v0.2"},{"rune":"C","rune_set":"elianto","hex":"#f73b6a7A","correct":-1,"choice":32,"rt":343.90999999595806,"accuracy":0,"outcome":"-10","keys":[1851.280000002589],"total_keys":1,"block":1,"trial":80,"stimulus":6,"robot":4,"valence":"lose","action":"no-go","sham":0,"trial_type":"pit-trial","trial_index":194,"time_elapsed":922587,"internal_node_id":"0.0-81.0","task_version":"battery-v0.2"},{"rune":"Z","rune_set":"elianto","hex":"#3366ff99","correct":-1,"choice":-1,"rt":-1,"accuracy":1,"outcome":"+1","keys":[],"total_keys":0,"block":1,"trial":81,"stimulus":7,"robot":2,"valence":"win","action":"no-go","sham":1,"trial_type":"pit-trial","trial_index":195,"time_elapsed":926620,"internal_node_id":"0.0-82.0","task_version":"battery-v0.2"},{"rune":"Y","rune_set":"elianto","hex":"#f73b6a7A","correct":32,"choice":32,"rt":1015.3900000150315,"accuracy":1,"outcome":"-1","keys":[2519.7250000201166],"total_keys":1,"block":1,"trial":82,"stimulus":9,"robot":3,"valence":"lose","action":"go","sham":0,"trial_type":"pit-trial","trial_index":196,"time_elapsed":930372,"internal_node_id":"0.0-83.0","task_version":"battery-v0.2"},{"rune":"C","rune_set":"elianto","hex":"#f73b6a7A","correct":-1,"choice":32,"rt":488.89999999664724,"accuracy":0,"outcome":"-10","keys":[1991.669999959413],"total_keys":1,"block":1,"trial":83,"stimulus":6,"robot":4,"valence":"lose","action":"no-go","sham":0,"trial_type":"pit-trial","trial_index":197,"time_elapsed":933593,"internal_node_id":"0.0-84.0","task_version":"battery-v0.2"},{"rune":"H","rune_set":"elianto","hex":"#f73b6a7A","correct":32,"choice":-1,"rt":-1,"accuracy":0,"outcome":"-10","keys":[],"total_keys":0,"block":1,"trial":84,"stimulus":8,"robot":3,"valence":"lose","action":"go","sham":0,"trial_type":"pit-trial","trial_index":198,"time_elapsed":937629,"internal_node_id":"0.0-85.0","task_version":"battery-v0.2"},{"rune":"C","rune_set":"elianto","hex":"#f73b6a7A","correct":-1,"choice":-1,"rt":-1,"accuracy":1,"outcome":"-1","keys":[],"total_keys":0,"block":1,"trial":85,"stimulus":6,"robot":4,"valence":"lose","action":"no-go","sham":0,"trial_type":"pit-trial","trial_index":199,"time_elapsed":941663,"internal_node_id":"0.0-86.0","task_version":"battery-v0.2"},{"rune":"Z","rune_set":"elianto","hex":"#3366ff99","correct":-1,"choice":32,"rt":657.950000022538,"accuracy":0,"outcome":"+1","keys":[2161.0099999816157],"total_keys":1,"block":1,"trial":86,"stimulus":7,"robot":2,"valence":"win","action":"no-go","sham":0,"trial_type":"pit-trial","trial_index":200,"time_elapsed":945052,"internal_node_id":"0.0-87.0","task_version":"battery-v0.2"},{"rune":"H","rune_set":"elianto","hex":"#f73b6a7A","correct":32,"choice":32,"rt":1169.6150000207126,"accuracy":1,"outcome":"-1","keys":[2671.009999990929],"total_keys":1,"block":1,"trial":87,"stimulus":8,"robot":3,"valence":"lose","action":"go","sham":0,"trial_type":"pit-trial","trial_index":201,"time_elapsed":948967,"internal_node_id":"0.0-88.0","task_version":"battery-v0.2"},{"rune":"Y","rune_set":"elianto","hex":"#f73b6a7A","correct":32,"choice":-1,"rt":-1,"accuracy":0,"outcome":"-1","keys":[],"total_keys":0,"block":1,"trial":88,"stimulus":9,"robot":3,"valence":"lose","action":"go","sham":1,"trial_type":"pit-trial","trial_index":202,"time_elapsed":952993,"internal_node_id":"0.0-89.0","task_version":"battery-v0.2"},{"rune":"H","rune_set":"elianto","hex":"#f73b6a7A","correct":32,"choice":32,"rt":1244.1800000378862,"accuracy":1,"outcome":"-1","keys":[2749.90999995498],"total_keys":1,"block":1,"trial":89,"stimulus":8,"robot":3,"valence":"lose","action":"go","sham":0,"trial_type":"pit-trial","trial_index":203,"time_elapsed":956972,"internal_node_id":"0.0-90.0","task_version":"battery-v0.2"},{"rune":"R","rune_set":"elianto","hex":"#f73b6a7A","correct":-1,"choice":-1,"rt":-1,"accuracy":1,"outcome":"-1","keys":[],"total_keys":0,"block":1,"trial":90,"stimulus":10,"robot":4,"valence":"lose","action":"no-go","sham":0,"trial_type":"pit-trial","trial_index":204,"time_elapsed":961000,"internal_node_id":"0.0-91.0","task_version":"battery-v0.2"},{"rune":"Y","rune_set":"elianto","hex":"#f73b6a7A","correct":32,"choice":32,"rt":1230.3400000091642,"accuracy":1,"outcome":"-10","keys":[2731.5850000013597],"total_keys":1,"block":1,"trial":91,"stimulus":9,"robot":3,"valence":"lose","action":"go","sham":1,"trial_type":"pit-trial","trial_index":205,"time_elapsed":964945,"internal_node_id":"0.0-92.0","task_version":"battery-v0.2"},{"rune":"M","rune_set":"elianto","hex":"#3366ff99","correct":-1,"choice":-1,"rt":-1,"accuracy":1,"outcome":"+10","keys":[],"total_keys":0,"block":1,"trial":92,"stimulus":11,"robot":2,"valence":"win","action":"no-go","sham":0,"trial_type":"pit-trial","trial_index":206,"time_elapsed":968975,"internal_node_id":"0.0-93.0","task_version":"battery-v0.2"},{"rune":"H","rune_set":"elianto","hex":"#f73b6a7A","correct":32,"choice":-1,"rt":-1,"accuracy":0,"outcome":"-10","keys":[],"total_keys":0,"block":1,"trial":93,"stimulus":8,"robot":3,"valence":"lose","action":"go","sham":0,"trial_type":"pit-trial","trial_index":207,"time_elapsed":973008,"internal_node_id":"0.0-94.0","task_version":"battery-v0.2"},{"rune":"R","rune_set":"elianto","hex":"#f73b6a7A","correct":-1,"choice":-1,"rt":-1,"accuracy":1,"outcome":"-1","keys":[],"total_keys":0,"block":1,"trial":94,"stimulus":10,"robot":4,"valence":"lose","action":"no-go","sham":0,"trial_type":"pit-trial","trial_index":208,"time_elapsed":977044,"internal_node_id":"0.0-95.0","task_version":"battery-v0.2"},{"rune":"Y","rune_set":"elianto","hex":"#f73b6a7A","correct":32,"choice":-1,"rt":-1,"accuracy":0,"outcome":"-10","keys":[],"total_keys":0,"block":1,"trial":95,"stimulus":9,"robot":3,"valence":"lose","action":"go","sham":0,"trial_type":"pit-trial","trial_index":209,"time_elapsed":981071,"internal_node_id":"0.0-96.0","task_version":"battery-v0.2"},{"rune":"M","rune_set":"elianto","hex":"#3366ff99","correct":-1,"choice":-1,"rt":-1,"accuracy":1,"outcome":"+10","keys":[],"total_keys":0,"block":1,"trial":96,"stimulus":11,"robot":2,"valence":"win","action":"no-go","sham":0,"trial_type":"pit-trial","trial_index":210,"time_elapsed":985161,"internal_node_id":"0.0-97.0","task_version":"battery-v0.2"},{"rune":"M","rune_set":"elianto","hex":"#3366ff99","correct":-1,"choice":-1,"rt":-1,"accuracy":1,"outcome":"+1","keys":[],"total_keys":0,"block":1,"trial":97,"stimulus":11,"robot":2,"valence":"win","action":"no-go","sham":1,"trial_type":"pit-trial","trial_index":211,"time_elapsed":989187,"internal_node_id":"0.0-98.0","task_version":"battery-v0.2"},{"rune":"Y","rune_set":"elianto","hex":"#f73b6a7A","correct":32,"choice":-1,"rt":-1,"accuracy":0,"outcome":"-10","keys":[],"total_keys":0,"block":1,"trial":98,"stimulus":9,"robot":3,"valence":"lose","action":"go","sham":0,"trial_type":"pit-trial","trial_index":212,"time_elapsed":993233,"internal_node_id":"0.0-99.0","task_version":"battery-v0.2"},{"rune":"R","rune_set":"elianto","hex":"#f73b6a7A","correct":-1,"choice":-1,"rt":-1,"accuracy":1,"outcome":"-1","keys":[3027.239999966696],"total_keys":1,"block":1,"trial":99,"stimulus":10,"robot":4,"valence":"lose","action":"no-go","sham":0,"trial_type":"pit-trial","trial_index":213,"time_elapsed":997254,"internal_node_id":"0.0-100.0","task_version":"battery-v0.2"},{"rune":"H","rune_set":"elianto","hex":"#f73b6a7A","correct":32,"choice":-1,"rt":-1,"accuracy":0,"outcome":"-1","keys":[],"total_keys":0,"block":1,"trial":100,"stimulus":8,"robot":3,"valence":"lose","action":"go","sham":1,"trial_type":"pit-trial","trial_index":214,"time_elapsed":1001274,"internal_node_id":"0.0-101.0","task_version":"battery-v0.2"},{"rune":"R","rune_set":"elianto","hex":"#f73b6a7A","correct":-1,"choice":-1,"rt":-1,"accuracy":1,"outcome":"-1","keys":[],"total_keys":0,"block":1,"trial":101,"stimulus":10,"robot":4,"valence":"lose","action":"no-go","sham":0,"trial_type":"pit-trial","trial_index":215,"time_elapsed":1005308,"internal_node_id":"0.0-102.0","task_version":"battery-v0.2"},{"rune":"Y","rune_set":"elianto","hex":"#f73b6a7A","correct":32,"choice":-1,"rt":-1,"accuracy":0,"outcome":"-1","keys":[],"total_keys":0,"block":1,"trial":102,"stimulus":9,"robot":3,"valence":"lose","action":"go","sham":1,"trial_type":"pit-trial","trial_index":216,"time_elapsed":1009332,"internal_node_id":"0.0-103.0","task_version":"battery-v0.2"},{"rune":"M","rune_set":"elianto","hex":"#3366ff99","correct":-1,"choice":-1,"rt":-1,"accuracy":1,"outcome":"+1","keys":[],"total_keys":0,"block":1,"trial":103,"stimulus":11,"robot":2,"valence":"win","action":"no-go","sham":1,"trial_type":"pit-trial","trial_index":217,"time_elapsed":1013370,"internal_node_id":"0.0-104.0","task_version":"battery-v0.2"},{"rune":"H","rune_set":"elianto","hex":"#f73b6a7A","correct":32,"choice":-1,"rt":-1,"accuracy":0,"outcome":"-10","keys":[],"total_keys":0,"block":1,"trial":104,"stimulus":8,"robot":3,"valence":"lose","action":"go","sham":0,"trial_type":"pit-trial","trial_index":218,"time_elapsed":1017390,"internal_node_id":"0.0-105.0","task_version":"battery-v0.2"},{"rune":"M","rune_set":"elianto","hex":"#3366ff99","correct":-1,"choice":-1,"rt":-1,"accuracy":1,"outcome":"+10","keys":[],"total_keys":0,"block":1,"trial":105,"stimulus":11,"robot":2,"valence":"win","action":"no-go","sham":0,"trial_type":"pit-trial","trial_index":219,"time_elapsed":1021432,"internal_node_id":"0.0-106.0","task_version":"battery-v0.2"},{"rune":"H","rune_set":"elianto","hex":"#f73b6a7A","correct":32,"choice":32,"rt":548.9850000012666,"accuracy":1,"outcome":"-10","keys":[2050.3850000095554],"total_keys":1,"block":1,"trial":106,"stimulus":8,"robot":3,"valence":"lose","action":"go","sham":1,"trial_type":"pit-trial","trial_index":220,"time_elapsed":1024709,"internal_node_id":"0.0-107.0","task_version":"battery-v0.2"},{"rune":"R","rune_set":"elianto","hex":"#f73b6a7A","correct":-1,"choice":-1,"rt":-1,"accuracy":1,"outcome":"-1","keys":[],"total_keys":0,"block":1,"trial":107,"stimulus":10,"robot":4,"valence":"lose","action":"no-go","sham":0,"trial_type":"pit-trial","trial_index":221,"time_elapsed":1028737,"internal_node_id":"0.0-108.0","task_version":"battery-v0.2"},{"rune":"Y","rune_set":"elianto","hex":"#f73b6a7A","correct":32,"choice":32,"rt":791.8550000176765,"accuracy":1,"outcome":"-1","keys":[2292.205000005197],"total_keys":1,"block":1,"trial":108,"stimulus":9,"robot":3,"valence":"lose","action":"go","sham":0,"trial_type":"pit-trial","trial_index":222,"time_elapsed":1032261,"internal_node_id":"0.0-109.0","task_version":"battery-v0.2"},{"rune":"M","rune_set":"elianto","hex":"#3366ff99","correct":-1,"choice":-1,"rt":-1,"accuracy":1,"outcome":"+1","keys":[],"total_keys":0,"block":1,"trial":109,"stimulus":11,"robot":2,"valence":"win","action":"no-go","sham":1,"trial_type":"pit-trial","trial_index":223,"time_elapsed":1036290,"internal_node_id":"0.0-110.0","task_version":"battery-v0.2"},{"rune":"R","rune_set":"elianto","hex":"#f73b6a7A","correct":-1,"choice":-1,"rt":-1,"accuracy":1,"outcome":"-1","keys":[],"total_keys":0,"block":1,"trial":110,"stimulus":10,"robot":4,"valence":"lose","action":"no-go","sham":0,"trial_type":"pit-trial","trial_index":224,"time_elapsed":1040326,"internal_node_id":"0.0-111.0","task_version":"battery-v0.2"},{"rune":"Y","rune_set":"elianto","hex":"#f73b6a7A","correct":32,"choice":-1,"rt":-1,"accuracy":0,"outcome":"-10","keys":[],"total_keys":0,"block":1,"trial":111,"stimulus":9,"robot":3,"valence":"lose","action":"go","sham":0,"trial_type":"pit-trial","trial_index":225,"time_elapsed":1044355,"internal_node_id":"0.0-112.0","task_version":"battery-v0.2"},{"rune":"H","rune_set":"elianto","hex":"#f73b6a7A","correct":32,"choice":32,"rt":614.5350000006147,"accuracy":1,"outcome":"-1","keys":[2115.754999977071],"total_keys":1,"block":1,"trial":112,"stimulus":8,"robot":3,"valence":"lose","action":"go","sham":0,"trial_type":"pit-trial","trial_index":226,"time_elapsed":1047714,"internal_node_id":"0.0-113.0","task_version":"battery-v0.2"},{"rune":"H","rune_set":"elianto","hex":"#f73b6a7A","correct":32,"choice":32,"rt":517.0599999837577,"accuracy":1,"outcome":"-10","keys":[2017.7099999855272],"total_keys":1,"block":1,"trial":113,"stimulus":8,"robot":3,"valence":"lose","action":"go","sham":1,"trial_type":"pit-trial","trial_index":227,"time_elapsed":1050952,"internal_node_id":"0.0-114.0","task_version":"battery-v0.2"},{"rune":"R","rune_set":"elianto","hex":"#f73b6a7A","correct":-1,"choice":32,"rt":944.6000000461936,"accuracy":0,"outcome":"-10","keys":[2446.494999981951],"total_keys":1,"block":1,"trial":114,"stimulus":10,"robot":4,"valence":"lose","action":"no-go","sham":0,"trial_type":"pit-trial","trial_index":228,"time_elapsed":1054624,"internal_node_id":"0.0-115.0","task_version":"battery-v0.2"},{"rune":"M","rune_set":"elianto","hex":"#3366ff99","correct":-1,"choice":32,"rt":775.7899999851361,"accuracy":0,"outcome":"+10","keys":[2278.1550000072457],"total_keys":1,"block":1,"trial":115,"stimulus":11,"robot":2,"valence":"win","action":"no-go","sham":1,"trial_type":"pit-trial","trial_index":229,"time_elapsed":1058129,"internal_node_id":"0.0-116.0","task_version":"battery-v0.2"},{"rune":"Y","rune_set":"elianto","hex":"#f73b6a7A","correct":32,"choice":-1,"rt":-1,"accuracy":0,"outcome":"-1","keys":[],"total_keys":0,"block":1,"trial":116,"stimulus":9,"robot":3,"valence":"lose","action":"go","sham":1,"trial_type":"pit-trial","trial_index":230,"time_elapsed":1062155,"internal_node_id":"0.0-117.0","task_version":"battery-v0.2"},{"rune":"R","rune_set":"elianto","hex":"#f73b6a7A","correct":-1,"choice":32,"rt":461.9599999859929,"accuracy":0,"outcome":"-10","keys":[1962.7300000283867],"total_keys":1,"block":1,"trial":117,"stimulus":10,"robot":4,"valence":"lose","action":"no-go","sham":0,"trial_type":"pit-trial","trial_index":231,"time_elapsed":1065342,"internal_node_id":"0.0-118.0","task_version":"battery-v0.2"},{"rune":"M","rune_set":"elianto","hex":"#3366ff99","correct":-1,"choice":-1,"rt":-1,"accuracy":1,"outcome":"+10","keys":[],"total_keys":0,"block":1,"trial":118,"stimulus":11,"robot":2,"valence":"win","action":"no-go","sham":0,"trial_type":"pit-trial","trial_index":232,"time_elapsed":1069370,"internal_node_id":"0.0-119.0","task_version":"battery-v0.2"},{"rune":"H","rune_set":"elianto","hex":"#f73b6a7A","correct":32,"choice":-1,"rt":-1,"accuracy":0,"outcome":"-1","keys":[],"total_keys":0,"block":1,"trial":119,"stimulus":8,"robot":3,"valence":"lose","action":"go","sham":1,"trial_type":"pit-trial","trial_index":233,"time_elapsed":1073404,"internal_node_id":"0.0-120.0","task_version":"battery-v0.2"},{"rune":"Y","rune_set":"elianto","hex":"#f73b6a7A","correct":32,"choice":-1,"rt":-1,"accuracy":0,"outcome":"-10","keys":[],"total_keys":0,"block":1,"trial":120,"stimulus":9,"robot":3,"valence":"lose","action":"go","sham":0,"trial_type":"pit-trial","trial_index":234,"time_elapsed":1077434,"internal_node_id":"0.0-121.0","task_version":"battery-v0.2"},{"view_history":"[{\"page_index\":0,\"viewing_time\":20189.170000026934},{\"page_index\":1,\"viewing_time\":13791.310000000522}]","rt":33981.930000009015,"trial_type":"pit-instructions","trial_index":235,"time_elapsed":1111435,"internal_node_id":"0.0-122.0","task_version":"battery-v0.2"},{"rune":"D","rune_set":"elianto","hex":"#3366ff99","correct":32,"choice":-1,"rt":-1,"accuracy":0,"outcome":"+1","keys":[],"total_keys":0,"block":2,"trial":121,"stimulus":2,"robot":1,"valence":"win","action":"go","sham":0,"trial_type":"pit-trial","trial_index":236,"time_elapsed":1115462,"internal_node_id":"0.0-123.0","task_version":"battery-v0.2"},{"rune":"V","rune_set":"elianto","hex":"#f73b6a7A","correct":-1,"choice":-1,"rt":-1,"accuracy":1,"outcome":"-1","keys":[],"total_keys":0,"block":2,"trial":122,"stimulus":0,"robot":4,"valence":"lose","action":"no-go","sham":0,"trial_type":"pit-trial","trial_index":237,"time_elapsed":1119513,"internal_node_id":"0.0-124.0","task_version":"battery-v0.2"},{"rune":"K","rune_set":"elianto","hex":"#3366ff99","correct":-1,"choice":-1,"rt":-1,"accuracy":1,"outcome":"+1","keys":[],"total_keys":0,"block":2,"trial":123,"stimulus":3,"robot":2,"valence":"win","action":"no-go","sham":1,"trial_type":"pit-trial","trial_index":238,"time_elapsed":1123550,"internal_node_id":"0.0-125.0","task_version":"battery-v0.2"},{"rune":"J","rune_set":"elianto","hex":"#f73b6a7A","correct":-1,"choice":-1,"rt":-1,"accuracy":1,"outcome":"-1","keys":[],"total_keys":0,"block":2,"trial":124,"stimulus":1,"robot":4,"valence":"lose","action":"no-go","sham":0,"trial_type":"pit-trial","trial_index":239,"time_elapsed":1127584,"internal_node_id":"0.0-126.0","task_version":"battery-v0.2"},{"rune":"D","rune_set":"elianto","hex":"#3366ff99","correct":32,"choice":32,"rt":640.6650000135414,"accuracy":1,"outcome":"+10","keys":[2141.750000009779],"total_keys":1,"block":2,"trial":125,"stimulus":2,"robot":1,"valence":"win","action":"go","sham":0,"trial_type":"pit-trial","trial_index":240,"time_elapsed":1130942,"internal_node_id":"0.0-127.0","task_version":"battery-v0.2"},{"rune":"K","rune_set":"elianto","hex":"#3366ff99","correct":-1,"choice":32,"rt":544.0500000258908,"accuracy":0,"outcome":"+10","keys":[2044.3599999998696],"total_keys":1,"block":2,"trial":126,"stimulus":3,"robot":2,"valence":"win","action":"no-go","sham":1,"trial_type":"pit-trial","trial_index":241,"time_elapsed":1134217,"internal_node_id":"0.0-128.0","task_version":"battery-v0.2"},{"rune":"V","rune_set":"elianto","hex":"#f73b6a7A","correct":-1,"choice":32,"rt":679.4050000025891,"accuracy":0,"outcome":"-10","keys":[2188.0699999746867],"total_keys":1,"block":2,"trial":127,"stimulus":0,"robot":4,"valence":"lose","action":"no-go","sham":0,"trial_type":"pit-trial","trial_index":242,"time_elapsed":1137625,"internal_node_id":"0.0-129.0","task_version":"battery-v0.2"},{"rune":"J","rune_set":"elianto","hex":"#f73b6a7A","correct":-1,"choice":-1,"rt":-1,"accuracy":1,"outcome":"-1","keys":[],"total_keys":0,"block":2,"trial":128,"stimulus":1,"robot":4,"valence":"lose","action":"no-go","sham":0,"trial_type":"pit-trial","trial_index":243,"time_elapsed":1141652,"internal_node_id":"0.0-130.0","task_version":"battery-v0.2"},{"rune":"K","rune_set":"elianto","hex":"#3366ff99","correct":-1,"choice":32,"rt":517.775000014808,"accuracy":0,"outcome":"+10","keys":[2023.0549999978393],"total_keys":1,"block":2,"trial":129,"stimulus":3,"robot":2,"valence":"win","action":"no-go","sham":1,"trial_type":"pit-trial","trial_index":244,"time_elapsed":1144901,"internal_node_id":"0.0-131.0","task_version":"battery-v0.2"},{"rune":"V","rune_set":"elianto","hex":"#f73b6a7A","correct":-1,"choice":-1,"rt":-1,"accuracy":1,"outcome":"-1","keys":[],"total_keys":0,"block":2,"trial":130,"stimulus":0,"robot":4,"valence":"lose","action":"no-go","sham":0,"trial_type":"pit-trial","trial_index":245,"time_elapsed":1148919,"internal_node_id":"0.0-132.0","task_version":"battery-v0.2"},{"rune":"J","rune_set":"elianto","hex":"#f73b6a7A","correct":-1,"choice":-1,"rt":-1,"accuracy":1,"outcome":"-1","keys":[],"total_keys":0,"block":2,"trial":131,"stimulus":1,"robot":4,"valence":"lose","action":"no-go","sham":0,"trial_type":"pit-trial","trial_index":246,"time_elapsed":1152939,"internal_node_id":"0.0-133.0","task_version":"battery-v0.2"},{"rune":"D","rune_set":"elianto","hex":"#3366ff99","correct":32,"choice":32,"rt":551.8249999731779,"accuracy":1,"outcome":"+10","keys":[2052.9850000166334],"total_keys":1,"block":2,"trial":132,"stimulus":2,"robot":1,"valence":"win","action":"go","sham":0,"trial_type":"pit-trial","trial_index":247,"time_elapsed":1156234,"internal_node_id":"0.0-134.0","task_version":"battery-v0.2"},{"rune":"J","rune_set":"elianto","hex":"#f73b6a7A","correct":-1,"choice":-1,"rt":-1,"accuracy":1,"outcome":"-1","keys":[],"total_keys":0,"block":2,"trial":133,"stimulus":1,"robot":4,"valence":"lose","action":"no-go","sham":0,"trial_type":"pit-trial","trial_index":248,"time_elapsed":1160291,"internal_node_id":"0.0-135.0","task_version":"battery-v0.2"},{"rune":"D","rune_set":"elianto","hex":"#3366ff99","correct":32,"choice":32,"rt":444.12499997997656,"accuracy":1,"outcome":"+10","keys":[1952.709999983199],"total_keys":1,"block":2,"trial":134,"stimulus":2,"robot":1,"valence":"win","action":"go","sham":0,"trial_type":"pit-trial","trial_index":249,"time_elapsed":1163460,"internal_node_id":"0.0-136.0","task_version":"battery-v0.2"},{"rune":"V","rune_set":"elianto","hex":"#f73b6a7A","correct":-1,"choice":-1,"rt":-1,"accuracy":1,"outcome":"-1","keys":[],"total_keys":0,"block":2,"trial":135,"stimulus":0,"robot":4,"valence":"lose","action":"no-go","sham":0,"trial_type":"pit-trial","trial_index":250,"time_elapsed":1167488,"internal_node_id":"0.0-137.0","task_version":"battery-v0.2"},{"rune":"K","rune_set":"elianto","hex":"#3366ff99","correct":-1,"choice":32,"rt":326.11500000348315,"accuracy":0,"outcome":"+1","keys":[1833.8100000401028],"total_keys":1,"block":2,"trial":136,"stimulus":3,"robot":2,"valence":"win","action":"no-go","sham":0,"trial_type":"pit-trial","trial_index":251,"time_elapsed":1170540,"internal_node_id":"0.0-138.0","task_version":"battery-v0.2"},{"rune":"D","rune_set":"elianto","hex":"#3366ff99","correct":32,"choice":32,"rt":724.6600000071339,"accuracy":1,"outcome":"+10","keys":[2233.7050000205636],"total_keys":1,"block":2,"trial":137,"stimulus":2,"robot":1,"valence":"win","action":"go","sham":0,"trial_type":"pit-trial","trial_index":252,"time_elapsed":1174021,"internal_node_id":"0.0-139.0","task_version":"battery-v0.2"},{"rune":"J","rune_set":"elianto","hex":"#f73b6a7A","correct":-1,"choice":-1,"rt":-1,"accuracy":1,"outcome":"-1","keys":[],"total_keys":0,"block":2,"trial":138,"stimulus":1,"robot":4,"valence":"lose","action":"no-go","sham":0,"trial_type":"pit-trial","trial_index":253,"time_elapsed":1178102,"internal_node_id":"0.0-140.0","task_version":"battery-v0.2"},{"rune":"V","rune_set":"elianto","hex":"#f73b6a7A","correct":-1,"choice":-1,"rt":-1,"accuracy":1,"outcome":"-1","keys":[],"total_keys":0,"block":2,"trial":139,"stimulus":0,"robot":4,"valence":"lose","action":"no-go","sham":0,"trial_type":"pit-trial","trial_index":254,"time_elapsed":1182136,"internal_node_id":"0.0-141.0","task_version":"battery-v0.2"},{"rune":"K","rune_set":"elianto","hex":"#3366ff99","correct":-1,"choice":32,"rt":514.179999998305,"accuracy":0,"outcome":"+1","keys":[2017.8799999994226],"total_keys":1,"block":2,"trial":140,"stimulus":3,"robot":2,"valence":"win","action":"no-go","sham":0,"trial_type":"pit-trial","trial_index":255,"time_elapsed":1185381,"internal_node_id":"0.0-142.0","task_version":"battery-v0.2"},{"rune":"J","rune_set":"elianto","hex":"#f73b6a7A","correct":-1,"choice":-1,"rt":-1,"accuracy":1,"outcome":"-1","keys":[],"total_keys":0,"block":2,"trial":141,"stimulus":1,"robot":4,"valence":"lose","action":"no-go","sham":0,"trial_type":"pit-trial","trial_index":256,"time_elapsed":1189405,"internal_node_id":"0.0-143.0","task_version":"battery-v0.2"},{"rune":"V","rune_set":"elianto","hex":"#f73b6a7A","correct":-1,"choice":-1,"rt":-1,"accuracy":1,"outcome":"-1","keys":[],"total_keys":0,"block":2,"trial":142,"stimulus":0,"robot":4,"valence":"lose","action":"no-go","sham":0,"trial_type":"pit-trial","trial_index":257,"time_elapsed":1193441,"internal_node_id":"0.0-144.0","task_version":"battery-v0.2"},{"rune":"K","rune_set":"elianto","hex":"#3366ff99","correct":-1,"choice":32,"rt":711.8350000237115,"accuracy":0,"outcome":"+1","keys":[2212.7500000060536],"total_keys":1,"block":2,"trial":143,"stimulus":3,"robot":2,"valence":"win","action":"no-go","sham":0,"trial_type":"pit-trial","trial_index":258,"time_elapsed":1196873,"internal_node_id":"0.0-145.0","task_version":"battery-v0.2"},{"rune":"D","rune_set":"elianto","hex":"#3366ff99","correct":32,"choice":-1,"rt":-1,"accuracy":0,"outcome":"+1","keys":[],"total_keys":0,"block":2,"trial":144,"stimulus":2,"robot":1,"valence":"win","action":"go","sham":0,"trial_type":"pit-trial","trial_index":259,"time_elapsed":1200901,"internal_node_id":"0.0-146.0","task_version":"battery-v0.2"},{"rune":"V","rune_set":"elianto","hex":"#f73b6a7A","correct":-1,"choice":-1,"rt":-1,"accuracy":1,"outcome":"-1","keys":[],"total_keys":0,"block":2,"trial":145,"stimulus":0,"robot":4,"valence":"lose","action":"no-go","sham":0,"trial_type":"pit-trial","trial_index":260,"time_elapsed":1204928,"internal_node_id":"0.0-147.0","task_version":"battery-v0.2"},{"rune":"D","rune_set":"elianto","hex":"#3366ff99","correct":32,"choice":32,"rt":547.8649999713525,"accuracy":1,"outcome":"+10","keys":[2055.8799999998882],"total_keys":1,"block":2,"trial":146,"stimulus":2,"robot":1,"valence":"win","action":"go","sham":0,"trial_type":"pit-trial","trial_index":261,"time_elapsed":1208209,"internal_node_id":"0.0-148.0","task_version":"battery-v0.2"},{"rune":"J","rune_set":"elianto","hex":"#f73b6a7A","correct":-1,"choice":-1,"rt":-1,"accuracy":1,"outcome":"-1","keys":[],"total_keys":0,"block":2,"trial":147,"stimulus":1,"robot":4,"valence":"lose","action":"no-go","sham":0,"trial_type":"pit-trial","trial_index":262,"time_elapsed":1212251,"internal_node_id":"0.0-149.0","task_version":"battery-v0.2"},{"rune":"K","rune_set":"elianto","hex":"#3366ff99","correct":-1,"choice":-1,"rt":-1,"accuracy":1,"outcome":"+10","keys":[],"total_keys":0,"block":2,"trial":148,"stimulus":3,"robot":2,"valence":"win","action":"no-go","sham":0,"trial_type":"pit-trial","trial_index":263,"time_elapsed":1216279,"internal_node_id":"0.0-150.0","task_version":"battery-v0.2"},{"rune":"J","rune_set":"elianto","hex":"#f73b6a7A","correct":-1,"choice":-1,"rt":-1,"accuracy":1,"outcome":"-1","keys":[],"total_keys":0,"block":2,"trial":149,"stimulus":1,"robot":4,"valence":"lose","action":"no-go","sham":0,"trial_type":"pit-trial","trial_index":264,"time_elapsed":1220298,"internal_node_id":"0.0-151.0","task_version":"battery-v0.2"},{"rune":"V","rune_set":"elianto","hex":"#f73b6a7A","correct":-1,"choice":-1,"rt":-1,"accuracy":1,"outcome":"-1","keys":[],"total_keys":0,"block":2,"trial":150,"stimulus":0,"robot":4,"valence":"lose","action":"no-go","sham":0,"trial_type":"pit-trial","trial_index":265,"time_elapsed":1224323,"internal_node_id":"0.0-152.0","task_version":"battery-v0.2"},{"rune":"K","rune_set":"elianto","hex":"#3366ff99","correct":-1,"choice":-1,"rt":-1,"accuracy":1,"outcome":"+1","keys":[],"total_keys":0,"block":2,"trial":151,"stimulus":3,"robot":2,"valence":"win","action":"no-go","sham":1,"trial_type":"pit-trial","trial_index":266,"time_elapsed":1228344,"internal_node_id":"0.0-153.0","task_version":"battery-v0.2"},{"rune":"D","rune_set":"elianto","hex":"#3366ff99","correct":32,"choice":32,"rt":390.8949999604374,"accuracy":1,"outcome":"+10","keys":[1892.8950000554323],"total_keys":1,"block":2,"trial":152,"stimulus":2,"robot":1,"valence":"win","action":"go","sham":0,"trial_type":"pit-trial","trial_index":267,"time_elapsed":1231454,"internal_node_id":"0.0-154.0","task_version":"battery-v0.2"},{"rune":"V","rune_set":"elianto","hex":"#f73b6a7A","correct":-1,"choice":-1,"rt":-1,"accuracy":1,"outcome":"-1","keys":[],"total_keys":0,"block":2,"trial":153,"stimulus":0,"robot":4,"valence":"lose","action":"no-go","sham":0,"trial_type":"pit-trial","trial_index":268,"time_elapsed":1235528,"internal_node_id":"0.0-155.0","task_version":"battery-v0.2"},{"rune":"K","rune_set":"elianto","hex":"#3366ff99","correct":-1,"choice":-1,"rt":-1,"accuracy":1,"outcome":"+1","keys":[],"total_keys":0,"block":2,"trial":154,"stimulus":3,"robot":2,"valence":"win","action":"no-go","sham":1,"trial_type":"pit-trial","trial_index":269,"time_elapsed":1239559,"internal_node_id":"0.0-156.0","task_version":"battery-v0.2"},{"rune":"D","rune_set":"elianto","hex":"#3366ff99","correct":32,"choice":32,"rt":771.9149999902584,"accuracy":1,"outcome":"+10","keys":[2275.354999990668],"total_keys":1,"block":2,"trial":155,"stimulus":2,"robot":1,"valence":"win","action":"go","sham":0,"trial_type":"pit-trial","trial_index":270,"time_elapsed":1243068,"internal_node_id":"0.0-157.0","task_version":"battery-v0.2"},{"rune":"E","rune_set":"elianto","hex":"#f73b6a7A","correct":32,"choice":-1,"rt":-1,"accuracy":0,"outcome":"-1","keys":[],"total_keys":0,"block":2,"trial":156,"stimulus":4,"robot":3,"valence":"lose","action":"go","sham":1,"trial_type":"pit-trial","trial_index":271,"time_elapsed":1247133,"internal_node_id":"0.0-158.0","task_version":"battery-v0.2"},{"rune":"D","rune_set":"elianto","hex":"#3366ff99","correct":32,"choice":32,"rt":503.78999998793006,"accuracy":1,"outcome":"+10","keys":[2010.5800000019372],"total_keys":1,"block":2,"trial":157,"stimulus":2,"robot":1,"valence":"win","action":"go","sham":0,"trial_type":"pit-trial","trial_index":272,"time_elapsed":1250368,"internal_node_id":"0.0-159.0","task_version":"battery-v0.2"},{"rune":"E","rune_set":"elianto","hex":"#f73b6a7A","correct":32,"choice":-1,"rt":-1,"accuracy":0,"outcome":"-1","keys":[],"total_keys":0,"block":2,"trial":158,"stimulus":4,"robot":3,"valence":"lose","action":"go","sham":1,"trial_type":"pit-trial","trial_index":273,"time_elapsed":1254403,"internal_node_id":"0.0-160.0","task_version":"battery-v0.2"},{"rune":"K","rune_set":"elianto","hex":"#3366ff99","correct":-1,"choice":32,"rt":478.5099999862723,"accuracy":0,"outcome":"+1","keys":[1980.2400000044145],"total_keys":1,"block":2,"trial":159,"stimulus":3,"robot":2,"valence":"win","action":"no-go","sham":0,"trial_type":"pit-trial","trial_index":274,"time_elapsed":1257606,"internal_node_id":"0.0-161.0","task_version":"battery-v0.2"},{"rune":"V","rune_set":"elianto","hex":"#f73b6a7A","correct":-1,"choice":-1,"rt":-1,"accuracy":1,"outcome":"-10","keys":[],"total_keys":0,"block":2,"trial":160,"stimulus":0,"robot":4,"valence":"lose","action":"no-go","sham":1,"trial_type":"pit-trial","trial_index":275,"time_elapsed":1261642,"internal_node_id":"0.0-162.0","task_version":"battery-v0.2"},{"rune":"W","rune_set":"elianto","hex":"#3366ff99","correct":-1,"choice":32,"rt":599.3649999727495,"accuracy":0,"outcome":"+1","keys":[2110.5899999965914],"total_keys":1,"block":2,"trial":161,"stimulus":5,"robot":2,"valence":"win","action":"no-go","sham":0,"trial_type":"pit-trial","trial_index":276,"time_elapsed":1264977,"internal_node_id":"0.0-163.0","task_version":"battery-v0.2"},{"rune":"S","rune_set":"elianto","hex":"#3366ff99","correct":32,"choice":32,"rt":656.1999999685213,"accuracy":1,"outcome":"+1","keys":[2157.535000005737],"total_keys":1,"block":2,"trial":162,"stimulus":6,"robot":1,"valence":"win","action":"go","sham":1,"trial_type":"pit-trial","trial_index":277,"time_elapsed":1268351,"internal_node_id":"0.0-164.0","task_version":"battery-v0.2"},{"rune":"V","rune_set":"elianto","hex":"#f73b6a7A","correct":-1,"choice":-1,"rt":-1,"accuracy":1,"outcome":"-1","keys":[],"total_keys":0,"block":2,"trial":163,"stimulus":0,"robot":4,"valence":"lose","action":"no-go","sham":0,"trial_type":"pit-trial","trial_index":278,"time_elapsed":1272382,"internal_node_id":"0.0-165.0","task_version":"battery-v0.2"},{"rune":"E","rune_set":"elianto","hex":"#f73b6a7A","correct":32,"choice":-1,"rt":-1,"accuracy":0,"outcome":"-10","keys":[],"total_keys":0,"block":2,"trial":164,"stimulus":4,"robot":3,"valence":"lose","action":"go","sham":0,"trial_type":"pit-trial","trial_index":279,"time_elapsed":1276413,"internal_node_id":"0.0-166.0","task_version":"battery-v0.2"},{"rune":"E","rune_set":"elianto","hex":"#f73b6a7A","correct":32,"choice":-1,"rt":-1,"accuracy":0,"outcome":"-10","keys":[],"total_keys":0,"block":2,"trial":165,"stimulus":4,"robot":3,"valence":"lose","action":"go","sham":0,"trial_type":"pit-trial","trial_index":280,"time_elapsed":1280451,"internal_node_id":"0.0-167.0","task_version":"battery-v0.2"},{"rune":"V","rune_set":"elianto","hex":"#f73b6a7A","correct":-1,"choice":32,"rt":450.84000000497326,"accuracy":0,"outcome":"-10","keys":[1953.6950000328943],"total_keys":1,"block":2,"trial":166,"stimulus":0,"robot":4,"valence":"lose","action":"no-go","sham":0,"trial_type":"pit-trial","trial_index":281,"time_elapsed":1283690,"internal_node_id":"0.0-168.0","task_version":"battery-v0.2"},{"rune":"W","rune_set":"elianto","hex":"#3366ff99","correct":-1,"choice":32,"rt":702.5900000007823,"accuracy":0,"outcome":"+1","keys":[2208.9150000247173],"total_keys":1,"block":2,"trial":167,"stimulus":5,"robot":2,"valence":"win","action":"no-go","sham":0,"trial_type":"pit-trial","trial_index":282,"time_elapsed":1287117,"internal_node_id":"0.0-169.0","task_version":"battery-v0.2"},{"rune":"S","rune_set":"elianto","hex":"#3366ff99","correct":32,"choice":-1,"rt":-1,"accuracy":0,"outcome":"+1","keys":[],"total_keys":0,"block":2,"trial":168,"stimulus":6,"robot":1,"valence":"win","action":"go","sham":0,"trial_type":"pit-trial","trial_index":283,"time_elapsed":1291156,"internal_node_id":"0.0-170.0","task_version":"battery-v0.2"},{"rune":"S","rune_set":"elianto","hex":"#3366ff99","correct":32,"choice":-1,"rt":-1,"accuracy":0,"outcome":"+10","keys":[],"total_keys":0,"block":2,"trial":169,"stimulus":6,"robot":1,"valence":"win","action":"go","sham":1,"trial_type":"pit-trial","trial_index":284,"time_elapsed":1295187,"internal_node_id":"0.0-171.0","task_version":"battery-v0.2"},{"rune":"W","rune_set":"elianto","hex":"#3366ff99","correct":-1,"choice":-1,"rt":-1,"accuracy":1,"outcome":"+10","keys":[],"total_keys":0,"block":2,"trial":170,"stimulus":5,"robot":2,"valence":"win","action":"no-go","sham":0,"trial_type":"pit-trial","trial_index":285,"time_elapsed":1299218,"internal_node_id":"0.0-172.0","task_version":"battery-v0.2"},{"rune":"E","rune_set":"elianto","hex":"#f73b6a7A","correct":32,"choice":32,"rt":599.419999984093,"accuracy":1,"outcome":"-1","keys":[2104.2149999993853],"total_keys":1,"block":2,"trial":171,"stimulus":4,"robot":3,"valence":"lose","action":"go","sham":0,"trial_type":"pit-trial","trial_index":286,"time_elapsed":1302552,"internal_node_id":"0.0-173.0","task_version":"battery-v0.2"},{"rune":"P","rune_set":"elianto","hex":"#f73b6a7A","correct":-1,"choice":-1,"rt":-1,"accuracy":1,"outcome":"-10","keys":[],"total_keys":0,"block":2,"trial":172,"stimulus":7,"robot":4,"valence":"lose","action":"no-go","sham":1,"trial_type":"pit-trial","trial_index":287,"time_elapsed":1306593,"internal_node_id":"0.0-174.0","task_v