[{"view_history":"[{\"page_index\":0,\"viewing_time\":8119.795000005979},{\"page_index\":1,\"viewing_time\":106573.96499999595},{\"page_index\":2,\"viewing_time\":5912.165000001551},{\"page_index\":3,\"viewing_time\":6071.904999997059},{\"page_index\":4,\"viewing_time\":5647.844999999506},{\"page_index\":5,\"viewing_time\":4232.159999999567},{\"page_index\":6,\"viewing_time\":6279.820000003383},{\"page_index\":7,\"viewing_time\":20751.635000000533},{\"page_index\":8,\"viewing_time\":9623.874999997497},{\"page_index\":9,\"viewing_time\":7175.875000000815}]","rt":180389.9900000033,"trial_type":"pit-instructions","trial_index":0,"time_elapsed":180405,"internal_node_id":"0.0-0.0-0.0","task_version":"battery-v0.2"},{"rune":"1","rune_set":"elianto","hex":"#3366ff99","correct":32,"choice":-1,"rt":-1,"accuracy":0,"outcome":"+1","keys":[866.4200000057463,3026.4600000009523],"total_keys":2,"block":0,"practice":1,"trial_type":"pit-trial","trial_index":1,"time_elapsed":184409,"internal_node_id":"0.0-0.0-1.0-0.0","task_version":"battery-v0.2"},{"rune":"1","rune_set":"elianto","hex":"#3366ff99","correct":32,"choice":-1,"rt":-1,"accuracy":0,"outcome":"+1","keys":[1422.4949999988894],"total_keys":1,"block":0,"practice":1,"trial_type":"pit-trial","trial_index":2,"time_elapsed":188413,"internal_node_id":"0.0-0.0-1.1-0.1","task_version":"battery-v0.2"},{"rune":"1","rune_set":"elianto","hex":"#3366ff99","correct":32,"choice":32,"rt":854.7149999940302,"accuracy":1,"outcome":"+10","keys":[2354.9700000003213],"total_keys":1,"block":0,"practice":1,"trial_type":"pit-trial","trial_index":3,"time_elapsed":191970,"internal_node_id":"0.0-0.0-1.2-0.2","task_version":"battery-v0.2"},{"rune":"1","rune_set":"elianto","hex":"#3366ff99","correct":32,"choice":32,"rt":880.2399999985937,"accuracy":1,"outcome":"+10","keys":[2380.9150000015507],"total_keys":1,"block":0,"practice":1,"trial_type":"pit-trial","trial_index":4,"time_elapsed":195554,"internal_node_id":"0.0-0.0-1.3-0.3","task_version":"battery-v0.2"},{"rune":"1","rune_set":"elianto","hex":"#3366ff99","correct":32,"choice":32,"rt":569.0099999992526,"accuracy":1,"outcome":"+10","keys":[2069.5550000018557],"total_keys":1,"block":0,"practice":1,"trial_type":"pit-trial","trial_index":5,"time_elapsed":198826,"internal_node_id":"0.0-0.0-1.4-0.4","task_version":"battery-v0.2"},{"view_history":"[{\"page_index\":0,\"viewing_time\":3407.91999999783},{\"page_index\":1,\"viewing_time\":6167.874999999185}]","rt":9576.179999996384,"trial_type":"pit-instructions","trial_index":6,"time_elapsed":208404,"internal_node_id":"0.0-0.0-2.0","task_version":"battery-v0.2"},{"rune":"2","rune_set":"elianto","hex":"#3366ff99","correct":-1,"choice":32,"rt":767.2699999966426,"accuracy":0,"outcome":"+1","keys":[2267.8349999987404],"total_keys":1,"block":0,"practice":2,"trial_type":"pit-trial","trial_index":7,"time_elapsed":211874,"internal_node_id":"0.0-0.0-3.0-0.0","task_version":"battery-v0.2"},{"rune":"2","rune_set":"elianto","hex":"#3366ff99","correct":-1,"choice":32,"rt":625.3300000025774,"accuracy":0,"outcome":"+1","keys":[2125.755000000936],"total_keys":1,"block":0,"practice":2,"trial_type":"pit-trial","trial_index":8,"time_elapsed":215202,"internal_node_id":"0.0-0.0-3.1-0.1","task_version":"battery-v0.2"},{"rune":"2","rune_set":"elianto","hex":"#3366ff99","correct":-1,"choice":-1,"rt":-1,"accuracy":1,"outcome":"+10","keys":[],"total_keys":0,"block":0,"practice":2,"trial_type":"pit-trial","trial_index":9,"time_elapsed":219205,"internal_node_id":"0.0-0.0-3.2-0.2","task_version":"battery-v0.2"},{"rune":"2","rune_set":"elianto","hex":"#3366ff99","correct":-1,"choice":-1,"rt":-1,"accuracy":1,"outcome":"+10","keys":[],"total_keys":0,"block":0,"practice":2,"trial_type":"pit-trial","trial_index":10,"time_elapsed":223209,"internal_node_id":"0.0-0.0-3.3-0.3","task_version":"battery-v0.2"},{"rune":"2","rune_set":"elianto","hex":"#3366ff99","correct":-1,"choice":-1,"rt":-1,"accuracy":1,"outcome":"+10","keys":[],"total_keys":0,"block":0,"practice":2,"trial_type":"pit-trial","trial_index":11,"time_elapsed":227212,"internal_node_id":"0.0-0.0-3.4-0.4","task_version":"battery-v0.2"},{"view_history":"[{\"page_index\":0,\"viewing_time\":11574.274999999034},{\"page_index\":1,\"viewing_time\":3815.885000003618}]","rt":15390.545000002021,"trial_type":"pit-instructions","trial_index":12,"time_elapsed":242604,"internal_node_id":"0.0-0.0-4.0","task_version":"battery-v0.2"},{"rune":"3","rune_set":"elianto","hex":"#f73b6a7A","correct":-1,"choice":32,"rt":735.355000004347,"accuracy":0,"outcome":"-10","keys":[2235.8900000035646],"total_keys":1,"block":0,"practice":3,"trial_type":"pit-trial","trial_index":13,"time_elapsed":246042,"internal_node_id":"0.0-0.0-5.0-0.0","task_version":"battery-v0.2"},{"rune":"3","rune_set":"elianto","hex":"#f73b6a7A","correct":-1,"choice":-1,"rt":-1,"accuracy":1,"outcome":"-1","keys":[],"total_keys":0,"block":0,"practice":3,"trial_type":"pit-trial","trial_index":14,"time_elapsed":250046,"internal_node_id":"0.0-0.0-5.1-0.1","task_version":"battery-v0.2"},{"rune":"3","rune_set":"elianto","hex":"#f73b6a7A","correct":-1,"choice":-1,"rt":-1,"accuracy":1,"outcome":"-1","keys":[],"total_keys":0,"block":0,"practice":3,"trial_type":"pit-trial","trial_index":15,"time_elapsed":254048,"internal_node_id":"0.0-0.0-5.2-0.2","task_version":"battery-v0.2"},{"rune":"3","rune_set":"elianto","hex":"#f73b6a7A","correct":-1,"choice":-1,"rt":-1,"accuracy":1,"outcome":"-1","keys":[],"total_keys":0,"block":0,"practice":3,"trial_type":"pit-trial","trial_index":16,"time_elapsed":258051,"internal_node_id":"0.0-0.0-5.3-0.3","task_version":"battery-v0.2"},{"view_history":"[{\"page_index\":0,\"viewing_time\":4150.694999996631},{\"page_index\":1,\"viewing_time\":3447.9300000020885}]","rt":7599.040000000969,"trial_type":"pit-instructions","trial_index":17,"time_elapsed":265652,"internal_node_id":"0.0-0.0-6.0","task_version":"battery-v0.2"},{"rune":"4","rune_set":"elianto","hex":"#f73b6a7A","correct":32,"choice":32,"rt":367.099999995844,"accuracy":1,"outcome":"-1","keys":[1867.9899999988265],"total_keys":1,"block":0,"practice":4,"trial_type":"pit-trial","trial_index":18,"time_elapsed":268722,"internal_node_id":"0.0-0.0-7.0-0.0","task_version":"battery-v0.2"},{"rune":"4","rune_set":"elianto","hex":"#f73b6a7A","correct":32,"choice":-1,"rt":-1,"accuracy":0,"outcome":"-10","keys":[],"total_keys":0,"block":0,"practice":4,"trial_type":"pit-trial","trial_index":19,"time_elapsed":272725,"internal_node_id":"0.0-0.0-7.1-0.1","task_version":"battery-v0.2"},{"rune":"4","rune_set":"elianto","hex":"#f73b6a7A","correct":32,"choice":32,"rt":541.5900000007241,"accuracy":1,"outcome":"-1","keys":[1266.4650000006077,2042.2200000029989],"total_keys":2,"block":0,"practice":4,"trial_type":"pit-trial","trial_index":20,"time_elapsed":275969,"internal_node_id":"0.0-0.0-7.2-0.2","task_version":"battery-v0.2"},{"rune":"4","rune_set":"elianto","hex":"#f73b6a7A","correct":32,"choice":32,"rt":345.44499999901745,"accuracy":1,"outcome":"-1","keys":[1846.1000000024796],"total_keys":1,"block":0,"practice":4,"trial_type":"pit-trial","trial_index":21,"time_elapsed":279017,"internal_node_id":"0.0-0.0-7.3-0.3","task_version":"battery-v0.2"},{"rune":"4","rune_set":"elianto","hex":"#f73b6a7A","correct":32,"choice":32,"rt":857.255000002624,"accuracy":1,"outcome":"-1","keys":[2357.8249999991385],"total_keys":1,"block":0,"practice":4,"trial_type":"pit-trial","trial_index":22,"time_elapsed":282579,"internal_node_id":"0.0-0.0-7.4-0.4","task_version":"battery-v0.2"},{"view_history":"[{\"page_index\":0,\"viewing_time\":3448.1200000009267},{\"page_index\":1,\"viewing_time\":4208.075000002282},{\"page_index\":2,\"viewing_time\":4543.7999999994645},{\"page_index\":3,\"viewing_time\":2495.969999996305},{\"page_index\":4,\"viewing_time\":1511.98000000295},{\"page_index\":5,\"viewing_time\":4191.910000001371}]","rt":20400.229999999283,"trial_type":"pit-instructions","trial_index":23,"time_elapsed":302980,"internal_node_id":"0.0-0.0-8.0","task_version":"battery-v0.2"},{"responses":["Press SPACE","+10","-1","True","True"],"num_errors":0,"rt":18934.16000000434,"trial_type":"pit-comprehension","trial_index":24,"time_elapsed":321917,"internal_node_id":"0.0-0.0-9.0","task_version":"battery-v0.2"},{"view_history":"[{\"page_index\":0,\"viewing_time\":3706.350000000384},{\"page_index\":1,\"viewing_time\":3759.810000003199}]","rt":7466.594999998051,"trial_type":"pit-instructions","trial_index":25,"time_elapsed":329388,"internal_node_id":"0.0-1.0","task_version":"battery-v0.2"},{"rune":"P","rune_set":"bacs1","hex":"#f73b6a7A","correct":-1,"choice":32,"rt":726.4599999980419,"accuracy":0,"outcome":"-10","keys":[2226.6900000031455],"total_keys":1,"block":1,"trial":1,"stimulus":2,"robot":4,"valence":"lose","action":"no-go","sham":0,"trial_type":"pit-trial","trial_index":26,"time_elapsed":332818,"internal_node_id":"0.0-2.0","task_version":"battery-v0.2"},{"rune":"H","rune_set":"bacs1","hex":"#3366ff99","correct":32,"choice":32,"rt":785.19999999844,"accuracy":1,"outcome":"+10","keys":[2285.7099999964703],"total_keys":1,"block":1,"trial":2,"stimulus":1,"robot":1,"valence":"win","action":"go","sham":0,"trial_type":"pit-trial","trial_index":27,"time_elapsed":336306,"internal_node_id":"0.0-3.0","task_version":"battery-v0.2"},{"rune":"Y","rune_set":"bacs1","hex":"#3366ff99","correct":-1,"choice":32,"rt":776.9550000011805,"accuracy":0,"outcome":"+1","keys":[2277.639999992971],"total_keys":1,"block":1,"trial":3,"stimulus":0,"robot":2,"valence":"win","action":"no-go","sham":0,"trial_type":"pit-trial","trial_index":28,"time_elapsed":339786,"internal_node_id":"0.0-4.0","task_version":"battery-v0.2"},{"rune":"M","rune_set":"bacs1","hex":"#3366ff99","correct":32,"choice":32,"rt":816.964999998163,"accuracy":1,"outcome":"+1","keys":[2317.4900000012713],"total_keys":1,"block":1,"trial":4,"stimulus":3,"robot":1,"valence":"win","action":"go","sham":1,"trial_type":"pit-trial","trial_index":29,"time_elapsed":343307,"internal_node_id":"0.0-5.0","task_version":"battery-v0.2"},{"rune":"Y","rune_set":"bacs1","hex":"#3366ff99","correct":-1,"choice":-1,"rt":-1,"accuracy":1,"outcome":"+1","keys":[3365.2250000013737],"total_keys":1,"block":1,"trial":5,"stimulus":0,"robot":2,"valence":"win","action":"no-go","sham":1,"trial_type":"pit-trial","trial_index":30,"time_elapsed":347310,"internal_node_id":"0.0-6.0","task_version":"battery-v0.2"},{"rune":"P","rune_set":"bacs1","hex":"#f73b6a7A","correct":-1,"choice":-1,"rt":-1,"accuracy":1,"outcome":"-1","keys":[],"total_keys":0,"block":1,"trial":6,"stimulus":2,"robot":4,"valence":"lose","action":"no-go","sham":0,"trial_type":"pit-trial","trial_index":31,"time_elapsed":351314,"internal_node_id":"0.0-7.0","task_version":"battery-v0.2"},{"rune":"M","rune_set":"bacs1","hex":"#3366ff99","correct":32,"choice":-1,"rt":-1,"accuracy":0,"outcome":"+1","keys":[3542.939999999362],"total_keys":1,"block":1,"trial":7,"stimulus":3,"robot":1,"valence":"win","action":"go","sham":0,"trial_type":"pit-trial","trial_index":32,"time_elapsed":355317,"internal_node_id":"0.0-8.0","task_version":"battery-v0.2"},{"rune":"H","rune_set":"bacs1","hex":"#3366ff99","correct":32,"choice":-1,"rt":-1,"accuracy":0,"outcome":"+1","keys":[],"total_keys":0,"block":1,"trial":8,"stimulus":1,"robot":1,"valence":"win","action":"go","sham":0,"trial_type":"pit-trial","trial_index":33,"time_elapsed":359320,"internal_node_id":"0.0-9.0","task_version":"battery-v0.2"},{"rune":"Y","rune_set":"bacs1","hex":"#3366ff99","correct":-1,"choice":32,"rt":675.7250000009662,"accuracy":0,"outcome":"+1","keys":[2176.3300000020536],"total_keys":1,"block":1,"trial":9,"stimulus":0,"robot":2,"valence":"win","action":"no-go","sham":0,"trial_type":"pit-trial","trial_index":34,"time_elapsed":362698,"internal_node_id":"0.0-10.0","task_version":"battery-v0.2"},{"rune":"P","rune_set":"bacs1","hex":"#f73b6a7A","correct":-1,"choice":-1,"rt":-1,"accuracy":1,"outcome":"-10","keys":[],"total_keys":0,"block":1,"trial":10,"stimulus":2,"robot":4,"valence":"lose","action":"no-go","sham":1,"trial_type":"pit-trial","trial_index":35,"time_elapsed":366701,"internal_node_id":"0.0-11.0","task_version":"battery-v0.2"},{"rune":"M","rune_set":"bacs1","hex":"#3366ff99","correct":32,"choice":32,"rt":382.54500000039116,"accuracy":1,"outcome":"+10","keys":[1883.1149999969057],"total_keys":1,"block":1,"trial":11,"stimulus":3,"robot":1,"valence":"win","action":"go","sham":0,"trial_type":"pit-trial","trial_index":36,"time_elapsed":369786,"internal_node_id":"0.0-12.0","task_version":"battery-v0.2"},{"rune":"H","rune_set":"bacs1","hex":"#3366ff99","correct":32,"choice":32,"rt":513.0749999952968,"accuracy":1,"outcome":"+1","keys":[2013.634999995702],"total_keys":1,"block":1,"trial":12,"stimulus":1,"robot":1,"valence":"win","action":"go","sham":1,"trial_type":"pit-trial","trial_index":37,"time_elapsed":373003,"internal_node_id":"0.0-13.0","task_version":"battery-v0.2"},{"rune":"Y","rune_set":"bacs1","hex":"#3366ff99","correct":-1,"choice":32,"rt":552.8950000007171,"accuracy":0,"outcome":"+1","keys":[2053.4849999967264],"total_keys":1,"block":1,"trial":13,"stimulus":0,"robot":2,"valence":"win","action":"no-go","sham":0,"trial_type":"pit-trial","trial_index":38,"time_elapsed":376258,"internal_node_id":"0.0-14.0","task_version":"battery-v0.2"},{"rune":"M","rune_set":"bacs1","hex":"#3366ff99","correct":32,"choice":32,"rt":609.745000001567,"accuracy":1,"outcome":"+10","keys":[2110.115000003134],"total_keys":1,"block":1,"trial":14,"stimulus":3,"robot":1,"valence":"win","action":"go","sham":0,"trial_type":"pit-trial","trial_index":39,"time_elapsed":379570,"internal_node_id":"0.0-15.0","task_version":"battery-v0.2"},{"rune":"H","rune_set":"bacs1","hex":"#3366ff99","correct":32,"choice":32,"rt":584.805000005872,"accuracy":1,"outcome":"+10","keys":[2085.7900000046357],"total_keys":1,"block":1,"trial":15,"stimulus":1,"robot":1,"valence":"win","action":"go","sham":0,"trial_type":"pit-trial","trial_index":40,"time_elapsed":382858,"internal_node_id":"0.0-16.0","task_version":"battery-v0.2"},{"rune":"P","rune_set":"bacs1","hex":"#f73b6a7A","correct":-1,"choice":-1,"rt":-1,"accuracy":1,"outcome":"-1","keys":[],"total_keys":0,"block":1,"trial":16,"stimulus":2,"robot":4,"valence":"lose","action":"no-go","sham":0,"trial_type":"pit-trial","trial_index":41,"time_elapsed":386861,"internal_node_id":"0.0-17.0","task_version":"battery-v0.2"},{"rune":"P","rune_set":"bacs1","hex":"#f73b6a7A","correct":-1,"choice":-1,"rt":-1,"accuracy":1,"outcome":"-1","keys":[],"total_keys":0,"block":1,"trial":17,"stimulus":2,"robot":4,"valence":"lose","action":"no-go","sham":0,"trial_type":"pit-trial","trial_index":42,"time_elapsed":390864,"internal_node_id":"0.0-18.0","task_version":"battery-v0.2"},{"rune":"M","rune_set":"bacs1","hex":"#3366ff99","correct":32,"choice":32,"rt":651.5849999996135,"accuracy":1,"outcome":"+10","keys":[2151.819999999134],"total_keys":1,"block":1,"trial":18,"stimulus":3,"robot":1,"valence":"win","action":"go","sham":0,"trial_type":"pit-trial","trial_index":43,"time_elapsed":394219,"internal_node_id":"0.0-19.0","task_version":"battery-v0.2"},{"rune":"H","rune_set":"bacs1","hex":"#3366ff99","correct":32,"choice":32,"rt":720.870000004652,"accuracy":1,"outcome":"+10","keys":[2221.080000002985],"total_keys":1,"block":1,"trial":19,"stimulus":1,"robot":1,"valence":"win","action":"go","sham":0,"trial_type":"pit-trial","trial_index":44,"time_elapsed":397642,"internal_node_id":"0.0-20.0","task_version":"battery-v0.2"},{"rune":"Y","rune_set":"bacs1","hex":"#3366ff99","correct":-1,"choice":32,"rt":617.4549999996088,"accuracy":0,"outcome":"+10","keys":[2118.1000000069616],"total_keys":1,"block":1,"trial":20,"stimulus":0,"robot":2,"valence":"win","action":"no-go","sham":1,"trial_type":"pit-trial","trial_index":45,"time_elapsed":400962,"internal_node_id":"0.0-21.0","task_version":"battery-v0.2"},{"rune":"M","rune_set":"bacs1","hex":"#3366ff99","correct":32,"choice":32,"rt":617.724999996426,"accuracy":1,"outcome":"+10","keys":[2118.1950000027427],"total_keys":1,"block":1,"trial":21,"stimulus":3,"robot":1,"valence":"win","action":"go","sham":0,"trial_type":"pit-trial","trial_index":46,"time_elapsed":404283,"internal_node_id":"0.0-22.0","task_version":"battery-v0.2"},{"rune":"H","rune_set":"bacs1","hex":"#3366ff99","correct":32,"choice":32,"rt":609.1200000009849,"accuracy":1,"outcome":"+10","keys":[2109.794999996666],"total_keys":1,"block":1,"trial":22,"stimulus":1,"robot":1,"valence":"win","action":"go","sham":0,"trial_type":"pit-trial","trial_index":47,"time_elapsed":407595,"internal_node_id":"0.0-23.0","task_version":"battery-v0.2"},{"rune":"Y","rune_set":"bacs1","hex":"#3366ff99","correct":-1,"choice":32,"rt":592.9449999966891,"accuracy":0,"outcome":"+1","keys":[2093.4349999952246],"total_keys":1,"block":1,"trial":23,"stimulus":0,"robot":2,"valence":"win","action":"no-go","sham":0,"trial_type":"pit-trial","trial_index":48,"time_elapsed":410891,"internal_node_id":"0.0-24.0","task_version":"battery-v0.2"},{"rune":"P","rune_set":"bacs1","hex":"#f73b6a7A","correct":-1,"choice":-1,"rt":-1,"accuracy":1,"outcome":"-1","keys":[],"total_keys":0,"block":1,"trial":24,"stimulus":2,"robot":4,"valence":"lose","action":"no-go","sham":0,"trial_type":"pit-trial","trial_index":49,"time_elapsed":414894,"internal_node_id":"0.0-25.0","task_version":"battery-v0.2"},{"rune":"M","rune_set":"bacs1","hex":"#3366ff99","correct":32,"choice":32,"rt":309.78000000322936,"accuracy":1,"outcome":"+1","keys":[1810.5450000002747],"total_keys":1,"block":1,"trial":25,"stimulus":3,"robot":1,"valence":"win","action":"go","sham":1,"trial_type":"pit-trial","trial_index":50,"time_elapsed":417906,"internal_node_id":"0.0-26.0","task_version":"battery-v0.2"},{"rune":"P","rune_set":"bacs1","hex":"#f73b6a7A","correct":-1,"choice":-1,"rt":-1,"accuracy":1,"outcome":"-1","keys":[],"total_keys":0,"block":1,"trial":26,"stimulus":2,"robot":4,"valence":"lose","action":"no-go","sham":0,"trial_type":"pit-trial","trial_index":51,"time_elapsed":421910,"internal_node_id":"0.0-27.0","task_version":"battery-v0.2"},{"rune":"H","rune_set":"bacs1","hex":"#3366ff99","correct":32,"choice":32,"rt":398.34500000142725,"accuracy":1,"outcome":"+10","keys":[1898.6900000018068],"total_keys":1,"block":1,"trial":27,"stimulus":1,"robot":1,"valence":"win","action":"go","sham":0,"trial_type":"pit-trial","trial_index":52,"time_elapsed":425011,"internal_node_id":"0.0-28.0","task_version":"battery-v0.2"},{"rune":"Y","rune_set":"bacs1","hex":"#3366ff99","correct":-1,"choice":32,"rt":497.21000000135973,"accuracy":0,"outcome":"+1","keys":[1997.7900000012596],"total_keys":1,"block":1,"trial":28,"stimulus":0,"robot":2,"valence":"win","action":"no-go","sham":0,"trial_type":"pit-trial","trial_index":53,"time_elapsed":428211,"internal_node_id":"0.0-29.0","task_version":"battery-v0.2"},{"rune":"H","rune_set":"bacs1","hex":"#3366ff99","correct":32,"choice":32,"rt":488.76000000018394,"accuracy":1,"outcome":"+10","keys":[1989.369999995688],"total_keys":1,"block":1,"trial":29,"stimulus":1,"robot":1,"valence":"win","action":"go","sham":0,"trial_type":"pit-trial","trial_index":54,"time_elapsed":431402,"internal_node_id":"0.0-30.0","task_version":"battery-v0.2"},{"rune":"P","rune_set":"bacs1","hex":"#f73b6a7A","correct":-1,"choice":-1,"rt":-1,"accuracy":1,"outcome":"-1","keys":[],"total_keys":0,"block":1,"trial":30,"stimulus":2,"robot":4,"valence":"lose","action":"no-go","sham":0,"trial_type":"pit-trial","trial_index":55,"time_elapsed":435405,"internal_node_id":"0.0-31.0","task_version":"battery-v0.2"},{"rune":"Y","rune_set":"bacs1","hex":"#3366ff99","correct":-1,"choice":32,"rt":558.564999999362,"accuracy":0,"outcome":"+1","keys":[2059.209999999439],"total_keys":1,"block":1,"trial":31,"stimulus":0,"robot":2,"valence":"win","action":"no-go","sham":0,"trial_type":"pit-trial","trial_index":56,"time_elapsed":438666,"internal_node_id":"0.0-32.0","task_version":"battery-v0.2"},{"rune":"M","rune_set":"bacs1","hex":"#3366ff99","correct":32,"choice":-1,"rt":-1,"accuracy":0,"outcome":"+1","keys":[],"total_keys":0,"block":1,"trial":32,"stimulus":3,"robot":1,"valence":"win","action":"go","sham":0,"trial_type":"pit-trial","trial_index":57,"time_elapsed":442669,"internal_node_id":"0.0-33.0","task_version":"battery-v0.2"},{"rune":"M","rune_set":"bacs1","hex":"#3366ff99","correct":32,"choice":32,"rt":749.9400000015157,"accuracy":1,"outcome":"+1","keys":[2250.6049999938114],"total_keys":1,"block":1,"trial":33,"stimulus":3,"robot":1,"valence":"win","action":"go","sham":1,"trial_type":"pit-trial","trial_index":58,"time_elapsed":446123,"internal_node_id":"0.0-34.0","task_version":"battery-v0.2"},{"rune":"U","rune_set":"bacs1","hex":"#3366ff99","correct":32,"choice":32,"rt":865.0000000052387,"accuracy":1,"outcome":"+10","keys":[2365.700000002107],"total_keys":1,"block":1,"trial":34,"stimulus":4,"robot":1,"valence":"win","action":"go","sham":0,"trial_type":"pit-trial","trial_index":59,"time_elapsed":449691,"internal_node_id":"0.0-35.0","task_version":"battery-v0.2"},{"rune":"Y","rune_set":"bacs1","hex":"#3366ff99","correct":-1,"choice":32,"rt":632.6249999983702,"accuracy":0,"outcome":"+1","keys":[2133.2449999972596],"total_keys":1,"block":1,"trial":35,"stimulus":0,"robot":2,"valence":"win","action":"no-go","sham":0,"trial_type":"pit-trial","trial_index":60,"time_elapsed":453026,"internal_node_id":"0.0-36.0","task_version":"battery-v0.2"},{"rune":"P","rune_set":"bacs1","hex":"#f73b6a7A","correct":-1,"choice":-1,"rt":-1,"accuracy":1,"outcome":"-1","keys":[],"total_keys":0,"block":1,"trial":36,"stimulus":2,"robot":4,"valence":"lose","action":"no-go","sham":0,"trial_type":"pit-trial","trial_index":61,"time_elapsed":457029,"internal_node_id":"0.0-37.0","task_version":"battery-v0.2"},{"rune":"M","rune_set":"bacs1","hex":"#3366ff99","correct":32,"choice":-1,"rt":-1,"accuracy":0,"outcome":"+1","keys":[],"total_keys":0,"block":1,"trial":37,"stimulus":3,"robot":1,"valence":"win","action":"go","sham":0,"trial_type":"pit-trial","trial_index":62,"time_elapsed":461032,"internal_node_id":"0.0-38.0","task_version":"battery-v0.2"},{"rune":"P","rune_set":"bacs1","hex":"#f73b6a7A","correct":-1,"choice":-1,"rt":-1,"accuracy":1,"outcome":"-1","keys":[],"total_keys":0,"block":1,"trial":38,"stimulus":2,"robot":4,"valence":"lose","action":"no-go","sham":0,"trial_type":"pit-trial","trial_index":63,"time_elapsed":465036,"internal_node_id":"0.0-39.0","task_version":"battery-v0.2"},{"rune":"U","rune_set":"bacs1","hex":"#3366ff99","correct":32,"choice":32,"rt":599.9199999932898,"accuracy":1,"outcome":"+10","keys":[2100.4849999953876],"total_keys":1,"block":1,"trial":39,"stimulus":4,"robot":1,"valence":"win","action":"go","sham":0,"trial_type":"pit-trial","trial_index":64,"time_elapsed":468339,"internal_node_id":"0.0-40.0","task_version":"battery-v0.2"},{"rune":"Y","rune_set":"bacs1","hex":"#3366ff99","correct":-1,"choice":32,"rt":472.47499999502907,"accuracy":0,"outcome":"+1","keys":[1973.0649999983143],"total_keys":1,"block":1,"trial":40,"stimulus":0,"robot":2,"valence":"win","action":"no-go","sham":0,"trial_type":"pit-trial","trial_index":65,"time_elapsed":471515,"internal_node_id":"0.0-41.0","task_version":"battery-v0.2"},{"rune":"Y","rune_set":"bacs1","hex":"#3366ff99","correct":-1,"choice":32,"rt":448.114999999234,"accuracy":0,"outcome":"+10","keys":[1948.6650000035297],"total_keys":1,"block":1,"trial":41,"stimulus":0,"robot":2,"valence":"win","action":"no-go","sham":1,"trial_type":"pit-trial","trial_index":66,"time_elapsed":474667,"internal_node_id":"0.0-42.0","task_version":"battery-v0.2"},{"rune":"K","rune_set":"bacs1","hex":"#f73b6a7A","correct":-1,"choice":-1,"rt":-1,"accuracy":1,"outcome":"-1","keys":[],"total_keys":0,"block":1,"trial":42,"stimulus":6,"robot":4,"valence":"lose","action":"no-go","sham":0,"trial_type":"pit-trial","trial_index":67,"time_elapsed":478670,"internal_node_id":"0.0-43.0","task_version":"battery-v0.2"},{"rune":"S","rune_set":"bacs1","hex":"#f73b6a7A","correct":32,"choice":-1,"rt":-1,"accuracy":0,"outcome":"-1","keys":[],"total_keys":0,"block":1,"trial":43,"stimulus":5,"robot":3,"valence":"lose","action":"go","sham":1,"trial_type":"pit-trial","trial_index":68,"time_elapsed":482673,"internal_node_id":"0.0-44.0","task_version":"battery-v0.2"},{"rune":"U","rune_set":"bacs1","hex":"#3366ff99","correct":32,"choice":-1,"rt":-1,"accuracy":0,"outcome":"+1","keys":[],"total_keys":0,"block":1,"trial":44,"stimulus":4,"robot":1,"valence":"win","action":"go","sham":0,"trial_type":"pit-trial","trial_index":69,"time_elapsed":486676,"internal_node_id":"0.0-45.0","task_version":"battery-v0.2"},{"rune":"S","rune_set":"bacs1","hex":"#f73b6a7A","correct":32,"choice":-1,"rt":-1,"accuracy":0,"outcome":"-10","keys":[],"total_keys":0,"block":1,"trial":45,"stimulus":5,"robot":3,"valence":"lose","action":"go","sham":0,"trial_type":"pit-trial","trial_index":70,"time_elapsed":490679,"internal_node_id":"0.0-46.0","task_version":"battery-v0.2"},{"rune":"U","rune_set":"bacs1","hex":"#3366ff99","correct":32,"choice":32,"rt":676.4699999985169,"accuracy":1,"outcome":"+1","keys":[2176.995000001625],"total_keys":1,"block":1,"trial":46,"stimulus":4,"robot":1,"valence":"win","action":"go","sham":1,"trial_type":"pit-trial","trial_index":71,"time_elapsed":494059,"internal_node_id":"0.0-47.0","task_version":"battery-v0.2"},{"rune":"Y","rune_set":"bacs1","hex":"#3366ff99","correct":-1,"choice":32,"rt":528.9599999960046,"accuracy":0,"outcome":"+10","keys":[2029.7050000008312],"total_keys":1,"block":1,"trial":47,"stimulus":0,"robot":2,"valence":"win","action":"no-go","sham":1,"trial_type":"pit-trial","trial_index":72,"time_elapsed":497291,"internal_node_id":"0.0-48.0","task_version":"battery-v0.2"},{"rune":"K","rune_set":"bacs1","hex":"#f73b6a7A","correct":-1,"choice":-1,"rt":-1,"accuracy":1,"outcome":"-10","keys":[],"total_keys":0,"block":1,"trial":48,"stimulus":6,"robot":4,"valence":"lose","action":"no-go","sham":1,"trial_type":"pit-trial","trial_index":73,"time_elapsed":501294,"internal_node_id":"0.0-49.0","task_version":"battery-v0.2"},{"rune":"K","rune_set":"bacs1","hex":"#f73b6a7A","correct":-1,"choice":-1,"rt":-1,"accuracy":1,"outcome":"-1","keys":[],"total_keys":0,"block":1,"trial":49,"stimulus":6,"robot":4,"valence":"lose","action":"no-go","sham":0,"trial_type":"pit-trial","trial_index":74,"time_elapsed":505297,"internal_node_id":"0.0-50.0","task_version":"battery-v0.2"},{"rune":"U","rune_set":"bacs1","hex":"#3366ff99","correct":32,"choice":32,"rt":426.6250000000582,"accuracy":1,"outcome":"+1","keys":[1927.1149999985937],"total_keys":1,"block":1,"trial":50,"stimulus":4,"robot":1,"valence":"win","action":"go","sham":1,"trial_type":"pit-trial","trial_index":75,"time_elapsed":508426,"internal_node_id":"0.0-51.0","task_version":"battery-v0.2"},{"rune":"S","rune_set":"bacs1","hex":"#f73b6a7A","correct":32,"choice":-1,"rt":-1,"accuracy":0,"outcome":"-10","keys":[],"total_keys":0,"block":1,"trial":51,"stimulus":5,"robot":3,"valence":"lose","action":"go","sham":0,"trial_type":"pit-trial","trial_index":76,"time_elapsed":512429,"internal_node_id":"0.0-52.0","task_version":"battery-v0.2"},{"rune":"D","rune_set":"bacs1","hex":"#3366ff99","correct":-1,"choice":32,"rt":797.9500000001281,"accuracy":0,"outcome":"+1","keys":[2298.6200000013923],"total_keys":1,"block":1,"trial":52,"stimulus":7,"robot":2,"valence":"win","action":"no-go","sham":0,"trial_type":"pit-trial","trial_index":77,"time_elapsed":515930,"internal_node_id":"0.0-53.0","task_version":"battery-v0.2"},{"rune":"D","rune_set":"bacs1","hex":"#3366ff99","correct":-1,"choice":-1,"rt":-1,"accuracy":1,"outcome":"+10","keys":[],"total_keys":0,"block":1,"trial":53,"stimulus":7,"robot":2,"valence":"win","action":"no-go","sham":0,"trial_type":"pit-trial","trial_index":78,"time_elapsed":519934,"internal_node_id":"0.0-54.0","task_version":"battery-v0.2"},{"rune":"S","rune_set":"bacs1","hex":"#f73b6a7A","correct":32,"choice":32,"rt":685.7700000036857,"accuracy":1,"outcome":"-1","keys":[2186.4799999966635],"total_keys":1,"block":1,"trial":54,"stimulus":5,"robot":3,"valence":"lose","action":"go","sham":0,"trial_type":"pit-trial","trial_index":79,"time_elapsed":523322,"internal_node_id":"0.0-55.0","task_version":"battery-v0.2"},{"rune":"K","rune_set":"bacs1","hex":"#f73b6a7A","correct":-1,"choice":-1,"rt":-1,"accuracy":1,"outcome":"-10","keys":[],"total_keys":0,"block":1,"trial":55,"stimulus":6,"robot":4,"valence":"lose","action":"no-go","sham":1,"trial_type":"pit-trial","trial_index":80,"time_elapsed":527326,"internal_node_id":"0.0-56.0","task_version":"battery-v0.2"},{"rune":"U","rune_set":"bacs1","hex":"#3366ff99","correct":32,"choice":-1,"rt":-1,"accuracy":0,"outcome":"+1","keys":[],"total_keys":0,"block":1,"trial":56,"stimulus":4,"robot":1,"valence":"win","action":"go","sham":0,"trial_type":"pit-trial","trial_index":81,"time_elapsed":531329,"internal_node_id":"0.0-57.0","task_version":"battery-v0.2"},{"rune":"U","rune_set":"bacs1","hex":"#3366ff99","correct":32,"choice":32,"rt":563.1199999989476,"accuracy":1,"outcome":"+1","keys":[2063.674999997602],"total_keys":1,"block":1,"trial":57,"stimulus":4,"robot":1,"valence":"win","action":"go","sham":1,"trial_type":"pit-trial","trial_index":82,"time_elapsed":534595,"internal_node_id":"0.0-58.0","task_version":"battery-v0.2"},{"rune":"S","rune_set":"bacs1","hex":"#f73b6a7A","correct":32,"choice":32,"rt":728.6999999996042,"accuracy":1,"outcome":"-1","keys":[2229.35000000149],"total_keys":1,"block":1,"trial":58,"stimulus":5,"robot":3,"valence":"lose","action":"go","sham":0,"trial_type":"pit-trial","trial_index":83,"time_elapsed":538027,"internal_node_id":"0.0-59.0","task_version":"battery-v0.2"},{"rune":"D","rune_set":"bacs1","hex":"#3366ff99","correct":-1,"choice":-1,"rt":-1,"accuracy":1,"outcome":"+1","keys":[],"total_keys":0,"block":1,"trial":59,"stimulus":7,"robot":2,"valence":"win","action":"no-go","sham":1,"trial_type":"pit-trial","trial_index":84,"time_elapsed":542030,"internal_node_id":"0.0-60.0","task_version":"battery-v0.2"},{"rune":"K","rune_set":"bacs1","hex":"#f73b6a7A","correct":-1,"choice":32,"rt":630.5300000022398,"accuracy":0,"outcome":"-10","keys":[2131.230000006268],"total_keys":1,"block":1,"trial":60,"stimulus":6,"robot":4,"valence":"lose","action":"no-go","sham":0,"trial_type":"pit-trial","trial_index":85,"time_elapsed":545363,"internal_node_id":"0.0-61.0","task_version":"battery-v0.2"},{"rune":"K","rune_set":"bacs1","hex":"#f73b6a7A","correct":-1,"choice":32,"rt":713.1249999948777,"accuracy":0,"outcome":"-10","keys":[2213.8100000011036],"total_keys":1,"block":1,"trial":61,"stimulus":6,"robot":4,"valence":"lose","action":"no-go","sham":0,"trial_type":"pit-trial","trial_index":86,"time_elapsed":548779,"internal_node_id":"0.0-62.0","task_version":"battery-v0.2"},{"rune":"S","rune_set":"bacs1","hex":"#f73b6a7A","correct":32,"choice":32,"rt":544.8299999989104,"accuracy":1,"outcome":"-1","keys":[2045.5849999999627],"total_keys":1,"block":1,"trial":62,"stimulus":5,"robot":3,"valence":"lose","action":"go","sham":0,"trial_type":"pit-trial","trial_index":87,"time_elapsed":552026,"internal_node_id":"0.0-63.0","task_version":"battery-v0.2"},{"rune":"D","rune_set":"bacs1","hex":"#3366ff99","correct":-1,"choice":32,"rt":826.0049999952316,"accuracy":0,"outcome":"+1","keys":[2326.694999996107],"total_keys":1,"block":1,"trial":63,"stimulus":7,"robot":2,"valence":"win","action":"no-go","sham":0,"trial_type":"pit-trial","trial_index":88,"time_elapsed":555555,"internal_node_id":"0.0-64.0","task_version":"battery-v0.2"},{"rune":"U","rune_set":"bacs1","hex":"#3366ff99","correct":32,"choice":32,"rt":392.3999999969965,"accuracy":1,"outcome":"+10","keys":[1893.1000000012573],"total_keys":1,"block":1,"trial":64,"stimulus":4,"robot":1,"valence":"win","action":"go","sham":0,"trial_type":"pit-trial","trial_index":89,"time_elapsed":558650,"internal_node_id":"0.0-65.0","task_version":"battery-v0.2"},{"rune":"S","rune_set":"bacs1","hex":"#f73b6a7A","correct":32,"choice":32,"rt":593.2749999992084,"accuracy":1,"outcome":"-1","keys":[2093.8700000041863],"total_keys":1,"block":1,"trial":65,"stimulus":5,"robot":3,"valence":"lose","action":"go","sham":0,"trial_type":"pit-trial","trial_index":90,"time_elapsed":561947,"internal_node_id":"0.0-66.0","task_version":"battery-v0.2"},{"rune":"D","rune_set":"bacs1","hex":"#3366ff99","correct":-1,"choice":32,"rt":545.1099999990547,"accuracy":0,"outcome":"+1","keys":[2045.7800000003772],"total_keys":1,"block":1,"trial":66,"stimulus":7,"robot":2,"valence":"win","action":"no-go","sham":0,"trial_type":"pit-trial","trial_index":91,"time_elapsed":565195,"internal_node_id":"0.0-67.0","task_version":"battery-v0.2"},{"rune":"U","rune_set":"bacs1","hex":"#3366ff99","correct":32,"choice":32,"rt":873.2099999978673,"accuracy":1,"outcome":"+10","keys":[2373.9750000021886],"total_keys":1,"block":1,"trial":67,"stimulus":4,"robot":1,"valence":"win","action":"go","sham":0,"trial_type":"pit-trial","trial_index":92,"time_elapsed":568771,"internal_node_id":"0.0-68.0","task_version":"battery-v0.2"},{"rune":"K","rune_set":"bacs1","hex":"#f73b6a7A","correct":-1,"choice":-1,"rt":-1,"accuracy":1,"outcome":"-10","keys":[],"total_keys":0,"block":1,"trial":68,"stimulus":6,"robot":4,"valence":"lose","action":"no-go","sham":1,"trial_type":"pit-trial","trial_index":93,"time_elapsed":572774,"internal_node_id":"0.0-69.0","task_version":"battery-v0.2"},{"rune":"D","rune_set":"bacs1","hex":"#3366ff99","correct":-1,"choice":32,"rt":589.4850000040606,"accuracy":0,"outcome":"+1","keys":[2090.125000002561],"total_keys":1,"block":1,"trial":69,"stimulus":7,"robot":2,"valence":"win","action":"no-go","sham":0,"trial_type":"pit-trial","trial_index":94,"time_elapsed":576066,"internal_node_id":"0.0-70.0","task_version":"battery-v0.2"},{"rune":"S","rune_set":"bacs1","hex":"#f73b6a7A","correct":32,"choice":32,"rt":553.5099999979138,"accuracy":1,"outcome":"-1","keys":[2053.9799999969546],"total_keys":1,"block":1,"trial":70,"stimulus":5,"robot":3,"valence":"lose","action":"go","sham":0,"trial_type":"pit-trial","trial_index":95,"time_elapsed":579322,"internal_node_id":"0.0-71.0","task_version":"battery-v0.2"},{"rune":"K","rune_set":"bacs1","hex":"#f73b6a7A","correct":-1,"choice":32,"rt":577.1299999979092,"accuracy":0,"outcome":"-10","keys":[2077.709999997751],"total_keys":1,"block":1,"trial":71,"stimulus":6,"robot":4,"valence":"lose","action":"no-go","sham":0,"trial_type":"pit-trial","trial_index":96,"time_elapsed":582603,"internal_node_id":"0.0-72.0","task_version":"battery-v0.2"},{"rune":"U","rune_set":"bacs1","hex":"#3366ff99","correct":32,"choice":-1,"rt":-1,"accuracy":0,"outcome":"+1","keys":[],"total_keys":0,"block":1,"trial":72,"stimulus":4,"robot":1,"valence":"win","action":"go","sham":0,"trial_type":"pit-trial","trial_index":97,"time_elapsed":586606,"internal_node_id":"0.0-73.0","task_version":"battery-v0.2"},{"rune":"K","rune_set":"bacs1","hex":"#f73b6a7A","correct":-1,"choice":32,"rt":621.9600000039209,"accuracy":0,"outcome":"-10","keys":[2122.6150000002235],"total_keys":1,"block":1,"trial":73,"stimulus":6,"robot":4,"valence":"lose","action":"no-go","sham":0,"trial_type":"pit-trial","trial_index":98,"time_elapsed":589931,"internal_node_id":"0.0-74.0","task_version":"battery-v0.2"},{"rune":"D","rune_set":"bacs1","hex":"#3366ff99","correct":-1,"choice":32,"rt":472.5299999990966,"accuracy":0,"outcome":"+1","keys":[1973.1749999992317],"total_keys":1,"block":1,"trial":74,"stimulus":7,"robot":2,"valence":"win","action":"no-go","sham":0,"trial_type":"pit-trial","trial_index":99,"time_elapsed":593106,"internal_node_id":"0.0-75.0","task_version":"battery-v0.2"},{"rune":"U","rune_set":"bacs1","hex":"#3366ff99","correct":32,"choice":32,"rt":537.3000000036554,"accuracy":1,"outcome":"+1","keys":[2037.9349999929545],"total_keys":1,"block":1,"trial":75,"stimulus":4,"robot":1,"valence":"win","action":"go","sham":1,"trial_type":"pit-trial","trial_index":100,"time_elapsed":596347,"internal_node_id":"0.0-76.0","task_version":"battery-v0.2"},{"rune":"O","rune_set":"bacs1","hex":"#f73b6a7A","correct":32,"choice":-1,"rt":-1,"accuracy":0,"outcome":"-10","keys":[],"total_keys":0,"block":1,"trial":76,"stimulus":8,"robot":3,"valence":"lose","action":"go","sham":0,"trial_type":"pit-trial","trial_index":101,"time_elapsed":600350,"internal_node_id":"0.0-77.0","task_version":"battery-v0.2"},{"rune":"U","rune_set":"bacs1","hex":"#3366ff99","correct":32,"choice":-1,"rt":-1,"accuracy":0,"outcome":"+1","keys":[],"total_keys":0,"block":1,"trial":77,"stimulus":4,"robot":1,"valence":"win","action":"go","sham":0,"trial_type":"pit-trial","trial_index":102,"time_elapsed":604353,"internal_node_id":"0.0-78.0","task_version":"battery-v0.2"},{"rune":"O","rune_set":"bacs1","hex":"#f73b6a7A","correct":32,"choice":32,"rt":922.9500000001863,"accuracy":1,"outcome":"-10","keys":[2423.6300000047777],"total_keys":1,"block":1,"trial":78,"stimulus":8,"robot":3,"valence":"lose","action":"go","sham":1,"trial_type":"pit-trial","trial_index":103,"time_elapsed":607979,"internal_node_id":"0.0-79.0","task_version":"battery-v0.2"},{"rune":"K","rune_set":"bacs1","hex":"#f73b6a7A","correct":-1,"choice":-1,"rt":-1,"accuracy":1,"outcome":"-1","keys":[],"total_keys":0,"block":1,"trial":79,"stimulus":6,"robot":4,"valence":"lose","action":"no-go","sham":0,"trial_type":"pit-trial","trial_index":104,"time_elapsed":611982,"internal_node_id":"0.0-80.0","task_version":"battery-v0.2"},{"rune":"D","rune_set":"bacs1","hex":"#3366ff99","correct":-1,"choice":32,"rt":725.2650000009453,"accuracy":0,"outcome":"+1","keys":[2225.9249999988824],"total_keys":1,"block":1,"trial":80,"stimulus":7,"robot":2,"valence":"win","action":"no-go","sham":0,"trial_type":"pit-trial","trial_index":105,"time_elapsed":615410,"internal_node_id":"0.0-81.0","task_version":"battery-v0.2"},{"rune":"O","rune_set":"bacs1","hex":"#f73b6a7A","correct":32,"choice":-1,"rt":-1,"accuracy":0,"outcome":"-10","keys":[],"total_keys":0,"block":1,"trial":81,"stimulus":8,"robot":3,"valence":"lose","action":"go","sham":0,"trial_type":"pit-trial","trial_index":106,"time_elapsed":619414,"internal_node_id":"0.0-82.0","task_version":"battery-v0.2"},{"rune":"I","rune_set":"bacs1","hex":"#f73b6a7A","correct":32,"choice":-1,"rt":-1,"accuracy":0,"outcome":"-10","keys":[],"total_keys":0,"block":1,"trial":82,"stimulus":9,"robot":3,"valence":"lose","action":"go","sham":0,"trial_type":"pit-trial","trial_index":107,"time_elapsed":623417,"internal_node_id":"0.0-83.0","task_version":"battery-v0.2"},{"rune":"K","rune_set":"bacs1","hex":"#f73b6a7A","correct":-1,"choice":-1,"rt":-1,"accuracy":1,"outcome":"-1","keys":[],"total_keys":0,"block":1,"trial":83,"stimulus":6,"robot":4,"valence":"lose","action":"no-go","sham":0,"trial_type":"pit-trial","trial_index":108,"time_elapsed":627420,"internal_node_id":"0.0-84.0","task_version":"battery-v0.2"},{"rune":"D","rune_set":"bacs1","hex":"#3366ff99","correct":-1,"choice":32,"rt":695.725000005099,"accuracy":0,"outcome":"+1","keys":[2196.3549999999814],"total_keys":1,"block":1,"trial":84,"stimulus":7,"robot":2,"valence":"win","action":"no-go","sham":0,"trial_type":"pit-trial","trial_index":109,"time_elapsed":630818,"internal_node_id":"0.0-85.0","task_version":"battery-v0.2"},{"rune":"K","rune_set":"bacs1","hex":"#f73b6a7A","correct":-1,"choice":-1,"rt":-1,"accuracy":1,"outcome":"-1","keys":[],"total_keys":0,"block":1,"trial":85,"stimulus":6,"robot":4,"valence":"lose","action":"no-go","sham":0,"trial_type":"pit-trial","trial_index":110,"time_elapsed":634821,"internal_node_id":"0.0-86.0","task_version":"battery-v0.2"},{"rune":"I","rune_set":"bacs1","hex":"#f73b6a7A","correct":32,"choice":-1,"rt":-1,"accuracy":0,"outcome":"-10","keys":[],"total_keys":0,"block":1,"trial":86,"stimulus":9,"robot":3,"valence":"lose","action":"go","sham":0,"trial_type":"pit-trial","trial_index":111,"time_elapsed":638825,"internal_node_id":"0.0-87.0","task_version":"battery-v0.2"},{"rune":"D","rune_set":"bacs1","hex":"#3366ff99","correct":-1,"choice":32,"rt":578.99499999627,"accuracy":0,"outcome":"+1","keys":[2079.6300000002375],"total_keys":1,"block":1,"trial":87,"stimulus":7,"robot":2,"valence":"win","action":"no-go","sham":0,"trial_type":"pit-trial","trial_index":112,"time_elapsed":642107,"internal_node_id":"0.0-88.0","task_version":"battery-v0.2"},{"rune":"O","rune_set":"bacs1","hex":"#f73b6a7A","correct":32,"choice":-1,"rt":-1,"accuracy":0,"outcome":"-10","keys":[],"total_keys":0,"block":1,"trial":88,"stimulus":8,"robot":3,"valence":"lose","action":"go","sham":0,"trial_type":"pit-trial","trial_index":113,"time_elapsed":646110,"internal_node_id":"0.0-89.0","task_version":"battery-v0.2"},{"rune":"I","rune_set":"bacs1","hex":"#f73b6a7A","correct":32,"choice":32,"rt":1109.309999999823,"accuracy":1,"outcome":"-1","keys":[2609.889999999781],"total_keys":1,"block":1,"trial":89,"stimulus":9,"robot":3,"valence":"lose","action":"go","sham":0,"trial_type":"pit-trial","trial_index":114,"time_elapsed":649922,"internal_node_id":"0.0-90.0","task_version":"battery-v0.2"},{"rune":"G","rune_set":"bacs1","hex":"#f73b6a7A","correct":-1,"choice":-1,"rt":-1,"accuracy":1,"outcome":"-1","keys":[],"total_keys":0,"block":1,"trial":90,"stimulus":10,"robot":4,"valence":"lose","action":"no-go","sham":0,"trial_type":"pit-trial","trial_index":115,"time_elapsed":653925,"internal_node_id":"0.0-91.0","task_version":"battery-v0.2"},{"rune":"N","rune_set":"bacs1","hex":"#3366ff99","correct":-1,"choice":32,"rt":510.0899999961257,"accuracy":0,"outcome":"+10","keys":[2010.7250000000931],"total_keys":1,"block":1,"trial":91,"stimulus":11,"robot":2,"valence":"win","action":"no-go","sham":1,"trial_type":"pit-trial","trial_index":116,"time_elapsed":657139,"internal_node_id":"0.0-92.0","task_version":"battery-v0.2"},{"rune":"O","rune_set":"bacs1","hex":"#f73b6a7A","correct":32,"choice":32,"rt":784.6649999991059,"accuracy":1,"outcome":"-10","keys":[2285.2100000018254],"total_keys":1,"block":1,"trial":92,"stimulus":8,"robot":3,"valence":"lose","action":"go","sham":1,"trial_type":"pit-trial","trial_index":117,"time_elapsed":660626,"internal_node_id":"0.0-93.0","task_version":"battery-v0.2"},{"rune":"G","rune_set":"bacs1","hex":"#f73b6a7A","correct":-1,"choice":-1,"rt":-1,"accuracy":1,"outcome":"-1","keys":[],"total_keys":0,"block":1,"trial":93,"stimulus":10,"robot":4,"valence":"lose","action":"no-go","sham":0,"trial_type":"pit-trial","trial_index":118,"time_elapsed":664629,"internal_node_id":"0.0-94.0","task_version":"battery-v0.2"},{"rune":"O","rune_set":"bacs1","hex":"#f73b6a7A","correct":32,"choice":-1,"rt":-1,"accuracy":0,"outcome":"-10","keys":[],"total_keys":0,"block":1,"trial":94,"stimulus":8,"robot":3,"valence":"lose","action":"go","sham":0,"trial_type":"pit-trial","trial_index":119,"time_elapsed":668632,"internal_node_id":"0.0-95.0","task_version":"battery-v0.2"},{"rune":"I","rune_set":"bacs1","hex":"#f73b6a7A","correct":32,"choice":32,"rt":563.2900000053924,"accuracy":1,"outcome":"-1","keys":[2063.879999994184],"total_keys":1,"block":1,"trial":95,"stimulus":9,"robot":3,"valence":"lose","action":"go","sham":0,"trial_type":"pit-trial","trial_index":120,"time_elapsed":671898,"internal_node_id":"0.0-96.0","task_version":"battery-v0.2"},{"rune":"N","rune_set":"bacs1","hex":"#3366ff99","correct":-1,"choice":32,"rt":696.8499999929918,"accuracy":0,"outcome":"+1","keys":[2197.1800000029616],"total_keys":1,"block":1,"trial":96,"stimulus":11,"robot":2,"valence":"win","action":"no-go","sham":0,"trial_type":"pit-trial","trial_index":121,"time_elapsed":675297,"internal_node_id":"0.0-97.0","task_version":"battery-v0.2"},{"rune":"N","rune_set":"bacs1","hex":"#3366ff99","correct":-1,"choice":32,"rt":385.6400000003632,"accuracy":0,"outcome":"+1","keys":[1886.1850000029663],"total_keys":1,"block":1,"trial":97,"stimulus":11,"robot":2,"valence":"win","action":"no-go","sham":0,"trial_type":"pit-trial","trial_index":122,"time_elapsed":678386,"internal_node_id":"0.0-98.0","task_version":"battery-v0.2"},{"rune":"G","rune_set":"bacs1","hex":"#f73b6a7A","correct":-1,"choice":-1,"rt":-1,"accuracy":1,"outcome":"-10","keys":[],"total_keys":0,"block":1,"trial":98,"stimulus":10,"robot":4,"valence":"lose","action":"no-go","sham":1,"trial_type":"pit-trial","trial_index":123,"time_elapsed":682389,"internal_node_id":"0.0-99.0","task_version":"battery-v0.2"},{"rune":"I","rune_set":"bacs1","hex":"#f73b6a7A","correct":32,"choice":32,"rt":550.5499999999302,"accuracy":1,"outcome":"-10","keys":[2051.2099999978673],"total_keys":1,"block":1,"trial":99,"stimulus":9,"robot":3,"valence":"lose","action":"go","sham":1,"trial_type":"pit-trial","trial_index":124,"time_elapsed":685642,"internal_node_id":"0.0-100.0","task_version":"battery-v0.2"},{"rune":"O","rune_set":"bacs1","hex":"#f73b6a7A","correct":32,"choice":-1,"rt":-1,"accuracy":0,"outcome":"-1","keys":[],"total_keys":0,"block":1,"trial":100,"stimulus":8,"robot":3,"valence":"lose","action":"go","sham":1,"trial_type":"pit-trial","trial_index":125,"time_elapsed":689645,"internal_node_id":"0.0-101.0","task_version":"battery-v0.2"},{"rune":"G","rune_set":"bacs1","hex":"#f73b6a7A","correct":-1,"choice":-1,"rt":-1,"accuracy":1,"outcome":"-10","keys":[],"total_keys":0,"block":1,"trial":101,"stimulus":10,"robot":4,"valence":"lose","action":"no-go","sham":1,"trial_type":"pit-trial","trial_index":126,"time_elapsed":693648,"internal_node_id":"0.0-102.0","task_version":"battery-v0.2"},{"rune":"O","rune_set":"bacs1","hex":"#f73b6a7A","correct":32,"choice":32,"rt":978.8450000050943,"accuracy":1,"outcome":"-1","keys":[2479.4550000006566],"total_keys":1,"block":1,"trial":102,"stimulus":8,"robot":3,"valence":"lose","action":"go","sham":0,"trial_type":"pit-trial","trial_index":127,"time_elapsed":697329,"internal_node_id":"0.0-103.0","task_version":"battery-v0.2"},{"rune":"N","rune_set":"bacs1","hex":"#3366ff99","correct":-1,"choice":-1,"rt":-1,"accuracy":1,"outcome":"+10","keys":[],"total_keys":0,"block":1,"trial":103,"stimulus":11,"robot":2,"valence":"win","action":"no-go","sham":0,"trial_type":"pit-trial","trial_index":128,"time_elapsed":701333,"internal_node_id":"0.0-104.0","task_version":"battery-v0.2"},{"rune":"I","rune_set":"bacs1","hex":"#f73b6a7A","correct":32,"choice":32,"rt":894.1149999954505,"accuracy":1,"outcome":"-1","keys":[2394.844999995199],"total_keys":1,"block":1,"trial":104,"stimulus":9,"robot":3,"valence":"lose","action":"go","sham":0,"trial_type":"pit-trial","trial_index":129,"time_elapsed":704930,"internal_node_id":"0.0-105.0","task_version":"battery-v0.2"},{"rune":"G","rune_set":"bacs1","hex":"#f73b6a7A","correct":-1,"choice":32,"rt":1025.154999995837,"accuracy":0,"outcome":"-1","keys":[2525.7949999941047],"total_keys":1,"block":1,"trial":105,"stimulus":10,"robot":4,"valence":"lose","action":"no-go","sham":1,"trial_type":"pit-trial","trial_index":130,"time_elapsed":708659,"internal_node_id":"0.0-106.0","task_version":"battery-v0.2"},{"rune":"I","rune_set":"bacs1","hex":"#f73b6a7A","correct":32,"choice":32,"rt":816.7400000019697,"accuracy":1,"outcome":"-1","keys":[2317.4350000044797],"total_keys":1,"block":1,"trial":106,"stimulus":9,"robot":3,"valence":"lose","action":"go","sham":0,"trial_type":"pit-trial","trial_index":131,"time_elapsed":712179,"internal_node_id":"0.0-107.0","task_version":"battery-v0.2"},{"rune":"N","rune_set":"bacs1","hex":"#3366ff99","correct":-1,"choice":-1,"rt":-1,"accuracy":1,"outcome":"+1","keys":[],"total_keys":0,"block":1,"trial":107,"stimulus":11,"robot":2,"valence":"win","action":"no-go","sham":1,"trial_type":"pit-trial","trial_index":132,"time_elapsed":716182,"internal_node_id":"0.0-108.0","task_version":"battery-v0.2"},{"rune":"O","rune_set":"bacs1","hex":"#f73b6a7A","correct":32,"choice":-1,"rt":-1,"accuracy":0,"outcome":"-10","keys":[],"total_keys":0,"block":1,"trial":108,"stimulus":8,"robot":3,"valence":"lose","action":"go","sham":0,"trial_type":"pit-trial","trial_index":133,"time_elapsed":720185,"internal_node_id":"0.0-109.0","task_version":"battery-v0.2"},{"rune":"O","rune_set":"bacs1","hex":"#f73b6a7A","correct":32,"choice":32,"rt":627.3199999995995,"accuracy":1,"outcome":"-1","keys":[2127.8450000026496],"total_keys":1,"block":1,"trial":109,"stimulus":8,"robot":3,"valence":"lose","action":"go","sham":0,"trial_type":"pit-trial","trial_index":134,"time_elapsed":723515,"internal_node_id":"0.0-110.0","task_version":"battery-v0.2"},{"rune":"I","rune_set":"bacs1","hex":"#f73b6a7A","correct":32,"choice":32,"rt":584.8849999966333,"accuracy":1,"outcome":"-1","keys":[2085.435000000987],"total_keys":1,"block":1,"trial":110,"stimulus":9,"robot":3,"valence":"lose","action":"go","sham":0,"trial_type":"pit-trial","trial_index":135,"time_elapsed":726802,"internal_node_id":"0.0-111.0","task_version":"battery-v0.2"},{"rune":"G","rune_set":"bacs1","hex":"#f73b6a7A","correct":-1,"choice":32,"rt":585.6899999999441,"accuracy":0,"outcome":"-10","keys":[2086.36000000115],"total_keys":1,"block":1,"trial":111,"stimulus":10,"robot":4,"valence":"lose","action":"no-go","sham":0,"trial_type":"pit-trial","trial_index":136,"time_elapsed":730090,"internal_node_id":"0.0-112.0","task_version":"battery-v0.2"},{"rune":"N","rune_set":"bacs1","hex":"#3366ff99","correct":-1,"choice":-1,"rt":-1,"accuracy":1,"outcome":"+10","keys":[],"total_keys":0,"block":1,"trial":112,"stimulus":11,"robot":2,"valence":"win","action":"no-go","sham":0,"trial_type":"pit-trial","trial_index":137,"time_elapsed":734093,"internal_node_id":"0.0-113.0","task_version":"battery-v0.2"},{"rune":"I","rune_set":"bacs1","hex":"#f73b6a7A","correct":32,"choice":32,"rt":606.5499999967869,"accuracy":1,"outcome":"-10","keys":[2107.169999995618],"total_keys":1,"block":1,"trial":113,"stimulus":9,"robot":3,"valence":"lose","action":"go","sham":1,"trial_type":"pit-trial","trial_index":138,"time_elapsed":737403,"internal_node_id":"0.0-114.0","task_version":"battery-v0.2"},{"rune":"N","rune_set":"bacs1","hex":"#3366ff99","correct":-1,"choice":32,"rt":505.08999999880325,"accuracy":0,"outcome":"+1","keys":[2005.7050000033341],"total_keys":1,"block":1,"trial":114,"stimulus":11,"robot":2,"valence":"win","action":"no-go","sham":0,"trial_type":"pit-trial","trial_index":139,"time_elapsed":740611,"internal_node_id":"0.0-115.0","task_version":"battery-v0.2"},{"rune":"G","rune_set":"bacs1","hex":"#f73b6a7A","correct":-1,"choice":-1,"rt":-1,"accuracy":1,"outcome":"-10","keys":[],"total_keys":0,"block":1,"trial":115,"stimulus":10,"robot":4,"valence":"lose","action":"no-go","sham":1,"trial_type":"pit-trial","trial_index":140,"time_elapsed":744614,"internal_node_id":"0.0-116.0","task_version":"battery-v0.2"},{"rune":"O","rune_set":"bacs1","hex":"#f73b6a7A","correct":32,"choice":32,"rt":429.9700000047451,"accuracy":1,"outcome":"-1","keys":[1930.4550000014715],"total_keys":1,"block":1,"trial":116,"stimulus":8,"robot":3,"valence":"lose","action":"go","sham":0,"trial_type":"pit-trial","trial_index":141,"time_elapsed":747747,"internal_node_id":"0.0-117.0","task_version":"battery-v0.2"},{"rune":"O","rune_set":"bacs1","hex":"#f73b6a7A","correct":32,"choice":-1,"rt":-1,"accuracy":0,"outcome":"-10","keys":[],"total_keys":0,"block":1,"trial":117,"stimulus":8,"robot":3,"valence":"lose","action":"go","sham":0,"trial_type":"pit-trial","trial_index":142,"time_elapsed":751750,"internal_node_id":"0.0-118.0","task_version":"battery-v0.2"},{"rune":"N","rune_set":"bacs1","hex":"#3366ff99","correct":-1,"choice":-1,"rt":-1,"accuracy":1,"outcome":"+10","keys":[],"total_keys":0,"block":1,"trial":118,"stimulus":11,"robot":2,"valence":"win","action":"no-go","sham":0,"trial_type":"pit-trial","trial_index":143,"time_elapsed":755753,"internal_node_id":"0.0-119.0","task_version":"battery-v0.2"},{"rune":"I","rune_set":"bacs1","hex":"#f73b6a7A","correct":32,"choice":32,"rt":682.2800000008428,"accuracy":1,"outcome":"-1","keys":[2182.889999996405],"total_keys":1,"block":1,"trial":119,"stimulus":9,"robot":3,"valence":"lose","action":"go","sham":0,"trial_type":"pit-trial","trial_index":144,"time_elapsed":759139,"internal_node_id":"0.0-120.0","task_version":"battery-v0.2"},{"rune":"G","rune_set":"bacs1","hex":"#f73b6a7A","correct":-1,"choice":-1,"rt":-1,"accuracy":1,"outcome":"-1","keys":[],"total_keys":0,"block":1,"trial":120,"stimulus":10,"robot":4,"valence":"lose","action":"no-go","sham":0,"trial_type":"pit-trial","trial_index":145,"time_elapsed":763142,"internal_node_id":"0.0-121.0","task_version":"battery-v0.2"},{"view_history":"[{\"page_index\":0,\"viewing_time\":3780.334999995888},{\"page_index\":1,\"viewing_time\":3144.135000002221}]","rt":6924.8700000025565,"trial_type":"pit-instructions","trial_index":146,"time_elapsed":770069,"internal_node_id":"0.0-122.0","task_version":"battery-v0.2"},{"rune":"Z","rune_set":"bacs1","hex":"#f73b6a7A","correct":-1,"choice":-1,"rt":-1,"accuracy":1,"outcome":"-1","keys":[],"total_keys":0,"block":2,"trial":121,"stimulus":1,"robot":4,"valence":"lose","action":"no-go","sham":0,"trial_type":"pit-trial","trial_index":147,"time_elapsed":774073,"internal_node_id":"0.0-123.0","task_version":"battery-v0.2"},{"rune":"R","rune_set":"bacs1","hex":"#3366ff99","correct":-1,"choice":-1,"rt":-1,"accuracy":1,"outcome":"+1","keys":[],"total_keys":0,"block":2,"trial":122,"stimulus":3,"robot":2,"valence":"win","action":"no-go","sham":1,"trial_type":"pit-trial","trial_index":148,"time_elapsed":778076,"internal_node_id":"0.0-124.0","task_version":"battery-v0.2"},{"rune":"J","rune_set":"bacs1","hex":"#3366ff99","correct":32,"choice":32,"rt":727.9899999992922,"accuracy":1,"outcome":"+10","keys":[2228.669999996666],"total_keys":1,"block":2,"trial":123,"stimulus":2,"robot":1,"valence":"win","action":"go","sham":0,"trial_type":"pit-trial","trial_index":149,"time_elapsed":781507,"internal_node_id":"0.0-125.0","task_version":"battery-v0.2"},{"rune":"B","rune_set":"bacs1","hex":"#f73b6a7A","correct":-1,"choice":-1,"rt":-1,"accuracy":1,"outcome":"-1","keys":[],"total_keys":0,"block":2,"trial":124,"stimulus":0,"robot":4,"valence":"lose","action":"no-go","sham":0,"trial_type":"pit-trial","trial_index":150,"time_elapsed":785510,"internal_node_id":"0.0-126.0","task_version":"battery-v0.2"},{"rune":"Z","rune_set":"bacs1","hex":"#f73b6a7A","correct":-1,"choice":-1,"rt":-1,"accuracy":1,"outcome":"-1","keys":[],"total_keys":0,"block":2,"trial":125,"stimulus":1,"robot":4,"valence":"lose","action":"no-go","sham":0,"trial_type":"pit-trial","trial_index":151,"time_elapsed":789514,"internal_node_id":"0.0-127.0","task_version":"battery-v0.2"},{"rune":"J","rune_set":"bacs1","hex":"#3366ff99","correct":32,"choice":-1,"rt":-1,"accuracy":0,"outcome":"+1","keys":[],"total_keys":0,"block":2,"trial":126,"stimulus":2,"robot":1,"valence":"win","action":"go","sham":0,"trial_type":"pit-trial","trial_index":152,"time_elapsed":793517,"internal_node_id":"0.0-128.0","task_version":"battery-v0.2"},{"rune":"B","rune_set":"bacs1","hex":"#f73b6a7A","correct":-1,"choice":-1,"rt":-1,"accuracy":1,"outcome":"-1","keys":[],"total_keys":0,"block":2,"trial":127,"stimulus":0,"robot":4,"valence":"lose","action":"no-go","sham":0,"trial_type":"pit-trial","trial_index":153,"time_elapsed":797520,"internal_node_id":"0.0-129.0","task_version":"battery-v0.2"},{"rune":"R","rune_set":"bacs1","hex":"#3366ff99","correct":-1,"choice":-1,"rt":-1,"accuracy":1,"outcome":"+1","keys":[],"total_keys":0,"block":2,"trial":128,"stimulus":3,"robot":2,"valence":"win","action":"no-go","sham":1,"trial_type":"pit-trial","trial_index":154,"time_elapsed":801523,"internal_node_id":"0.0-130.0","task_version":"battery-v0.2"},{"rune":"Z","rune_set":"bacs1","hex":"#f73b6a7A","correct":-1,"choice":-1,"rt":-1,"accuracy":1,"outcome":"-1","keys":[],"total_keys":0,"block":2,"trial":129,"stimulus":1,"robot":4,"valence":"lose","action":"no-go","sham":0,"trial_type":"pit-trial","trial_index":155,"time_elapsed":805526,"internal_node_id":"0.0-131.0","task_version":"battery-v0.2"},{"rune":"B","rune_set":"bacs1","hex":"#f73b6a7A","correct":-1,"choice":-1,"rt":-1,"accuracy":1,"outcome":"-10","keys":[],"total_keys":0,"block":2,"trial":130,"stimulus":0,"robot":4,"valence":"lose","action":"no-go","sham":1,"trial_type":"pit-trial","trial_index":156,"time_elapsed":809530,"internal_node_id":"0.0-132.0","task_version":"battery-v0.2"},{"rune":"J","rune_set":"bacs1","hex":"#3366ff99","correct":32,"choice":-1,"rt":-1,"accuracy":0,"outcome":"+1","keys":[],"total_keys":0,"block":2,"trial":131,"stimulus":2,"robot":1,"valence":"win","action":"go","sham":0,"trial_type":"pit-trial","trial_index":157,"time_elapsed":813533,"internal_node_id":"0.0-133.0","task_version":"battery-v0.2"},{"rune":"R","rune_set":"bacs1","hex":"#3366ff99","correct":-1,"choice":32,"rt":462.9750000021886,"accuracy":0,"outcome":"+1","keys":[1963.5899999993853],"total_keys":1,"block":2,"trial":132,"stimulus":3,"robot":2,"valence":"win","action":"no-go","sham":0,"trial_type":"pit-trial","trial_index":158,"time_elapsed":816699,"internal_node_id":"0.0-134.0","task_version":"battery-v0.2"},{"rune":"J","rune_set":"bacs1","hex":"#3366ff99","correct":32,"choice":32,"rt":456.57000000216067,"accuracy":1,"outcome":"+10","keys":[1957.1550000036368],"total_keys":1,"block":2,"trial":133,"stimulus":2,"robot":1,"valence":"win","action":"go","sham":0,"trial_type":"pit-trial","trial_index":159,"time_elapsed":819858,"internal_node_id":"0.0-135.0","task_version":"battery-v0.2"},{"rune":"Z","rune_set":"bacs1","hex":"#f73b6a7A","correct":-1,"choice":-1,"rt":-1,"accuracy":1,"outcome":"-1","keys":[],"total_keys":0,"block":2,"trial":134,"stimulus":1,"robot":4,"valence":"lose","action":"no-go","sham":0,"trial_type":"pit-trial","trial_index":160,"time_elapsed":823861,"internal_node_id":"0.0-136.0","task_version":"battery-v0.2"},{"rune":"B","rune_set":"bacs1","hex":"#f73b6a7A","correct":-1,"choice":-1,"rt":-1,"accuracy":1,"outcome":"-1","keys":[],"total_keys":0,"block":2,"trial":135,"stimulus":0,"robot":4,"valence":"lose","action":"no-go","sham":0,"trial_type":"pit-trial","trial_index":161,"time_elapsed":827865,"internal_node_id":"0.0-137.0","task_version":"battery-v0.2"},{"rune":"R","rune_set":"bacs1","hex":"#3366ff99","correct":-1,"choice":32,"rt":395.17000000341795,"accuracy":0,"outcome":"+1","keys":[1895.7650000011781],"total_keys":1,"block":2,"trial":136,"stimulus":3,"robot":2,"valence":"win","action":"no-go","sham":0,"trial_type":"pit-trial","trial_index":162,"time_elapsed":830963,"internal_node_id":"0.0-138.0","task_version":"battery-v0.2"},{"rune":"J","rune_set":"bacs1","hex":"#3366ff99","correct":32,"choice":32,"rt":457.0450000029523,"accuracy":1,"outcome":"+10","keys":[1957.3900000032736],"total_keys":1,"block":2,"trial":137,"stimulus":2,"robot":1,"valence":"win","action":"go","sham":0,"trial_type":"pit-trial","trial_index":163,"time_elapsed":834122,"internal_node_id":"0.0-139.0","task_version":"battery-v0.2"},{"rune":"R","rune_set":"bacs1","hex":"#3366ff99","correct":-1,"choice":-1,"rt":-1,"accuracy":1,"outcome":"+10","keys":[],"total_keys":0,"block":2,"trial":138,"stimulus":3,"robot":2,"valence":"win","action":"no-go","sham":0,"trial_type":"pit-trial","trial_index":164,"time_elapsed":838125,"internal_node_id":"0.0-140.0","task_version":"battery-v0.2"},{"rune":"Z","rune_set":"bacs1","hex":"#f73b6a7A","correct":-1,"choice":-1,"rt":-1,"accuracy":1,"outcome":"-1","keys":[],"total_keys":0,"block":2,"trial":139,"stimulus":1,"robot":4,"valence":"lose","action":"no-go","sham":0,"trial_type":"pit-trial","trial_index":165,"time_elapsed":842129,"internal_node_id":"0.0-141.0","task_version":"battery-v0.2"},{"rune":"B","rune_set":"bacs1","hex":"#f73b6a7A","correct":-1,"choice":-1,"rt":-1,"accuracy":1,"outcome":"-1","keys":[],"total_keys":0,"block":2,"trial":140,"stimulus":0,"robot":4,"valence":"lose","action":"no-go","sham":0,"trial_type":"pit-trial","trial_index":166,"time_elapsed":846132,"internal_node_id":"0.0-142.0","task_version":"battery-v0.2"},{"rune":"J","rune_set":"bacs1","hex":"#3366ff99","correct":32,"choice":-1,"rt":-1,"accuracy":0,"outcome":"+1","keys":[],"total_keys":0,"block":2,"trial":141,"stimulus":2,"robot":1,"valence":"win","action":"go","sham":0,"trial_type":"pit-trial","trial_index":167,"time_elapsed":850135,"internal_node_id":"0.0-143.0","task_version":"battery-v0.2"},{"rune":"Z","rune_set":"bacs1","hex":"#f73b6a7A","correct":-1,"choice":-1,"rt":-1,"accuracy":1,"outcome":"-1","keys":[],"total_keys":0,"block":2,"trial":142,"stimulus":1,"robot":4,"valence":"lose","action":"no-go","sham":0,"trial_type":"pit-trial","trial_index":168,"time_elapsed":854138,"internal_node_id":"0.0-144.0","task_version":"battery-v0.2"},{"rune":"B","rune_set":"bacs1","hex":"#f73b6a7A","correct":-1,"choice":-1,"rt":-1,"accuracy":1,"outcome":"-10","keys":[],"total_keys":0,"block":2,"trial":143,"stimulus":0,"robot":4,"valence":"lose","action":"no-go","sham":1,"trial_type":"pit-trial","trial_index":169,"time_elapsed":858141,"internal_node_id":"0.0-145.0","task_version":"battery-v0.2"},{"rune":"R","rune_set":"bacs1","hex":"#3366ff99","correct":-1,"choice":32,"rt":454.46999999694526,"accuracy":0,"outcome":"+1","keys":[1955.0450000023702],"total_keys":1,"block":2,"trial":144,"stimulus":3,"robot":2,"valence":"win","action":"no-go","sham":0,"trial_type":"pit-trial","trial_index":170,"time_elapsed":861298,"internal_node_id":"0.0-146.0","task_version":"battery-v0.2"},{"rune":"B","rune_set":"bacs1","hex":"#f73b6a7A","correct":-1,"choice":-1,"rt":-1,"accuracy":1,"outcome":"-1","keys":[],"total_keys":0,"block":2,"trial":145,"stimulus":0,"robot":4,"valence":"lose","action":"no-go","sham":0,"trial_type":"pit-trial","trial_index":171,"time_elapsed":865302,"internal_node_id":"0.0-147.0","task_version":"battery-v0.2"},{"rune":"Z","rune_set":"bacs1","hex":"#f73b6a7A","correct":-1,"choice":-1,"rt":-1,"accuracy":1,"outcome":"-10","keys":[],"total_keys":0,"block":2,"trial":146,"stimulus":1,"robot":4,"valence":"lose","action":"no-go","sham":1,"trial_type":"pit-trial","trial_index":172,"time_elapsed":869305,"internal_node_id":"0.0-148.0","task_version":"battery-v0.2"},{"rune":"J","rune_set":"bacs1","hex":"#3366ff99","correct":32,"choice":32,"rt":498.83499999856576,"accuracy":1,"outcome":"+10","keys":[1999.4599999990314],"total_keys":1,"block":2,"trial":147,"stimulus":2,"robot":1,"valence":"win","action":"go","sham":0,"trial_type":"pit-trial","trial_index":173,"time_elapsed":872506,"internal_node_id":"0.0-149.0","task_version":"battery-v0.2"},{"rune":"R","rune_set":"bacs1","hex":"#3366ff99","correct":-1,"choice":32,"rt":569.4199999996927,"accuracy":0,"outcome":"+1","keys":[2070.0049999940675],"total_keys":1,"block":2,"trial":148,"stimulus":3,"robot":2,"valence":"win","action":"no-go","sham":0,"trial_type":"pit-trial","trial_index":174,"time_elapsed":875778,"internal_node_id":"0.0-150.0","task_version":"battery-v0.2"},{"rune":"J","rune_set":"bacs1","hex":"#3366ff99","correct":32,"choice":32,"rt":505.4350000064587,"accuracy":1,"outcome":"+10","keys":[2005.7349999989383],"total_keys":1,"block":2,"trial":149,"stimulus":2,"robot":1,"valence":"win","action":"go","sham":0,"trial_type":"pit-trial","trial_index":175,"time_elapsed":878986,"internal_node_id":"0.0-151.0","task_version":"battery-v0.2"},{"rune":"B","rune_set":"bacs1","hex":"#f73b6a7A","correct":-1,"choice":-1,"rt":-1,"accuracy":1,"outcome":"-1","keys":[],"total_keys":0,"block":2,"trial":150,"stimulus":0,"robot":4,"valence":"lose","action":"no-go","sham":0,"trial_type":"pit-trial","trial_index":176,"time_elapsed":882989,"internal_node_id":"0.0-152.0","task_version":"battery-v0.2"},{"rune":"Z","rune_set":"bacs1","hex":"#f73b6a7A","correct":-1,"choice":-1,"rt":-1,"accuracy":1,"outcome":"-1","keys":[],"total_keys":0,"block":2,"trial":151,"stimulus":1,"robot":4,"valence":"lose","action":"no-go","sham":0,"trial_type":"pit-trial","trial_index":177,"time_elapsed":886994,"internal_node_id":"0.0-153.0","task_version":"battery-v0.2"},{"rune":"R","rune_set":"bacs1","hex":"#3366ff99","correct":-1,"choice":-1,"rt":-1,"accuracy":1,"outcome":"+10","keys":[],"total_keys":0,"block":2,"trial":152,"stimulus":3,"robot":2,"valence":"win","action":"no-go","sham":0,"trial_type":"pit-trial","trial_index":178,"time_elapsed":890994,"internal_node_id":"0.0-154.0","task_version":"battery-v0.2"},{"rune":"J","rune_set":"bacs1","hex":"#3366ff99","correct":32,"choice":32,"rt":446.6000000028871,"accuracy":1,"outcome":"+10","keys":[1947.3199999992503],"total_keys":1,"block":2,"trial":153,"stimulus":2,"robot":1,"valence":"win","action":"go","sham":0,"trial_type":"pit-trial","trial_index":179,"time_elapsed":894143,"internal_node_id":"0.0-155.0","task_version":"battery-v0.2"},{"rune":"B","rune_set":"bacs1","hex":"#f73b6a7A","correct":-1,"choice":-1,"rt":-1,"accuracy":1,"outcome":"-1","keys":[],"total_keys":0,"block":2,"trial":154,"stimulus":0,"robot":4,"valence":"lose","action":"no-go","sham":0,"trial_type":"pit-trial","trial_index":180,"time_elapsed":898146,"internal_node_id":"0.0-156.0","task_version":"battery-v0.2"},{"rune":"V","rune_set":"bacs1","hex":"#f73b6a7A","correct":32,"choice":-1,"rt":-1,"accuracy":0,"outcome":"-10","keys":[],"total_keys":0,"block":2,"trial":155,"stimulus":4,"robot":3,"valence":"lose","action":"go","sham":0,"trial_type":"pit-trial","trial_index":181,"time_elapsed":902150,"internal_node_id":"0.0-157.0","task_version":"battery-v0.2"},{"rune":"R","rune_set":"bacs1","hex":"#3366ff99","correct":-1,"choice":-1,"rt":-1,"accuracy":1,"outcome":"+1","keys":[],"total_keys":0,"block":2,"trial":156,"stimulus":3,"robot":2,"valence":"win","action":"no-go","sham":1,"trial_type":"pit-trial","trial_index":182,"time_elapsed":906153,"internal_node_id":"0.0-158.0","task_version":"battery-v0.2"},{"rune":"B","rune_set":"bacs1","hex":"#f73b6a7A","correct":-1,"choice":-1,"rt":-1,"accuracy":1,"outcome":"-10","keys":[],"total_keys":0,"block":2,"trial":157,"stimulus":0,"robot":4,"valence":"lose","action":"no-go","sham":1,"trial_type":"pit-trial","trial_index":183,"time_elapsed":910156,"internal_node_id":"0.0-159.0","task_version":"battery-v0.2"},{"rune":"V","rune_set":"bacs1","hex":"#f73b6a7A","correct":32,"choice":-1,"rt":-1,"accuracy":0,"outcome":"-10","keys":[],"total_keys":0,"block":2,"trial":158,"stimulus":4,"robot":3,"valence":"lose","action":"go","sham":0,"trial_type":"pit-trial","trial_index":184,"time_elapsed":914159,"internal_node_id":"0.0-160.0","task_version":"battery-v0.2"},{"rune":"R","rune_set":"bacs1","hex":"#3366ff99","correct":-1,"choice":-1,"rt":-1,"accuracy":1,"outcome":"+10","keys":[],"total_keys":0,"block":2,"trial":159,"stimulus":3,"robot":2,"valence":"win","action":"no-go","sham":0,"trial_type":"pit-trial","trial_index":185,"time_elapsed":918162,"internal_node_id":"0.0-161.0","task_version":"battery-v0.2"},{"rune":"J","rune_set":"bacs1","hex":"#3366ff99","correct":32,"choice":32,"rt":550.1399999994319,"accuracy":1,"outcome":"+10","keys":[2050.7750000033993],"total_keys":1,"block":2,"trial":160,"stimulus":2,"robot":1,"valence":"win","action":"go","sham":0,"trial_type":"pit-trial","trial_index":186,"time_elapsed":921416,"internal_node_id":"0.0-162.0","task_version":"battery-v0.2"},{"rune":"E","rune_set":"bacs1","hex":"#3366ff99","correct":-1,"choice":-1,"rt":-1,"accuracy":1,"outcome":"+1","keys":[],"total_keys":0,"block":2,"trial":161,"stimulus":5,"robot":2,"valence":"win","action":"no-go","sham":1,"trial_type":"pit-trial","trial_index":187,"time_elapsed":925419,"internal_node_id":"0.0-163.0","task_version":"battery-v0.2"},{"rune":"V","rune_set":"bacs1","hex":"#f73b6a7A","correct":32,"choice":-1,"rt":-1,"accuracy":0,"outcome":"-10","keys":[],"total_keys":0,"block":2,"trial":162,"stimulus":4,"robot":3,"valence":"lose","action":"go","sham":0,"trial_type":"pit-trial","trial_index":188,"time_elapsed":929422,"internal_node_id":"0.0-164.0","task_version":"battery-v0.2"},{"rune":"T","rune_set":"bacs1","hex":"#3366ff99","correct":32,"choice":-1,"rt":-1,"accuracy":0,"outcome":"+10","keys":[],"total_keys":0,"block":2,"trial":163,"stimulus":6,"robot":1,"valence":"win","action":"go","sham":1,"trial_type":"pit-trial","trial_index":189,"time_elapsed":933425,"internal_node_id":"0.0-165.0","task_version":"battery-v0.2"},{"rune":"B","rune_set":"bacs1","hex":"#f73b6a7A","correct":-1,"choice":-1,"rt":-1,"accuracy":1,"outcome":"-1","keys":[],"total_keys":0,"block":2,"trial":164,"stimulus":0,"robot":4,"valence":"lose","action":"no-go","sham":0,"trial_type":"pit-trial","trial_index":190,"time_elapsed":937428,"internal_node_id":"0.0-166.0","task_version":"battery-v0.2"},{"rune":"V","rune_set":"bacs1","hex":"#f73b6a7A","correct":32,"choice":-1,"rt":-1,"accuracy":0,"outcome":"-10","keys":[],"total_keys":0,"block":2,"trial":165,"stimulus":4,"robot":3,"valence":"lose","action":"go","sham":0,"trial_type":"pit-trial","trial_index":191,"time_elapsed":941431,"internal_node_id":"0.0-167.0","task_version":"battery-v0.2"},{"rune":"T","rune_set":"bacs1","hex":"#3366ff99","correct":32,"choice":-1,"rt":-1,"accuracy":0,"outcome":"+1","keys":[3253.404999995837],"total_keys":1,"block":2,"trial":166,"stimulus":6,"robot":1,"valence":"win","action":"go","sham":0,"trial_type":"pit-trial","trial_index":192,"time_elapsed":945435,"internal_node_id":"0.0-168.0","task_version":"battery-v0.2"},{"rune":"B","rune_set":"bacs1","hex":"#f73b6a7A","correct":-1,"choice":-1,"rt":-1,"accuracy":1,"outcome":"-1","keys":[],"total_keys":0,"block":2,"trial":167,"stimulus":0,"robot":4,"valence":"lose","action":"no-go","sham":0,"trial_type":"pit-trial","trial_index":193,"time_elapsed":949439,"internal_node_id":"0.0-169.0","task_version":"battery-v0.2"},{"rune":"E","rune_set":"bacs1","hex":"#3366ff99","correct":-1,"choice":32,"rt":777.9300000038929,"accuracy":0,"outcome":"+10","keys":[2278.4600000013597],"total_keys":1,"block":2,"trial":168,"stimulus":5,"robot":2,"valence":"win","action":"no-go","sham":1,"trial_type":"pit-trial","trial_index":194,"time_elapsed":952920,"internal_node_id":"0.0-170.0","task_version":"battery-v0.2"},{"rune":"T","rune_set":"bacs1","hex":"#3366ff99","correct":32,"choice":32,"rt":842.0399999959627,"accuracy":1,"outcome":"+10","keys":[2342.489999995567],"total_keys":1,"block":2,"trial":169,"stimulus":6,"robot":1,"valence":"win","action":"go","sham":0,"trial_type":"pit-trial","trial_index":195,"time_elapsed":956465,"internal_node_id":"0.0-171.0","task_version":"battery-v0.2"},{"rune":"E","rune_set":"bacs1","hex":"#3366ff99","correct":-1,"choice":32,"rt":744.5699999952922,"accuracy":0,"outcome":"+1","keys":[2245.2049999992596],"total_keys":1,"block":2,"trial":170,"stimulus":5,"robot":2,"valence":"win","action":"no-go","sham":0,"trial_type":"pit-trial","trial_index":196,"time_elapsed":959912,"internal_node_id":"0.0-172.0","task_version":"battery-v0.2"},{"rune":"V","rune_set":"bacs1","hex":"#f73b6a7A","correct":32,"choice":32,"rt":473.3699999996461,"accuracy":1,"outcome":"-1","keys":[1973.9750000007916],"total_keys":1,"block":2,"trial":171,"stimulus":4,"robot":3,"valence":"lose","action":"go","sham":0,"trial_type":"pit-trial","trial_index":197,"time_elapsed":963088,"internal_node_id":"0.0-173.0","task_version":"battery-v0.2"},{"rune":"F","rune_set":"bacs1","hex":"#f73b6a7A","correct":-1,"choice":-1,"rt":-1,"accuracy":1,"outcome":"-10","keys":[],"total_keys":0,"block":2,"trial":172,"stimulus":7,"robot":4,"valence":"lose","action":"no-go","sham":1,"trial_type":"pit-trial","trial_index":198,"time_elapsed":967091,"internal_node_id":"0.0-174.0","task_version":"battery-v0.2"},{"rune":"F","rune_set":"bacs1","hex":"#f73b6a7A","correct":-1,"choice":32,"rt":566.2650000012945,"accuracy":0,"outcome":"-1","keys":[2066.9100000014296],"total_keys":1,"block":2,"trial":173,"stimulus":7,"robot":4,"valence":"lose","action":"no-go","sham":1,"trial_type":"pit-trial","trial_index":199,"time_elapsed":970360,"internal_node_id":"0.0-175.0","task_version":"battery-v0.2"},{"rune":"V","rune_set":"bacs1","hex":"#f73b6a7A","correct":32,"choice":32,"rt":440.77500000270084,"accuracy":1,"outcome":"-1","keys":[1941.3649999988265],"total_keys":1,"block":2,"trial":174,"stimulus":4,"robot":3,"valence":"lose","action":"go","sham":0,"trial_type":"pit-trial","trial_index":200,"time_elapsed":973503,"internal_node_id":"0.0-176.0","task_version":"battery-v0.2"},{"rune":"E","rune_set":"bacs1","hex":"#3366ff99","correct":-1,"choice":32,"rt":553.8900000029244,"accuracy":0,"outcome":"+1","keys":[2054.1599999996834],"total_keys":1,"block":2,"trial":175,"stimulus":5,"robot":2,"valence":"win","action":"no-go","sham":0,"trial_type":"pit-trial","trial_index":201,"time_elapsed":976760,"internal_node_id":"0.0-177.0","task_version":"battery-v0.2"},{"rune":"T","rune_set":"bacs1","hex":"#3366ff99","correct":32,"choice":32,"rt":625.755000000936,"accuracy":1,"outcome":"+10","keys":[2125.8249999955297],"total_keys":1,"block":2,"trial":176,"stimulus":6,"robot":1,"valence":"win","action":"go","sham":0,"trial_type":"pit-trial","trial_index":202,"time_elapsed":980088,"internal_node_id":"0.0-178.0","task_version":"battery-v0.2"},{"rune":"T","rune_set":"bacs1","hex":"#3366ff99","correct":32,"choice":32,"rt":513.4299999990035,"accuracy":1,"outcome":"+1","keys":[2014.0150000007125],"total_keys":1,"block":2,"trial":177,"stimulus":6,"robot":1,"valence":"win","action":"go","sham":1,"trial_type":"pit-trial","trial_index":203,"time_elapsed":983304,"internal_node_id":"0.0-179.0","task_version":"battery-v0.2"},{"rune":"V","rune_set":"bacs1","hex":"#f73b6a7A","correct":32,"choice":32,"rt":512.9949999973178,"accuracy":1,"outcome":"-1","keys":[2013.7049999975134],"total_keys":1,"block":2,"trial":178,"stimulus":4,"robot":3,"valence":"lose","action":"go","sham":0,"trial_type":"pit-trial","trial_index":204,"time_elapsed":986520,"internal_node_id":"0.0-180.0","task_version":"battery-v0.2"},{"rune":"E","rune_set":"bacs1","hex":"#3366ff99","correct":-1,"choice":32,"rt":496.89000000210945,"accuracy":0,"outcome":"+1","keys":[1997.4599999986822],"total_keys":1,"block":2,"trial":179,"stimulus":5,"robot":2,"valence":"win","action":"no-go","sham":0,"trial_type":"pit-trial","trial_index":205,"time_elapsed":989719,"internal_node_id":"0.0-181.0","task_version":"battery-v0.2"},{"rune":"F","rune_set":"bacs1","hex":"#f73b6a7A","correct":-1,"choice":-1,"rt":-1,"accuracy":1,"outcome":"-1","keys":[],"total_keys":0,"block":2,"trial":180,"stimulus":7,"robot":4,"valence":"lose","action":"no-go","sham":0,"trial_type":"pit-trial","trial_index":206,"time_elapsed":993722,"internal_node_id":"0.0-182.0","task_version":"battery-v0.2"},{"rune":"V","rune_set":"bacs1","hex":"#f73b6a7A","correct":32,"choice":32,"rt":502.71000000066124,"accuracy":1,"outcome":"-1","keys":[2003.290000000503],"total_keys":1,"block":2,"trial":181,"stimulus":4,"robot":3,"valence":"lose","action":"go","sham":0,"trial_type":"pit-trial","trial_index":207,"time_elapsed":996927,"internal_node_id":"0.0-183.0","task_version":"battery-v0.2"},{"rune":"F","rune_set":"bacs1","hex":"#f73b6a7A","correct":-1,"choice":-1,"rt":-1,"accuracy":1,"outcome":"-1","keys":[],"total_keys":0,"block":2,"trial":182,"stimulus":7,"robot":4,"valence":"lose","action":"no-go","sham":0,"trial_type":"pit-trial","trial_index":208,"time_elapsed":1000931,"internal_node_id":"0.0-184.0","task_version":"battery-v0.2"},{"rune":"E","rune_set":"bacs1","hex":"#3366ff99","correct":-1,"choice":32,"rt":470.09499999694526,"accuracy":0,"outcome":"+1","keys":[1970.7500000003492],"total_keys":1,"block":2,"trial":183,"stimulus":5,"robot":2,"valence":"win","action":"no-go","sham":0,"trial_type":"pit-trial","trial_index":209,"time_elapsed":1004104,"internal_node_id":"0.0-185.0","task_version":"battery-v0.2"},{"rune":"T","rune_set":"bacs1","hex":"#3366ff99","correct":32,"choice":32,"rt":521.0650000008754,"accuracy":1,"outcome":"+10","keys":[2021.660000005737],"total_keys":1,"block":2,"trial":184,"stimulus":6,"robot":1,"valence":"win","action":"go","sham":0,"trial_type":"pit-trial","trial_index":210,"time_elapsed":1007328,"internal_node_id":"0.0-186.0","task_version":"battery-v0.2"},{"rune":"V","rune_set":"bacs1","hex":"#f73b6a7A","correct":32,"choice":32,"rt":416.64500000479165,"accuracy":1,"outcome":"-1","keys":[1917.3099999971455],"total_keys":1,"block":2,"trial":185,"stimulus":4,"robot":3,"valence":"lose","action":"go","sham":0,"trial_type":"pit-trial","trial_index":211,"time_elapsed":1010447,"internal_node_id":"0.0-187.0","task_version":"battery-v0.2"},{"rune":"F","rune_set":"bacs1","hex":"#f73b6a7A","correct":-1,"choice":-1,"rt":-1,"accuracy":1,"outcome":"-1","keys":[],"total_keys":0,"block":2,"trial":186,"stimulus":7,"robot":4,"valence":"lose","action":"no-go","sham":0,"trial_type":"pit-trial","trial_index":212,"time_elapsed":1014450,"internal_node_id":"0.0-188.0","task_version":"battery-v0.2"},{"rune":"E","rune_set":"bacs1","hex":"#3366ff99","correct":-1,"choice":32,"rt":502.48999999905936,"accuracy":0,"outcome":"+1","keys":[2003.100000001723],"total_keys":1,"block":2,"trial":187,"stimulus":5,"robot":2,"valence":"win","action":"no-go","sham":0,"trial_type":"pit-trial","trial_index":213,"time_elapsed":1017655,"internal_node_id":"0.0-189.0","task_version":"battery-v0.2"},{"rune":"T","rune_set":"bacs1","hex":"#3366ff99","correct":32,"choice":32,"rt":505.0400000036461,"accuracy":1,"outcome":"+10","keys":[2005.744999994873],"total_keys":1,"block":2,"trial":188,"stimulus":6,"robot":1,"valence":"win","action":"go","sham":0,"trial_type":"pit-trial","trial_index":214,"time_elapsed":1020863,"internal_node_id":"0.0-190.0","task_version":"battery-v0.2"},{"rune":"V","rune_set":"bacs1","hex":"#f73b6a7A","correct":32,"choice":32,"rt":528.8799999980256,"accuracy":1,"outcome":"-10","keys":[2029.3799999998882],"total_keys":1,"block":2,"trial":189,"stimulus":4,"robot":3,"valence":"lose","action":"go","sham":1,"trial_type":"pit-trial","trial_index":215,"time_elapsed":1024095,"internal_node_id":"0.0-191.0","task_version":"battery-v0.2"},{"rune":"F","rune_set":"bacs1","hex":"#f73b6a7A","correct":-1,"choice":-1,"rt":-1,"accuracy":1,"outcome":"-10","keys":[],"total_keys":0,"block":2,"trial":190,"stimulus":7,"robot":4,"valence":"lose","action":"no-go","sham":1,"trial_type":"pit-trial","trial_index":216,"time_elapsed":1028098,"internal_node_id":"0.0-192.0","task_version":"battery-v0.2"},{"rune":"E","rune_set":"bacs1","hex":"#3366ff99","correct":-1,"choice":32,"rt":486.72500000242144,"accuracy":0,"outcome":"+1","keys":[1986.8300000017043],"total_keys":1,"block":2,"trial":191,"stimulus":5,"robot":2,"valence":"win","action":"no-go","sham":0,"trial_type":"pit-trial","trial_index":217,"time_elapsed":1031287,"internal_node_id":"0.0-193.0","task_version":"battery-v0.2"},{"rune":"T","rune_set":"bacs1","hex":"#3366ff99","correct":32,"choice":32,"rt":609.2449999996461,"accuracy":1,"outcome":"+10","keys":[2109.870000000228],"total_keys":1,"block":2,"trial":192,"stimulus":6,"robot":1,"valence":"win","action":"go","sham":0,"trial_type":"pit-trial","trial_index":218,"time_elapsed":1034599,"internal_node_id":"0.0-194.0","task_version":"battery-v0.2"},{"rune":"E","rune_set":"bacs1","hex":"#3366ff99","correct":-1,"choice":32,"rt":537.0800000018207,"accuracy":0,"outcome":"+10","keys":[2037.7599999991944],"total_keys":1,"block":2,"trial":193,"stimulus":5,"robot":2,"valence":"win","action":"no-go","sham":1,"trial_type":"pit-trial","trial_index":219,"time_elapsed":1037839,"internal_node_id":"0.0-195.0","task_version":"battery-v0.2"},{"rune":"C","rune_set":"bacs1","hex":"#f73b6a7A","correct":32,"choice":-1,"rt":-1,"accuracy":0,"outcome":"-1","keys":[],"total_keys":0,"block":2,"trial":194,"stimulus":9,"robot":3,"valence":"lose","action":"go","sham":1,"trial_type":"pit-trial","trial_index":220,"time_elapsed":1041842,"internal_node_id":"0.0-196.0","task_version":"battery-v0.2"},{"rune":"A","rune_set":"bacs1","hex":"#3366ff99","correct":32,"choice":-1,"rt":-1,"accuracy":0,"outcome":"+1","keys":[],"total_keys":0,"block":2,"trial":195,"stimulus":8,"robot":1,"valence":"win","action":"go","sham":0,"trial_type":"pit-trial","trial_index":221,"time_elapsed":1045846,"internal_node_id":"0.0-197.0","task_version":"battery-v0.2"},{"rune":"F","rune_set":"bacs1","hex":"#f73b6a7A","correct":-1,"choice":-1,"rt":-1,"accuracy":1,"outcome":"-1","keys":[],"total_keys":0,"block":2,"trial":196,"stimulus":7,"robot":4,"valence":"lose","action":"no-go","sham":0,"trial_type":"pit-trial","trial_index":222,"time_elapsed":1049849,"internal_node_id":"0.0-198.0","task_version":"battery-v0.2"},{"rune":"C","rune_set":"bacs1","hex":"#f73b6a7A","correct":32,"choice":-1,"rt":-1,"accuracy":0,"outcome":"-1","keys":[],"total_keys":0,"block":2,"trial":197,"stimulus":9,"robot":3,"valence":"lose","action":"go","sham":1,"trial_type":"pit-trial","trial_index":223,"time_elapsed":1053852,"internal_node_id":"0.0-199.0","task_version":"battery-v0.2"},{"rune":"A","rune_set":"bacs1","hex":"#3366ff99","correct":32,"choice":32,"rt":636.2850000006147,"accuracy":1,"outcome":"+10","keys":[2136.8550000041723],"total_keys":1,"block":2,"trial":198,"stimulus":8,"robot":1,"valence":"win","action":"go","sham":0,"trial_type":"pit-trial","trial_index":224,"time_elapsed":1057191,"internal_node_id":"0.0-200.0","task_version":"battery-v0.2"},{"rune":"E","rune_set":"bacs1","hex":"#3366ff99","correct":-1,"choice":32,"rt":568.8349999981001,"accuracy":0,"outcome":"+10","keys":[2069.4000000001397],"total_keys":1,"block":2,"trial":199,"stimulus":5,"robot":2,"valence":"win","action":"no-go","sham":1,"trial_type":"pit-trial","trial_index":225,"time_elapsed":1060462,"internal_node_id":"0.0-201.0","task_version":"battery-v0.2"},{"rune":"F","rune_set":"bacs1","hex":"#f73b6a7A","correct":-1,"choice":-1,"rt":-1,"accuracy":1,"outcome":"-1","keys":[],"total_keys":0,"block":2,"trial":200,"stimulus":7,"robot":4,"valence":"lose","action":"no-go","sham":0,"trial_type":"pit-trial","trial_index":226,"time_elapsed":1064465,"internal_node_id":"0.0-202.0","task_version":"battery-v0.2"},{"rune":"E","rune_set":"bacs1","hex":"#3366ff99","correct":-1,"choice":32,"rt":438.6400000003632,"accuracy":0,"outcome":"+10","keys":[1939.225000001723],"total_keys":1,"block":2,"trial":201,"stimulus":5,"robot":2,"valence":"win","action":"no-go","sham":1,"trial_type":"pit-trial","trial_index":227,"time_elapsed":1067607,"internal_node_id":"0.0-203.0","task_version":"battery-v0.2"},{"rune":"F","rune_set":"bacs1","hex":"#f73b6a7A","correct":-1,"choice":-1,"rt":-1,"accuracy":1,"outcome":"-10","keys":[],"total_keys":0,"block":2,"trial":202,"stimulus":7,"robot":4,"valence":"lose","action":"no-go","sham":1,"trial_type":"pit-trial","trial_index":228,"time_elapsed":1071610,"internal_node_id":"0.0-204.0","task_version":"battery-v0.2"},{"rune":"A","rune_set":"bacs1","hex":"#3366ff99","correct":32,"choice":32,"rt":525.9599999990314,"accuracy":1,"outcome":"+10","keys":[2026.5600000056438],"total_keys":1,"block":2,"trial":203,"stimulus":8,"robot":1,"valence":"win","action":"go","sham":0,"trial_type":"pit-trial","trial_index":229,"time_elapsed":1074840,"internal_node_id":"0.0-205.0","task_version":"battery-v0.2"},{"rune":"C","rune_set":"bacs1","hex":"#f73b6a7A","correct":32,"choice":-1,"rt":-1,"accuracy":0,"outcome":"-10","keys":[],"total_keys":0,"block":2,"trial":204,"stimulus":9,"robot":3,"valence":"lose","action":"go","sham":0,"trial_type":"pit-trial","trial_index":230,"time_elapsed":1078843,"internal_node_id":"0.0-206.0","task_version":"battery-v0.2"},{"rune":"A","rune_set":"bacs1","hex":"#3366ff99","correct":32,"choice":32,"rt":493.7100000025239,"accuracy":1,"outcome":"+10","keys":[1994.4200000027195],"total_keys":1,"block":2,"trial":205,"stimulus":8,"robot":1,"valence":"win","action":"go","sham":0,"trial_type":"pit-trial","trial_index":231,"time_elapsed":1082039,"internal_node_id":"0.0-207.0","task_version":"battery-v0.2"},{"rune":"E","rune_set":"bacs1","hex":"#3366ff99","correct":-1,"choice":32,"rt":473.35999999637716,"accuracy":0,"outcome":"+1","keys":[1973.9449999979697],"total_keys":1,"block":2,"trial":206,"stimulus":5,"robot":2,"valence":"win","action":"no-go","sham":0,"trial_type":"pit-trial","trial_index":232,"time_elapsed":1085215,"internal_node_id":"0.0-208.0","task_version":"battery-v0.2"},{"rune":"F","rune_set":"bacs1","hex":"#f73b6a7A","correct":-1,"choice":-1,"rt":-1,"accuracy":1,"outcome":"-1","keys":[],"total_keys":0,"block":2,"trial":207,"stimulus":7,"robot":4,"valence":"lose","action":"no-go","sham":0,"trial_type":"pit-trial","trial_index":233,"time_elapsed":1089218,"internal_node_id":"0.0-209.0","task_version":"battery-v0.2"},{"rune":"C","rune_set":"bacs1","hex":"#f73b6a7A","correct":32,"choice":-1,"rt":-1,"accuracy":0,"outcome":"-10","keys":[],"total_keys":0,"block":2,"trial":208,"stimulus":9,"robot":3,"valence":"lose","action":"go","sham":0,"trial_type":"pit-trial","trial_index":234,"time_elapsed":1093221,"internal_node_id":"0.0-210.0","task_version":"battery-v0.2"},{"rune":"C","rune_set":"bacs1","hex":"#f73b6a7A","correct":32,"choice":-1,"rt":-1,"accuracy":0,"outcome":"-10","keys":[],"total_keys":0,"block":2,"trial":209,"stimulus":9,"robot":3,"valence":"lose","action":"go","sham":0,"trial_type":"pit-trial","trial_index":235,"time_elapsed":1097225,"internal_node_id":"0.0-211.0","task_version":"battery-v0.2"},{"rune":"A","rune_set":"bacs1","hex":"#3366ff99","correct":32,"choice":32,"rt":487.8000000026077,"accuracy":1,"outcome":"+10","keys":[1988.4750000054482],"total_keys":1,"block":2,"trial":210,"stimulus":8,"robot":1,"valence":"win","action":"go","sham":0,"trial_type":"pit-trial","trial_index":236,"time_elapsed":1100415,"internal_node_id":"0.0-212.0","task_version":"battery-v0.2"},{"rune":"Q","rune_set":"bacs1","hex":"#3366ff99","correct":-1,"choice":32,"rt":553.4250000056345,"accuracy":0,"outcome":"+1","keys":[2054.0749999999534],"total_keys":1,"block":2,"trial":211,"stimulus":11,"robot":2,"valence":"win","action":"no-go","sham":0,"trial_type":"pit-trial","trial_index":237,"time_elapsed":1103671,"internal_node_id":"0.0-213.0","task_version":"battery-v0.2"},{"rune":"L","rune_set":"bacs1","hex":"#f73b6a7A","correct":32,"choice":-1,"rt":-1,"accuracy":0,"outcome":"-10","keys":[],"total_keys":0,"block":2,"trial":212,"stimulus":10,"robot":3,"valence":"lose","action":"go","sham":0,"trial_type":"pit-trial","trial_index":238,"time_elapsed":1107674,"internal_node_id":"0.0-214.0","task_version":"battery-v0.2"},{"rune":"Q","rune_set":"bacs1","hex":"#3366ff99","correct":-1,"choice":32,"rt":654.2100000004284,"accuracy":0,"outcome":"+1","keys":[2154.894999999786],"total_keys":1,"block":2,"trial":213,"stimulus":11,"robot":2,"valence":"win","action":"no-go","sham":0,"trial_type":"pit-trial","trial_index":239,"time_elapsed":1111031,"internal_node_id":"0.0-215.0","task_version":"battery-v0.2"},{"rune":"C","rune_set":"bacs1","hex":"#f73b6a7A","correct":32,"choice":-1,"rt":-1,"accuracy":0,"outcome":"-1","keys":[],"total_keys":0,"block":2,"trial":214,"stimulus":9,"robot":3,"valence":"lose","action":"go","sham":1,"trial_type":"pit-trial","trial_index":240,"time_elapsed":1115034,"internal_node_id":"0.0-216.0","task_version":"battery-v0.2"},{"rune":"L","rune_set":"bacs1","hex":"#f73b6a7A","correct":32,"choice":32,"rt":685.5199999990873,"accuracy":1,"outcome":"-1","keys":[2186.289999997709],"total_keys":1,"block":2,"trial":215,"stimulus":10,"robot":3,"valence":"lose","action":"go","sham":0,"trial_type":"pit-trial","trial_index":241,"time_elapsed":1118422,"internal_node_id":"0.0-217.0","task_version":"battery-v0.2"},{"rune":"A","rune_set":"bacs1","hex":"#3366ff99","correct":32,"choice":32,"rt":481.564999994589,"accuracy":1,"outcome":"+1","keys":[1982.2599999969825],"total_keys":1,"block":2,"trial":216,"stimulus":8,"robot":1,"valence":"win","action":"go","sham":1,"trial_type":"pit-trial","trial_index":242,"time_elapsed":1121607,"internal_node_id":"0.0-218.0","task_version":"battery-v0.2"},{"rune":"C","rune_set":"bacs1","hex":"#f73b6a7A","correct":32,"choice":-1,"rt":-1,"accuracy":0,"outcome":"-10","keys":[],"total_keys":0,"block":2,"trial":217,"stimulus":9,"robot":3,"valence":"lose","action":"go","sham":0,"trial_type":"pit-trial","trial_index":243,"time_elapsed":1125610,"internal_node_id":"0.0-219.0","task_version":"battery-v0.2"},{"rune":"A","rune_set":"bacs1","hex":"#3366ff99","correct":32,"choice":32,"rt":413.8149999997113,"accuracy":1,"outcome":"+10","keys":[1914.6550000002608],"total_keys":1,"block":2,"trial":218,"stimulus":8,"robot":1,"valence":"win","action":"go","sham":0,"trial_type":"pit-trial","trial_index":244,"time_elapsed":1128727,"internal_node_id":"0.0-220.0","task_version":"battery-v0.2"},{"rune":"Q","rune_set":"bacs1","hex":"#3366ff99","correct":-1,"choice":32,"rt":570.0900000010151,"accuracy":0,"outcome":"+1","keys":[2070.744999997085],"total_keys":1,"block":2,"trial":219,"stimulus":11,"robot":2,"valence":"win","action":"no-go","sham":0,"trial_type":"pit-trial","trial_index":245,"time_elapsed":1132000,"internal_node_id":"0.0-221.0","task_version":"battery-v0.2"},{"rune":"L","rune_set":"bacs1","hex":"#f73b6a7A","correct":32,"choice":32,"rt":544.5050000054762,"accuracy":1,"outcome":"-1","keys":[2045.160000001546],"total_keys":1,"block":2,"trial":220,"stimulus":10,"robot":3,"valence":"lose","action":"go","sham":0,"trial_type":"pit-trial","trial_index":246,"time_elapsed":1135247,"internal_node_id":"0.0-222.0","task_version":"battery-v0.2"},{"rune":"A","rune_set":"bacs1","hex":"#3366ff99","correct":32,"choice":32,"rt":449.3650000002235,"accuracy":1,"outcome":"+10","keys":[1949.9550000037998],"total_keys":1,"block":2,"trial":221,"stimulus":8,"robot":1,"valence":"win","action":"go","sham":0,"trial_type":"pit-trial","trial_index":247,"time_elapsed":1138400,"internal_node_id":"0.0-223.0","task_version":"battery-v0.2"},{"rune":"Q","rune_set":"bacs1","hex":"#3366ff99","correct":-1,"choice":32,"rt":689.1749999995809,"accuracy":0,"outcome":"+10","keys":[2189.7299999981187],"total_keys":1,"block":2,"trial":222,"stimulus":11,"robot":2,"valence":"win","action":"no-go","sham":1,"trial_type":"pit-trial","trial_index":248,"time_elapsed":1141792,"internal_node_id":"0.0-224.0","task_version":"battery-v0.2"},{"rune":"L","rune_set":"bacs1","hex":"#f73b6a7A","correct":32,"choice":32,"rt":529.1849999995902,"accuracy":1,"outcome":"-1","keys":[2029.804999998305],"total_keys":1,"block":2,"trial":223,"stimulus":10,"robot":3,"valence":"lose","action":"go","sham":0,"trial_type":"pit-trial","trial_index":249,"time_elapsed":1145024,"internal_node_id":"0.0-225.0","task_version":"battery-v0.2"},{"rune":"C","rune_set":"bacs1","hex":"#f73b6a7A","correct":32,"choice":-1,"rt":-1,"accuracy":0,"outcome":"-10","keys":[],"total_keys":0,"block":2,"trial":224,"stimulus":9,"robot":3,"valence":"lose","action":"go","sham":0,"trial_type":"pit-trial","trial_index":250,"time_elapsed":1149027,"internal_node_id":"0.0-226.0","task_version":"battery-v0.2"},{"rune":"Q","rune_set":"bacs1","hex":"#3366ff99","correct":-1,"choice":-1,"rt":-1,"accuracy":1,"outcome":"+10","keys":[],"total_keys":0,"block":2,"trial":225,"stimulus":11,"robot":2,"valence":"win","action":"no-go","sham":0,"trial_type":"pit-trial","trial_index":251,"time_elapsed":1153030,"internal_node_id":"0.0-227.0","task_version":"battery-v0.2"},{"rune":"L","rune_set":"bacs1","hex":"#f73b6a7A","correct":32,"choice":32,"rt":482.5249999994412,"accuracy":1,"outcome":"-1","keys":[1983.1950000007637],"total_keys":1,"block":2,"trial":226,"stimulus":10,"robot":3,"valence":"lose","action":"go","sham":0,"trial_type":"pit-trial","trial_index":252,"time_elapsed":1156215,"internal_node_id":"0.0-228.0","task_version":"battery-v0.2"},{"rune":"C","rune_set":"bacs1","hex":"#f73b6a7A","correct":32,"choice":-1,"rt":-1,"accuracy":0,"outcome":"-10","keys":[],"total_keys":0,"block":2,"trial":227,"stimulus":9,"robot":3,"valence":"lose","action":"go","sham":0,"trial_type":"pit-trial","trial_index":253,"time_elapsed":1160219,"internal_node_id":"0.0-229.0","task_version":"battery-v0.2"},{"rune":"A","rune_set":"bacs1","hex":"#3366ff99","correct":32,"choice":32,"rt":501.9250000040047,"accuracy":1,"outcome":"+10","keys":[2002.5449999957345],"total_keys":1,"block":2,"trial":228,"stimulus":8,"robot":1,"valence":"win","action":"go","sham":0,"trial_type":"pit-trial","trial_index":254,"time_elapsed":1163424,"internal_node_id":"0.0-230.0","task_version":"battery-v0.2"},{"rune":"A","rune_set":"bacs1","hex":"#3366ff99","correct":32,"choice":32,"rt":481.01500000501983,"accuracy":1,"outcome":"+10","keys":[1981.4550000010058],"total_keys":1,"block":2,"trial":229,"stimulus":8,"robot":1,"valence":"win","action":"go","sham":0,"trial_type":"pit-trial","trial_index":255,"time_elapsed":1166608,"internal_node_id":"0.0-231.0","task_version":"battery-v0.2"},{"rune":"Q","rune_set":"bacs1","hex":"#3366ff99","correct":-1,"choice":32,"rt":575.6000000038184,"accuracy":0,"outcome":"+1","keys":[2077.2000000069384],"total_keys":1,"block":2,"trial":230,"stimulus":11,"robot":2,"valence":"win","action":"no-go","sham":0,"trial_type":"pit-trial","trial_index":256,"time_elapsed":1169887,"internal_node_id":"0.0-232.0","task_version":"battery-v0.2"},{"rune":"C","rune_set":"bacs1","hex":"#f73b6a7A","correct":32,"choice":-1,"rt":-1,"accuracy":0,"outcome":"-10","keys":[],"total_keys":0,"block":2,"trial":231,"stimulus":9,"robot":3,"valence":"lose","action":"go","sham":0,"trial_type":"pit-trial","trial_index":257,"time_elapsed":1173890,"internal_node_id":"0.0-233.0","task_version":"battery-v0.2"},{"rune":"L","rune_set":"bacs1","hex":"#f73b6a7A","correct":32,"choice":32,"rt":414.4099999975879,"accuracy":1,"outcome":"-1","keys":[1915.0599999991246],"total_keys":1,"block":2,"trial":232,"stimulus":10,"robot":3,"valence":"lose","action":"go","sham":0,"trial_type":"pit-trial","trial_index":258,"time_elapsed":1177007,"internal_node_id":"0.0-234.0","task_version":"battery-v0.2"},{"rune":"L","rune_set":"bacs1","hex":"#f73b6a7A","correct":32,"choice":32,"rt":536.9749999954365,"accuracy":1,"outcome":"-1","keys":[2037.66999999783],"total_keys":1,"block":2,"trial":233,"stimulus":10,"robot":3,"valence":"lose","action":"go","sham":0,"trial_type":"pit-trial","trial_index":259,"time_elapsed":1180248,"internal_node_id":"0.0-235.0","task_version":"battery-v0.2"},{"rune":"Q","rune_set":"bacs1","hex":"#3366ff99","correct":-1,"choice":-1,"rt":-1,"accuracy":1,"outcome":"+10","keys":[],"total_keys":0,"block":2,"trial":234,"stimulus":11,"robot":2,"valence":"win","action":"no-go","sham":0,"trial_type":"pit-trial","trial_index":260,"time_elapsed":1184251,"internal_node_id":"0.0-236.0","task_version":"battery-v0.2"},{"rune":"C","rune_set":"bacs1","hex":"#f73b6a7A","correct":32,"choice":-1,"rt":-1,"accuracy":0,"outcome":"-10","keys":[],"total_keys":0,"block":2,"trial":235,"stimulus":9,"robot":3,"valence":"lose","action":"go","sham":0,"trial_type":"pit-trial","trial_index":261,"time_elapsed":1188254,"internal_node_id":"0.0-237.0","task_version":"battery-v0.2"},{"rune":"A","rune_set":"bacs1","hex":"#3366ff99","correct":32,"choice":32,"rt":522.9349999935366,"accuracy":1,"outcome":"+10","keys":[2023.2249999970663],"total_keys":1,"block":2,"trial":236,"stimulus":8,"robot":1,"valence":"win","action":"go","sham":0,"trial_type":"pit-trial","trial_index":262,"time_elapsed":1191479,"internal_node_id":"0.0-238.0","task_version":"battery-v0.2"},{"rune":"A","rune_set":"bacs1","hex":"#3366ff99","correct":32,"choice":32,"rt":537.095000006957,"accuracy":1,"outcome":"+10","keys":[2037.874999994645],"total_keys":1,"block":2,"trial":237,"stimulus":8,"robot":1,"valence":"win","action":"go","sham":0,"trial_type":"pit-trial","trial_index":263,"time_elapsed":1194719,"internal_node_id":"0.0-239.0","task_version":"battery-v0.2"},{"rune":"C","rune_set":"bacs1","hex":"#f73b6a7A","correct":32,"choice":-1,"rt":-1,"accuracy":0,"outcome":"-1","keys":[],"total_keys":0,"block":2,"trial":238,"stimulus":9,"robot":3,"valence":"lose","action":"go","sham":1,"trial_type":"pit-trial","trial_index":264,"time_elapsed":1198723,"internal_node_id":"0.0-240.0","task_version":"battery-v0.2"},{"rune":"Q","rune_set":"bacs1","hex":"#3366ff99","correct":-1,"choice":-1,"rt":-1,"accuracy":1,"outcome":"+10","keys":[],"total_keys":0,"block":2,"trial":239,"stimulus":11,"robot":2,"valence":"win","action":"no-go","sham":0,"trial_type":"pit-trial","trial_index":265,"time_elapsed":1202726,"internal_node_id":"0.0-241.0","task_version":"battery-v0.2"},{"rune":"L","rune_set":"bacs1","hex":"#f73b6a7A","correct":32,"choice":32,"rt":594.7400000004563,"accuracy":1,"outcome":"-1","keys":[2095.375000004424],"total_keys":1,"block":2,"trial":240,"stimulus":10,"robot":3,"valence":"lose","action":"go","sham":0,"trial_type":"pit-trial","trial_index":266,"time_elapsed":1206023,"internal_node_id":"0.0-242.0","task_version":"battery-v0.2"},{"view_history":"[{\"page_index\":0,\"viewing_time\":3480.3749999993015}]","rt":3480.765000000363,"trial_type":"pit-instructions","trial_index":267,"time_elapsed":1209505,"internal_node_id":"0.0-243.0","task_version":"battery-v0.2"},{"rt":12966.164999997942,"responses":{"age":"54","gender-categorical":"Male","gender-free-response":"","ethnicity":"Not Hispanic or Latino","race":["Asian","White"],"language":"Yes","fluency":"Very well"},"survey":"demographics","trial_type":"survey-demo","trial_index":268,"time_elapsed":1222474,"internal_node_id":"0.0-244.0","task_version":"battery-v0.2"},{"rt":52724.34000000078,"responses":{"difficulty":"4","fun":"3","clarity":"5","strategy":"try to find the ones that paid the most and avoid the big losses","feedback":""},"survey":"debrief","trial_type":"survey-debrief","trial_index":269,"time_elapsed":1275202,"internal_node_id":"0.0-245.0","task_version":"battery-v0.2","interactions":"[{\"event\":\"blur\",\"trial\":0,\"time\":28861},{\"event\":\"focus\",\"trial\":0,\"time\":90816},{\"event\":\"blur\",\"trial\":0,\"time\":108396},{\"event\":\"focus\",\"trial\":0,\"time\":114613}]"}]