[{"view_history":"[{\"page_index\":0,\"viewing_time\":2294.729999965057},{\"page_index\":1,\"viewing_time\":7854.469999903813},{\"page_index\":2,\"viewing_time\":9380.880000069737},{\"page_index\":3,\"viewing_time\":3935.330000007525},{\"page_index\":4,\"viewing_time\":4567.994999932125},{\"page_index\":5,\"viewing_time\":3311.14499992691},{\"page_index\":6,\"viewing_time\":4811.960000079125},{\"page_index\":7,\"viewing_time\":26081.560000078753},{\"page_index\":8,\"viewing_time\":19155.849999981},{\"page_index\":9,\"viewing_time\":4243.344999849796}]","rt":85639.11999994889,"trial_type":"pit-instructions","trial_index":0,"time_elapsed":85683,"internal_node_id":"0.0-0.0-0.0","task_version":"battery-v0.2"},{"rune":"1","rune_set":"elianto","hex":"#3366ff99","correct":32,"choice":-1,"rt":-1,"accuracy":0,"outcome":"+1","keys":[],"total_keys":0,"block":0,"practice":1,"trial_type":"pit-trial","trial_index":1,"time_elapsed":89695,"internal_node_id":"0.0-0.0-1.0-0.0","task_version":"battery-v0.2"},{"rune":"1","rune_set":"elianto","hex":"#3366ff99","correct":32,"choice":-1,"rt":-1,"accuracy":0,"outcome":"+1","keys":[],"total_keys":0,"block":0,"practice":1,"trial_type":"pit-trial","trial_index":2,"time_elapsed":93704,"internal_node_id":"0.0-0.0-1.1-0.1","task_version":"battery-v0.2"},{"rune":"1","rune_set":"elianto","hex":"#3366ff99","correct":32,"choice":-1,"rt":-1,"accuracy":0,"outcome":"+1","keys":[],"total_keys":0,"block":0,"practice":1,"trial_type":"pit-trial","trial_index":3,"time_elapsed":97723,"internal_node_id":"0.0-0.0-1.2-0.2","task_version":"battery-v0.2"},{"rune":"1","rune_set":"elianto","hex":"#3366ff99","correct":32,"choice":32,"rt":1214.380000019446,"accuracy":1,"outcome":"+10","keys":[2718.3449999429286],"total_keys":1,"block":0,"practice":1,"trial_type":"pit-trial","trial_index":4,"time_elapsed":101647,"internal_node_id":"0.0-0.0-1.3-0.3","task_version":"battery-v0.2"},{"rune":"1","rune_set":"elianto","hex":"#3366ff99","correct":32,"choice":32,"rt":428.75500000081956,"accuracy":1,"outcome":"+10","keys":[1933.0149998422712],"total_keys":1,"block":0,"practice":1,"trial_type":"pit-trial","trial_index":5,"time_elapsed":104785,"internal_node_id":"0.0-0.0-1.4-0.4","task_version":"battery-v0.2"},{"rune":"1","rune_set":"elianto","hex":"#3366ff99","correct":32,"choice":32,"rt":254.91999997757375,"accuracy":1,"outcome":"+10","keys":[1758.2099998835474],"total_keys":1,"block":0,"practice":1,"trial_type":"pit-trial","trial_index":6,"time_elapsed":107751,"internal_node_id":"0.0-0.0-1.5-0.5","task_version":"battery-v0.2"},{"view_history":"[{\"page_index\":0,\"viewing_time\":4312.029999913648},{\"page_index\":1,\"viewing_time\":5373.690000036731}]","rt":9686.519999988377,"trial_type":"pit-instructions","trial_index":7,"time_elapsed":117440,"internal_node_id":"0.0-0.0-2.0","task_version":"battery-v0.2"},{"rune":"2","rune_set":"elianto","hex":"#3366ff99","correct":-1,"choice":32,"rt":416.53500008396804,"accuracy":0,"outcome":"+1","keys":[1919.0299999900162],"total_keys":1,"block":0,"practice":2,"trial_type":"pit-trial","trial_index":8,"time_elapsed":120567,"internal_node_id":"0.0-0.0-3.0-0.0","task_version":"battery-v0.2"},{"rune":"2","rune_set":"elianto","hex":"#3366ff99","correct":-1,"choice":-1,"rt":-1,"accuracy":1,"outcome":"+10","keys":[],"total_keys":0,"block":0,"practice":2,"trial_type":"pit-trial","trial_index":9,"time_elapsed":124585,"internal_node_id":"0.0-0.0-3.1-0.1","task_version":"battery-v0.2"},{"rune":"2","rune_set":"elianto","hex":"#3366ff99","correct":-1,"choice":-1,"rt":-1,"accuracy":1,"outcome":"+10","keys":[],"total_keys":0,"block":0,"practice":2,"trial_type":"pit-trial","trial_index":10,"time_elapsed":128607,"internal_node_id":"0.0-0.0-3.2-0.2","task_version":"battery-v0.2"},{"rune":"2","rune_set":"elianto","hex":"#3366ff99","correct":-1,"choice":-1,"rt":-1,"accuracy":1,"outcome":"+10","keys":[],"total_keys":0,"block":0,"practice":2,"trial_type":"pit-trial","trial_index":11,"time_elapsed":132621,"internal_node_id":"0.0-0.0-3.3-0.3","task_version":"battery-v0.2"},{"view_history":"[{\"page_index\":0,\"viewing_time\":13369.715000037104},{\"page_index\":1,\"viewing_time\":4268.7999999616295}]","rt":17639.33499995619,"trial_type":"pit-instructions","trial_index":12,"time_elapsed":150270,"internal_node_id":"0.0-0.0-4.0","task_version":"battery-v0.2"},{"rune":"3","rune_set":"elianto","hex":"#f73b6a7A","correct":-1,"choice":32,"rt":43.55500009842217,"accuracy":0,"outcome":"-10","keys":[1549.1349999792874],"total_keys":1,"block":0,"practice":3,"trial_type":"pit-trial","trial_index":13,"time_elapsed":153025,"internal_node_id":"0.0-0.0-5.0-0.0","task_version":"battery-v0.2"},{"rune":"3","rune_set":"elianto","hex":"#f73b6a7A","correct":-1,"choice":-1,"rt":-1,"accuracy":1,"outcome":"-1","keys":[],"total_keys":0,"block":0,"practice":3,"trial_type":"pit-trial","trial_index":14,"time_elapsed":157045,"internal_node_id":"0.0-0.0-5.1-0.1","task_version":"battery-v0.2"},{"rune":"3","rune_set":"elianto","hex":"#f73b6a7A","correct":-1,"choice":-1,"rt":-1,"accuracy":1,"outcome":"-1","keys":[],"total_keys":0,"block":0,"practice":3,"trial_type":"pit-trial","trial_index":15,"time_elapsed":161056,"internal_node_id":"0.0-0.0-5.2-0.2","task_version":"battery-v0.2"},{"rune":"3","rune_set":"elianto","hex":"#f73b6a7A","correct":-1,"choice":-1,"rt":-1,"accuracy":1,"outcome":"-1","keys":[],"total_keys":0,"block":0,"practice":3,"trial_type":"pit-trial","trial_index":16,"time_elapsed":165070,"internal_node_id":"0.0-0.0-5.3-0.3","task_version":"battery-v0.2"},{"view_history":"[{\"page_index\":0,\"viewing_time\":4043.630000203848},{\"page_index\":1,\"viewing_time\":4062.0449997950345}]","rt":8106.374999973923,"trial_type":"pit-instructions","trial_index":17,"time_elapsed":173178,"internal_node_id":"0.0-0.0-6.0","task_version":"battery-v0.2"},{"rune":"4","rune_set":"elianto","hex":"#f73b6a7A","correct":32,"choice":32,"rt":356.9700000807643,"accuracy":1,"outcome":"-1","keys":[1861.490000039339],"total_keys":1,"block":0,"practice":4,"trial_type":"pit-trial","trial_index":18,"time_elapsed":176250,"internal_node_id":"0.0-0.0-7.0-0.0","task_version":"battery-v0.2"},{"rune":"4","rune_set":"elianto","hex":"#f73b6a7A","correct":32,"choice":32,"rt":860.7250000350177,"accuracy":1,"outcome":"-1","keys":[1465.3000000398606,2364.4000000786036],"total_keys":2,"block":0,"practice":4,"trial_type":"pit-trial","trial_index":19,"time_elapsed":179825,"internal_node_id":"0.0-0.0-7.1-0.1","task_version":"battery-v0.2"},{"rune":"4","rune_set":"elianto","hex":"#f73b6a7A","correct":32,"choice":32,"rt":230.35500012338161,"accuracy":1,"outcome":"-1","keys":[1731.5550001803786],"total_keys":1,"block":0,"practice":4,"trial_type":"pit-trial","trial_index":20,"time_elapsed":182764,"internal_node_id":"0.0-0.0-7.2-0.2","task_version":"battery-v0.2"},{"rune":"4","rune_set":"elianto","hex":"#f73b6a7A","correct":32,"choice":32,"rt":133.7349999230355,"accuracy":1,"outcome":"-1","keys":[1634.2800001148134],"total_keys":1,"block":0,"practice":4,"trial_type":"pit-trial","trial_index":21,"time_elapsed":185606,"internal_node_id":"0.0-0.0-7.3-0.3","task_version":"battery-v0.2"},{"view_history":"[{\"page_index\":0,\"viewing_time\":2420.5999998375773},{\"page_index\":1,\"viewing_time\":840191.4749999996},{\"page_index\":2,\"viewing_time\":6566.935000009835},{\"page_index\":3,\"viewing_time\":4042.654999997467},{\"page_index\":4,\"viewing_time\":12048.510000109673},{\"page_index\":5,\"viewing_time\":4391.554999863729}]","rt":869662.4799999408,"trial_type":"pit-instructions","trial_index":22,"time_elapsed":1055267,"internal_node_id":"0.0-0.0-8.0","task_version":"battery-v0.2"},{"responses":["Press SPACE","+10","-1","True","True"],"num_errors":0,"rt":18908.28499989584,"trial_type":"pit-comprehension","trial_index":23,"time_elapsed":1074182,"internal_node_id":"0.0-0.0-9.0","task_version":"battery-v0.2"},{"view_history":"[{\"page_index\":0,\"viewing_time\":1858.5449999663979},{\"page_index\":1,\"viewing_time\":7445.335000054911}]","rt":9304.654999868944,"trial_type":"pit-instructions","trial_index":24,"time_elapsed":1083493,"internal_node_id":"0.0-1.0","task_version":"battery-v0.2"},{"rune":"T","rune_set":"bacs2","hex":"#f73b6a7A","correct":-1,"choice":-1,"rt":-1,"accuracy":1,"outcome":"-1","keys":[2885.2099999785423],"total_keys":1,"block":1,"trial":1,"stimulus":1,"robot":4,"valence":"lose","action":"no-go","sham":0,"trial_type":"pit-trial","trial_index":25,"time_elapsed":1087517,"internal_node_id":"0.0-2.0","task_version":"battery-v0.2"},{"rune":"Q","rune_set":"bacs2","hex":"#3366ff99","correct":32,"choice":-1,"rt":-1,"accuracy":0,"outcome":"+1","keys":[2973.2500000391155],"total_keys":1,"block":1,"trial":2,"stimulus":2,"robot":1,"valence":"win","action":"go","sham":0,"trial_type":"pit-trial","trial_index":26,"time_elapsed":1091534,"internal_node_id":"0.0-3.0","task_version":"battery-v0.2"},{"rune":"Y","rune_set":"bacs2","hex":"#f73b6a7A","correct":-1,"choice":32,"rt":930.2100001368672,"accuracy":0,"outcome":"-10","keys":[2433.8950000237674],"total_keys":1,"block":1,"trial":3,"stimulus":0,"robot":4,"valence":"lose","action":"no-go","sham":0,"trial_type":"pit-trial","trial_index":27,"time_elapsed":1095176,"internal_node_id":"0.0-4.0","task_version":"battery-v0.2"},{"rune":"H","rune_set":"bacs2","hex":"#3366ff99","correct":-1,"choice":-1,"rt":-1,"accuracy":1,"outcome":"+10","keys":[],"total_keys":0,"block":1,"trial":4,"stimulus":3,"robot":2,"valence":"win","action":"no-go","sham":0,"trial_type":"pit-trial","trial_index":28,"time_elapsed":1099188,"internal_node_id":"0.0-5.0","task_version":"battery-v0.2"},{"rune":"H","rune_set":"bacs2","hex":"#3366ff99","correct":-1,"choice":-1,"rt":-1,"accuracy":1,"outcome":"+1","keys":[],"total_keys":0,"block":1,"trial":5,"stimulus":3,"robot":2,"valence":"win","action":"no-go","sham":1,"trial_type":"pit-trial","trial_index":29,"time_elapsed":1103198,"internal_node_id":"0.0-6.0","task_version":"battery-v0.2"},{"rune":"Q","rune_set":"bacs2","hex":"#3366ff99","correct":32,"choice":-1,"rt":-1,"accuracy":0,"outcome":"+1","keys":[],"total_keys":0,"block":1,"trial":6,"stimulus":2,"robot":1,"valence":"win","action":"go","sham":0,"trial_type":"pit-trial","trial_index":30,"time_elapsed":1107209,"internal_node_id":"0.0-7.0","task_version":"battery-v0.2"},{"rune":"T","rune_set":"bacs2","hex":"#f73b6a7A","correct":-1,"choice":32,"rt":866.9150001369417,"accuracy":0,"outcome":"-10","keys":[2370.5649999901652],"total_keys":1,"block":1,"trial":7,"stimulus":1,"robot":4,"valence":"lose","action":"no-go","sham":0,"trial_type":"pit-trial","trial_index":31,"time_elapsed":1110784,"internal_node_id":"0.0-8.0","task_version":"battery-v0.2"},{"rune":"Y","rune_set":"bacs2","hex":"#f73b6a7A","correct":-1,"choice":-1,"rt":-1,"accuracy":1,"outcome":"-1","keys":[],"total_keys":0,"block":1,"trial":8,"stimulus":0,"robot":4,"valence":"lose","action":"no-go","sham":0,"trial_type":"pit-trial","trial_index":32,"time_elapsed":1114802,"internal_node_id":"0.0-9.0","task_version":"battery-v0.2"},{"rune":"Y","rune_set":"bacs2","hex":"#f73b6a7A","correct":-1,"choice":-1,"rt":-1,"accuracy":1,"outcome":"-10","keys":[],"total_keys":0,"block":1,"trial":9,"stimulus":0,"robot":4,"valence":"lose","action":"no-go","sham":1,"trial_type":"pit-trial","trial_index":33,"time_elapsed":1118818,"internal_node_id":"0.0-10.0","task_version":"battery-v0.2"},{"rune":"T","rune_set":"bacs2","hex":"#f73b6a7A","correct":-1,"choice":-1,"rt":-1,"accuracy":1,"outcome":"-1","keys":[],"total_keys":0,"block":1,"trial":10,"stimulus":1,"robot":4,"valence":"lose","action":"no-go","sham":0,"trial_type":"pit-trial","trial_index":34,"time_elapsed":1122827,"internal_node_id":"0.0-11.0","task_version":"battery-v0.2"},{"rune":"H","rune_set":"bacs2","hex":"#3366ff99","correct":-1,"choice":32,"rt":765.0800000410527,"accuracy":0,"outcome":"+1","keys":[2269.025000045076],"total_keys":1,"block":1,"trial":11,"stimulus":3,"robot":2,"valence":"win","action":"no-go","sham":0,"trial_type":"pit-trial","trial_index":35,"time_elapsed":1126304,"internal_node_id":"0.0-12.0","task_version":"battery-v0.2"},{"rune":"Q","rune_set":"bacs2","hex":"#3366ff99","correct":32,"choice":32,"rt":885.3150000795722,"accuracy":1,"outcome":"+10","keys":[2389.2749999649823],"total_keys":1,"block":1,"trial":12,"stimulus":2,"robot":1,"valence":"win","action":"go","sham":0,"trial_type":"pit-trial","trial_index":36,"time_elapsed":1129901,"internal_node_id":"0.0-13.0","task_version":"battery-v0.2"},{"rune":"H","rune_set":"bacs2","hex":"#3366ff99","correct":-1,"choice":-1,"rt":-1,"accuracy":1,"outcome":"+1","keys":[],"total_keys":0,"block":1,"trial":13,"stimulus":3,"robot":2,"valence":"win","action":"no-go","sham":1,"trial_type":"pit-trial","trial_index":37,"time_elapsed":1133908,"internal_node_id":"0.0-14.0","task_version":"battery-v0.2"},{"rune":"T","rune_set":"bacs2","hex":"#f73b6a7A","correct":-1,"choice":-1,"rt":-1,"accuracy":1,"outcome":"-1","keys":[],"total_keys":0,"block":1,"trial":14,"stimulus":1,"robot":4,"valence":"lose","action":"no-go","sham":0,"trial_type":"pit-trial","trial_index":38,"time_elapsed":1137920,"internal_node_id":"0.0-15.0","task_version":"battery-v0.2"},{"rune":"Q","rune_set":"bacs2","hex":"#3366ff99","correct":32,"choice":32,"rt":755.5350000038743,"accuracy":1,"outcome":"+1","keys":[2257.844999898225],"total_keys":1,"block":1,"trial":15,"stimulus":2,"robot":1,"valence":"win","action":"go","sham":1,"trial_type":"pit-trial","trial_index":39,"time_elapsed":1141383,"internal_node_id":"0.0-16.0","task_version":"battery-v0.2"},{"rune":"Y","rune_set":"bacs2","hex":"#f73b6a7A","correct":-1,"choice":32,"rt":786.4399999380112,"accuracy":0,"outcome":"-10","keys":[2288.6250000447035],"total_keys":1,"block":1,"trial":16,"stimulus":0,"robot":4,"valence":"lose","action":"no-go","sham":0,"trial_type":"pit-trial","trial_index":40,"time_elapsed":1144879,"internal_node_id":"0.0-17.0","task_version":"battery-v0.2"},{"rune":"T","rune_set":"bacs2","hex":"#f73b6a7A","correct":-1,"choice":-1,"rt":-1,"accuracy":1,"outcome":"-1","keys":[],"total_keys":0,"block":1,"trial":17,"stimulus":1,"robot":4,"valence":"lose","action":"no-go","sham":0,"trial_type":"pit-trial","trial_index":41,"time_elapsed":1148897,"internal_node_id":"0.0-18.0","task_version":"battery-v0.2"},{"rune":"Y","rune_set":"bacs2","hex":"#f73b6a7A","correct":-1,"choice":32,"rt":871.9949999358505,"accuracy":0,"outcome":"-10","keys":[2372.56500008516],"total_keys":1,"block":1,"trial":18,"stimulus":0,"robot":4,"valence":"lose","action":"no-go","sham":0,"trial_type":"pit-trial","trial_index":42,"time_elapsed":1152475,"internal_node_id":"0.0-19.0","task_version":"battery-v0.2"},{"rune":"H","rune_set":"bacs2","hex":"#3366ff99","correct":-1,"choice":-1,"rt":-1,"accuracy":1,"outcome":"+10","keys":[],"total_keys":0,"block":1,"trial":19,"stimulus":3,"robot":2,"valence":"win","action":"no-go","sham":0,"trial_type":"pit-trial","trial_index":43,"time_elapsed":1156489,"internal_node_id":"0.0-20.0","task_version":"battery-v0.2"},{"rune":"Q","rune_set":"bacs2","hex":"#3366ff99","correct":32,"choice":-1,"rt":-1,"accuracy":0,"outcome":"+1","keys":[],"total_keys":0,"block":1,"trial":20,"stimulus":2,"robot":1,"valence":"win","action":"go","sham":0,"trial_type":"pit-trial","trial_index":44,"time_elapsed":1160502,"internal_node_id":"0.0-21.0","task_version":"battery-v0.2"},{"rune":"T","rune_set":"bacs2","hex":"#f73b6a7A","correct":-1,"choice":-1,"rt":-1,"accuracy":1,"outcome":"-10","keys":[],"total_keys":0,"block":1,"trial":21,"stimulus":1,"robot":4,"valence":"lose","action":"no-go","sham":1,"trial_type":"pit-trial","trial_index":45,"time_elapsed":1164518,"internal_node_id":"0.0-22.0","task_version":"battery-v0.2"},{"rune":"Y","rune_set":"bacs2","hex":"#f73b6a7A","correct":-1,"choice":32,"rt":369.7650001849979,"accuracy":0,"outcome":"-1","keys":[1873.3400001656264],"total_keys":1,"block":1,"trial":22,"stimulus":0,"robot":4,"valence":"lose","action":"no-go","sham":1,"trial_type":"pit-trial","trial_index":46,"time_elapsed":1167611,"internal_node_id":"0.0-23.0","task_version":"battery-v0.2"},{"rune":"H","rune_set":"bacs2","hex":"#3366ff99","correct":-1,"choice":32,"rt":1124.8449999839067,"accuracy":0,"outcome":"+1","keys":[2628.139999927953],"total_keys":1,"block":1,"trial":23,"stimulus":3,"robot":2,"valence":"win","action":"no-go","sham":0,"trial_type":"pit-trial","trial_index":47,"time_elapsed":1171450,"internal_node_id":"0.0-24.0","task_version":"battery-v0.2"},{"rune":"Q","rune_set":"bacs2","hex":"#3366ff99","correct":32,"choice":-1,"rt":-1,"accuracy":0,"outcome":"+1","keys":[],"total_keys":0,"block":1,"trial":24,"stimulus":2,"robot":1,"valence":"win","action":"go","sham":0,"trial_type":"pit-trial","trial_index":48,"time_elapsed":1175462,"internal_node_id":"0.0-25.0","task_version":"battery-v0.2"},{"rune":"Q","rune_set":"bacs2","hex":"#3366ff99","correct":32,"choice":32,"rt":607.4749999679625,"accuracy":1,"outcome":"+1","keys":[2107.910000020638],"total_keys":1,"block":1,"trial":25,"stimulus":2,"robot":1,"valence":"win","action":"go","sham":1,"trial_type":"pit-trial","trial_index":49,"time_elapsed":1178776,"internal_node_id":"0.0-26.0","task_version":"battery-v0.2"},{"rune":"H","rune_set":"bacs2","hex":"#3366ff99","correct":-1,"choice":-1,"rt":-1,"accuracy":1,"outcome":"+10","keys":[],"total_keys":0,"block":1,"trial":26,"stimulus":3,"robot":2,"valence":"win","action":"no-go","sham":0,"trial_type":"pit-trial","trial_index":50,"time_elapsed":1182794,"internal_node_id":"0.0-27.0","task_version":"battery-v0.2"},{"rune":"T","rune_set":"bacs2","hex":"#f73b6a7A","correct":-1,"choice":-1,"rt":-1,"accuracy":1,"outcome":"-1","keys":[],"total_keys":0,"block":1,"trial":27,"stimulus":1,"robot":4,"valence":"lose","action":"no-go","sham":0,"trial_type":"pit-trial","trial_index":51,"time_elapsed":1186812,"internal_node_id":"0.0-28.0","task_version":"battery-v0.2"},{"rune":"Y","rune_set":"bacs2","hex":"#f73b6a7A","correct":-1,"choice":32,"rt":748.8299999386072,"accuracy":0,"outcome":"-10","keys":[2253.8399999029934],"total_keys":1,"block":1,"trial":28,"stimulus":0,"robot":4,"valence":"lose","action":"no-go","sham":0,"trial_type":"pit-trial","trial_index":52,"time_elapsed":1190273,"internal_node_id":"0.0-29.0","task_version":"battery-v0.2"},{"rune":"T","rune_set":"bacs2","hex":"#f73b6a7A","correct":-1,"choice":-1,"rt":-1,"accuracy":1,"outcome":"-1","keys":[],"total_keys":0,"block":1,"trial":29,"stimulus":1,"robot":4,"valence":"lose","action":"no-go","sham":0,"trial_type":"pit-trial","trial_index":53,"time_elapsed":1194287,"internal_node_id":"0.0-30.0","task_version":"battery-v0.2"},{"rune":"H","rune_set":"bacs2","hex":"#3366ff99","correct":-1,"choice":-1,"rt":-1,"accuracy":1,"outcome":"+10","keys":[],"total_keys":0,"block":1,"trial":30,"stimulus":3,"robot":2,"valence":"win","action":"no-go","sham":0,"trial_type":"pit-trial","trial_index":54,"time_elapsed":1198300,"internal_node_id":"0.0-31.0","task_version":"battery-v0.2"},{"rune":"Y","rune_set":"bacs2","hex":"#f73b6a7A","correct":-1,"choice":32,"rt":737.7100000157952,"accuracy":0,"outcome":"-10","keys":[2242.379999952391],"total_keys":1,"block":1,"trial":31,"stimulus":0,"robot":4,"valence":"lose","action":"no-go","sham":0,"trial_type":"pit-trial","trial_index":55,"time_elapsed":1201748,"internal_node_id":"0.0-32.0","task_version":"battery-v0.2"},{"rune":"Q","rune_set":"bacs2","hex":"#3366ff99","correct":32,"choice":-1,"rt":-1,"accuracy":0,"outcome":"+1","keys":[],"total_keys":0,"block":1,"trial":32,"stimulus":2,"robot":1,"valence":"win","action":"go","sham":0,"trial_type":"pit-trial","trial_index":56,"time_elapsed":1205758,"internal_node_id":"0.0-33.0","task_version":"battery-v0.2"},{"rune":"E","rune_set":"bacs2","hex":"#f73b6a7A","correct":32,"choice":32,"rt":669.3500000983477,"accuracy":1,"outcome":"-1","keys":[2171.89500015229],"total_keys":1,"block":1,"trial":33,"stimulus":4,"robot":3,"valence":"lose","action":"go","sham":0,"trial_type":"pit-trial","trial_index":57,"time_elapsed":1209139,"internal_node_id":"0.0-34.0","task_version":"battery-v0.2"},{"rune":"H","rune_set":"bacs2","hex":"#3366ff99","correct":-1,"choice":-1,"rt":-1,"accuracy":1,"outcome":"+10","keys":[],"total_keys":0,"block":1,"trial":34,"stimulus":3,"robot":2,"valence":"win","action":"no-go","sham":0,"trial_type":"pit-trial","trial_index":58,"time_elapsed":1213148,"internal_node_id":"0.0-35.0","task_version":"battery-v0.2"},{"rune":"Q","rune_set":"bacs2","hex":"#3366ff99","correct":32,"choice":32,"rt":624.1949999239296,"accuracy":1,"outcome":"+10","keys":[2126.1849999427795],"total_keys":1,"block":1,"trial":35,"stimulus":2,"robot":1,"valence":"win","action":"go","sham":0,"trial_type":"pit-trial","trial_index":59,"time_elapsed":1216482,"internal_node_id":"0.0-36.0","task_version":"battery-v0.2"},{"rune":"Y","rune_set":"bacs2","hex":"#f73b6a7A","correct":-1,"choice":-1,"rt":-1,"accuracy":1,"outcome":"-1","keys":[],"total_keys":0,"block":1,"trial":36,"stimulus":0,"robot":4,"valence":"lose","action":"no-go","sham":0,"trial_type":"pit-trial","trial_index":60,"time_elapsed":1220492,"internal_node_id":"0.0-37.0","task_version":"battery-v0.2"},{"rune":"Y","rune_set":"bacs2","hex":"#f73b6a7A","correct":-1,"choice":-1,"rt":-1,"accuracy":1,"outcome":"-1","keys":[],"total_keys":0,"block":1,"trial":37,"stimulus":0,"robot":4,"valence":"lose","action":"no-go","sham":0,"trial_type":"pit-trial","trial_index":61,"time_elapsed":1224506,"internal_node_id":"0.0-38.0","task_version":"battery-v0.2"},{"rune":"Q","rune_set":"bacs2","hex":"#3366ff99","correct":32,"choice":32,"rt":568.059999961406,"accuracy":1,"outcome":"+10","keys":[2072.815000079572],"total_keys":1,"block":1,"trial":38,"stimulus":2,"robot":1,"valence":"win","action":"go","sham":0,"trial_type":"pit-trial","trial_index":62,"time_elapsed":1227789,"internal_node_id":"0.0-39.0","task_version":"battery-v0.2"},{"rune":"H","rune_set":"bacs2","hex":"#3366ff99","correct":-1,"choice":-1,"rt":-1,"accuracy":1,"outcome":"+10","keys":[],"total_keys":0,"block":1,"trial":39,"stimulus":3,"robot":2,"valence":"win","action":"no-go","sham":0,"trial_type":"pit-trial","trial_index":63,"time_elapsed":1231798,"internal_node_id":"0.0-40.0","task_version":"battery-v0.2"},{"rune":"E","rune_set":"bacs2","hex":"#f73b6a7A","correct":32,"choice":-1,"rt":-1,"accuracy":0,"outcome":"-1","keys":[],"total_keys":0,"block":1,"trial":40,"stimulus":4,"robot":3,"valence":"lose","action":"go","sham":1,"trial_type":"pit-trial","trial_index":64,"time_elapsed":1235810,"internal_node_id":"0.0-41.0","task_version":"battery-v0.2"},{"rune":"C","rune_set":"bacs2","hex":"#3366ff99","correct":-1,"choice":32,"rt":533.5849998518825,"accuracy":0,"outcome":"+1","keys":[2036.2050000112504],"total_keys":1,"block":1,"trial":41,"stimulus":5,"robot":2,"valence":"win","action":"no-go","sham":0,"trial_type":"pit-trial","trial_index":65,"time_elapsed":1239053,"internal_node_id":"0.0-42.0","task_version":"battery-v0.2"},{"rune":"E","rune_set":"bacs2","hex":"#f73b6a7A","correct":32,"choice":-1,"rt":-1,"accuracy":0,"outcome":"-10","keys":[],"total_keys":0,"block":1,"trial":42,"stimulus":4,"robot":3,"valence":"lose","action":"go","sham":0,"trial_type":"pit-trial","trial_index":66,"time_elapsed":1243068,"internal_node_id":"0.0-43.0","task_version":"battery-v0.2"},{"rune":"O","rune_set":"bacs2","hex":"#3366ff99","correct":32,"choice":32,"rt":792.0199998188764,"accuracy":1,"outcome":"+10","keys":[2296.894999919459],"total_keys":1,"block":1,"trial":43,"stimulus":6,"robot":1,"valence":"win","action":"go","sham":0,"trial_type":"pit-trial","trial_index":67,"time_elapsed":1246571,"internal_node_id":"0.0-44.0","task_version":"battery-v0.2"},{"rune":"Y","rune_set":"bacs2","hex":"#f73b6a7A","correct":-1,"choice":-1,"rt":-1,"accuracy":1,"outcome":"-1","keys":[],"total_keys":0,"block":1,"trial":44,"stimulus":0,"robot":4,"valence":"lose","action":"no-go","sham":0,"trial_type":"pit-trial","trial_index":68,"time_elapsed":1250585,"internal_node_id":"0.0-45.0","task_version":"battery-v0.2"},{"rune":"C","rune_set":"bacs2","hex":"#3366ff99","correct":-1,"choice":32,"rt":1155.354999937117,"accuracy":0,"outcome":"+1","keys":[2660.1449998561293],"total_keys":1,"block":1,"trial":45,"stimulus":5,"robot":2,"valence":"win","action":"no-go","sham":0,"trial_type":"pit-trial","trial_index":69,"time_elapsed":1254456,"internal_node_id":"0.0-46.0","task_version":"battery-v0.2"},{"rune":"E","rune_set":"bacs2","hex":"#f73b6a7A","correct":32,"choice":-1,"rt":-1,"accuracy":0,"outcome":"-10","keys":[],"total_keys":0,"block":1,"trial":46,"stimulus":4,"robot":3,"valence":"lose","action":"go","sham":0,"trial_type":"pit-trial","trial_index":70,"time_elapsed":1258469,"internal_node_id":"0.0-47.0","task_version":"battery-v0.2"},{"rune":"Y","rune_set":"bacs2","hex":"#f73b6a7A","correct":-1,"choice":-1,"rt":-1,"accuracy":1,"outcome":"-1","keys":[],"total_keys":0,"block":1,"trial":47,"stimulus":0,"robot":4,"valence":"lose","action":"no-go","sham":0,"trial_type":"pit-trial","trial_index":71,"time_elapsed":1262488,"internal_node_id":"0.0-48.0","task_version":"battery-v0.2"},{"rune":"O","rune_set":"bacs2","hex":"#3366ff99","correct":32,"choice":32,"rt":544.8449999094009,"accuracy":1,"outcome":"+10","keys":[2049.529999960214],"total_keys":1,"block":1,"trial":48,"stimulus":6,"robot":1,"valence":"win","action":"go","sham":0,"trial_type":"pit-trial","trial_index":72,"time_elapsed":1265745,"internal_node_id":"0.0-49.0","task_version":"battery-v0.2"},{"rune":"O","rune_set":"bacs2","hex":"#3366ff99","correct":32,"choice":32,"rt":519.7499999776483,"accuracy":1,"outcome":"+10","keys":[2024.3199998512864],"total_keys":1,"block":1,"trial":49,"stimulus":6,"robot":1,"valence":"win","action":"go","sham":0,"trial_type":"pit-trial","trial_index":73,"time_elapsed":1268975,"internal_node_id":"0.0-50.0","task_version":"battery-v0.2"},{"rune":"C","rune_set":"bacs2","hex":"#3366ff99","correct":-1,"choice":-1,"rt":-1,"accuracy":1,"outcome":"+10","keys":[],"total_keys":0,"block":1,"trial":50,"stimulus":5,"robot":2,"valence":"win","action":"no-go","sham":0,"trial_type":"pit-trial","trial_index":74,"time_elapsed":1272986,"internal_node_id":"0.0-51.0","task_version":"battery-v0.2"},{"rune":"E","rune_set":"bacs2","hex":"#f73b6a7A","correct":32,"choice":-1,"rt":-1,"accuracy":0,"outcome":"-10","keys":[],"total_keys":0,"block":1,"trial":51,"stimulus":4,"robot":3,"valence":"lose","action":"go","sham":0,"trial_type":"pit-trial","trial_index":75,"time_elapsed":1277000,"internal_node_id":"0.0-52.0","task_version":"battery-v0.2"},{"rune":"G","rune_set":"bacs2","hex":"#f73b6a7A","correct":-1,"choice":-1,"rt":-1,"accuracy":1,"outcome":"-1","keys":[],"total_keys":0,"block":1,"trial":52,"stimulus":7,"robot":4,"valence":"lose","action":"no-go","sham":0,"trial_type":"pit-trial","trial_index":76,"time_elapsed":1281010,"internal_node_id":"0.0-53.0","task_version":"battery-v0.2"},{"rune":"E","rune_set":"bacs2","hex":"#f73b6a7A","correct":32,"choice":-1,"rt":-1,"accuracy":0,"outcome":"-10","keys":[],"total_keys":0,"block":1,"trial":53,"stimulus":4,"robot":3,"valence":"lose","action":"go","sham":0,"trial_type":"pit-trial","trial_index":77,"time_elapsed":1285022,"internal_node_id":"0.0-54.0","task_version":"battery-v0.2"},{"rune":"G","rune_set":"bacs2","hex":"#f73b6a7A","correct":-1,"choice":-1,"rt":-1,"accuracy":1,"outcome":"-1","keys":[],"total_keys":0,"block":1,"trial":54,"stimulus":7,"robot":4,"valence":"lose","action":"no-go","sham":0,"trial_type":"pit-trial","trial_index":78,"time_elapsed":1289038,"internal_node_id":"0.0-55.0","task_version":"battery-v0.2"},{"rune":"O","rune_set":"bacs2","hex":"#3366ff99","correct":32,"choice":32,"rt":546.220000134781,"accuracy":1,"outcome":"+10","keys":[2050.2899999264628],"total_keys":1,"block":1,"trial":55,"stimulus":6,"robot":1,"valence":"win","action":"go","sham":0,"trial_type":"pit-trial","trial_index":79,"time_elapsed":1292300,"internal_node_id":"0.0-56.0","task_version":"battery-v0.2"},{"rune":"C","rune_set":"bacs2","hex":"#3366ff99","correct":-1,"choice":-1,"rt":-1,"accuracy":1,"outcome":"+10","keys":[],"total_keys":0,"block":1,"trial":56,"stimulus":5,"robot":2,"valence":"win","action":"no-go","sham":0,"trial_type":"pit-trial","trial_index":80,"time_elapsed":1296315,"internal_node_id":"0.0-57.0","task_version":"battery-v0.2"},{"rune":"O","rune_set":"bacs2","hex":"#3366ff99","correct":32,"choice":32,"rt":457.75499986484647,"accuracy":1,"outcome":"+10","keys":[1961.6700001060963],"total_keys":1,"block":1,"trial":57,"stimulus":6,"robot":1,"valence":"win","action":"go","sham":0,"trial_type":"pit-trial","trial_index":81,"time_elapsed":1299483,"internal_node_id":"0.0-58.0","task_version":"battery-v0.2"},{"rune":"C","rune_set":"bacs2","hex":"#3366ff99","correct":-1,"choice":-1,"rt":-1,"accuracy":1,"outcome":"+1","keys":[],"total_keys":0,"block":1,"trial":58,"stimulus":5,"robot":2,"valence":"win","action":"no-go","sham":1,"trial_type":"pit-trial","trial_index":82,"time_elapsed":1303503,"internal_node_id":"0.0-59.0","task_version":"battery-v0.2"},{"rune":"G","rune_set":"bacs2","hex":"#f73b6a7A","correct":-1,"choice":-1,"rt":-1,"accuracy":1,"outcome":"-1","keys":[],"total_keys":0,"block":1,"trial":59,"stimulus":7,"robot":4,"valence":"lose","action":"no-go","sham":0,"trial_type":"pit-trial","trial_index":83,"time_elapsed":1307514,"internal_node_id":"0.0-60.0","task_version":"battery-v0.2"},{"rune":"E","rune_set":"bacs2","hex":"#f73b6a7A","correct":32,"choice":32,"rt":1196.995000122115,"accuracy":1,"outcome":"-1","keys":[2701.7749999649823],"total_keys":1,"block":1,"trial":60,"stimulus":4,"robot":3,"valence":"lose","action":"go","sham":0,"trial_type":"pit-trial","trial_index":84,"time_elapsed":1311423,"internal_node_id":"0.0-61.0","task_version":"battery-v0.2"},{"rune":"E","rune_set":"bacs2","hex":"#f73b6a7A","correct":32,"choice":32,"rt":753.8900000508875,"accuracy":1,"outcome":"-1","keys":[2257.610000204295],"total_keys":1,"block":1,"trial":61,"stimulus":4,"robot":3,"valence":"lose","action":"go","sham":0,"trial_type":"pit-trial","trial_index":85,"time_elapsed":1314890,"internal_node_id":"0.0-62.0","task_version":"battery-v0.2"},{"rune":"O","rune_set":"bacs2","hex":"#3366ff99","correct":32,"choice":32,"rt":420.29500007629395,"accuracy":1,"outcome":"+10","keys":[1923.9799999631941],"total_keys":1,"block":1,"trial":62,"stimulus":6,"robot":1,"valence":"win","action":"go","sham":0,"trial_type":"pit-trial","trial_index":86,"time_elapsed":1318023,"internal_node_id":"0.0-63.0","task_version":"battery-v0.2"},{"rune":"C","rune_set":"bacs2","hex":"#3366ff99","correct":-1,"choice":-1,"rt":-1,"accuracy":1,"outcome":"+10","keys":[],"total_keys":0,"block":1,"trial":63,"stimulus":5,"robot":2,"valence":"win","action":"no-go","sham":0,"trial_type":"pit-trial","trial_index":87,"time_elapsed":1322039,"internal_node_id":"0.0-64.0","task_version":"battery-v0.2"},{"rune":"G","rune_set":"bacs2","hex":"#f73b6a7A","correct":-1,"choice":-1,"rt":-1,"accuracy":1,"outcome":"-10","keys":[],"total_keys":0,"block":1,"trial":64,"stimulus":7,"robot":4,"valence":"lose","action":"no-go","sham":1,"trial_type":"pit-trial","trial_index":88,"time_elapsed":1326054,"internal_node_id":"0.0-65.0","task_version":"battery-v0.2"},{"rune":"E","rune_set":"bacs2","hex":"#f73b6a7A","correct":32,"choice":32,"rt":528.4500000998378,"accuracy":1,"outcome":"-1","keys":[2029.890000121668],"total_keys":1,"block":1,"trial":65,"stimulus":4,"robot":3,"valence":"lose","action":"go","sham":0,"trial_type":"pit-trial","trial_index":89,"time_elapsed":1329289,"internal_node_id":"0.0-66.0","task_version":"battery-v0.2"},{"rune":"C","rune_set":"bacs2","hex":"#3366ff99","correct":-1,"choice":-1,"rt":-1,"accuracy":1,"outcome":"+10","keys":[],"total_keys":0,"block":1,"trial":66,"stimulus":5,"robot":2,"valence":"win","action":"no-go","sham":0,"trial_type":"pit-trial","trial_index":90,"time_elapsed":1333308,"internal_node_id":"0.0-67.0","task_version":"battery-v0.2"},{"rune":"G","rune_set":"bacs2","hex":"#f73b6a7A","correct":-1,"choice":-1,"rt":-1,"accuracy":1,"outcome":"-1","keys":[],"total_keys":0,"block":1,"trial":67,"stimulus":7,"robot":4,"valence":"lose","action":"no-go","sham":0,"trial_type":"pit-trial","trial_index":91,"time_elapsed":1337316,"internal_node_id":"0.0-68.0","task_version":"battery-v0.2"},{"rune":"O","rune_set":"bacs2","hex":"#3366ff99","correct":32,"choice":32,"rt":425.27999985031784,"accuracy":1,"outcome":"+10","keys":[1929.4199999421835],"total_keys":1,"block":1,"trial":68,"stimulus":6,"robot":1,"valence":"win","action":"go","sham":0,"trial_type":"pit-trial","trial_index":92,"time_elapsed":1340451,"internal_node_id":"0.0-69.0","task_version":"battery-v0.2"},{"rune":"E","rune_set":"bacs2","hex":"#f73b6a7A","correct":32,"choice":32,"rt":858.985000057146,"accuracy":1,"outcome":"-10","keys":[2360.700000077486],"total_keys":1,"block":1,"trial":69,"stimulus":4,"robot":3,"valence":"lose","action":"go","sham":1,"trial_type":"pit-trial","trial_index":93,"time_elapsed":1344024,"internal_node_id":"0.0-70.0","task_version":"battery-v0.2"},{"rune":"G","rune_set":"bacs2","hex":"#f73b6a7A","correct":-1,"choice":-1,"rt":-1,"accuracy":1,"outcome":"-10","keys":[],"total_keys":0,"block":1,"trial":70,"stimulus":7,"robot":4,"valence":"lose","action":"no-go","sham":1,"trial_type":"pit-trial","trial_index":94,"time_elapsed":1348040,"internal_node_id":"0.0-71.0","task_version":"battery-v0.2"},{"rune":"O","rune_set":"bacs2","hex":"#3366ff99","correct":32,"choice":32,"rt":397.6249999832362,"accuracy":1,"outcome":"+10","keys":[1900.3750002011657],"total_keys":1,"block":1,"trial":71,"stimulus":6,"robot":1,"valence":"win","action":"go","sham":0,"trial_type":"pit-trial","trial_index":95,"time_elapsed":1351150,"internal_node_id":"0.0-72.0","task_version":"battery-v0.2"},{"rune":"C","rune_set":"bacs2","hex":"#3366ff99","correct":-1,"choice":-1,"rt":-1,"accuracy":1,"outcome":"+1","keys":[],"total_keys":0,"block":1,"trial":72,"stimulus":5,"robot":2,"valence":"win","action":"no-go","sham":1,"trial_type":"pit-trial","trial_index":96,"time_elapsed":1355164,"internal_node_id":"0.0-73.0","task_version":"battery-v0.2"},{"rune":"C","rune_set":"bacs2","hex":"#3366ff99","correct":-1,"choice":32,"rt":448.670000070706,"accuracy":0,"outcome":"+10","keys":[1951.8750000279397],"total_keys":1,"block":1,"trial":73,"stimulus":5,"robot":2,"valence":"win","action":"no-go","sham":1,"trial_type":"pit-trial","trial_index":97,"time_elapsed":1358323,"internal_node_id":"0.0-74.0","task_version":"battery-v0.2"},{"rune":"X","rune_set":"bacs2","hex":"#f73b6a7A","correct":32,"choice":-1,"rt":-1,"accuracy":0,"outcome":"-10","keys":[],"total_keys":0,"block":1,"trial":74,"stimulus":9,"robot":3,"valence":"lose","action":"go","sham":0,"trial_type":"pit-trial","trial_index":98,"time_elapsed":1362339,"internal_node_id":"0.0-75.0","task_version":"battery-v0.2"},{"rune":"Z","rune_set":"bacs2","hex":"#3366ff99","correct":32,"choice":32,"rt":714.2549999989569,"accuracy":1,"outcome":"+1","keys":[2218.3749999385327],"total_keys":1,"block":1,"trial":75,"stimulus":8,"robot":1,"valence":"win","action":"go","sham":1,"trial_type":"pit-trial","trial_index":99,"time_elapsed":1365763,"internal_node_id":"0.0-76.0","task_version":"battery-v0.2"},{"rune":"G","rune_set":"bacs2","hex":"#f73b6a7A","correct":-1,"choice":-1,"rt":-1,"accuracy":1,"outcome":"-1","keys":[],"total_keys":0,"block":1,"trial":76,"stimulus":7,"robot":4,"valence":"lose","action":"no-go","sham":0,"trial_type":"pit-trial","trial_index":100,"time_elapsed":1369776,"internal_node_id":"0.0-77.0","task_version":"battery-v0.2"},{"rune":"X","rune_set":"bacs2","hex":"#f73b6a7A","correct":32,"choice":-1,"rt":-1,"accuracy":0,"outcome":"-10","keys":[],"total_keys":0,"block":1,"trial":77,"stimulus":9,"robot":3,"valence":"lose","action":"go","sham":0,"trial_type":"pit-trial","trial_index":101,"time_elapsed":1373785,"internal_node_id":"0.0-78.0","task_version":"battery-v0.2"},{"rune":"G","rune_set":"bacs2","hex":"#f73b6a7A","correct":-1,"choice":-1,"rt":-1,"accuracy":1,"outcome":"-1","keys":[],"total_keys":0,"block":1,"trial":78,"stimulus":7,"robot":4,"valence":"lose","action":"no-go","sham":0,"trial_type":"pit-trial","trial_index":102,"time_elapsed":1377796,"internal_node_id":"0.0-79.0","task_version":"battery-v0.2"},{"rune":"Z","rune_set":"bacs2","hex":"#3366ff99","correct":32,"choice":32,"rt":672.4400001112372,"accuracy":1,"outcome":"+10","keys":[2177.5100000668317],"total_keys":1,"block":1,"trial":79,"stimulus":8,"robot":1,"valence":"win","action":"go","sham":0,"trial_type":"pit-trial","trial_index":103,"time_elapsed":1381184,"internal_node_id":"0.0-80.0","task_version":"battery-v0.2"},{"rune":"C","rune_set":"bacs2","hex":"#3366ff99","correct":-1,"choice":32,"rt":564.2699999734759,"accuracy":0,"outcome":"+1","keys":[2067.049999954179],"total_keys":1,"block":1,"trial":80,"stimulus":5,"robot":2,"valence":"win","action":"no-go","sham":0,"trial_type":"pit-trial","trial_index":104,"time_elapsed":1384456,"internal_node_id":"0.0-81.0","task_version":"battery-v0.2"},{"rune":"G","rune_set":"bacs2","hex":"#f73b6a7A","correct":-1,"choice":-1,"rt":-1,"accuracy":1,"outcome":"-1","keys":[],"total_keys":0,"block":1,"trial":81,"stimulus":7,"robot":4,"valence":"lose","action":"no-go","sham":0,"trial_type":"pit-trial","trial_index":105,"time_elapsed":1388462,"internal_node_id":"0.0-82.0","task_version":"battery-v0.2"},{"rune":"Z","rune_set":"bacs2","hex":"#3366ff99","correct":32,"choice":32,"rt":498.69999988004565,"accuracy":1,"outcome":"+10","keys":[1999.4950001128018],"total_keys":1,"block":1,"trial":82,"stimulus":8,"robot":1,"valence":"win","action":"go","sham":0,"trial_type":"pit-trial","trial_index":106,"time_elapsed":1391671,"internal_node_id":"0.0-83.0","task_version":"battery-v0.2"},{"rune":"C","rune_set":"bacs2","hex":"#3366ff99","correct":-1,"choice":32,"rt":452.809999929741,"accuracy":0,"outcome":"+1","keys":[1956.840000115335],"total_keys":1,"block":1,"trial":83,"stimulus":5,"robot":2,"valence":"win","action":"no-go","sham":0,"trial_type":"pit-trial","trial_index":107,"time_elapsed":1394835,"internal_node_id":"0.0-84.0","task_version":"battery-v0.2"},{"rune":"X","rune_set":"bacs2","hex":"#f73b6a7A","correct":32,"choice":-1,"rt":-1,"accuracy":0,"outcome":"-10","keys":[],"total_keys":0,"block":1,"trial":84,"stimulus":9,"robot":3,"valence":"lose","action":"go","sham":0,"trial_type":"pit-trial","trial_index":108,"time_elapsed":1398850,"internal_node_id":"0.0-85.0","task_version":"battery-v0.2"},{"rune":"G","rune_set":"bacs2","hex":"#f73b6a7A","correct":-1,"choice":-1,"rt":-1,"accuracy":1,"outcome":"-1","keys":[],"total_keys":0,"block":1,"trial":85,"stimulus":7,"robot":4,"valence":"lose","action":"no-go","sham":0,"trial_type":"pit-trial","trial_index":109,"time_elapsed":1402864,"internal_node_id":"0.0-86.0","task_version":"battery-v0.2"},{"rune":"C","rune_set":"bacs2","hex":"#3366ff99","correct":-1,"choice":32,"rt":474.0500000771135,"accuracy":0,"outcome":"+1","keys":[1976.655000122264],"total_keys":1,"block":1,"trial":86,"stimulus":5,"robot":2,"valence":"win","action":"no-go","sham":0,"trial_type":"pit-trial","trial_index":110,"time_elapsed":1406049,"internal_node_id":"0.0-87.0","task_version":"battery-v0.2"},{"rune":"Z","rune_set":"bacs2","hex":"#3366ff99","correct":32,"choice":32,"rt":520.2550000976771,"accuracy":1,"outcome":"+10","keys":[2021.7999999877065],"total_keys":1,"block":1,"trial":87,"stimulus":8,"robot":1,"valence":"win","action":"go","sham":0,"trial_type":"pit-trial","trial_index":111,"time_elapsed":1409276,"internal_node_id":"0.0-88.0","task_version":"battery-v0.2"},{"rune":"X","rune_set":"bacs2","hex":"#f73b6a7A","correct":32,"choice":-1,"rt":-1,"accuracy":0,"outcome":"-10","keys":[],"total_keys":0,"block":1,"trial":88,"stimulus":9,"robot":3,"valence":"lose","action":"go","sham":0,"trial_type":"pit-trial","trial_index":112,"time_elapsed":1413288,"internal_node_id":"0.0-89.0","task_version":"battery-v0.2"},{"rune":"X","rune_set":"bacs2","hex":"#f73b6a7A","correct":32,"choice":-1,"rt":-1,"accuracy":0,"outcome":"-10","keys":[],"total_keys":0,"block":1,"trial":89,"stimulus":9,"robot":3,"valence":"lose","action":"go","sham":0,"trial_type":"pit-trial","trial_index":113,"time_elapsed":1417304,"internal_node_id":"0.0-90.0","task_version":"battery-v0.2"},{"rune":"Z","rune_set":"bacs2","hex":"#3366ff99","correct":32,"choice":32,"rt":371.81499996222556,"accuracy":1,"outcome":"+10","keys":[1876.0249998886138],"total_keys":1,"block":1,"trial":90,"stimulus":8,"robot":1,"valence":"win","action":"go","sham":0,"trial_type":"pit-trial","trial_index":114,"time_elapsed":1420386,"internal_node_id":"0.0-91.0","task_version":"battery-v0.2"},{"rune":"J","rune_set":"bacs2","hex":"#3366ff99","correct":-1,"choice":32,"rt":713.2500000298023,"accuracy":0,"outcome":"+10","keys":[2215.5949999578297],"total_keys":1,"block":1,"trial":91,"stimulus":11,"robot":2,"valence":"win","action":"no-go","sham":1,"trial_type":"pit-trial","trial_index":115,"time_elapsed":1423813,"internal_node_id":"0.0-92.0","task_version":"battery-v0.2"},{"rune":"W","rune_set":"bacs2","hex":"#f73b6a7A","correct":32,"choice":-1,"rt":-1,"accuracy":0,"outcome":"-10","keys":[],"total_keys":0,"block":1,"trial":92,"stimulus":10,"robot":3,"valence":"lose","action":"go","sham":0,"trial_type":"pit-trial","trial_index":116,"time_elapsed":1427826,"internal_node_id":"0.0-93.0","task_version":"battery-v0.2"},{"rune":"W","rune_set":"bacs2","hex":"#f73b6a7A","correct":32,"choice":32,"rt":430.5900000035763,"accuracy":1,"outcome":"-10","keys":[1931.0749999713153],"total_keys":1,"block":1,"trial":93,"stimulus":10,"robot":3,"valence":"lose","action":"go","sham":1,"trial_type":"pit-trial","trial_index":117,"time_elapsed":1430969,"internal_node_id":"0.0-94.0","task_version":"battery-v0.2"},{"rune":"X","rune_set":"bacs2","hex":"#f73b6a7A","correct":32,"choice":32,"rt":927.045000018552,"accuracy":1,"outcome":"-10","keys":[2431.319999974221],"total_keys":1,"block":1,"trial":94,"stimulus":9,"robot":3,"valence":"lose","action":"go","sham":1,"trial_type":"pit-trial","trial_index":118,"time_elapsed":1434607,"internal_node_id":"0.0-95.0","task_version":"battery-v0.2"},{"rune":"Z","rune_set":"bacs2","hex":"#3366ff99","correct":32,"choice":32,"rt":475.63000000081956,"accuracy":1,"outcome":"+10","keys":[1979.249999858439],"total_keys":1,"block":1,"trial":95,"stimulus":8,"robot":1,"valence":"win","action":"go","sham":0,"trial_type":"pit-trial","trial_index":119,"time_elapsed":1437791,"internal_node_id":"0.0-96.0","task_version":"battery-v0.2"},{"rune":"J","rune_set":"bacs2","hex":"#3366ff99","correct":-1,"choice":32,"rt":465.4500000178814,"accuracy":0,"outcome":"+1","keys":[1969.6549999061972],"total_keys":1,"block":1,"trial":96,"stimulus":11,"robot":2,"valence":"win","action":"no-go","sham":0,"trial_type":"pit-trial","trial_index":120,"time_elapsed":1440971,"internal_node_id":"0.0-97.0","task_version":"battery-v0.2"},{"rune":"X","rune_set":"bacs2","hex":"#f73b6a7A","correct":32,"choice":-1,"rt":-1,"accuracy":0,"outcome":"-1","keys":[],"total_keys":0,"block":1,"trial":97,"stimulus":9,"robot":3,"valence":"lose","action":"go","sham":1,"trial_type":"pit-trial","trial_index":121,"time_elapsed":1444975,"internal_node_id":"0.0-98.0","task_version":"battery-v0.2"},{"rune":"Z","rune_set":"bacs2","hex":"#3366ff99","correct":32,"choice":-1,"rt":-1,"accuracy":0,"outcome":"+1","keys":[],"total_keys":0,"block":1,"trial":98,"stimulus":8,"robot":1,"valence":"win","action":"go","sham":0,"trial_type":"pit-trial","trial_index":122,"time_elapsed":1448985,"internal_node_id":"0.0-99.0","task_version":"battery-v0.2"},{"rune":"W","rune_set":"bacs2","hex":"#f73b6a7A","correct":32,"choice":32,"rt":513.984999852255,"accuracy":1,"outcome":"-1","keys":[2016.4850000292063],"total_keys":1,"block":1,"trial":99,"stimulus":10,"robot":3,"valence":"lose","action":"go","sham":0,"trial_type":"pit-trial","trial_index":123,"time_elapsed":1452207,"internal_node_id":"0.0-100.0","task_version":"battery-v0.2"},{"rune":"J","rune_set":"bacs2","hex":"#3366ff99","correct":-1,"choice":32,"rt":410.81000003032386,"accuracy":0,"outcome":"+10","keys":[1915.4350000899285],"total_keys":1,"block":1,"trial":100,"stimulus":11,"robot":2,"valence":"win","action":"no-go","sham":1,"trial_type":"pit-trial","trial_index":124,"time_elapsed":1455332,"internal_node_id":"0.0-101.0","task_version":"battery-v0.2"},{"rune":"J","rune_set":"bacs2","hex":"#3366ff99","correct":-1,"choice":32,"rt":344.33499979786575,"accuracy":0,"outcome":"+1","keys":[1845.960000064224],"total_keys":1,"block":1,"trial":101,"stimulus":11,"robot":2,"valence":"win","action":"no-go","sham":0,"trial_type":"pit-trial","trial_index":125,"time_elapsed":1458385,"internal_node_id":"0.0-102.0","task_version":"battery-v0.2"},{"rune":"X","rune_set":"bacs2","hex":"#f73b6a7A","correct":32,"choice":-1,"rt":-1,"accuracy":0,"outcome":"-1","keys":[],"total_keys":0,"block":1,"trial":102,"stimulus":9,"robot":3,"valence":"lose","action":"go","sham":1,"trial_type":"pit-trial","trial_index":126,"time_elapsed":1462400,"internal_node_id":"0.0-103.0","task_version":"battery-v0.2"},{"rune":"Z","rune_set":"bacs2","hex":"#3366ff99","correct":32,"choice":32,"rt":457.0599999278784,"accuracy":1,"outcome":"+10","keys":[1961.2250002101064],"total_keys":1,"block":1,"trial":103,"stimulus":8,"robot":1,"valence":"win","action":"go","sham":0,"trial_type":"pit-trial","trial_index":127,"time_elapsed":1465573,"internal_node_id":"0.0-104.0","task_version":"battery-v0.2"},{"rune":"W","rune_set":"bacs2","hex":"#f73b6a7A","correct":32,"choice":32,"rt":592.2249997965991,"accuracy":1,"outcome":"-10","keys":[2093.299999833107],"total_keys":1,"block":1,"trial":104,"stimulus":10,"robot":3,"valence":"lose","action":"go","sham":1,"trial_type":"pit-trial","trial_index":128,"time_elapsed":1468881,"internal_node_id":"0.0-105.0","task_version":"battery-v0.2"},{"rune":"J","rune_set":"bacs2","hex":"#3366ff99","correct":-1,"choice":32,"rt":411.5400000009686,"accuracy":0,"outcome":"+1","keys":[1916.274999966845],"total_keys":1,"block":1,"trial":105,"stimulus":11,"robot":2,"valence":"win","action":"no-go","sham":0,"trial_type":"pit-trial","trial_index":129,"time_elapsed":1472002,"internal_node_id":"0.0-106.0","task_version":"battery-v0.2"},{"rune":"W","rune_set":"bacs2","hex":"#f73b6a7A","correct":32,"choice":-1,"rt":-1,"accuracy":0,"outcome":"-10","keys":[],"total_keys":0,"block":1,"trial":106,"stimulus":10,"robot":3,"valence":"lose","action":"go","sham":0,"trial_type":"pit-trial","trial_index":130,"time_elapsed":1476013,"internal_node_id":"0.0-107.0","task_version":"battery-v0.2"},{"rune":"Z","rune_set":"bacs2","hex":"#3366ff99","correct":32,"choice":32,"rt":473.7899999599904,"accuracy":1,"outcome":"+10","keys":[1977.889999980107],"total_keys":1,"block":1,"trial":107,"stimulus":8,"robot":1,"valence":"win","action":"go","sham":0,"trial_type":"pit-trial","trial_index":131,"time_elapsed":1479197,"internal_node_id":"0.0-108.0","task_version":"battery-v0.2"},{"rune":"X","rune_set":"bacs2","hex":"#f73b6a7A","correct":32,"choice":-1,"rt":-1,"accuracy":0,"outcome":"-10","keys":[],"total_keys":0,"block":1,"trial":108,"stimulus":9,"robot":3,"valence":"lose","action":"go","sham":0,"trial_type":"pit-trial","trial_index":132,"time_elapsed":1483209,"internal_node_id":"0.0-109.0","task_version":"battery-v0.2"},{"rune":"J","rune_set":"bacs2","hex":"#3366ff99","correct":-1,"choice":32,"rt":287.46000002138317,"accuracy":0,"outcome":"+10","keys":[1788.3399999700487],"total_keys":1,"block":1,"trial":109,"stimulus":11,"robot":2,"valence":"win","action":"no-go","sham":1,"trial_type":"pit-trial","trial_index":133,"time_elapsed":1486203,"internal_node_id":"0.0-110.0","task_version":"battery-v0.2"},{"rune":"Z","rune_set":"bacs2","hex":"#3366ff99","correct":32,"choice":32,"rt":356.2849999871105,"accuracy":1,"outcome":"+10","keys":[1860.385000007227],"total_keys":1,"block":1,"trial":110,"stimulus":8,"robot":1,"valence":"win","action":"go","sham":0,"trial_type":"pit-trial","trial_index":134,"time_elapsed":1489274,"internal_node_id":"0.0-111.0","task_version":"battery-v0.2"},{"rune":"X","rune_set":"bacs2","hex":"#f73b6a7A","correct":32,"choice":-1,"rt":-1,"accuracy":0,"outcome":"-10","keys":[],"total_keys":0,"block":1,"trial":111,"stimulus":9,"robot":3,"valence":"lose","action":"go","sham":0,"trial_type":"pit-trial","trial_index":135,"time_elapsed":1493280,"internal_node_id":"0.0-112.0","task_version":"battery-v0.2"},{"rune":"W","rune_set":"bacs2","hex":"#f73b6a7A","correct":32,"choice":32,"rt":547.410000115633,"accuracy":1,"outcome":"-1","keys":[2049.5449998416007],"total_keys":1,"block":1,"trial":112,"stimulus":10,"robot":3,"valence":"lose","action":"go","sham":0,"trial_type":"pit-trial","trial_index":136,"time_elapsed":1496538,"internal_node_id":"0.0-113.0","task_version":"battery-v0.2"},{"rune":"J","rune_set":"bacs2","hex":"#3366ff99","correct":-1,"choice":32,"rt":363.03500016219914,"accuracy":0,"outcome":"+1","keys":[1867.189999902621],"total_keys":1,"block":1,"trial":113,"stimulus":11,"robot":2,"valence":"win","action":"no-go","sham":0,"trial_type":"pit-trial","trial_index":137,"time_elapsed":1499613,"internal_node_id":"0.0-114.0","task_version":"battery-v0.2"},{"rune":"W","rune_set":"bacs2","hex":"#f73b6a7A","correct":32,"choice":32,"rt":665.915000019595,"accuracy":1,"outcome":"-1","keys":[2166.779999854043],"total_keys":1,"block":1,"trial":114,"stimulus":10,"robot":3,"valence":"lose","action":"go","sham":0,"trial_type":"pit-trial","trial_index":138,"time_elapsed":1502984,"internal_node_id":"0.0-115.0","task_version":"battery-v0.2"},{"rune":"Z","rune_set":"bacs2","hex":"#3366ff99","correct":32,"choice":32,"rt":428.38499997742474,"accuracy":1,"outcome":"+10","keys":[1148.4449999406934,1932.8649998642504],"total_keys":2,"block":1,"trial":115,"stimulus":8,"robot":1,"valence":"win","action":"go","sham":0,"trial_type":"pit-trial","trial_index":139,"time_elapsed":1506121,"internal_node_id":"0.0-116.0","task_version":"battery-v0.2"},{"rune":"X","rune_set":"bacs2","hex":"#f73b6a7A","correct":32,"choice":32,"rt":777.1649998612702,"accuracy":1,"outcome":"-1","keys":[2280.999999959022],"total_keys":1,"block":1,"trial":116,"stimulus":9,"robot":3,"valence":"lose","action":"go","sham":0,"trial_type":"pit-trial","trial_index":140,"time_elapsed":1509610,"internal_node_id":"0.0-117.0","task_version":"battery-v0.2"},{"rune":"X","rune_set":"bacs2","hex":"#f73b6a7A","correct":32,"choice":32,"rt":590.8499998040497,"accuracy":1,"outcome":"-1","keys":[2095.4950000159442],"total_keys":1,"block":1,"trial":117,"stimulus":9,"robot":3,"valence":"lose","action":"go","sham":0,"trial_type":"pit-trial","trial_index":141,"time_elapsed":1512913,"internal_node_id":"0.0-118.0","task_version":"battery-v0.2"},{"rune":"J","rune_set":"bacs2","hex":"#3366ff99","correct":-1,"choice":-1,"rt":-1,"accuracy":1,"outcome":"+10","keys":[],"total_keys":0,"block":1,"trial":118,"stimulus":11,"robot":2,"valence":"win","action":"no-go","sham":0,"trial_type":"pit-trial","trial_index":142,"time_elapsed":1516925,"internal_node_id":"0.0-119.0","task_version":"battery-v0.2"},{"rune":"W","rune_set":"bacs2","hex":"#f73b6a7A","correct":32,"choice":32,"rt":996.46499985829,"accuracy":1,"outcome":"-1","keys":[2498.799999943003],"total_keys":1,"block":1,"trial":119,"stimulus":10,"robot":3,"valence":"lose","action":"go","sham":0,"trial_type":"pit-trial","trial_index":143,"time_elapsed":1520637,"internal_node_id":"0.0-120.0","task_version":"battery-v0.2"},{"rune":"Z","rune_set":"bacs2","hex":"#3366ff99","correct":32,"choice":32,"rt":534.8950000479817,"accuracy":1,"outcome":"+10","keys":[2036.674999864772],"total_keys":1,"block":1,"trial":120,"stimulus":8,"robot":1,"valence":"win","action":"go","sham":0,"trial_type":"pit-trial","trial_index":144,"time_elapsed":1523878,"internal_node_id":"0.0-121.0","task_version":"battery-v0.2"},{"view_history":"[{\"page_index\":0,\"viewing_time\":87919.07000006177},{\"page_index\":1,\"viewing_time\":2708.295000018552}]","rt":90628.1050001271,"trial_type":"pit-instructions","trial_index":145,"time_elapsed":1614509,"internal_node_id":"0.0-122.0","task_version":"battery-v0.2"},{"rune":"V","rune_set":"bacs2","hex":"#3366ff99","correct":32,"choice":32,"rt":599.2600000463426,"accuracy":1,"outcome":"+10","keys":[2104.2949999682605],"total_keys":1,"block":2,"trial":121,"stimulus":3,"robot":1,"valence":"win","action":"go","sham":0,"trial_type":"pit-trial","trial_index":146,"time_elapsed":1617825,"internal_node_id":"0.0-123.0","task_version":"battery-v0.2"},{"rune":"B","rune_set":"bacs2","hex":"#3366ff99","correct":32,"choice":-1,"rt":-1,"accuracy":0,"outcome":"+1","keys":[],"total_keys":0,"block":2,"trial":122,"stimulus":1,"robot":1,"valence":"win","action":"go","sham":0,"trial_type":"pit-trial","trial_index":147,"time_elapsed":1621837,"internal_node_id":"0.0-124.0","task_version":"battery-v0.2"},{"rune":"K","rune_set":"bacs2","hex":"#f73b6a7A","correct":-1,"choice":-1,"rt":-1,"accuracy":1,"outcome":"-10","keys":[2879.704999970272],"total_keys":1,"block":2,"trial":123,"stimulus":2,"robot":4,"valence":"lose","action":"no-go","sham":1,"trial_type":"pit-trial","trial_index":148,"time_elapsed":1625855,"internal_node_id":"0.0-125.0","task_version":"battery-v0.2"},{"rune":"M","rune_set":"bacs2","hex":"#3366ff99","correct":-1,"choice":-1,"rt":-1,"accuracy":1,"outcome":"+10","keys":[],"total_keys":0,"block":2,"trial":124,"stimulus":0,"robot":2,"valence":"win","action":"no-go","sham":0,"trial_type":"pit-trial","trial_index":149,"time_elapsed":1629867,"internal_node_id":"0.0-126.0","task_version":"battery-v0.2"},{"rune":"B","rune_set":"bacs2","hex":"#3366ff99","correct":32,"choice":32,"rt":564.890000037849,"accuracy":1,"outcome":"+1","keys":[2069.0750000067055],"total_keys":1,"block":2,"trial":125,"stimulus":1,"robot":1,"valence":"win","action":"go","sham":1,"trial_type":"pit-trial","trial_index":150,"time_elapsed":1633143,"internal_node_id":"0.0-127.0","task_version":"battery-v0.2"},{"rune":"K","rune_set":"bacs2","hex":"#f73b6a7A","correct":-1,"choice":-1,"rt":-1,"accuracy":1,"outcome":"-10","keys":[],"total_keys":0,"block":2,"trial":126,"stimulus":2,"robot":4,"valence":"lose","action":"no-go","sham":1,"trial_type":"pit-trial","trial_index":151,"time_elapsed":1637149,"internal_node_id":"0.0-128.0","task_version":"battery-v0.2"},{"rune":"M","rune_set":"bacs2","hex":"#3366ff99","correct":-1,"choice":32,"rt":503.2749997917563,"accuracy":0,"outcome":"+1","keys":[2007.4599999934435],"total_keys":1,"block":2,"trial":127,"stimulus":0,"robot":2,"valence":"win","action":"no-go","sham":0,"trial_type":"pit-trial","trial_index":152,"time_elapsed":1640362,"internal_node_id":"0.0-129.0","task_version":"battery-v0.2"},{"rune":"V","rune_set":"bacs2","hex":"#3366ff99","correct":32,"choice":32,"rt":214.55999999307096,"accuracy":1,"outcome":"+10","keys":[1716.4600000251085],"total_keys":1,"block":2,"trial":128,"stimulus":3,"robot":1,"valence":"win","action":"go","sham":0,"trial_type":"pit-trial","trial_index":153,"time_elapsed":1643285,"internal_node_id":"0.0-130.0","task_version":"battery-v0.2"},{"rune":"B","rune_set":"bacs2","hex":"#3366ff99","correct":32,"choice":32,"rt":794.5149999577552,"accuracy":1,"outcome":"+10","keys":[2297.04499989748],"total_keys":1,"block":2,"trial":129,"stimulus":1,"robot":1,"valence":"win","action":"go","sham":0,"trial_type":"pit-trial","trial_index":154,"time_elapsed":1646789,"internal_node_id":"0.0-131.0","task_version":"battery-v0.2"},{"rune":"K","rune_set":"bacs2","hex":"#f73b6a7A","correct":-1,"choice":-1,"rt":-1,"accuracy":1,"outcome":"-1","keys":[],"total_keys":0,"block":2,"trial":130,"stimulus":2,"robot":4,"valence":"lose","action":"no-go","sham":0,"trial_type":"pit-trial","trial_index":155,"time_elapsed":1650809,"internal_node_id":"0.0-132.0","task_version":"battery-v0.2"},{"rune":"M","rune_set":"bacs2","hex":"#3366ff99","correct":-1,"choice":32,"rt":1173.875000094995,"accuracy":0,"outcome":"+1","keys":[2674.6399998664856],"total_keys":1,"block":2,"trial":131,"stimulus":0,"robot":2,"valence":"win","action":"no-go","sham":0,"trial_type":"pit-trial","trial_index":156,"time_elapsed":1654692,"internal_node_id":"0.0-133.0","task_version":"battery-v0.2"},{"rune":"V","rune_set":"bacs2","hex":"#3366ff99","correct":32,"choice":-1,"rt":-1,"accuracy":0,"outcome":"+1","keys":[],"total_keys":0,"block":2,"trial":132,"stimulus":3,"robot":1,"valence":"win","action":"go","sham":0,"trial_type":"pit-trial","trial_index":157,"time_elapsed":1658709,"internal_node_id":"0.0-134.0","task_version":"battery-v0.2"},{"rune":"K","rune_set":"bacs2","hex":"#f73b6a7A","correct":-1,"choice":32,"rt":551.8099998589605,"accuracy":0,"outcome":"-10","keys":[2056.414999999106],"total_keys":1,"block":2,"trial":133,"stimulus":2,"robot":4,"valence":"lose","action":"no-go","sham":0,"trial_type":"pit-trial","trial_index":158,"time_elapsed":1661972,"internal_node_id":"0.0-135.0","task_version":"battery-v0.2"},{"rune":"M","rune_set":"bacs2","hex":"#3366ff99","correct":-1,"choice":32,"rt":1054.2099999729544,"accuracy":0,"outcome":"+1","keys":[2557.6849998906255],"total_keys":1,"block":2,"trial":134,"stimulus":0,"robot":2,"valence":"win","action":"no-go","sham":0,"trial_type":"pit-trial","trial_index":159,"time_elapsed":1665739,"internal_node_id":"0.0-136.0","task_version":"battery-v0.2"},{"rune":"B","rune_set":"bacs2","hex":"#3366ff99","correct":32,"choice":32,"rt":538.2799999788404,"accuracy":1,"outcome":"+10","keys":[2042.549999896437],"total_keys":1,"block":2,"trial":135,"stimulus":1,"robot":1,"valence":"win","action":"go","sham":0,"trial_type":"pit-trial","trial_index":160,"time_elapsed":1668987,"internal_node_id":"0.0-137.0","task_version":"battery-v0.2"},{"rune":"V","rune_set":"bacs2","hex":"#3366ff99","correct":32,"choice":-1,"rt":-1,"accuracy":0,"outcome":"+1","keys":[3193.995000096038],"total_keys":1,"block":2,"trial":136,"stimulus":3,"robot":1,"valence":"win","action":"go","sham":0,"trial_type":"pit-trial","trial_index":161,"time_elapsed":1673005,"internal_node_id":"0.0-138.0","task_version":"battery-v0.2"},{"rune":"B","rune_set":"bacs2","hex":"#3366ff99","correct":32,"choice":32,"rt":786.725000012666,"accuracy":1,"outcome":"+10","keys":[2290.324999950826],"total_keys":1,"block":2,"trial":137,"stimulus":1,"robot":1,"valence":"win","action":"go","sham":0,"trial_type":"pit-trial","trial_index":162,"time_elapsed":1676504,"internal_node_id":"0.0-139.0","task_version":"battery-v0.2"},{"rune":"K","rune_set":"bacs2","hex":"#f73b6a7A","correct":-1,"choice":-1,"rt":-1,"accuracy":1,"outcome":"-10","keys":[],"total_keys":0,"block":2,"trial":138,"stimulus":2,"robot":4,"valence":"lose","action":"no-go","sham":1,"trial_type":"pit-trial","trial_index":163,"time_elapsed":1680522,"internal_node_id":"0.0-140.0","task_version":"battery-v0.2"},{"rune":"M","rune_set":"bacs2","hex":"#3366ff99","correct":-1,"choice":32,"rt":967.2499999869615,"accuracy":0,"outcome":"+1","keys":[1202.6549999136478,2469.5499998051673],"total_keys":2,"block":2,"trial":139,"stimulus":0,"robot":2,"valence":"win","action":"no-go","sham":0,"trial_type":"pit-trial","trial_index":164,"time_elapsed":1684200,"internal_node_id":"0.0-141.0","task_version":"battery-v0.2"},{"rune":"V","rune_set":"bacs2","hex":"#3366ff99","correct":32,"choice":-1,"rt":-1,"accuracy":0,"outcome":"+1","keys":[],"total_keys":0,"block":2,"trial":140,"stimulus":3,"robot":1,"valence":"win","action":"go","sham":0,"trial_type":"pit-trial","trial_index":165,"time_elapsed":1688208,"internal_node_id":"0.0-142.0","task_version":"battery-v0.2"},{"rune":"M","rune_set":"bacs2","hex":"#3366ff99","correct":-1,"choice":32,"rt":452.019999967888,"accuracy":0,"outcome":"+1","keys":[1047.359999967739,1956.705000018701],"total_keys":2,"block":2,"trial":141,"stimulus":0,"robot":2,"valence":"win","action":"no-go","sham":0,"trial_type":"pit-trial","trial_index":166,"time_elapsed":1691376,"internal_node_id":"0.0-143.0","task_version":"battery-v0.2"},{"rune":"B","rune_set":"bacs2","hex":"#3366ff99","correct":32,"choice":-1,"rt":-1,"accuracy":0,"outcome":"+1","keys":[],"total_keys":0,"block":2,"trial":142,"stimulus":1,"robot":1,"valence":"win","action":"go","sham":0,"trial_type":"pit-trial","trial_index":167,"time_elapsed":1695387,"internal_node_id":"0.0-144.0","task_version":"battery-v0.2"},{"rune":"V","rune_set":"bacs2","hex":"#3366ff99","correct":32,"choice":32,"rt":431.3399998936802,"accuracy":1,"outcome":"+10","keys":[93.88999990187585,1936.035000020638],"total_keys":2,"block":2,"trial":143,"stimulus":3,"robot":1,"valence":"win","action":"go","sham":0,"trial_type":"pit-trial","trial_index":168,"time_elapsed":1698534,"internal_node_id":"0.0-145.0","task_version":"battery-v0.2"},{"rune":"K","rune_set":"bacs2","hex":"#f73b6a7A","correct":-1,"choice":-1,"rt":-1,"accuracy":1,"outcome":"-1","keys":[],"total_keys":0,"block":2,"trial":144,"stimulus":2,"robot":4,"valence":"lose","action":"no-go","sham":0,"trial_type":"pit-trial","trial_index":169,"time_elapsed":1702545,"internal_node_id":"0.0-146.0","task_version":"battery-v0.2"},{"rune":"M","rune_set":"bacs2","hex":"#3366ff99","correct":-1,"choice":32,"rt":341.1199999973178,"accuracy":0,"outcome":"+1","keys":[1846.0500000510365],"total_keys":1,"block":2,"trial":145,"stimulus":0,"robot":2,"valence":"win","action":"no-go","sham":0,"trial_type":"pit-trial","trial_index":170,"time_elapsed":1705603,"internal_node_id":"0.0-147.0","task_version":"battery-v0.2"},{"rune":"K","rune_set":"bacs2","hex":"#f73b6a7A","correct":-1,"choice":-1,"rt":-1,"accuracy":1,"outcome":"-1","keys":[2940.669999923557],"total_keys":1,"block":2,"trial":146,"stimulus":2,"robot":4,"valence":"lose","action":"no-go","sham":0,"trial_type":"pit-trial","trial_index":171,"time_elapsed":1709614,"internal_node_id":"0.0-148.0","task_version":"battery-v0.2"},{"rune":"V","rune_set":"bacs2","hex":"#3366ff99","correct":32,"choice":-1,"rt":-1,"accuracy":0,"outcome":"+1","keys":[],"total_keys":0,"block":2,"trial":147,"stimulus":3,"robot":1,"valence":"win","action":"go","sham":0,"trial_type":"pit-trial","trial_index":172,"time_elapsed":1713632,"internal_node_id":"0.0-149.0","task_version":"battery-v0.2"},{"rune":"B","rune_set":"bacs2","hex":"#3366ff99","correct":32,"choice":32,"rt":412.9349999129772,"accuracy":1,"outcome":"+10","keys":[1916.440000059083],"total_keys":1,"block":2,"trial":148,"stimulus":1,"robot":1,"valence":"win","action":"go","sham":0,"trial_type":"pit-trial","trial_index":173,"time_elapsed":1716752,"internal_node_id":"0.0-150.0","task_version":"battery-v0.2"},{"rune":"B","rune_set":"bacs2","hex":"#3366ff99","correct":32,"choice":-1,"rt":-1,"accuracy":0,"outcome":"+1","keys":[],"total_keys":0,"block":2,"trial":149,"stimulus":1,"robot":1,"valence":"win","action":"go","sham":0,"trial_type":"pit-trial","trial_index":174,"time_elapsed":1720770,"internal_node_id":"0.0-151.0","task_version":"battery-v0.2"},{"rune":"K","rune_set":"bacs2","hex":"#f73b6a7A","correct":-1,"choice":32,"rt":371.8949998728931,"accuracy":0,"outcome":"-10","keys":[1875.5200000014156],"total_keys":1,"block":2,"trial":150,"stimulus":2,"robot":4,"valence":"lose","action":"no-go","sham":0,"trial_type":"pit-trial","trial_index":175,"time_elapsed":1723855,"internal_node_id":"0.0-152.0","task_version":"battery-v0.2"},{"rune":"V","rune_set":"bacs2","hex":"#3366ff99","correct":32,"choice":-1,"rt":-1,"accuracy":0,"outcome":"+1","keys":[],"total_keys":0,"block":2,"trial":151,"stimulus":3,"robot":1,"valence":"win","action":"go","sham":0,"trial_type":"pit-trial","trial_index":176,"time_elapsed":1727866,"internal_node_id":"0.0-153.0","task_version":"battery-v0.2"},{"rune":"M","rune_set":"bacs2","hex":"#3366ff99","correct":-1,"choice":32,"rt":359.8100000526756,"accuracy":0,"outcome":"+1","keys":[1862.4449998605996],"total_keys":1,"block":2,"trial":152,"stimulus":0,"robot":2,"valence":"win","action":"no-go","sham":0,"trial_type":"pit-trial","trial_index":177,"time_elapsed":1730939,"internal_node_id":"0.0-154.0","task_version":"battery-v0.2"},{"rune":"M","rune_set":"bacs2","hex":"#3366ff99","correct":-1,"choice":32,"rt":735.4449999984354,"accuracy":0,"outcome":"+1","keys":[2239.8850000463426],"total_keys":1,"block":2,"trial":153,"stimulus":0,"robot":2,"valence":"win","action":"no-go","sham":0,"trial_type":"pit-trial","trial_index":178,"time_elapsed":1734383,"internal_node_id":"0.0-155.0","task_version":"battery-v0.2"},{"rune":"V","rune_set":"bacs2","hex":"#3366ff99","correct":32,"choice":-1,"rt":-1,"accuracy":0,"outcome":"+1","keys":[],"total_keys":0,"block":2,"trial":154,"stimulus":3,"robot":1,"valence":"win","action":"go","sham":0,"trial_type":"pit-trial","trial_index":179,"time_elapsed":1738397,"internal_node_id":"0.0-156.0","task_version":"battery-v0.2"},{"rune":"R","rune_set":"bacs2","hex":"#3366ff99","correct":32,"choice":-1,"rt":-1,"accuracy":0,"outcome":"+1","keys":[],"total_keys":0,"block":2,"trial":155,"stimulus":4,"robot":1,"valence":"win","action":"go","sham":0,"trial_type":"pit-trial","trial_index":180,"time_elapsed":1742405,"internal_node_id":"0.0-157.0","task_version":"battery-v0.2"},{"rune":"K","rune_set":"bacs2","hex":"#f73b6a7A","correct":-1,"choice":32,"rt":272.27500011213124,"accuracy":0,"outcome":"-10","keys":[1776.334999827668],"total_keys":1,"block":2,"trial":156,"stimulus":2,"robot":4,"valence":"lose","action":"no-go","sham":0,"trial_type":"pit-trial","trial_index":181,"time_elapsed":1745394,"internal_node_id":"0.0-158.0","task_version":"battery-v0.2"},{"rune":"K","rune_set":"bacs2","hex":"#f73b6a7A","correct":-1,"choice":-1,"rt":-1,"accuracy":1,"outcome":"-1","keys":[],"total_keys":0,"block":2,"trial":157,"stimulus":2,"robot":4,"valence":"lose","action":"no-go","sham":0,"trial_type":"pit-trial","trial_index":182,"time_elapsed":1749408,"internal_node_id":"0.0-159.0","task_version":"battery-v0.2"},{"rune":"R","rune_set":"bacs2","hex":"#3366ff99","correct":32,"choice":32,"rt":412.1399999130517,"accuracy":1,"outcome":"+10","keys":[1916.7400000151247],"total_keys":1,"block":2,"trial":158,"stimulus":4,"robot":1,"valence":"win","action":"go","sham":0,"trial_type":"pit-trial","trial_index":183,"time_elapsed":1752532,"internal_node_id":"0.0-160.0","task_version":"battery-v0.2"},{"rune":"V","rune_set":"bacs2","hex":"#3366ff99","correct":32,"choice":-1,"rt":-1,"accuracy":0,"outcome":"+10","keys":[],"total_keys":0,"block":2,"trial":159,"stimulus":3,"robot":1,"valence":"win","action":"go","sham":1,"trial_type":"pit-trial","trial_index":184,"time_elapsed":1756545,"internal_node_id":"0.0-161.0","task_version":"battery-v0.2"},{"rune":"M","rune_set":"bacs2","hex":"#3366ff99","correct":-1,"choice":32,"rt":197.99999985843897,"accuracy":0,"outcome":"+1","keys":[1699.690000154078],"total_keys":1,"block":2,"trial":160,"stimulus":0,"robot":2,"valence":"win","action":"no-go","sham":0,"trial_type":"pit-trial","trial_index":185,"time_elapsed":1759450,"internal_node_id":"0.0-162.0","task_version":"battery-v0.2"},{"rune":"M","rune_set":"bacs2","hex":"#3366ff99","correct":-1,"choice":-1,"rt":-1,"accuracy":1,"outcome":"+10","keys":[2946.999999927357],"total_keys":1,"block":2,"trial":161,"stimulus":0,"robot":2,"valence":"win","action":"no-go","sham":0,"trial_type":"pit-trial","trial_index":186,"time_elapsed":1763465,"internal_node_id":"0.0-163.0","task_version":"battery-v0.2"},{"rune":"L","rune_set":"bacs2","hex":"#f73b6a7A","correct":-1,"choice":-1,"rt":-1,"accuracy":1,"outcome":"-1","keys":[],"total_keys":0,"block":2,"trial":162,"stimulus":6,"robot":4,"valence":"lose","action":"no-go","sham":0,"trial_type":"pit-trial","trial_index":187,"time_elapsed":1767478,"internal_node_id":"0.0-164.0","task_version":"battery-v0.2"},{"rune":"R","rune_set":"bacs2","hex":"#3366ff99","correct":32,"choice":32,"rt":347.7549999952316,"accuracy":1,"outcome":"+1","keys":[1849.80500000529],"total_keys":1,"block":2,"trial":163,"stimulus":4,"robot":1,"valence":"win","action":"go","sham":1,"trial_type":"pit-trial","trial_index":188,"time_elapsed":1770537,"internal_node_id":"0.0-165.0","task_version":"battery-v0.2"},{"rune":"P","rune_set":"bacs2","hex":"#f73b6a7A","correct":32,"choice":32,"rt":413.9649998396635,"accuracy":1,"outcome":"-1","keys":[1914.145000046119],"total_keys":1,"block":2,"trial":164,"stimulus":5,"robot":3,"valence":"lose","action":"go","sham":0,"trial_type":"pit-trial","trial_index":189,"time_elapsed":1773658,"internal_node_id":"0.0-166.0","task_version":"battery-v0.2"},{"rune":"R","rune_set":"bacs2","hex":"#3366ff99","correct":32,"choice":32,"rt":698.8550000824034,"accuracy":1,"outcome":"+10","keys":[2202.3700000718236],"total_keys":1,"block":2,"trial":165,"stimulus":4,"robot":1,"valence":"win","action":"go","sham":0,"trial_type":"pit-trial","trial_index":190,"time_elapsed":1777072,"internal_node_id":"0.0-167.0","task_version":"battery-v0.2"},{"rune":"L","rune_set":"bacs2","hex":"#f73b6a7A","correct":-1,"choice":-1,"rt":-1,"accuracy":1,"outcome":"-1","keys":[],"total_keys":0,"block":2,"trial":166,"stimulus":6,"robot":4,"valence":"lose","action":"no-go","sham":0,"trial_type":"pit-trial","trial_index":191,"time_elapsed":1781083,"internal_node_id":"0.0-168.0","task_version":"battery-v0.2"},{"rune":"P","rune_set":"bacs2","hex":"#f73b6a7A","correct":32,"choice":32,"rt":403.9800001773983,"accuracy":1,"outcome":"-1","keys":[1907.7099999412894],"total_keys":1,"block":2,"trial":167,"stimulus":5,"robot":3,"valence":"lose","action":"go","sham":0,"trial_type":"pit-trial","trial_index":192,"time_elapsed":1784198,"internal_node_id":"0.0-169.0","task_version":"battery-v0.2"},{"rune":"M","rune_set":"bacs2","hex":"#3366ff99","correct":-1,"choice":-1,"rt":-1,"accuracy":1,"outcome":"+10","keys":[],"total_keys":0,"block":2,"trial":168,"stimulus":0,"robot":2,"valence":"win","action":"no-go","sham":0,"trial_type":"pit-trial","trial_index":193,"time_elapsed":1788212,"internal_node_id":"0.0-170.0","task_version":"battery-v0.2"},{"rune":"S","rune_set":"bacs2","hex":"#3366ff99","correct":-1,"choice":32,"rt":442.8850000258535,"accuracy":0,"outcome":"+1","keys":[1947.7800000458956],"total_keys":1,"block":2,"trial":169,"stimulus":7,"robot":2,"valence":"win","action":"no-go","sham":0,"trial_type":"pit-trial","trial_index":194,"time_elapsed":1791369,"internal_node_id":"0.0-171.0","task_version":"battery-v0.2"},{"rune":"L","rune_set":"bacs2","hex":"#f73b6a7A","correct":-1,"choice":-1,"rt":-1,"accuracy":1,"outcome":"-10","keys":[],"total_keys":0,"block":2,"trial":170,"stimulus":6,"robot":4,"valence":"lose","action":"no-go","sham":1,"trial_type":"pit-trial","trial_index":195,"time_elapsed":1795388,"internal_node_id":"0.0-172.0","task_version":"battery-v0.2"},{"rune":"P","rune_set":"bacs2","hex":"#f73b6a7A","correct":32,"choice":32,"rt":332.6600000727922,"accuracy":1,"outcome":"-1","keys":[1836.8899999186397],"total_keys":1,"block":2,"trial":171,"stimulus":5,"robot":3,"valence":"lose","action":"go","sham":0,"trial_type":"pit-trial","trial_index":196,"time_elapsed":1798434,"internal_node_id":"0.0-173.0","task_version":"battery-v0.2"},{"rune":"R","rune_set":"bacs2","hex":"#3366ff99","correct":32,"choice":32,"rt":469.1750002093613,"accuracy":1,"outcome":"+10","keys":[1973.3599999453872],"total_keys":1,"block":2,"trial":172,"stimulus":4,"robot":1,"valence":"win","action":"go","sham":0,"trial_type":"pit-trial","trial_index":197,"time_elapsed":1801614,"internal_node_id":"0.0-174.0","task_version":"battery-v0.2"},{"rune":"R","rune_set":"bacs2","hex":"#3366ff99","correct":32,"choice":32,"rt":571.1850000079721,"accuracy":1,"outcome":"+10","keys":[2072.8600001893938],"total_keys":1,"block":2,"trial":173,"stimulus":4,"robot":1,"valence":"win","action":"go","sham":0,"trial_type":"pit-trial","trial_index":198,"time_elapsed":1804895,"internal_node_id":"0.0-175.0","task_version":"battery-v0.2"},{"rune":"P","rune_set":"bacs2","hex":"#f73b6a7A","correct":32,"choice":-1,"rt":-1,"accuracy":0,"outcome":"-10","keys":[],"total_keys":0,"block":2,"trial":174,"stimulus":5,"robot":3,"valence":"lose","action":"go","sham":0,"trial_type":"pit-trial","trial_index":199,"time_elapsed":1808906,"internal_node_id":"0.0-176.0","task_version":"battery-v0.2"},{"rune":"S","rune_set":"bacs2","hex":"#3366ff99","correct":-1,"choice":32,"rt":334.15000000968575,"accuracy":0,"outcome":"+1","keys":[1835.53500007838],"total_keys":1,"block":2,"trial":175,"stimulus":7,"robot":2,"valence":"win","action":"no-go","sham":0,"trial_type":"pit-trial","trial_index":200,"time_elapsed":1811947,"internal_node_id":"0.0-177.0","task_version":"battery-v0.2"},{"rune":"L","rune_set":"bacs2","hex":"#f73b6a7A","correct":-1,"choice":32,"rt":968.0749999824911,"accuracy":0,"outcome":"-10","keys":[2472.1999999601394],"total_keys":1,"block":2,"trial":176,"stimulus":6,"robot":4,"valence":"lose","action":"no-go","sham":0,"trial_type":"pit-trial","trial_index":201,"time_elapsed":1815626,"internal_node_id":"0.0-178.0","task_version":"battery-v0.2"},{"rune":"R","rune_set":"bacs2","hex":"#3366ff99","correct":32,"choice":32,"rt":471.445000031963,"accuracy":1,"outcome":"+1","keys":[1975.6500001531094],"total_keys":1,"block":2,"trial":177,"stimulus":4,"robot":1,"valence":"win","action":"go","sham":1,"trial_type":"pit-trial","trial_index":202,"time_elapsed":1818813,"internal_node_id":"0.0-179.0","task_version":"battery-v0.2"},{"rune":"S","rune_set":"bacs2","hex":"#3366ff99","correct":-1,"choice":32,"rt":429.2349999304861,"accuracy":0,"outcome":"+10","keys":[1934.1150000691414],"total_keys":1,"block":2,"trial":178,"stimulus":7,"robot":2,"valence":"win","action":"no-go","sham":1,"trial_type":"pit-trial","trial_index":203,"time_elapsed":1821953,"internal_node_id":"0.0-180.0","task_version":"battery-v0.2"},{"rune":"P","rune_set":"bacs2","hex":"#f73b6a7A","correct":32,"choice":-1,"rt":-1,"accuracy":0,"outcome":"-10","keys":[],"total_keys":0,"block":2,"trial":179,"stimulus":5,"robot":3,"valence":"lose","action":"go","sham":0,"trial_type":"pit-trial","trial_index":204,"time_elapsed":1825960,"internal_node_id":"0.0-181.0","task_version":"battery-v0.2"},{"rune":"L","rune_set":"bacs2","hex":"#f73b6a7A","correct":-1,"choice":32,"rt":222.8449999820441,"accuracy":0,"outcome":"-1","keys":[1726.9650001544505],"total_keys":1,"block":2,"trial":180,"stimulus":6,"robot":4,"valence":"lose","action":"no-go","sham":1,"trial_type":"pit-trial","trial_index":205,"time_elapsed":1828892,"internal_node_id":"0.0-182.0","task_version":"battery-v0.2"},{"rune":"S","rune_set":"bacs2","hex":"#3366ff99","correct":-1,"choice":32,"rt":505.98499993793666,"accuracy":0,"outcome":"+1","keys":[2010.5149999726564],"total_keys":1,"block":2,"trial":181,"stimulus":7,"robot":2,"valence":"win","action":"no-go","sham":0,"trial_type":"pit-trial","trial_index":206,"time_elapsed":1832109,"internal_node_id":"0.0-183.0","task_version":"battery-v0.2"},{"rune":"R","rune_set":"bacs2","hex":"#3366ff99","correct":32,"choice":32,"rt":354.82500004582107,"accuracy":1,"outcome":"+10","keys":[1856.205000076443],"total_keys":1,"block":2,"trial":182,"stimulus":4,"robot":1,"valence":"win","action":"go","sham":0,"trial_type":"pit-trial","trial_index":207,"time_elapsed":1835178,"internal_node_id":"0.0-184.0","task_version":"battery-v0.2"},{"rune":"P","rune_set":"bacs2","hex":"#f73b6a7A","correct":32,"choice":32,"rt":511.66999991983175,"accuracy":1,"outcome":"-1","keys":[2015.8150000497699],"total_keys":1,"block":2,"trial":183,"stimulus":5,"robot":3,"valence":"lose","action":"go","sham":0,"trial_type":"pit-trial","trial_index":208,"time_elapsed":1838403,"internal_node_id":"0.0-185.0","task_version":"battery-v0.2"},{"rune":"L","rune_set":"bacs2","hex":"#f73b6a7A","correct":-1,"choice":-1,"rt":-1,"accuracy":1,"outcome":"-1","keys":[],"total_keys":0,"block":2,"trial":184,"stimulus":6,"robot":4,"valence":"lose","action":"no-go","sham":0,"trial_type":"pit-trial","trial_index":209,"time_elapsed":1842418,"internal_node_id":"0.0-186.0","task_version":"battery-v0.2"},{"rune":"S","rune_set":"bacs2","hex":"#3366ff99","correct":-1,"choice":32,"rt":572.1200001426041,"accuracy":0,"outcome":"+1","keys":[2076.260000001639],"total_keys":1,"block":2,"trial":185,"stimulus":7,"robot":2,"valence":"win","action":"no-go","sham":0,"trial_type":"pit-trial","trial_index":210,"time_elapsed":1845704,"internal_node_id":"0.0-187.0","task_version":"battery-v0.2"},{"rune":"P","rune_set":"bacs2","hex":"#f73b6a7A","correct":32,"choice":-1,"rt":-1,"accuracy":0,"outcome":"-10","keys":[],"total_keys":0,"block":2,"trial":186,"stimulus":5,"robot":3,"valence":"lose","action":"go","sham":0,"trial_type":"pit-trial","trial_index":211,"time_elapsed":1849717,"internal_node_id":"0.0-188.0","task_version":"battery-v0.2"},{"rune":"R","rune_set":"bacs2","hex":"#3366ff99","correct":32,"choice":32,"rt":310.4499999899417,"accuracy":1,"outcome":"+1","keys":[1810.8950001187623],"total_keys":1,"block":2,"trial":187,"stimulus":4,"robot":1,"valence":"win","action":"go","sham":1,"trial_type":"pit-trial","trial_index":212,"time_elapsed":1852735,"internal_node_id":"0.0-189.0","task_version":"battery-v0.2"},{"rune":"L","rune_set":"bacs2","hex":"#f73b6a7A","correct":-1,"choice":32,"rt":429.59999991580844,"accuracy":0,"outcome":"-10","keys":[1931.1950001865625],"total_keys":1,"block":2,"trial":188,"stimulus":6,"robot":4,"valence":"lose","action":"no-go","sham":0,"trial_type":"pit-trial","trial_index":213,"time_elapsed":1855871,"internal_node_id":"0.0-190.0","task_version":"battery-v0.2"},{"rune":"L","rune_set":"bacs2","hex":"#f73b6a7A","correct":-1,"choice":-1,"rt":-1,"accuracy":1,"outcome":"-1","keys":[],"total_keys":0,"block":2,"trial":189,"stimulus":6,"robot":4,"valence":"lose","action":"no-go","sham":0,"trial_type":"pit-trial","trial_index":214,"time_elapsed":1859879,"internal_node_id":"0.0-191.0","task_version":"battery-v0.2"},{"rune":"S","rune_set":"bacs2","hex":"#3366ff99","correct":-1,"choice":-1,"rt":-1,"accuracy":1,"outcome":"+10","keys":[],"total_keys":0,"block":2,"trial":190,"stimulus":7,"robot":2,"valence":"win","action":"no-go","sham":0,"trial_type":"pit-trial","trial_index":215,"time_elapsed":1863896,"internal_node_id":"0.0-192.0","task_version":"battery-v0.2"},{"rune":"R","rune_set":"bacs2","hex":"#3366ff99","correct":32,"choice":32,"rt":467.88000012747943,"accuracy":1,"outcome":"+10","keys":[1971.9350000377744],"total_keys":1,"block":2,"trial":191,"stimulus":4,"robot":1,"valence":"win","action":"go","sham":0,"trial_type":"pit-trial","trial_index":216,"time_elapsed":1867074,"internal_node_id":"0.0-193.0","task_version":"battery-v0.2"},{"rune":"P","rune_set":"bacs2","hex":"#f73b6a7A","correct":32,"choice":-1,"rt":-1,"accuracy":0,"outcome":"-10","keys":[],"total_keys":0,"block":2,"trial":192,"stimulus":5,"robot":3,"valence":"lose","action":"go","sham":0,"trial_type":"pit-trial","trial_index":217,"time_elapsed":1871086,"internal_node_id":"0.0-194.0","task_version":"battery-v0.2"},{"rune":"S","rune_set":"bacs2","hex":"#3366ff99","correct":-1,"choice":32,"rt":567.8850000258535,"accuracy":0,"outcome":"+10","keys":[2071.8449999112636],"total_keys":1,"block":2,"trial":193,"stimulus":7,"robot":2,"valence":"win","action":"no-go","sham":1,"trial_type":"pit-trial","trial_index":218,"time_elapsed":1874365,"internal_node_id":"0.0-195.0","task_version":"battery-v0.2"},{"rune":"R","rune_set":"bacs2","hex":"#3366ff99","correct":32,"choice":32,"rt":462.9800000693649,"accuracy":1,"outcome":"+1","keys":[1967.7149998024106],"total_keys":1,"block":2,"trial":194,"stimulus":4,"robot":1,"valence":"win","action":"go","sham":1,"trial_type":"pit-trial","trial_index":219,"time_elapsed":1877543,"internal_node_id":"0.0-196.0","task_version":"battery-v0.2"},{"rune":"L","rune_set":"bacs2","hex":"#f73b6a7A","correct":-1,"choice":32,"rt":1196.4249999728054,"accuracy":0,"outcome":"-10","keys":[2700.490000192076],"total_keys":1,"block":2,"trial":195,"stimulus":6,"robot":4,"valence":"lose","action":"no-go","sham":0,"trial_type":"pit-trial","trial_index":220,"time_elapsed":1881453,"internal_node_id":"0.0-197.0","task_version":"battery-v0.2"},{"rune":"U","rune_set":"bacs2","hex":"#f73b6a7A","correct":32,"choice":-1,"rt":-1,"accuracy":0,"outcome":"-10","keys":[],"total_keys":0,"block":2,"trial":196,"stimulus":8,"robot":3,"valence":"lose","action":"go","sham":0,"trial_type":"pit-trial","trial_index":221,"time_elapsed":1885465,"internal_node_id":"0.0-198.0","task_version":"battery-v0.2"},{"rune":"R","rune_set":"bacs2","hex":"#3366ff99","correct":32,"choice":32,"rt":389.63499991223216,"accuracy":1,"outcome":"+1","keys":[1893.6449999455363],"total_keys":1,"block":2,"trial":197,"stimulus":4,"robot":1,"valence":"win","action":"go","sham":1,"trial_type":"pit-trial","trial_index":222,"time_elapsed":1888563,"internal_node_id":"0.0-199.0","task_version":"battery-v0.2"},{"rune":"L","rune_set":"bacs2","hex":"#f73b6a7A","correct":-1,"choice":-1,"rt":-1,"accuracy":1,"outcome":"-10","keys":[],"total_keys":0,"block":2,"trial":198,"stimulus":6,"robot":4,"valence":"lose","action":"no-go","sham":1,"trial_type":"pit-trial","trial_index":223,"time_elapsed":1892577,"internal_node_id":"0.0-200.0","task_version":"battery-v0.2"},{"rune":"U","rune_set":"bacs2","hex":"#f73b6a7A","correct":32,"choice":32,"rt":288.8299999758601,"accuracy":1,"outcome":"-1","keys":[1792.72500006482],"total_keys":1,"block":2,"trial":199,"stimulus":8,"robot":3,"valence":"lose","action":"go","sham":0,"trial_type":"pit-trial","trial_index":224,"time_elapsed":1895579,"internal_node_id":"0.0-201.0","task_version":"battery-v0.2"},{"rune":"S","rune_set":"bacs2","hex":"#3366ff99","correct":-1,"choice":-1,"rt":-1,"accuracy":1,"outcome":"+10","keys":[],"total_keys":0,"block":2,"trial":200,"stimulus":7,"robot":2,"valence":"win","action":"no-go","sham":0,"trial_type":"pit-trial","trial_index":225,"time_elapsed":1899586,"internal_node_id":"0.0-202.0","task_version":"battery-v0.2"},{"rune":"S","rune_set":"bacs2","hex":"#3366ff99","correct":-1,"choice":32,"rt":258.97999992594123,"accuracy":0,"outcome":"+10","keys":[1247.5749999284744,1763.425000011921],"total_keys":2,"block":2,"trial":201,"stimulus":7,"robot":2,"valence":"win","action":"no-go","sham":1,"trial_type":"pit-trial","trial_index":226,"time_elapsed":1902557,"internal_node_id":"0.0-203.0","task_version":"battery-v0.2"},{"rune":"A","rune_set":"bacs2","hex":"#f73b6a7A","correct":32,"choice":-1,"rt":-1,"accuracy":0,"outcome":"-10","keys":[],"total_keys":0,"block":2,"trial":202,"stimulus":9,"robot":3,"valence":"lose","action":"go","sham":0,"trial_type":"pit-trial","trial_index":227,"time_elapsed":1906567,"internal_node_id":"0.0-204.0","task_version":"battery-v0.2"},{"rune":"L","rune_set":"bacs2","hex":"#f73b6a7A","correct":-1,"choice":32,"rt":260.5000000912696,"accuracy":0,"outcome":"-1","keys":[1760.6599999126047],"total_keys":1,"block":2,"trial":203,"stimulus":6,"robot":4,"valence":"lose","action":"no-go","sham":1,"trial_type":"pit-trial","trial_index":228,"time_elapsed":1909537,"internal_node_id":"0.0-205.0","task_version":"battery-v0.2"},{"rune":"U","rune_set":"bacs2","hex":"#f73b6a7A","correct":32,"choice":-1,"rt":-1,"accuracy":0,"outcome":"-10","keys":[],"total_keys":0,"block":2,"trial":204,"stimulus":8,"robot":3,"valence":"lose","action":"go","sham":0,"trial_type":"pit-trial","trial_index":229,"time_elapsed":1913555,"internal_node_id":"0.0-206.0","task_version":"battery-v0.2"},{"rune":"U","rune_set":"bacs2","hex":"#f73b6a7A","correct":32,"choice":-1,"rt":-1,"accuracy":0,"outcome":"-10","keys":[],"total_keys":0,"block":2,"trial":205,"stimulus":8,"robot":3,"valence":"lose","action":"go","sham":0,"trial_type":"pit-trial","trial_index":230,"time_elapsed":1917567,"internal_node_id":"0.0-207.0","task_version":"battery-v0.2"},{"rune":"S","rune_set":"bacs2","hex":"#3366ff99","correct":-1,"choice":32,"rt":438.7649998534471,"accuracy":0,"outcome":"+1","keys":[1940.7550001051277],"total_keys":1,"block":2,"trial":206,"stimulus":7,"robot":2,"valence":"win","action":"no-go","sham":0,"trial_type":"pit-trial","trial_index":231,"time_elapsed":1920719,"internal_node_id":"0.0-208.0","task_version":"battery-v0.2"},{"rune":"A","rune_set":"bacs2","hex":"#f73b6a7A","correct":32,"choice":-1,"rt":-1,"accuracy":0,"outcome":"-10","keys":[],"total_keys":0,"block":2,"trial":207,"stimulus":9,"robot":3,"valence":"lose","action":"go","sham":0,"trial_type":"pit-trial","trial_index":232,"time_elapsed":1924733,"internal_node_id":"0.0-209.0","task_version":"battery-v0.2"},{"rune":"L","rune_set":"bacs2","hex":"#f73b6a7A","correct":-1,"choice":32,"rt":462.15500007383525,"accuracy":0,"outcome":"-10","keys":[1966.86500008218],"total_keys":1,"block":2,"trial":208,"stimulus":6,"robot":4,"valence":"lose","action":"no-go","sham":0,"trial_type":"pit-trial","trial_index":233,"time_elapsed":1927908,"internal_node_id":"0.0-210.0","task_version":"battery-v0.2"},{"rune":"F","rune_set":"bacs2","hex":"#f73b6a7A","correct":-1,"choice":32,"rt":729.784999974072,"accuracy":0,"outcome":"-10","keys":[2233.920000027865],"total_keys":1,"block":2,"trial":209,"stimulus":10,"robot":4,"valence":"lose","action":"no-go","sham":0,"trial_type":"pit-trial","trial_index":234,"time_elapsed":1931353,"internal_node_id":"0.0-211.0","task_version":"battery-v0.2"},{"rune":"U","rune_set":"bacs2","hex":"#f73b6a7A","correct":32,"choice":-1,"rt":-1,"accuracy":0,"outcome":"-10","keys":[],"total_keys":0,"block":2,"trial":210,"stimulus":8,"robot":3,"valence":"lose","action":"go","sham":0,"trial_type":"pit-trial","trial_index":235,"time_elapsed":1935364,"internal_node_id":"0.0-212.0","task_version":"battery-v0.2"},{"rune":"N","rune_set":"bacs2","hex":"#3366ff99","correct":-1,"choice":32,"rt":242.2850001603365,"accuracy":0,"outcome":"+1","keys":[1744.1600000020117],"total_keys":1,"block":2,"trial":211,"stimulus":11,"robot":2,"valence":"win","action":"no-go","sham":0,"trial_type":"pit-trial","trial_index":236,"time_elapsed":1938314,"internal_node_id":"0.0-213.0","task_version":"battery-v0.2"},{"rune":"A","rune_set":"bacs2","hex":"#f73b6a7A","correct":32,"choice":32,"rt":427.1550001576543,"accuracy":1,"outcome":"-1","keys":[1931.1349999625236],"total_keys":1,"block":2,"trial":212,"stimulus":9,"robot":3,"valence":"lose","action":"go","sham":0,"trial_type":"pit-trial","trial_index":237,"time_elapsed":1941455,"internal_node_id":"0.0-214.0","task_version":"battery-v0.2"},{"rune":"N","rune_set":"bacs2","hex":"#3366ff99","correct":-1,"choice":32,"rt":720.57000012137,"accuracy":0,"outcome":"+1","keys":[2222.1450000070035],"total_keys":1,"block":2,"trial":213,"stimulus":11,"robot":2,"valence":"win","action":"no-go","sham":0,"trial_type":"pit-trial","trial_index":238,"time_elapsed":1944885,"internal_node_id":"0.0-215.0","task_version":"battery-v0.2"},{"rune":"A","rune_set":"bacs2","hex":"#f73b6a7A","correct":32,"choice":32,"rt":828.925000037998,"accuracy":1,"outcome":"-1","keys":[2332.8000002074987],"total_keys":1,"block":2,"trial":214,"stimulus":9,"robot":3,"valence":"lose","action":"go","sham":0,"trial_type":"pit-trial","trial_index":239,"time_elapsed":1948426,"internal_node_id":"0.0-216.0","task_version":"battery-v0.2"},{"rune":"U","rune_set":"bacs2","hex":"#f73b6a7A","correct":32,"choice":-1,"rt":-1,"accuracy":0,"outcome":"-10","keys":[],"total_keys":0,"block":2,"trial":215,"stimulus":8,"robot":3,"valence":"lose","action":"go","sham":0,"trial_type":"pit-trial","trial_index":240,"time_elapsed":1952439,"internal_node_id":"0.0-217.0","task_version":"battery-v0.2"},{"rune":"F","rune_set":"bacs2","hex":"#f73b6a7A","correct":-1,"choice":32,"rt":297.4949998315424,"accuracy":0,"outcome":"-10","keys":[1798.5300000291318],"total_keys":1,"block":2,"trial":216,"stimulus":10,"robot":4,"valence":"lose","action":"no-go","sham":0,"trial_type":"pit-trial","trial_index":241,"time_elapsed":1955448,"internal_node_id":"0.0-218.0","task_version":"battery-v0.2"},{"rune":"U","rune_set":"bacs2","hex":"#f73b6a7A","correct":32,"choice":-1,"rt":-1,"accuracy":0,"outcome":"-1","keys":[],"total_keys":0,"block":2,"trial":217,"stimulus":8,"robot":3,"valence":"lose","action":"go","sham":1,"trial_type":"pit-trial","trial_index":242,"time_elapsed":1959465,"internal_node_id":"0.0-219.0","task_version":"battery-v0.2"},{"rune":"N","rune_set":"bacs2","hex":"#3366ff99","correct":-1,"choice":32,"rt":303.8850000593811,"accuracy":0,"outcome":"+10","keys":[1808.0449998378754],"total_keys":1,"block":2,"trial":218,"stimulus":11,"robot":2,"valence":"win","action":"no-go","sham":1,"trial_type":"pit-trial","trial_index":243,"time_elapsed":1962483,"internal_node_id":"0.0-220.0","task_version":"battery-v0.2"},{"rune":"A","rune_set":"bacs2","hex":"#f73b6a7A","correct":32,"choice":-1,"rt":-1,"accuracy":0,"outcome":"-1","keys":[],"total_keys":0,"block":2,"trial":219,"stimulus":9,"robot":3,"valence":"lose","action":"go","sham":1,"trial_type":"pit-trial","trial_index":244,"time_elapsed":1966496,"internal_node_id":"0.0-221.0","task_version":"battery-v0.2"},{"rune":"F","rune_set":"bacs2","hex":"#f73b6a7A","correct":-1,"choice":32,"rt":225.8349999319762,"accuracy":0,"outcome":"-10","keys":[1730.280000017956],"total_keys":1,"block":2,"trial":220,"stimulus":10,"robot":4,"valence":"lose","action":"no-go","sham":0,"trial_type":"pit-trial","trial_index":245,"time_elapsed":1969436,"internal_node_id":"0.0-222.0","task_version":"battery-v0.2"},{"rune":"A","rune_set":"bacs2","hex":"#f73b6a7A","correct":32,"choice":-1,"rt":-1,"accuracy":0,"outcome":"-10","keys":[],"total_keys":0,"block":2,"trial":221,"stimulus":9,"robot":3,"valence":"lose","action":"go","sham":0,"trial_type":"pit-trial","trial_index":246,"time_elapsed":1973451,"internal_node_id":"0.0-223.0","task_version":"battery-v0.2"},{"rune":"F","rune_set":"bacs2","hex":"#f73b6a7A","correct":-1,"choice":32,"rt":295.2050000894815,"accuracy":0,"outcome":"-10","keys":[1281.775000039488,1796.434999909252],"total_keys":2,"block":2,"trial":222,"stimulus":10,"robot":4,"valence":"lose","action":"no-go","sham":0,"trial_type":"pit-trial","trial_index":247,"time_elapsed":1976452,"internal_node_id":"0.0-224.0","task_version":"battery-v0.2"},{"rune":"N","rune_set":"bacs2","hex":"#3366ff99","correct":-1,"choice":-1,"rt":-1,"accuracy":1,"outcome":"+10","keys":[],"total_keys":0,"block":2,"trial":223,"stimulus":11,"robot":2,"valence":"win","action":"no-go","sham":0,"trial_type":"pit-trial","trial_index":248,"time_elapsed":1980468,"internal_node_id":"0.0-225.0","task_version":"battery-v0.2"},{"rune":"U","rune_set":"bacs2","hex":"#f73b6a7A","correct":32,"choice":32,"rt":277.4850002024323,"accuracy":1,"outcome":"-10","keys":[1781.4000002108514],"total_keys":1,"block":2,"trial":224,"stimulus":8,"robot":3,"valence":"lose","action":"go","sham":1,"trial_type":"pit-trial","trial_index":249,"time_elapsed":1983460,"internal_node_id":"0.0-226.0","task_version":"battery-v0.2"},{"rune":"F","rune_set":"bacs2","hex":"#f73b6a7A","correct":-1,"choice":-1,"rt":-1,"accuracy":1,"outcome":"-1","keys":[],"total_keys":0,"block":2,"trial":225,"stimulus":10,"robot":4,"valence":"lose","action":"no-go","sham":0,"trial_type":"pit-trial","trial_index":250,"time_elapsed":1987477,"internal_node_id":"0.0-227.0","task_version":"battery-v0.2"},{"rune":"N","rune_set":"bacs2","hex":"#3366ff99","correct":-1,"choice":-1,"rt":-1,"accuracy":1,"outcome":"+10","keys":[],"total_keys":0,"block":2,"trial":226,"stimulus":11,"robot":2,"valence":"win","action":"no-go","sham":0,"trial_type":"pit-trial","trial_index":251,"time_elapsed":1991491,"internal_node_id":"0.0-228.0","task_version":"battery-v0.2"},{"rune":"U","rune_set":"bacs2","hex":"#f73b6a7A","correct":32,"choice":-1,"rt":-1,"accuracy":0,"outcome":"-1","keys":[],"total_keys":0,"block":2,"trial":227,"stimulus":8,"robot":3,"valence":"lose","action":"go","sham":1,"trial_type":"pit-trial","trial_index":252,"time_elapsed":1995507,"internal_node_id":"0.0-229.0","task_version":"battery-v0.2"},{"rune":"A","rune_set":"bacs2","hex":"#f73b6a7A","correct":32,"choice":32,"rt":1167.8900001570582,"accuracy":1,"outcome":"-1","keys":[2668.980000074953],"total_keys":1,"block":2,"trial":228,"stimulus":9,"robot":3,"valence":"lose","action":"go","sham":0,"trial_type":"pit-trial","trial_index":253,"time_elapsed":1999380,"internal_node_id":"0.0-230.0","task_version":"battery-v0.2"},{"rune":"U","rune_set":"bacs2","hex":"#f73b6a7A","correct":32,"choice":-1,"rt":-1,"accuracy":0,"outcome":"-10","keys":[],"total_keys":0,"block":2,"trial":229,"stimulus":8,"robot":3,"valence":"lose","action":"go","sham":0,"trial_type":"pit-trial","trial_index":254,"time_elapsed":2003398,"internal_node_id":"0.0-231.0","task_version":"battery-v0.2"},{"rune":"N","rune_set":"bacs2","hex":"#3366ff99","correct":-1,"choice":-1,"rt":-1,"accuracy":1,"outcome":"+10","keys":[],"total_keys":0,"block":2,"trial":230,"stimulus":11,"robot":2,"valence":"win","action":"no-go","sham":0,"trial_type":"pit-trial","trial_index":255,"time_elapsed":2007407,"internal_node_id":"0.0-232.0","task_version":"battery-v0.2"},{"rune":"F","rune_set":"bacs2","hex":"#f73b6a7A","correct":-1,"choice":32,"rt":467.644999967888,"accuracy":0,"outcome":"-10","keys":[1972.3500001709908],"total_keys":1,"block":2,"trial":231,"stimulus":10,"robot":4,"valence":"lose","action":"no-go","sham":0,"trial_type":"pit-trial","trial_index":256,"time_elapsed":2010590,"internal_node_id":"0.0-233.0","task_version":"battery-v0.2"},{"rune":"A","rune_set":"bacs2","hex":"#f73b6a7A","correct":32,"choice":-1,"rt":-1,"accuracy":0,"outcome":"-10","keys":[],"total_keys":0,"block":2,"trial":232,"stimulus":9,"robot":3,"valence":"lose","action":"go","sham":0,"trial_type":"pit-trial","trial_index":257,"time_elapsed":2014604,"internal_node_id":"0.0-234.0","task_version":"battery-v0.2"},{"rune":"A","rune_set":"bacs2","hex":"#f73b6a7A","correct":32,"choice":32,"rt":199.3800001218915,"accuracy":1,"outcome":"-10","keys":[1701.0299998801202],"total_keys":1,"block":2,"trial":233,"stimulus":9,"robot":3,"valence":"lose","action":"go","sham":1,"trial_type":"pit-trial","trial_index":258,"time_elapsed":2017511,"internal_node_id":"0.0-235.0","task_version":"battery-v0.2"},{"rune":"N","rune_set":"bacs2","hex":"#3366ff99","correct":-1,"choice":-1,"rt":-1,"accuracy":1,"outcome":"+10","keys":[],"total_keys":0,"block":2,"trial":234,"stimulus":11,"robot":2,"valence":"win","action":"no-go","sham":0,"trial_type":"pit-trial","trial_index":259,"time_elapsed":2021524,"internal_node_id":"0.0-236.0","task_version":"battery-v0.2"},{"rune":"U","rune_set":"bacs2","hex":"#f73b6a7A","correct":32,"choice":-1,"rt":-1,"accuracy":0,"outcome":"-10","keys":[],"total_keys":0,"block":2,"trial":235,"stimulus":8,"robot":3,"valence":"lose","action":"go","sham":0,"trial_type":"pit-trial","trial_index":260,"time_elapsed":2025535,"internal_node_id":"0.0-237.0","task_version":"battery-v0.2"},{"rune":"F","rune_set":"bacs2","hex":"#f73b6a7A","correct":-1,"choice":32,"rt":693.425000179559,"accuracy":0,"outcome":"-10","keys":[2195.4550000373274],"total_keys":1,"block":2,"trial":236,"stimulus":10,"robot":4,"valence":"lose","action":"no-go","sham":0,"trial_type":"pit-trial","trial_index":261,"time_elapsed":2028930,"internal_node_id":"0.0-238.0","task_version":"battery-v0.2"},{"rune":"U","rune_set":"bacs2","hex":"#f73b6a7A","correct":32,"choice":-1,"rt":-1,"accuracy":0,"outcome":"-10","keys":[],"total_keys":0,"block":2,"trial":237,"stimulus":8,"robot":3,"valence":"lose","action":"go","sham":0,"trial_type":"pit-trial","trial_index":262,"time_elapsed":2032953,"internal_node_id":"0.0-239.0","task_version":"battery-v0.2"},{"rune":"N","rune_set":"bacs2","hex":"#3366ff99","correct":-1,"choice":32,"rt":525.4200000781566,"accuracy":0,"outcome":"+1","keys":[2027.3850001394749],"total_keys":1,"block":2,"trial":238,"stimulus":11,"robot":2,"valence":"win","action":"no-go","sham":0,"trial_type":"pit-trial","trial_index":263,"time_elapsed":2036193,"internal_node_id":"0.0-240.0","task_version":"battery-v0.2"},{"rune":"A","rune_set":"bacs2","hex":"#f73b6a7A","correct":32,"choice":-1,"rt":-1,"accuracy":0,"outcome":"-10","keys":[],"total_keys":0,"block":2,"trial":239,"stimulus":9,"robot":3,"valence":"lose","action":"go","sham":0,"trial_type":"pit-trial","trial_index":264,"time_elapsed":2040206,"internal_node_id":"0.0-241.0","task_version":"battery-v0.2"},{"rune":"F","rune_set":"bacs2","hex":"#f73b6a7A","correct":-1,"choice":-1,"rt":-1,"accuracy":1,"outcome":"-10","keys":[],"total_keys":0,"block":2,"trial":240,"stimulus":10,"robot":4,"valence":"lose","action":"no-go","sham":1,"trial_type":"pit-trial","trial_index":265,"time_elapsed":2044220,"internal_node_id":"0.0-242.0","task_version":"battery-v0.2"},{"view_history":"[{\"page_index\":0,\"viewing_time\":3241.995000047609}]","rt":3242.9700000211596,"trial_type":"pit-instructions","trial_index":266,"time_elapsed":2047465,"internal_node_id":"0.0-243.0","task_version":"battery-v0.2"},{"rt":10465.529999928549,"responses":{"age":"32","gender-categorical":"Female","gender-free-response":"","ethnicity":"Not Hispanic or Latino","race":["Black or African American"],"language":"Yes","fluency":"Very well"},"survey":"demographics","trial_type":"survey-demo","trial_index":267,"time_elapsed":2057937,"internal_node_id":"0.0-244.0","task_version":"battery-v0.2"},{"rt":25329.81999986805,"responses":{"difficulty":"4","fun":"5","clarity":"5","strategy":"I tried to memorize the characters on the robots' chest.","feedback":"No"},"survey":"debrief","trial_type":"survey-debrief","trial_index":268,"time_elapsed":2083271,"internal_node_id":"0.0-245.0","task_version":"battery-v0.2","interactions":"[{\"event\":\"blur\",\"trial\":22,\"time\":199882},{\"event\":\"focus\",\"trial\":22,\"time\":201906},{\"event\":\"blur\",\"trial\":22,\"time\":234452},{\"event\":\"focus\",\"trial\":22,\"time\":1015178},{\"event\":\"blur\",\"trial\":22,\"time\":1018227},{\"event\":\"focus\",\"trial\":22,\"time\":1025033},{\"event\":\"blur\",\"trial\":22,\"time\":1040289},{\"event\":\"focus\",\"trial\":22,\"time\":1041382},{\"event\":\"blur\",\"trial\":145,\"time\":1533795},{\"event\":\"focus\",\"trial\":145,\"time\":1536570},{\"event\":\"blur\",\"trial\":145,\"time\":1606073},{\"event\":\"focus\",\"trial\":145,\"time\":1609247}]"}]