subject,session,block,runsheet,trial,exposure,valence,action,robot,stimulus,rune,rune_set,correct,choice,rt,accuracy,sham,outcome,total_keys,congruence
02lqpjp4pevk73p8f7ipewf9,1,2,1a,196,1,0,go,GAL,1,A,bacs2,1,0,,0,0.0,0,1,0
02lqpjp4pevk73p8f7ipewf9,1,2,1a,198,2,0,go,GAL,1,A,bacs2,1,0,,0,0.0,0,0,0
02lqpjp4pevk73p8f7ipewf9,1,2,1a,202,3,0,go,GAL,1,A,bacs2,1,1,1.04,1,0.0,1,1,0
02lqpjp4pevk73p8f7ipewf9,1,2,1a,207,4,0,go,GAL,1,A,bacs2,1,0,,0,0.0,0,1,0
02lqpjp4pevk73p8f7ipewf9,1,2,1a,209,5,0,go,GAL,1,A,bacs2,1,0,,0,0.0,0,1,0
02lqpjp4pevk73p8f7ipewf9,1,2,1a,216,6,0,go,GAL,1,A,bacs2,1,0,,0,0.0,0,0,0
02lqpjp4pevk73p8f7ipewf9,1,2,1a,220,7,0,go,GAL,1,A,bacs2,1,0,,0,0.0,0,0,0
02lqpjp4pevk73p8f7ipewf9,1,2,1a,224,8,0,go,GAL,1,A,bacs2,1,0,,0,0.0,0,0,0
02lqpjp4pevk73p8f7ipewf9,1,2,1a,228,9,0,go,GAL,1,A,bacs2,1,1,1.0759999999999998,1,0.0,1,1,0
02lqpjp4pevk73p8f7ipewf9,1,2,1a,231,10,0,go,GAL,1,A,bacs2,1,1,0.873,1,1.0,0,1,0
02lqpjp4pevk73p8f7ipewf9,1,2,1a,234,11,0,go,GAL,1,A,bacs2,1,1,1.081,1,0.0,1,1,0
02lqpjp4pevk73p8f7ipewf9,1,2,1a,238,12,0,go,GAL,1,A,bacs2,1,1,1.177,1,0.0,1,1,0
02lqpjp4pevk73p8f7ipewf9,1,2,1a,124,1,0,no-go,NGAL,2,B,bacs2,0,1,1.083,0,1.0,1,1,1
02lqpjp4pevk73p8f7ipewf9,1,2,1a,125,2,0,no-go,NGAL,2,B,bacs2,0,1,0.391,0,0.0,0,1,1
02lqpjp4pevk73p8f7ipewf9,1,2,1a,130,3,0,no-go,NGAL,2,B,bacs2,0,0,,1,0.0,1,0,1
02lqpjp4pevk73p8f7ipewf9,1,2,1a,134,4,0,no-go,NGAL,2,B,bacs2,0,0,,1,0.0,1,0,1
02lqpjp4pevk73p8f7ipewf9,1,2,1a,137,5,0,no-go,NGAL,2,B,bacs2,0,0,,1,0.0,1,0,1
02lqpjp4pevk73p8f7ipewf9,1,2,1a,144,6,0,no-go,NGAL,2,B,bacs2,0,0,,1,1.0,0,0,1
02lqpjp4pevk73p8f7ipewf9,1,2,1a,145,7,0,no-go,NGAL,2,B,bacs2,0,1,0.966,0,1.0,1,1,1
02lqpjp4pevk73p8f7ipewf9,1,2,1a,150,8,0,no-go,NGAL,2,B,bacs2,0,0,,1,0.0,1,0,1
02lqpjp4pevk73p8f7ipewf9,1,1,1b,42,1,0,no-go,NGAL,3,C,bacs2,0,1,1.033,0,0.0,0,1,1
02lqpjp4pevk73p8f7ipewf9,1,1,1b,48,2,0,no-go,NGAL,3,C,bacs2,0,1,1.1420000000000001,0,0.0,0,1,1
02lqpjp4pevk73p8f7ipewf9,1,1,1b,51,3,0,no-go,NGAL,3,C,bacs2,0,0,,1,0.0,1,0,1
02lqpjp4pevk73p8f7ipewf9,1,1,1b,55,4,0,no-go,NGAL,3,C,bacs2,0,0,,1,0.0,1,0,1
02lqpjp4pevk73p8f7ipewf9,1,1,1b,60,5,0,no-go,NGAL,3,C,bacs2,0,0,,1,0.0,1,0,1
02lqpjp4pevk73p8f7ipewf9,1,1,1b,64,6,0,no-go,NGAL,3,C,bacs2,0,0,,1,0.0,1,0,1
02lqpjp4pevk73p8f7ipewf9,1,1,1b,68,7,0,no-go,NGAL,3,C,bacs2,0,0,,1,0.0,1,0,1
02lqpjp4pevk73p8f7ipewf9,1,1,1b,69,8,0,no-go,NGAL,3,C,bacs2,0,0,,1,1.0,0,0,1
02lqpjp4pevk73p8f7ipewf9,1,1,1b,75,9,0,no-go,NGAL,3,C,bacs2,0,0,,1,0.0,1,0,1
02lqpjp4pevk73p8f7ipewf9,1,1,1b,77,10,0,no-go,NGAL,3,C,bacs2,0,0,,1,1.0,0,1,1
02lqpjp4pevk73p8f7ipewf9,1,1,1b,84,11,0,no-go,NGAL,3,C,bacs2,0,0,,1,1.0,0,0,1
02lqpjp4pevk73p8f7ipewf9,1,1,1b,86,12,0,no-go,NGAL,3,C,bacs2,0,1,0.575,0,0.0,0,1,1
02lqpjp4pevk73p8f7ipewf9,1,1,1b,49,1,1,no-go,NGW,5,E,bacs2,0,1,0.653,0,0.0,0,1,0
02lqpjp4pevk73p8f7ipewf9,1,1,1b,56,2,1,no-go,NGW,5,E,bacs2,0,0,,1,0.0,1,0,0
02lqpjp4pevk73p8f7ipewf9,1,1,1b,57,3,1,no-go,NGW,5,E,bacs2,0,0,,1,0.0,1,0,0
02lqpjp4pevk73p8f7ipewf9,1,1,1b,62,4,1,no-go,NGW,5,E,bacs2,0,1,0.588,0,0.0,0,1,0
02lqpjp4pevk73p8f7ipewf9,1,1,1b,66,5,1,no-go,NGW,5,E,bacs2,0,1,0.43799999999999994,0,0.0,0,1,0
02lqpjp4pevk73p8f7ipewf9,1,1,1b,71,6,1,no-go,NGW,5,E,bacs2,0,1,0.47200000000000003,0,0.0,0,1,0
02lqpjp4pevk73p8f7ipewf9,1,1,1b,73,7,1,no-go,NGW,5,E,bacs2,0,1,0.703,0,1.0,1,1,0
02lqpjp4pevk73p8f7ipewf9,1,1,1b,79,8,1,no-go,NGW,5,E,bacs2,0,1,1.09,0,0.0,0,1,0
02lqpjp4pevk73p8f7ipewf9,1,1,1b,82,9,1,no-go,NGW,5,E,bacs2,0,1,0.809,0,0.0,0,1,0
02lqpjp4pevk73p8f7ipewf9,1,1,1b,88,10,1,no-go,NGW,5,E,bacs2,0,1,0.49200000000000005,0,1.0,1,1,0
02lqpjp4pevk73p8f7ipewf9,1,2,1a,211,1,0,go,GAL,6,F,bacs2,1,0,,0,1.0,1,0,0
02lqpjp4pevk73p8f7ipewf9,1,2,1a,213,2,0,go,GAL,6,F,bacs2,1,0,,0,1.0,1,0,0
02lqpjp4pevk73p8f7ipewf9,1,2,1a,218,3,0,go,GAL,6,F,bacs2,1,0,,0,0.0,0,0,0
02lqpjp4pevk73p8f7ipewf9,1,2,1a,221,4,0,go,GAL,6,F,bacs2,1,1,0.349,1,1.0,0,1,0
02lqpjp4pevk73p8f7ipewf9,1,2,1a,226,5,0,go,GAL,6,F,bacs2,1,1,0.917,1,0.0,1,1,0
02lqpjp4pevk73p8f7ipewf9,1,2,1a,232,6,0,go,GAL,6,F,bacs2,1,1,0.856,1,0.0,1,1,0
02lqpjp4pevk73p8f7ipewf9,1,2,1a,235,7,0,go,GAL,6,F,bacs2,1,1,0.607,1,0.0,1,1,0
02lqpjp4pevk73p8f7ipewf9,1,2,1a,237,8,0,go,GAL,6,F,bacs2,1,1,0.7559999999999999,1,0.0,1,1,0
02lqpjp4pevk73p8f7ipewf9,1,1,1b,35,1,1,go,GW,7,G,bacs2,1,1,0.46,1,0.0,1,1,1
02lqpjp4pevk73p8f7ipewf9,1,1,1b,38,2,1,go,GW,7,G,bacs2,1,1,0.5760000000000001,1,0.0,1,1,1
02lqpjp4pevk73p8f7ipewf9,1,1,1b,44,3,1,go,GW,7,G,bacs2,1,1,0.8370000000000001,1,0.0,1,1,1
02lqpjp4pevk73p8f7ipewf9,1,1,1b,45,4,1,go,GW,7,G,bacs2,1,1,0.807,1,0.0,1,1,1
02lqpjp4pevk73p8f7ipewf9,1,1,1b,52,5,1,go,GW,7,G,bacs2,1,0,,0,1.0,1,0,1
02lqpjp4pevk73p8f7ipewf9,1,1,1b,54,6,1,go,GW,7,G,bacs2,1,1,0.763,1,0.0,1,1,1
02lqpjp4pevk73p8f7ipewf9,1,1,1b,58,7,1,go,GW,7,G,bacs2,1,0,,0,0.0,0,0,1
02lqpjp4pevk73p8f7ipewf9,1,1,1b,63,8,1,go,GW,7,G,bacs2,1,0,,0,0.0,0,0,1
02lqpjp4pevk73p8f7ipewf9,1,1,1b,65,9,1,go,GW,7,G,bacs2,1,1,0.612,1,0.0,1,1,1
02lqpjp4pevk73p8f7ipewf9,1,1,1b,70,10,1,go,GW,7,G,bacs2,1,1,0.369,1,0.0,1,1,1
02lqpjp4pevk73p8f7ipewf9,1,1,1b,76,11,1,go,GW,7,G,bacs2,1,1,0.76,1,0.0,1,1,1
02lqpjp4pevk73p8f7ipewf9,1,1,1b,78,12,1,go,GW,7,G,bacs2,1,1,0.575,1,0.0,1,1,1
02lqpjp4pevk73p8f7ipewf9,1,1,1b,74,1,0,go,GAL,8,H,bacs2,1,0,,0,0.0,0,0,0
02lqpjp4pevk73p8f7ipewf9,1,1,1b,80,2,0,go,GAL,8,H,bacs2,1,1,0.727,1,1.0,0,1,0
02lqpjp4pevk73p8f7ipewf9,1,1,1b,83,3,0,go,GAL,8,H,bacs2,1,0,,0,0.0,0,1,0
02lqpjp4pevk73p8f7ipewf9,1,1,1b,85,4,0,go,GAL,8,H,bacs2,1,1,0.7040000000000001,1,0.0,1,1,0
02lqpjp4pevk73p8f7ipewf9,1,1,1b,89,5,0,go,GAL,8,H,bacs2,1,1,0.976,1,0.0,1,1,0
02lqpjp4pevk73p8f7ipewf9,1,1,1b,94,6,0,go,GAL,8,H,bacs2,1,1,0.978,1,0.0,1,1,0
02lqpjp4pevk73p8f7ipewf9,1,1,1b,100,7,0,go,GAL,8,H,bacs2,1,0,,0,0.0,0,0,0
02lqpjp4pevk73p8f7ipewf9,1,1,1b,104,8,0,go,GAL,8,H,bacs2,1,1,0.777,1,0.0,1,1,0
02lqpjp4pevk73p8f7ipewf9,1,1,1b,106,9,0,go,GAL,8,H,bacs2,1,1,0.773,1,0.0,1,1,0
02lqpjp4pevk73p8f7ipewf9,1,1,1b,112,10,0,go,GAL,8,H,bacs2,1,1,0.685,1,1.0,0,1,0
02lqpjp4pevk73p8f7ipewf9,1,1,1b,113,11,0,go,GAL,8,H,bacs2,1,0,,0,0.0,0,0,0
02lqpjp4pevk73p8f7ipewf9,1,1,1b,119,12,0,go,GAL,8,H,bacs2,1,0,,0,0.0,0,0,0
02lqpjp4pevk73p8f7ipewf9,1,1,1b,3,1,1,no-go,NGW,9,J,bacs2,0,1,1.113,0,0.0,0,1,0
02lqpjp4pevk73p8f7ipewf9,1,1,1b,6,2,1,no-go,NGW,9,J,bacs2,0,1,1.138,0,0.0,0,1,0
02lqpjp4pevk73p8f7ipewf9,1,1,1b,11,3,1,no-go,NGW,9,J,bacs2,0,0,,1,1.0,0,0,0
02lqpjp4pevk73p8f7ipewf9,1,1,1b,14,4,1,no-go,NGW,9,J,bacs2,0,1,1.07,0,0.0,0,1,0
02lqpjp4pevk73p8f7ipewf9,1,1,1b,18,5,1,no-go,NGW,9,J,bacs2,0,0,,1,0.0,1,0,0
02lqpjp4pevk73p8f7ipewf9,1,1,1b,21,6,1,no-go,NGW,9,J,bacs2,0,0,,1,0.0,1,0,0
02lqpjp4pevk73p8f7ipewf9,1,1,1b,27,7,1,no-go,NGW,9,J,bacs2,0,1,0.392,0,0.0,0,1,0
02lqpjp4pevk73p8f7ipewf9,1,1,1b,30,8,1,no-go,NGW,9,J,bacs2,0,1,0.731,0,0.0,0,1,0
02lqpjp4pevk73p8f7ipewf9,1,1,1b,33,9,1,no-go,NGW,9,J,bacs2,0,0,,1,0.0,1,0,0
02lqpjp4pevk73p8f7ipewf9,1,1,1b,40,10,1,no-go,NGW,9,J,bacs2,0,0,,1,0.0,1,0,0
02lqpjp4pevk73p8f7ipewf9,1,1,1b,41,11,1,no-go,NGW,9,J,bacs2,0,0,,1,0.0,1,0,0
02lqpjp4pevk73p8f7ipewf9,1,1,1b,47,12,1,no-go,NGW,9,J,bacs2,0,0,,1,1.0,0,0,0
02lqpjp4pevk73p8f7ipewf9,1,2,1a,123,1,1,go,GW,10,K,bacs2,1,0,,0,0.0,0,1,1
02lqpjp4pevk73p8f7ipewf9,1,2,1a,127,2,1,go,GW,10,K,bacs2,1,0,,0,0.0,0,0,1
02lqpjp4pevk73p8f7ipewf9,1,2,1a,129,3,1,go,GW,10,K,bacs2,1,1,0.732,1,0.0,1,1,1
02lqpjp4pevk73p8f7ipewf9,1,2,1a,133,4,1,go,GW,10,K,bacs2,1,1,1.072,1,0.0,1,1,1
02lqpjp4pevk73p8f7ipewf9,1,2,1a,140,5,1,go,GW,10,K,bacs2,1,1,0.7959999999999999,1,0.0,1,1,1
02lqpjp4pevk73p8f7ipewf9,1,2,1a,142,6,1,go,GW,10,K,bacs2,1,1,0.9359999999999999,1,0.0,1,1,1
02lqpjp4pevk73p8f7ipewf9,1,2,1a,147,7,1,go,GW,10,K,bacs2,1,1,0.956,1,0.0,1,1,1
02lqpjp4pevk73p8f7ipewf9,1,2,1a,152,8,1,go,GW,10,K,bacs2,1,1,0.295,1,0.0,1,1,1
02lqpjp4pevk73p8f7ipewf9,1,2,1a,155,9,1,go,GW,10,K,bacs2,1,1,0.513,1,0.0,1,1,1
02lqpjp4pevk73p8f7ipewf9,1,2,1a,160,10,1,go,GW,10,K,bacs2,1,1,0.653,1,0.0,1,1,1
02lqpjp4pevk73p8f7ipewf9,1,2,1a,161,1,1,go,GW,11,L,bacs2,1,0,,0,0.0,0,0,1
02lqpjp4pevk73p8f7ipewf9,1,2,1a,167,2,1,go,GW,11,L,bacs2,1,0,,0,0.0,0,0,1
02lqpjp4pevk73p8f7ipewf9,1,2,1a,170,3,1,go,GW,11,L,bacs2,1,0,,0,0.0,0,1,1
02lqpjp4pevk73p8f7ipewf9,1,2,1a,174,4,1,go,GW,11,L,bacs2,1,0,,0,1.0,1,0,1
02lqpjp4pevk73p8f7ipewf9,1,2,1a,177,5,1,go,GW,11,L,bacs2,1,1,0.9179999999999999,1,0.0,1,1,1
02lqpjp4pevk73p8f7ipewf9,1,2,1a,184,6,1,go,GW,11,L,bacs2,1,1,0.82,1,0.0,1,1,1
02lqpjp4pevk73p8f7ipewf9,1,2,1a,187,7,1,go,GW,11,L,bacs2,1,1,0.9009999999999999,1,1.0,0,1,1
02lqpjp4pevk73p8f7ipewf9,1,2,1a,192,8,1,go,GW,11,L,bacs2,1,1,1.058,1,0.0,1,1,1
02lqpjp4pevk73p8f7ipewf9,1,2,1a,122,1,0,no-go,NGAL,12,M,bacs2,0,0,,1,0.0,1,0,1
02lqpjp4pevk73p8f7ipewf9,1,2,1a,128,2,0,no-go,NGAL,12,M,bacs2,0,1,0.945,0,0.0,0,1,1
02lqpjp4pevk73p8f7ipewf9,1,2,1a,131,3,0,no-go,NGAL,12,M,bacs2,0,0,,1,0.0,1,0,1
02lqpjp4pevk73p8f7ipewf9,1,2,1a,135,4,0,no-go,NGAL,12,M,bacs2,0,0,,1,0.0,1,0,1
02lqpjp4pevk73p8f7ipewf9,1,2,1a,138,5,0,no-go,NGAL,12,M,bacs2,0,0,,1,1.0,0,0,1
02lqpjp4pevk73p8f7ipewf9,1,2,1a,141,6,0,no-go,NGAL,12,M,bacs2,0,0,,1,0.0,1,0,1
02lqpjp4pevk73p8f7ipewf9,1,2,1a,146,7,0,no-go,NGAL,12,M,bacs2,0,0,,1,0.0,1,0,1
02lqpjp4pevk73p8f7ipewf9,1,2,1a,151,8,0,no-go,NGAL,12,M,bacs2,0,0,,1,0.0,1,0,1
02lqpjp4pevk73p8f7ipewf9,1,2,1a,154,9,0,no-go,NGAL,12,M,bacs2,0,0,,1,0.0,1,0,1
02lqpjp4pevk73p8f7ipewf9,1,2,1a,157,10,0,no-go,NGAL,12,M,bacs2,0,0,,1,1.0,0,1,1
02lqpjp4pevk73p8f7ipewf9,1,2,1a,163,11,0,no-go,NGAL,12,M,bacs2,0,1,0.805,0,0.0,0,1,1
02lqpjp4pevk73p8f7ipewf9,1,2,1a,165,12,0,no-go,NGAL,12,M,bacs2,0,0,,1,1.0,0,0,1
02lqpjp4pevk73p8f7ipewf9,1,2,1a,212,1,1,no-go,NGW,13,N,bacs2,0,0,,1,0.0,1,1,0
02lqpjp4pevk73p8f7ipewf9,1,2,1a,215,2,1,no-go,NGW,13,N,bacs2,0,1,0.7859999999999999,0,1.0,1,1,0
02lqpjp4pevk73p8f7ipewf9,1,2,1a,217,3,1,no-go,NGW,13,N,bacs2,0,1,0.33399999999999996,0,0.0,0,1,0
02lqpjp4pevk73p8f7ipewf9,1,2,1a,222,4,1,no-go,NGW,13,N,bacs2,0,1,0.9520000000000001,0,0.0,0,1,0
02lqpjp4pevk73p8f7ipewf9,1,2,1a,225,5,1,no-go,NGW,13,N,bacs2,0,1,0.5720000000000001,0,1.0,1,1,0
02lqpjp4pevk73p8f7ipewf9,1,2,1a,229,6,1,no-go,NGW,13,N,bacs2,0,1,0.172,0,0.0,0,1,0
02lqpjp4pevk73p8f7ipewf9,1,2,1a,236,7,1,no-go,NGW,13,N,bacs2,0,0,,1,0.0,1,0,0
02lqpjp4pevk73p8f7ipewf9,1,2,1a,240,8,1,no-go,NGW,13,N,bacs2,0,0,,1,0.0,1,0,0
02lqpjp4pevk73p8f7ipewf9,1,1,1b,43,1,0,go,GAL,14,O,bacs2,1,0,,0,0.0,0,0,0
02lqpjp4pevk73p8f7ipewf9,1,1,1b,46,2,0,go,GAL,14,O,bacs2,1,1,0.914,1,0.0,1,1,0
02lqpjp4pevk73p8f7ipewf9,1,1,1b,50,3,0,go,GAL,14,O,bacs2,1,0,,0,1.0,1,0,0
02lqpjp4pevk73p8f7ipewf9,1,1,1b,53,4,0,go,GAL,14,O,bacs2,1,0,,0,0.0,0,0,0
02lqpjp4pevk73p8f7ipewf9,1,1,1b,59,5,0,go,GAL,14,O,bacs2,1,1,0.536,1,0.0,1,1,0
02lqpjp4pevk73p8f7ipewf9,1,1,1b,61,6,0,go,GAL,14,O,bacs2,1,0,,0,1.0,1,0,0
02lqpjp4pevk73p8f7ipewf9,1,1,1b,67,7,0,go,GAL,14,O,bacs2,1,0,,0,0.0,0,0,0
02lqpjp4pevk73p8f7ipewf9,1,1,1b,72,8,0,go,GAL,14,O,bacs2,1,1,0.868,1,0.0,1,1,0
02lqpjp4pevk73p8f7ipewf9,1,2,1a,164,1,1,no-go,NGW,15,P,bacs2,0,1,0.835,0,0.0,0,1,0
02lqpjp4pevk73p8f7ipewf9,1,2,1a,168,2,1,no-go,NGW,15,P,bacs2,0,1,0.479,0,0.0,0,1,0
02lqpjp4pevk73p8f7ipewf9,1,2,1a,171,3,1,no-go,NGW,15,P,bacs2,0,1,0.732,0,1.0,1,1,0
02lqpjp4pevk73p8f7ipewf9,1,2,1a,173,4,1,no-go,NGW,15,P,bacs2,0,1,1.001,0,0.0,0,1,0
02lqpjp4pevk73p8f7ipewf9,1,2,1a,179,5,1,no-go,NGW,15,P,bacs2,0,1,0.402,0,0.0,0,1,0
02lqpjp4pevk73p8f7ipewf9,1,2,1a,183,6,1,no-go,NGW,15,P,bacs2,0,1,0.8029999999999999,0,0.0,0,1,0
02lqpjp4pevk73p8f7ipewf9,1,2,1a,186,7,1,no-go,NGW,15,P,bacs2,0,1,1.026,0,0.0,0,1,0
02lqpjp4pevk73p8f7ipewf9,1,2,1a,189,8,1,no-go,NGW,15,P,bacs2,0,0,,1,0.0,1,0,0
02lqpjp4pevk73p8f7ipewf9,1,2,1a,195,9,1,no-go,NGW,15,P,bacs2,0,1,1.01,0,0.0,0,1,0
02lqpjp4pevk73p8f7ipewf9,1,2,1a,200,10,1,no-go,NGW,15,P,bacs2,0,1,0.9359999999999999,0,0.0,0,1,0
02lqpjp4pevk73p8f7ipewf9,1,2,1a,204,11,1,no-go,NGW,15,P,bacs2,0,1,0.77,0,0.0,0,1,0
02lqpjp4pevk73p8f7ipewf9,1,2,1a,206,12,1,no-go,NGW,15,P,bacs2,0,1,0.435,0,0.0,0,1,0
02lqpjp4pevk73p8f7ipewf9,1,1,1b,81,1,0,go,GAL,16,Q,bacs2,1,0,,0,0.0,0,1,0
02lqpjp4pevk73p8f7ipewf9,1,1,1b,87,2,0,go,GAL,16,Q,bacs2,1,0,,0,0.0,0,0,0
02lqpjp4pevk73p8f7ipewf9,1,1,1b,92,3,0,go,GAL,16,Q,bacs2,1,0,,0,0.0,0,0,0
02lqpjp4pevk73p8f7ipewf9,1,1,1b,96,4,0,go,GAL,16,Q,bacs2,1,1,0.773,1,0.0,1,1,0
02lqpjp4pevk73p8f7ipewf9,1,1,1b,99,5,0,go,GAL,16,Q,bacs2,1,1,1.263,1,1.0,0,1,0
02lqpjp4pevk73p8f7ipewf9,1,1,1b,103,6,0,go,GAL,16,Q,bacs2,1,0,,0,0.0,0,0,0
02lqpjp4pevk73p8f7ipewf9,1,1,1b,105,7,0,go,GAL,16,Q,bacs2,1,1,0.7929999999999999,1,0.0,1,1,0
02lqpjp4pevk73p8f7ipewf9,1,1,1b,111,8,0,go,GAL,16,Q,bacs2,1,1,1.062,1,0.0,1,1,0
02lqpjp4pevk73p8f7ipewf9,1,1,1b,115,9,0,go,GAL,16,Q,bacs2,1,0,,0,0.0,0,0,0
02lqpjp4pevk73p8f7ipewf9,1,1,1b,120,10,0,go,GAL,16,Q,bacs2,1,1,0.43,1,0.0,1,1,0
02lqpjp4pevk73p8f7ipewf9,1,2,1a,153,1,0,go,GAL,17,R,bacs2,1,0,,0,0.0,0,0,0
02lqpjp4pevk73p8f7ipewf9,1,2,1a,158,2,0,go,GAL,17,R,bacs2,1,1,1.202,1,0.0,1,1,0
02lqpjp4pevk73p8f7ipewf9,1,2,1a,162,3,0,go,GAL,17,R,bacs2,1,0,,0,0.0,0,0,0
02lqpjp4pevk73p8f7ipewf9,1,2,1a,166,4,0,go,GAL,17,R,bacs2,1,0,,0,0.0,0,0,0
02lqpjp4pevk73p8f7ipewf9,1,2,1a,169,5,0,go,GAL,17,R,bacs2,1,1,1.028,1,1.0,0,1,0
02lqpjp4pevk73p8f7ipewf9,1,2,1a,176,6,0,go,GAL,17,R,bacs2,1,0,,0,1.0,1,0,0
02lqpjp4pevk73p8f7ipewf9,1,2,1a,178,7,0,go,GAL,17,R,bacs2,1,0,,0,0.0,0,0,0
02lqpjp4pevk73p8f7ipewf9,1,2,1a,181,8,0,go,GAL,17,R,bacs2,1,0,,0,0.0,0,0,0
02lqpjp4pevk73p8f7ipewf9,1,2,1a,188,9,0,go,GAL,17,R,bacs2,1,1,0.903,1,0.0,1,1,0
02lqpjp4pevk73p8f7ipewf9,1,2,1a,191,10,0,go,GAL,17,R,bacs2,1,1,0.861,1,0.0,1,1,0
02lqpjp4pevk73p8f7ipewf9,1,2,1a,172,1,0,no-go,NGAL,18,S,bacs2,0,1,0.909,0,0.0,0,1,1
02lqpjp4pevk73p8f7ipewf9,1,2,1a,175,2,0,no-go,NGAL,18,S,bacs2,0,1,0.993,0,0.0,0,1,1
02lqpjp4pevk73p8f7ipewf9,1,2,1a,180,3,0,no-go,NGAL,18,S,bacs2,0,1,0.701,0,0.0,0,1,1
02lqpjp4pevk73p8f7ipewf9,1,2,1a,182,4,0,no-go,NGAL,18,S,bacs2,0,1,0.932,0,0.0,0,1,1
02lqpjp4pevk73p8f7ipewf9,1,2,1a,185,5,0,no-go,NGAL,18,S,bacs2,0,0,,1,0.0,1,0,1
02lqpjp4pevk73p8f7ipewf9,1,2,1a,190,6,0,no-go,NGAL,18,S,bacs2,0,0,,1,1.0,0,1,1
02lqpjp4pevk73p8f7ipewf9,1,2,1a,193,7,0,no-go,NGAL,18,S,bacs2,0,0,,1,0.0,1,0,1
02lqpjp4pevk73p8f7ipewf9,1,2,1a,199,8,0,no-go,NGAL,18,S,bacs2,0,1,0.551,0,1.0,1,1,1
02lqpjp4pevk73p8f7ipewf9,1,2,1a,203,9,0,no-go,NGAL,18,S,bacs2,0,0,,1,0.0,1,0,1
02lqpjp4pevk73p8f7ipewf9,1,2,1a,205,10,0,no-go,NGAL,18,S,bacs2,0,1,1.023,0,0.0,0,1,1
02lqpjp4pevk73p8f7ipewf9,1,1,1b,91,1,0,no-go,NGAL,19,T,bacs2,0,1,1.0290000000000001,0,0.0,0,1,1
02lqpjp4pevk73p8f7ipewf9,1,1,1b,95,2,0,no-go,NGAL,19,T,bacs2,0,0,,1,0.0,1,0,1
02lqpjp4pevk73p8f7ipewf9,1,1,1b,98,3,0,no-go,NGAL,19,T,bacs2,0,0,,1,0.0,1,0,1
02lqpjp4pevk73p8f7ipewf9,1,1,1b,101,4,0,no-go,NGAL,19,T,bacs2,0,0,,1,0.0,1,0,1
02lqpjp4pevk73p8f7ipewf9,1,1,1b,108,5,0,no-go,NGAL,19,T,bacs2,0,0,,1,0.0,1,0,1
02lqpjp4pevk73p8f7ipewf9,1,1,1b,109,6,0,no-go,NGAL,19,T,bacs2,0,0,,1,0.0,1,0,1
02lqpjp4pevk73p8f7ipewf9,1,1,1b,116,7,0,no-go,NGAL,19,T,bacs2,0,1,0.633,0,0.0,0,1,1
02lqpjp4pevk73p8f7ipewf9,1,1,1b,118,8,0,no-go,NGAL,19,T,bacs2,0,0,,1,0.0,1,0,1
02lqpjp4pevk73p8f7ipewf9,1,2,1a,194,1,1,go,GW,20,U,bacs2,1,1,1.055,1,0.0,1,1,1
02lqpjp4pevk73p8f7ipewf9,1,2,1a,197,2,1,go,GW,20,U,bacs2,1,1,1.105,1,0.0,1,1,1
02lqpjp4pevk73p8f7ipewf9,1,2,1a,201,3,1,go,GW,20,U,bacs2,1,1,1.018,1,0.0,1,1,1
02lqpjp4pevk73p8f7ipewf9,1,2,1a,208,4,1,go,GW,20,U,bacs2,1,1,0.892,1,0.0,1,1,1
02lqpjp4pevk73p8f7ipewf9,1,2,1a,210,5,1,go,GW,20,U,bacs2,1,0,,0,0.0,0,0,1
02lqpjp4pevk73p8f7ipewf9,1,2,1a,214,6,1,go,GW,20,U,bacs2,1,0,,0,0.0,0,0,1
02lqpjp4pevk73p8f7ipewf9,1,2,1a,219,7,1,go,GW,20,U,bacs2,1,0,,0,0.0,0,0,1
02lqpjp4pevk73p8f7ipewf9,1,2,1a,223,8,1,go,GW,20,U,bacs2,1,1,0.7659999999999999,1,0.0,1,1,1
02lqpjp4pevk73p8f7ipewf9,1,2,1a,227,9,1,go,GW,20,U,bacs2,1,1,0.7170000000000001,1,0.0,1,1,1
02lqpjp4pevk73p8f7ipewf9,1,2,1a,230,10,1,go,GW,20,U,bacs2,1,1,0.39399999999999996,1,1.0,0,1,1
02lqpjp4pevk73p8f7ipewf9,1,2,1a,233,11,1,go,GW,20,U,bacs2,1,0,,0,0.0,0,0,1
02lqpjp4pevk73p8f7ipewf9,1,2,1a,239,12,1,go,GW,20,U,bacs2,1,1,0.64,1,0.0,1,1,1
02lqpjp4pevk73p8f7ipewf9,1,2,1a,121,1,1,no-go,NGW,21,V,bacs2,0,1,0.64,0,0.0,0,1,0
02lqpjp4pevk73p8f7ipewf9,1,2,1a,126,2,1,no-go,NGW,21,V,bacs2,0,1,0.98,0,0.0,0,1,0
02lqpjp4pevk73p8f7ipewf9,1,2,1a,132,3,1,no-go,NGW,21,V,bacs2,0,0,,1,0.0,1,0,0
02lqpjp4pevk73p8f7ipewf9,1,2,1a,136,4,1,no-go,NGW,21,V,bacs2,0,0,,1,1.0,0,1,0
02lqpjp4pevk73p8f7ipewf9,1,2,1a,139,5,1,no-go,NGW,21,V,bacs2,0,1,0.679,0,0.0,0,1,0
02lqpjp4pevk73p8f7ipewf9,1,2,1a,143,6,1,no-go,NGW,21,V,bacs2,0,0,,1,0.0,1,0,0
02lqpjp4pevk73p8f7ipewf9,1,2,1a,148,7,1,no-go,NGW,21,V,bacs2,0,0,,1,0.0,1,0,0
02lqpjp4pevk73p8f7ipewf9,1,2,1a,149,8,1,no-go,NGW,21,V,bacs2,0,1,1.02,0,1.0,1,1,0
02lqpjp4pevk73p8f7ipewf9,1,2,1a,156,9,1,no-go,NGW,21,V,bacs2,0,1,1.0290000000000001,0,0.0,0,1,0
02lqpjp4pevk73p8f7ipewf9,1,2,1a,159,10,1,no-go,NGW,21,V,bacs2,0,1,0.619,0,0.0,0,1,0
02lqpjp4pevk73p8f7ipewf9,1,1,1b,1,1,1,go,GW,22,W,bacs2,1,1,0.551,1,0.0,1,1,1
02lqpjp4pevk73p8f7ipewf9,1,1,1b,7,2,1,go,GW,22,W,bacs2,1,1,0.97,1,0.0,1,1,1
02lqpjp4pevk73p8f7ipewf9,1,1,1b,10,3,1,go,GW,22,W,bacs2,1,1,0.996,1,0.0,1,1,1
02lqpjp4pevk73p8f7ipewf9,1,1,1b,13,4,1,go,GW,22,W,bacs2,1,1,0.733,1,0.0,1,1,1
02lqpjp4pevk73p8f7ipewf9,1,1,1b,20,5,1,go,GW,22,W,bacs2,1,1,0.49700000000000005,1,0.0,1,1,1
02lqpjp4pevk73p8f7ipewf9,1,1,1b,23,6,1,go,GW,22,W,bacs2,1,1,0.596,1,0.0,1,1,1
02lqpjp4pevk73p8f7ipewf9,1,1,1b,25,7,1,go,GW,22,W,bacs2,1,1,0.7120000000000001,1,0.0,1,1,1
02lqpjp4pevk73p8f7ipewf9,1,1,1b,31,8,1,go,GW,22,W,bacs2,1,1,0.46,1,0.0,1,1,1
02lqpjp4pevk73p8f7ipewf9,1,1,1b,2,1,0,no-go,NGAL,23,X,bacs2,0,0,,1,0.0,1,0,1
02lqpjp4pevk73p8f7ipewf9,1,1,1b,8,2,0,no-go,NGAL,23,X,bacs2,0,0,,1,0.0,1,0,1
02lqpjp4pevk73p8f7ipewf9,1,1,1b,12,3,0,no-go,NGAL,23,X,bacs2,0,0,,1,0.0,1,0,1
02lqpjp4pevk73p8f7ipewf9,1,1,1b,16,4,0,no-go,NGAL,23,X,bacs2,0,0,,1,0.0,1,0,1
02lqpjp4pevk73p8f7ipewf9,1,1,1b,19,5,0,no-go,NGAL,23,X,bacs2,0,0,,1,0.0,1,0,1
02lqpjp4pevk73p8f7ipewf9,1,1,1b,22,6,0,no-go,NGAL,23,X,bacs2,0,0,,1,0.0,1,0,1
02lqpjp4pevk73p8f7ipewf9,1,1,1b,26,7,0,no-go,NGAL,23,X,bacs2,0,0,,1,0.0,1,0,1
02lqpjp4pevk73p8f7ipewf9,1,1,1b,32,8,0,no-go,NGAL,23,X,bacs2,0,0,,1,0.0,1,0,1
02lqpjp4pevk73p8f7ipewf9,1,1,1b,34,9,0,no-go,NGAL,23,X,bacs2,0,0,,1,0.0,1,0,1
02lqpjp4pevk73p8f7ipewf9,1,1,1b,39,10,0,no-go,NGAL,23,X,bacs2,0,0,,1,0.0,1,0,1
02lqpjp4pevk73p8f7ipewf9,1,1,1b,90,1,1,no-go,NGW,24,Y,bacs2,0,1,0.857,0,0.0,0,1,0
02lqpjp4pevk73p8f7ipewf9,1,1,1b,93,2,1,no-go,NGW,24,Y,bacs2,0,1,0.5820000000000001,0,0.0,0,1,0
02lqpjp4pevk73p8f7ipewf9,1,1,1b,97,3,1,no-go,NGW,24,Y,bacs2,0,1,0.434,0,0.0,0,1,0
02lqpjp4pevk73p8f7ipewf9,1,1,1b,102,4,1,no-go,NGW,24,Y,bacs2,0,0,,1,0.0,1,0,0
02lqpjp4pevk73p8f7ipewf9,1,1,1b,107,5,1,no-go,NGW,24,Y,bacs2,0,0,,1,1.0,0,0,0
02lqpjp4pevk73p8f7ipewf9,1,1,1b,110,6,1,no-go,NGW,24,Y,bacs2,0,1,0.535,0,0.0,0,1,0
02lqpjp4pevk73p8f7ipewf9,1,1,1b,114,7,1,no-go,NGW,24,Y,bacs2,0,1,0.812,0,0.0,0,1,0
02lqpjp4pevk73p8f7ipewf9,1,1,1b,117,8,1,no-go,NGW,24,Y,bacs2,0,1,0.82,0,0.0,0,1,0
02lqpjp4pevk73p8f7ipewf9,1,1,1b,4,1,1,go,GW,25,Z,bacs2,1,1,0.945,1,0.0,1,1,1
02lqpjp4pevk73p8f7ipewf9,1,1,1b,5,2,1,go,GW,25,Z,bacs2,1,1,0.5529999999999999,1,0.0,1,1,1
02lqpjp4pevk73p8f7ipewf9,1,1,1b,9,3,1,go,GW,25,Z,bacs2,1,1,0.722,1,0.0,1,1,1
02lqpjp4pevk73p8f7ipewf9,1,1,1b,15,4,1,go,GW,25,Z,bacs2,1,1,1.044,1,0.0,1,1,1
02lqpjp4pevk73p8f7ipewf9,1,1,1b,17,5,1,go,GW,25,Z,bacs2,1,0,,0,0.0,0,1,1
02lqpjp4pevk73p8f7ipewf9,1,1,1b,24,6,1,go,GW,25,Z,bacs2,1,1,0.575,1,0.0,1,1,1
02lqpjp4pevk73p8f7ipewf9,1,1,1b,28,7,1,go,GW,25,Z,bacs2,1,1,0.5760000000000001,1,0.0,1,1,1
02lqpjp4pevk73p8f7ipewf9,1,1,1b,29,8,1,go,GW,25,Z,bacs2,1,1,0.455,1,0.0,1,1,1
02lqpjp4pevk73p8f7ipewf9,1,1,1b,36,9,1,go,GW,25,Z,bacs2,1,1,0.535,1,0.0,1,1,1
02lqpjp4pevk73p8f7ipewf9,1,1,1b,37,10,1,go,GW,25,Z,bacs2,1,1,0.536,1,0.0,1,1,1
09byk3dg92is9b06rwaybmoh,1,2,1a,194,1,1,go,GW,26,A,bacs1,1,0,,0,0.0,0,0,1
09byk3dg92is9b06rwaybmoh,1,2,1a,197,2,1,go,GW,26,A,bacs1,1,1,0.826,1,0.0,1,1,1
09byk3dg92is9b06rwaybmoh,1,2,1a,201,3,1,go,GW,26,A,bacs1,1,1,0.21600000000000003,1,0.0,1,1,1
09byk3dg92is9b06rwaybmoh,1,2,1a,206,4,1,go,GW,26,A,bacs1,1,1,0.8440000000000001,1,0.0,1,1,1
09byk3dg92is9b06rwaybmoh,1,2,1a,212,5,1,go,GW,26,A,bacs1,1,1,0.51,1,0.0,1,1,1
09byk3dg92is9b06rwaybmoh,1,2,1a,213,6,1,go,GW,26,A,bacs1,1,1,0.8029999999999999,1,1.0,0,1,1
09byk3dg92is9b06rwaybmoh,1,2,1a,217,7,1,go,GW,26,A,bacs1,1,1,0.6759999999999999,1,0.0,1,1,1
09byk3dg92is9b06rwaybmoh,1,2,1a,221,8,1,go,GW,26,A,bacs1,1,1,0.574,1,0.0,1,1,1
09byk3dg92is9b06rwaybmoh,1,2,1a,227,9,1,go,GW,26,A,bacs1,1,1,0.7929999999999999,1,1.0,0,1,1
09byk3dg92is9b06rwaybmoh,1,2,1a,229,10,1,go,GW,26,A,bacs1,1,1,0.536,1,0.0,1,1,1
09byk3dg92is9b06rwaybmoh,1,2,1a,235,11,1,go,GW,26,A,bacs1,1,1,0.43700000000000006,1,0.0,1,1,1
09byk3dg92is9b06rwaybmoh,1,2,1a,237,12,1,go,GW,26,A,bacs1,1,1,0.312,1,1.0,0,1,1
09byk3dg92is9b06rwaybmoh,1,2,1a,123,1,0,no-go,NGAL,27,B,bacs1,0,1,0.812,0,0.0,0,1,1
09byk3dg92is9b06rwaybmoh,1,2,1a,126,2,0,no-go,NGAL,27,B,bacs1,0,1,0.67,0,0.0,0,1,1
09byk3dg92is9b06rwaybmoh,1,2,1a,131,3,0,no-go,NGAL,27,B,bacs1,0,0,,1,0.0,1,0,1
09byk3dg92is9b06rwaybmoh,1,2,1a,136,4,0,no-go,NGAL,27,B,bacs1,0,0,,1,1.0,0,0,1
09byk3dg92is9b06rwaybmoh,1,2,1a,138,5,0,no-go,NGAL,27,B,bacs1,0,0,,1,0.0,1,0,1
09byk3dg92is9b06rwaybmoh,1,2,1a,142,6,0,no-go,NGAL,27,B,bacs1,0,1,0.747,0,0.0,0,1,1
09byk3dg92is9b06rwaybmoh,1,2,1a,147,7,0,no-go,NGAL,27,B,bacs1,0,0,,1,0.0,1,0,1
09byk3dg92is9b06rwaybmoh,1,2,1a,149,8,0,no-go,NGAL,27,B,bacs1,0,0,,1,0.0,1,0,1
09byk3dg92is9b06rwaybmoh,1,2,1a,155,9,0,no-go,NGAL,27,B,bacs1,0,0,,1,0.0,1,0,1
09byk3dg92is9b06rwaybmoh,1,2,1a,159,10,0,no-go,NGAL,27,B,bacs1,0,0,,1,0.0,1,0,1
09byk3dg92is9b06rwaybmoh,1,2,1a,162,11,0,no-go,NGAL,27,B,bacs1,0,0,,1,0.0,1,0,1
09byk3dg92is9b06rwaybmoh,1,2,1a,168,12,0,no-go,NGAL,27,B,bacs1,0,0,,1,0.0,1,0,1
09byk3dg92is9b06rwaybmoh,1,2,1a,196,1,0,go,GAL,28,C,bacs1,1,1,0.563,1,0.0,1,1,0
09byk3dg92is9b06rwaybmoh,1,2,1a,198,2,0,go,GAL,28,C,bacs1,1,1,0.84,1,0.0,1,1,0
09byk3dg92is9b06rwaybmoh,1,2,1a,203,3,0,go,GAL,28,C,bacs1,1,0,,0,0.0,0,0,0
09byk3dg92is9b06rwaybmoh,1,2,1a,207,4,0,go,GAL,28,C,bacs1,1,1,0.9990000000000001,1,0.0,1,1,0
09byk3dg92is9b06rwaybmoh,1,2,1a,209,5,0,go,GAL,28,C,bacs1,1,1,0.374,1,0.0,1,1,0
09byk3dg92is9b06rwaybmoh,1,2,1a,216,6,0,go,GAL,28,C,bacs1,1,1,0.784,1,0.0,1,1,0
09byk3dg92is9b06rwaybmoh,1,2,1a,219,7,0,go,GAL,28,C,bacs1,1,1,0.8190000000000001,1,0.0,1,1,0
09byk3dg92is9b06rwaybmoh,1,2,1a,224,8,0,go,GAL,28,C,bacs1,1,1,0.831,1,0.0,1,1,0
09byk3dg92is9b06rwaybmoh,1,2,1a,226,9,0,go,GAL,28,C,bacs1,1,1,0.823,1,0.0,1,1,0
09byk3dg92is9b06rwaybmoh,1,2,1a,231,10,0,go,GAL,28,C,bacs1,1,1,0.9329999999999999,1,0.0,1,1,0
09byk3dg92is9b06rwaybmoh,1,2,1a,234,11,0,go,GAL,28,C,bacs1,1,1,0.56,1,0.0,1,1,0
09byk3dg92is9b06rwaybmoh,1,2,1a,238,12,0,go,GAL,28,C,bacs1,1,0,,0,1.0,1,0,0
09byk3dg92is9b06rwaybmoh,1,1,1b,36,1,1,go,GW,29,D,bacs1,1,0,,0,1.0,1,0,1
09byk3dg92is9b06rwaybmoh,1,1,1b,39,2,1,go,GW,29,D,bacs1,1,1,0.752,1,0.0,1,1,1
09byk3dg92is9b06rwaybmoh,1,1,1b,43,3,1,go,GW,29,D,bacs1,1,1,0.503,1,0.0,1,1,1
09byk3dg92is9b06rwaybmoh,1,1,1b,47,4,1,go,GW,29,D,bacs1,1,1,0.59,1,0.0,1,1,1
09byk3dg92is9b06rwaybmoh,1,1,1b,50,5,1,go,GW,29,D,bacs1,1,1,0.615,1,1.0,0,1,1
09byk3dg92is9b06rwaybmoh,1,1,1b,53,6,1,go,GW,29,D,bacs1,1,1,0.644,1,1.0,0,1,1
09byk3dg92is9b06rwaybmoh,1,1,1b,57,7,1,go,GW,29,D,bacs1,1,1,0.561,1,1.0,0,1,1
09byk3dg92is9b06rwaybmoh,1,1,1b,61,8,1,go,GW,29,D,bacs1,1,0,,0,0.0,0,0,1
09byk3dg92is9b06rwaybmoh,1,1,1b,67,9,1,go,GW,29,D,bacs1,1,0,,0,0.0,0,0,1
09byk3dg92is9b06rwaybmoh,1,1,1b,69,10,1,go,GW,29,D,bacs1,1,0,,0,0.0,0,0,1
09byk3dg92is9b06rwaybmoh,1,1,1b,73,11,1,go,GW,29,D,bacs1,1,1,0.99,1,0.0,1,1,1
09byk3dg92is9b06rwaybmoh,1,1,1b,80,12,1,go,GW,29,D,bacs1,1,1,0.589,1,0.0,1,1,1
09byk3dg92is9b06rwaybmoh,1,2,1a,164,1,1,no-go,NGW,30,E,bacs1,0,1,1.213,0,0.0,0,1,0
09byk3dg92is9b06rwaybmoh,1,2,1a,166,2,1,no-go,NGW,30,E,bacs1,0,1,0.562,0,0.0,0,1,0
09byk3dg92is9b06rwaybmoh,1,2,1a,170,3,1,no-go,NGW,30,E,bacs1,0,1,0.7829999999999999,0,0.0,0,1,0
09byk3dg92is9b06rwaybmoh,1,2,1a,175,4,1,no-go,NGW,30,E,bacs1,0,0,,1,1.0,0,0,0
09byk3dg92is9b06rwaybmoh,1,2,1a,178,5,1,no-go,NGW,30,E,bacs1,0,1,0.612,0,1.0,1,1,0
09byk3dg92is9b06rwaybmoh,1,2,1a,182,6,1,no-go,NGW,30,E,bacs1,0,1,0.191,0,0.0,0,1,0
09byk3dg92is9b06rwaybmoh,1,2,1a,186,7,1,no-go,NGW,30,E,bacs1,0,1,0.721,0,0.0,0,1,0
09byk3dg92is9b06rwaybmoh,1,2,1a,191,8,1,no-go,NGW,30,E,bacs1,0,1,0.74,0,0.0,0,1,0
09byk3dg92is9b06rwaybmoh,1,2,1a,193,9,1,no-go,NGW,30,E,bacs1,0,1,0.61,0,1.0,1,1,0
09byk3dg92is9b06rwaybmoh,1,2,1a,199,10,1,no-go,NGW,30,E,bacs1,0,1,0.701,0,0.0,0,2,0
09byk3dg92is9b06rwaybmoh,1,2,1a,204,11,1,no-go,NGW,30,E,bacs1,0,1,0.46799999999999997,0,0.0,0,1,0
09byk3dg92is9b06rwaybmoh,1,2,1a,205,12,1,no-go,NGW,30,E,bacs1,0,1,0.599,0,0.0,0,1,0
09byk3dg92is9b06rwaybmoh,1,2,1a,169,1,0,no-go,NGAL,31,F,bacs1,0,1,0.6970000000000001,0,0.0,0,1,1
09byk3dg92is9b06rwaybmoh,1,2,1a,173,2,0,no-go,NGAL,31,F,bacs1,0,0,,1,0.0,1,0,1
09byk3dg92is9b06rwaybmoh,1,2,1a,177,3,0,no-go,NGAL,31,F,bacs1,0,1,1.052,0,1.0,1,1,1
09byk3dg92is9b06rwaybmoh,1,2,1a,181,4,0,no-go,NGAL,31,F,bacs1,0,1,0.905,0,0.0,0,1,1
09byk3dg92is9b06rwaybmoh,1,2,1a,187,5,0,no-go,NGAL,31,F,bacs1,0,0,,1,0.0,1,0,1
09byk3dg92is9b06rwaybmoh,1,2,1a,190,6,0,no-go,NGAL,31,F,bacs1,0,1,0.5329999999999999,0,0.0,0,1,1
09byk3dg92is9b06rwaybmoh,1,2,1a,195,7,0,no-go,NGAL,31,F,bacs1,0,0,,1,1.0,0,0,1
09byk3dg92is9b06rwaybmoh,1,2,1a,200,8,0,no-go,NGAL,31,F,bacs1,0,1,0.6559999999999999,0,0.0,0,1,1
09byk3dg92is9b06rwaybmoh,1,2,1a,202,9,0,no-go,NGAL,31,F,bacs1,0,1,0.7170000000000001,0,0.0,0,1,1
09byk3dg92is9b06rwaybmoh,1,2,1a,208,10,0,no-go,NGAL,31,F,bacs1,0,1,0.49,0,0.0,0,1,1
09byk3dg92is9b06rwaybmoh,1,1,1b,1,1,1,go,GW,32,G,bacs1,1,1,1.005,1,0.0,1,1,1
09byk3dg92is9b06rwaybmoh,1,1,1b,5,2,1,go,GW,32,G,bacs1,1,1,0.654,1,1.0,0,1,1
09byk3dg92is9b06rwaybmoh,1,1,1b,12,3,1,go,GW,32,G,bacs1,1,1,0.522,1,0.0,1,1,1
09byk3dg92is9b06rwaybmoh,1,1,1b,14,4,1,go,GW,32,G,bacs1,1,1,0.612,1,0.0,1,1,1
09byk3dg92is9b06rwaybmoh,1,1,1b,19,5,1,go,GW,32,G,bacs1,1,1,0.46,1,1.0,0,1,1
09byk3dg92is9b06rwaybmoh,1,1,1b,21,6,1,go,GW,32,G,bacs1,1,1,0.447,1,0.0,1,1,1
09byk3dg92is9b06rwaybmoh,1,1,1b,27,7,1,go,GW,32,G,bacs1,1,1,0.51,1,0.0,1,1,1
09byk3dg92is9b06rwaybmoh,1,1,1b,29,8,1,go,GW,32,G,bacs1,1,1,0.41100000000000003,1,0.0,1,1,1
09byk3dg92is9b06rwaybmoh,1,1,1b,89,1,0,no-go,NGAL,33,H,bacs1,0,1,0.764,0,1.0,1,1,1
09byk3dg92is9b06rwaybmoh,1,1,1b,96,2,0,no-go,NGAL,33,H,bacs1,0,1,0.809,0,0.0,0,1,1
09byk3dg92is9b06rwaybmoh,1,1,1b,99,3,0,no-go,NGAL,33,H,bacs1,0,0,,1,1.0,0,0,1
09byk3dg92is9b06rwaybmoh,1,1,1b,101,4,0,no-go,NGAL,33,H,bacs1,0,1,1.126,0,0.0,0,1,1
09byk3dg92is9b06rwaybmoh,1,1,1b,107,5,0,no-go,NGAL,33,H,bacs1,0,0,,1,1.0,0,0,1
09byk3dg92is9b06rwaybmoh,1,1,1b,110,6,0,no-go,NGAL,33,H,bacs1,0,1,0.711,0,0.0,0,1,1
09byk3dg92is9b06rwaybmoh,1,1,1b,113,7,0,no-go,NGAL,33,H,bacs1,0,1,0.721,0,1.0,1,1,1
09byk3dg92is9b06rwaybmoh,1,1,1b,118,8,0,no-go,NGAL,33,H,bacs1,0,1,0.33299999999999996,0,0.0,0,1,1
09byk3dg92is9b06rwaybmoh,1,1,1b,3,1,0,no-go,NGAL,34,I,bacs1,0,0,,1,0.0,1,1,1
09byk3dg92is9b06rwaybmoh,1,1,1b,6,2,0,no-go,NGAL,34,I,bacs1,0,0,,1,0.0,1,0,1
09byk3dg92is9b06rwaybmoh,1,1,1b,10,3,0,no-go,NGAL,34,I,bacs1,0,1,0.648,0,1.0,1,1,1
09byk3dg92is9b06rwaybmoh,1,1,1b,15,4,0,no-go,NGAL,34,I,bacs1,0,0,,1,0.0,1,0,1
09byk3dg92is9b06rwaybmoh,1,1,1b,18,5,0,no-go,NGAL,34,I,bacs1,0,1,0.759,0,0.0,0,1,1
09byk3dg92is9b06rwaybmoh,1,1,1b,23,6,0,no-go,NGAL,34,I,bacs1,0,0,,1,0.0,1,0,1
09byk3dg92is9b06rwaybmoh,1,1,1b,26,7,0,no-go,NGAL,34,I,bacs1,0,0,,1,1.0,0,0,1
09byk3dg92is9b06rwaybmoh,1,1,1b,32,8,0,no-go,NGAL,34,I,bacs1,0,1,0.5539999999999999,0,0.0,0,1,1
09byk3dg92is9b06rwaybmoh,1,1,1b,35,9,0,no-go,NGAL,34,I,bacs1,0,1,0.65,0,0.0,0,1,1
09byk3dg92is9b06rwaybmoh,1,1,1b,37,10,0,no-go,NGAL,34,I,bacs1,0,0,,1,0.0,1,0,1
09byk3dg92is9b06rwaybmoh,1,2,1a,121,1,1,go,GW,35,J,bacs1,1,1,0.541,1,0.0,1,1,1
09byk3dg92is9b06rwaybmoh,1,2,1a,128,2,1,go,GW,35,J,bacs1,1,1,0.968,1,0.0,1,1,1
09byk3dg92is9b06rwaybmoh,1,2,1a,130,3,1,go,GW,35,J,bacs1,1,1,0.461,1,0.0,1,1,1
09byk3dg92is9b06rwaybmoh,1,2,1a,135,4,1,go,GW,35,J,bacs1,1,1,0.846,1,0.0,1,1,1
09byk3dg92is9b06rwaybmoh,1,2,1a,140,5,1,go,GW,35,J,bacs1,1,1,0.6990000000000001,1,0.0,1,1,1
09byk3dg92is9b06rwaybmoh,1,2,1a,143,6,1,go,GW,35,J,bacs1,1,1,0.684,1,0.0,1,1,1
09byk3dg92is9b06rwaybmoh,1,2,1a,148,7,1,go,GW,35,J,bacs1,1,1,1.01,1,1.0,0,1,1
09byk3dg92is9b06rwaybmoh,1,2,1a,152,8,1,go,GW,35,J,bacs1,1,0,,0,1.0,1,0,1
09byk3dg92is9b06rwaybmoh,1,2,1a,156,9,1,go,GW,35,J,bacs1,1,1,0.629,1,0.0,1,1,1
09byk3dg92is9b06rwaybmoh,1,2,1a,160,10,1,go,GW,35,J,bacs1,1,1,0.5539999999999999,1,0.0,1,1,1
09byk3dg92is9b06rwaybmoh,1,1,1b,41,1,0,go,GAL,36,K,bacs1,1,0,,0,1.0,1,0,0
09byk3dg92is9b06rwaybmoh,1,1,1b,48,2,0,go,GAL,36,K,bacs1,1,1,0.615,1,1.0,0,1,0
09byk3dg92is9b06rwaybmoh,1,1,1b,49,3,0,go,GAL,36,K,bacs1,1,0,,0,1.0,1,0,0
09byk3dg92is9b06rwaybmoh,1,1,1b,55,4,0,go,GAL,36,K,bacs1,1,1,1.061,1,0.0,1,1,0
09byk3dg92is9b06rwaybmoh,1,1,1b,59,5,0,go,GAL,36,K,bacs1,1,0,,0,0.0,0,0,0
09byk3dg92is9b06rwaybmoh,1,1,1b,63,6,0,go,GAL,36,K,bacs1,1,1,0.754,1,0.0,1,1,0
09byk3dg92is9b06rwaybmoh,1,1,1b,65,7,0,go,GAL,36,K,bacs1,1,1,0.6970000000000001,1,0.0,1,1,0
09byk3dg92is9b06rwaybmoh,1,1,1b,72,8,0,go,GAL,36,K,bacs1,1,1,0.688,1,1.0,0,1,0
09byk3dg92is9b06rwaybmoh,1,2,1a,211,1,0,go,GAL,37,L,bacs1,1,0,,0,0.0,0,0,0
09byk3dg92is9b06rwaybmoh,1,2,1a,215,2,0,go,GAL,37,L,bacs1,1,0,,0,0.0,0,0,0
09byk3dg92is9b06rwaybmoh,1,2,1a,220,3,0,go,GAL,37,L,bacs1,1,1,0.735,1,0.0,1,1,0
09byk3dg92is9b06rwaybmoh,1,2,1a,222,4,0,go,GAL,37,L,bacs1,1,1,0.7170000000000001,1,0.0,1,1,0
09byk3dg92is9b06rwaybmoh,1,2,1a,225,5,0,go,GAL,37,L,bacs1,1,1,0.723,1,0.0,1,1,0
09byk3dg92is9b06rwaybmoh,1,2,1a,230,6,0,go,GAL,37,L,bacs1,1,1,1.065,1,0.0,1,1,0
09byk3dg92is9b06rwaybmoh,1,2,1a,233,7,0,go,GAL,37,L,bacs1,1,1,0.505,1,0.0,1,1,0
09byk3dg92is9b06rwaybmoh,1,2,1a,240,8,0,go,GAL,37,L,bacs1,1,1,0.767,1,0.0,1,1,0
09byk3dg92is9b06rwaybmoh,1,1,1b,74,1,0,go,GAL,38,M,bacs1,1,0,,0,1.0,1,0,0
09byk3dg92is9b06rwaybmoh,1,1,1b,79,2,0,go,GAL,38,M,bacs1,1,0,,0,1.0,1,0,0
09byk3dg92is9b06rwaybmoh,1,1,1b,84,3,0,go,GAL,38,M,bacs1,1,0,,0,0.0,0,0,0
09byk3dg92is9b06rwaybmoh,1,1,1b,88,4,0,go,GAL,38,M,bacs1,1,1,0.6679999999999999,1,0.0,1,1,0
09byk3dg92is9b06rwaybmoh,1,1,1b,90,5,0,go,GAL,38,M,bacs1,1,1,0.626,1,0.0,1,1,0
09byk3dg92is9b06rwaybmoh,1,1,1b,95,6,0,go,GAL,38,M,bacs1,1,1,0.664,1,0.0,1,1,0
09byk3dg92is9b06rwaybmoh,1,1,1b,100,7,0,go,GAL,38,M,bacs1,1,1,0.8009999999999999,1,0.0,1,1,0
09byk3dg92is9b06rwaybmoh,1,1,1b,104,8,0,go,GAL,38,M,bacs1,1,0,,0,0.0,0,0,0
09byk3dg92is9b06rwaybmoh,1,1,1b,106,9,0,go,GAL,38,M,bacs1,1,1,0.324,1,1.0,0,1,0
09byk3dg92is9b06rwaybmoh,1,1,1b,112,10,0,go,GAL,38,M,bacs1,1,0,,0,0.0,0,0,0
09byk3dg92is9b06rwaybmoh,1,1,1b,115,11,0,go,GAL,38,M,bacs1,1,1,0.758,1,0.0,1,1,0
09byk3dg92is9b06rwaybmoh,1,1,1b,117,12,0,go,GAL,38,M,bacs1,1,1,0.376,1,0.0,1,1,0
09byk3dg92is9b06rwaybmoh,1,1,1b,4,1,1,no-go,NGW,39,N,bacs1,0,1,0.835,0,0.0,0,1,0
09byk3dg92is9b06rwaybmoh,1,1,1b,7,2,1,no-go,NGW,39,N,bacs1,0,1,0.483,0,0.0,0,1,0
09byk3dg92is9b06rwaybmoh,1,1,1b,9,3,1,no-go,NGW,39,N,bacs1,0,1,0.608,0,0.0,0,1,0
09byk3dg92is9b06rwaybmoh,1,1,1b,13,4,1,no-go,NGW,39,N,bacs1,0,0,,1,0.0,1,0,0
09byk3dg92is9b06rwaybmoh,1,1,1b,17,5,1,no-go,NGW,39,N,bacs1,0,0,,1,0.0,1,0,0
09byk3dg92is9b06rwaybmoh,1,1,1b,24,6,1,no-go,NGW,39,N,bacs1,0,0,,1,0.0,1,0,0
09byk3dg92is9b06rwaybmoh,1,1,1b,28,7,1,no-go,NGW,39,N,bacs1,0,0,,1,1.0,0,0,0
09byk3dg92is9b06rwaybmoh,1,1,1b,30,8,1,no-go,NGW,39,N,bacs1,0,1,0.499,0,1.0,1,1,0
09byk3dg92is9b06rwaybmoh,1,1,1b,34,9,1,no-go,NGW,39,N,bacs1,0,1,0.7809999999999999,0,0.0,0,1,0
09byk3dg92is9b06rwaybmoh,1,1,1b,38,10,1,no-go,NGW,39,N,bacs1,0,1,0.755,0,1.0,1,1,0
09byk3dg92is9b06rwaybmoh,1,1,1b,42,11,1,no-go,NGW,39,N,bacs1,0,1,0.498,0,0.0,0,1,0
09byk3dg92is9b06rwaybmoh,1,1,1b,46,12,1,no-go,NGW,39,N,bacs1,0,1,0.542,0,0.0,0,1,0
09byk3dg92is9b06rwaybmoh,1,1,1b,2,1,1,go,GW,40,O,bacs1,1,1,0.97,1,0.0,1,1,1
09byk3dg92is9b06rwaybmoh,1,1,1b,8,2,1,go,GW,40,O,bacs1,1,0,,0,0.0,0,0,1
09byk3dg92is9b06rwaybmoh,1,1,1b,11,3,1,go,GW,40,O,bacs1,1,0,,0,0.0,0,0,1
09byk3dg92is9b06rwaybmoh,1,1,1b,16,4,1,go,GW,40,O,bacs1,1,1,0.6890000000000001,1,0.0,1,1,1
09byk3dg92is9b06rwaybmoh,1,1,1b,20,5,1,go,GW,40,O,bacs1,1,1,0.599,1,0.0,1,1,1
09byk3dg92is9b06rwaybmoh,1,1,1b,22,6,1,go,GW,40,O,bacs1,1,1,0.455,1,0.0,1,1,1
09byk3dg92is9b06rwaybmoh,1,1,1b,25,7,1,go,GW,40,O,bacs1,1,1,0.45299999999999996,1,0.0,1,1,1
09byk3dg92is9b06rwaybmoh,1,1,1b,31,8,1,go,GW,40,O,bacs1,1,1,0.527,1,0.0,1,1,1
09byk3dg92is9b06rwaybmoh,1,1,1b,33,9,1,go,GW,40,O,bacs1,1,1,0.519,1,0.0,1,1,1
09byk3dg92is9b06rwaybmoh,1,1,1b,40,10,1,go,GW,40,O,bacs1,1,1,0.524,1,0.0,1,1,1
09byk3dg92is9b06rwaybmoh,1,1,1b,81,1,0,go,GAL,41,P,bacs1,1,0,,0,0.0,0,0,0
09byk3dg92is9b06rwaybmoh,1,1,1b,86,2,0,go,GAL,41,P,bacs1,1,1,0.637,1,0.0,1,1,0
09byk3dg92is9b06rwaybmoh,1,1,1b,92,3,0,go,GAL,41,P,bacs1,1,1,0.8140000000000001,1,0.0,1,1,0
09byk3dg92is9b06rwaybmoh,1,1,1b,93,4,0,go,GAL,41,P,bacs1,1,1,0.637,1,0.0,1,1,0
09byk3dg92is9b06rwaybmoh,1,1,1b,97,5,0,go,GAL,41,P,bacs1,1,1,0.7859999999999999,1,1.0,0,1,0
09byk3dg92is9b06rwaybmoh,1,1,1b,102,6,0,go,GAL,41,P,bacs1,1,1,0.6559999999999999,1,0.0,1,1,0
09byk3dg92is9b06rwaybmoh,1,1,1b,105,7,0,go,GAL,41,P,bacs1,1,1,0.583,1,0.0,1,1,0
09byk3dg92is9b06rwaybmoh,1,1,1b,109,8,0,go,GAL,41,P,bacs1,1,0,,0,1.0,1,1,0
09byk3dg92is9b06rwaybmoh,1,1,1b,116,9,0,go,GAL,41,P,bacs1,1,1,0.479,1,0.0,1,1,0
09byk3dg92is9b06rwaybmoh,1,1,1b,119,10,0,go,GAL,41,P,bacs1,1,1,0.79,1,0.0,1,1,0
09byk3dg92is9b06rwaybmoh,1,2,1a,210,1,1,no-go,NGW,42,Q,bacs1,0,1,0.628,0,0.0,0,1,0
09byk3dg92is9b06rwaybmoh,1,2,1a,214,2,1,no-go,NGW,42,Q,bacs1,0,1,0.49200000000000005,0,0.0,0,1,0
09byk3dg92is9b06rwaybmoh,1,2,1a,218,3,1,no-go,NGW,42,Q,bacs1,0,1,0.6709999999999999,0,0.0,0,1,0
09byk3dg92is9b06rwaybmoh,1,2,1a,223,4,1,no-go,NGW,42,Q,bacs1,0,1,0.638,0,0.0,0,1,0
09byk3dg92is9b06rwaybmoh,1,2,1a,228,5,1,no-go,NGW,42,Q,bacs1,0,1,0.8,0,0.0,0,1,0
09byk3dg92is9b06rwaybmoh,1,2,1a,232,6,1,no-go,NGW,42,Q,bacs1,0,1,0.488,0,1.0,1,1,0
09byk3dg92is9b06rwaybmoh,1,2,1a,236,7,1,no-go,NGW,42,Q,bacs1,0,1,0.527,0,0.0,0,1,0
09byk3dg92is9b06rwaybmoh,1,2,1a,239,8,1,no-go,NGW,42,Q,bacs1,0,1,0.519,0,0.0,0,1,0
09byk3dg92is9b06rwaybmoh,1,2,1a,124,1,1,no-go,NGW,43,R,bacs1,0,0,,1,1.0,0,0,0
09byk3dg92is9b06rwaybmoh,1,2,1a,127,2,1,no-go,NGW,43,R,bacs1,0,1,0.732,0,0.0,0,1,0
09byk3dg92is9b06rwaybmoh,1,2,1a,129,3,1,no-go,NGW,43,R,bacs1,0,1,0.633,0,0.0,0,1,0
09byk3dg92is9b06rwaybmoh,1,2,1a,133,4,1,no-go,NGW,43,R,bacs1,0,1,0.83,0,0.0,0,1,0
09byk3dg92is9b06rwaybmoh,1,2,1a,139,5,1,no-go,NGW,43,R,bacs1,0,1,0.57,0,0.0,0,1,0
09byk3dg92is9b06rwaybmoh,1,2,1a,144,6,1,no-go,NGW,43,R,bacs1,0,0,,1,0.0,1,0,0
09byk3dg92is9b06rwaybmoh,1,2,1a,146,7,1,no-go,NGW,43,R,bacs1,0,0,,1,0.0,1,0,0
09byk3dg92is9b06rwaybmoh,1,2,1a,150,8,1,no-go,NGW,43,R,bacs1,0,0,,1,0.0,1,0,0
09byk3dg92is9b06rwaybmoh,1,2,1a,153,9,1,no-go,NGW,43,R,bacs1,0,0,,1,0.0,1,0,0
09byk3dg92is9b06rwaybmoh,1,2,1a,158,10,1,no-go,NGW,43,R,bacs1,0,0,,1,0.0,1,0,0
09byk3dg92is9b06rwaybmoh,1,1,1b,44,1,0,no-go,NGAL,44,S,bacs1,0,0,,1,0.0,1,0,1
09byk3dg92is9b06rwaybmoh,1,1,1b,45,2,0,no-go,NGAL,44,S,bacs1,0,0,,1,1.0,0,0,1
09byk3dg92is9b06rwaybmoh,1,1,1b,51,3,0,no-go,NGAL,44,S,bacs1,0,1,0.778,0,1.0,1,1,1
09byk3dg92is9b06rwaybmoh,1,1,1b,56,4,0,no-go,NGAL,44,S,bacs1,0,1,0.8240000000000001,0,0.0,0,1,1
09byk3dg92is9b06rwaybmoh,1,1,1b,60,5,0,no-go,NGAL,44,S,bacs1,0,1,0.7440000000000001,0,1.0,1,1,1
09byk3dg92is9b06rwaybmoh,1,1,1b,62,6,0,no-go,NGAL,44,S,bacs1,0,0,,1,0.0,1,0,1
09byk3dg92is9b06rwaybmoh,1,1,1b,66,7,0,no-go,NGAL,44,S,bacs1,0,1,0.75,0,0.0,0,1,1
09byk3dg92is9b06rwaybmoh,1,1,1b,70,8,0,no-go,NGAL,44,S,bacs1,0,0,,1,0.0,1,0,1
09byk3dg92is9b06rwaybmoh,1,1,1b,75,9,0,no-go,NGAL,44,S,bacs1,0,0,,1,0.0,1,0,1
09byk3dg92is9b06rwaybmoh,1,1,1b,77,10,0,no-go,NGAL,44,S,bacs1,0,0,,1,1.0,0,0,1
09byk3dg92is9b06rwaybmoh,1,1,1b,83,11,0,no-go,NGAL,44,S,bacs1,0,1,0.888,0,0.0,0,1,1
09byk3dg92is9b06rwaybmoh,1,1,1b,85,12,0,no-go,NGAL,44,S,bacs1,0,1,0.466,0,0.0,0,1,1
09byk3dg92is9b06rwaybmoh,1,2,1a,161,1,1,go,GW,45,T,bacs1,1,0,,0,0.0,0,0,1
09byk3dg92is9b06rwaybmoh,1,2,1a,167,2,1,go,GW,45,T,bacs1,1,1,0.7,1,0.0,1,1,1
09byk3dg92is9b06rwaybmoh,1,2,1a,172,3,1,go,GW,45,T,bacs1,1,1,0.618,1,0.0,1,1,1
09byk3dg92is9b06rwaybmoh,1,2,1a,174,4,1,go,GW,45,T,bacs1,1,1,0.614,1,0.0,1,1,1
09byk3dg92is9b06rwaybmoh,1,2,1a,179,5,1,go,GW,45,T,bacs1,1,1,0.664,1,1.0,0,1,1
09byk3dg92is9b06rwaybmoh,1,2,1a,183,6,1,go,GW,45,T,bacs1,1,1,0.413,1,0.0,1,1,1
09byk3dg92is9b06rwaybmoh,1,2,1a,185,7,1,go,GW,45,T,bacs1,1,1,0.575,1,0.0,1,1,1
09byk3dg92is9b06rwaybmoh,1,2,1a,192,8,1,go,GW,45,T,bacs1,1,1,0.218,1,0.0,1,1,1
09byk3dg92is9b06rwaybmoh,1,1,1b,52,1,1,no-go,NGW,46,U,bacs1,0,1,0.722,0,0.0,0,1,0
09byk3dg92is9b06rwaybmoh,1,1,1b,54,2,1,no-go,NGW,46,U,bacs1,0,0,,1,1.0,0,0,0
09byk3dg92is9b06rwaybmoh,1,1,1b,58,3,1,no-go,NGW,46,U,bacs1,0,0,,1,1.0,0,0,0
09byk3dg92is9b06rwaybmoh,1,1,1b,64,4,1,no-go,NGW,46,U,bacs1,0,1,1.0590000000000002,0,0.0,0,1,0
09byk3dg92is9b06rwaybmoh,1,1,1b,68,5,1,no-go,NGW,46,U,bacs1,0,1,0.826,0,0.0,0,1,0
09byk3dg92is9b06rwaybmoh,1,1,1b,71,6,1,no-go,NGW,46,U,bacs1,0,1,0.929,0,0.0,0,1,0
09byk3dg92is9b06rwaybmoh,1,1,1b,76,7,1,no-go,NGW,46,U,bacs1,0,1,0.862,0,0.0,0,1,0
09byk3dg92is9b06rwaybmoh,1,1,1b,78,8,1,no-go,NGW,46,U,bacs1,0,1,0.8270000000000001,0,1.0,1,1,0
09byk3dg92is9b06rwaybmoh,1,1,1b,82,9,1,no-go,NGW,46,U,bacs1,0,1,0.544,0,0.0,0,1,0
09byk3dg92is9b06rwaybmoh,1,1,1b,87,10,1,no-go,NGW,46,U,bacs1,0,1,0.518,0,0.0,0,1,0
09byk3dg92is9b06rwaybmoh,1,2,1a,154,1,0,go,GAL,47,V,bacs1,1,0,,0,1.0,1,0,0
09byk3dg92is9b06rwaybmoh,1,2,1a,157,2,0,go,GAL,47,V,bacs1,1,1,1.226,1,1.0,0,1,0
09byk3dg92is9b06rwaybmoh,1,2,1a,163,3,0,go,GAL,47,V,bacs1,1,0,,0,0.0,0,0,0
09byk3dg92is9b06rwaybmoh,1,2,1a,165,4,0,go,GAL,47,V,bacs1,1,0,,0,0.0,0,0,0
09byk3dg92is9b06rwaybmoh,1,2,1a,171,5,0,go,GAL,47,V,bacs1,1,1,0.585,1,0.0,1,1,0
09byk3dg92is9b06rwaybmoh,1,2,1a,176,6,0,go,GAL,47,V,bacs1,1,0,,0,0.0,0,0,0
09byk3dg92is9b06rwaybmoh,1,2,1a,180,7,0,go,GAL,47,V,bacs1,1,1,0.708,1,0.0,1,1,0
09byk3dg92is9b06rwaybmoh,1,2,1a,184,8,0,go,GAL,47,V,bacs1,1,1,0.89,1,1.0,0,1,0
09byk3dg92is9b06rwaybmoh,1,2,1a,188,9,0,go,GAL,47,V,bacs1,1,0,,0,0.0,0,0,0
09byk3dg92is9b06rwaybmoh,1,2,1a,189,10,0,go,GAL,47,V,bacs1,1,0,,0,0.0,0,0,0
09byk3dg92is9b06rwaybmoh,1,1,1b,91,1,1,no-go,NGW,50,Y,bacs1,0,1,0.5710000000000001,0,0.0,0,1,0
09byk3dg92is9b06rwaybmoh,1,1,1b,94,2,1,no-go,NGW,50,Y,bacs1,0,1,0.9279999999999999,0,0.0,0,1,0
09byk3dg92is9b06rwaybmoh,1,1,1b,98,3,1,no-go,NGW,50,Y,bacs1,0,1,0.845,0,0.0,0,1,0
09byk3dg92is9b06rwaybmoh,1,1,1b,103,4,1,no-go,NGW,50,Y,bacs1,0,1,0.759,0,0.0,0,1,0
09byk3dg92is9b06rwaybmoh,1,1,1b,108,5,1,no-go,NGW,50,Y,bacs1,0,1,0.248,0,0.0,0,1,0
09byk3dg92is9b06rwaybmoh,1,1,1b,111,6,1,no-go,NGW,50,Y,bacs1,0,1,0.7440000000000001,0,0.0,0,1,0
09byk3dg92is9b06rwaybmoh,1,1,1b,114,7,1,no-go,NGW,50,Y,bacs1,0,1,0.6559999999999999,0,0.0,0,1,0
09byk3dg92is9b06rwaybmoh,1,1,1b,120,8,1,no-go,NGW,50,Y,bacs1,0,1,0.526,0,0.0,0,1,0
09byk3dg92is9b06rwaybmoh,1,2,1a,122,1,0,no-go,NGAL,51,Z,bacs1,0,1,0.865,0,0.0,0,1,1
09byk3dg92is9b06rwaybmoh,1,2,1a,125,2,0,no-go,NGAL,51,Z,bacs1,0,0,,1,0.0,1,0,1
09byk3dg92is9b06rwaybmoh,1,2,1a,132,3,0,no-go,NGAL,51,Z,bacs1,0,0,,1,1.0,0,0,1
09byk3dg92is9b06rwaybmoh,1,2,1a,134,4,0,no-go,NGAL,51,Z,bacs1,0,1,1.131,0,0.0,0,1,1
09byk3dg92is9b06rwaybmoh,1,2,1a,137,5,0,no-go,NGAL,51,Z,bacs1,0,0,,1,0.0,1,0,1
09byk3dg92is9b06rwaybmoh,1,2,1a,141,6,0,no-go,NGAL,51,Z,bacs1,0,0,,1,0.0,1,0,1
09byk3dg92is9b06rwaybmoh,1,2,1a,145,7,0,no-go,NGAL,51,Z,bacs1,0,0,,1,0.0,1,0,1
09byk3dg92is9b06rwaybmoh,1,2,1a,151,8,0,no-go,NGAL,51,Z,bacs1,0,0,,1,0.0,1,0,1
1ahxnduc1fr21fpplm87wkk6,1,2,1a,194,1,1,go,GW,52,A,bacs1,1,1,0.821,1,0.0,1,1,1
1ahxnduc1fr21fpplm87wkk6,1,2,1a,200,2,1,go,GW,52,A,bacs1,1,0,,0,1.0,1,0,1
1ahxnduc1fr21fpplm87wkk6,1,2,1a,203,3,1,go,GW,52,A,bacs1,1,0,,0,0.0,0,0,1
1ahxnduc1fr21fpplm87wkk6,1,2,1a,207,4,1,go,GW,52,A,bacs1,1,1,1.273,1,0.0,1,1,1
1ahxnduc1fr21fpplm87wkk6,1,2,1a,212,5,1,go,GW,52,A,bacs1,1,1,0.8640000000000001,1,0.0,1,1,1
1ahxnduc1fr21fpplm87wkk6,1,2,1a,213,6,1,go,GW,52,A,bacs1,1,1,0.574,1,0.0,1,1,1
1ahxnduc1fr21fpplm87wkk6,1,2,1a,217,7,1,go,GW,52,A,bacs1,1,1,0.7959999999999999,1,0.0,1,1,1
1ahxnduc1fr21fpplm87wkk6,1,2,1a,223,8,1,go,GW,52,A,bacs1,1,1,0.765,1,0.0,1,1,1
1ahxnduc1fr21fpplm87wkk6,1,2,1a,227,9,1,go,GW,52,A,bacs1,1,1,0.723,1,1.0,0,1,1
1ahxnduc1fr21fpplm87wkk6,1,2,1a,230,10,1,go,GW,52,A,bacs1,1,1,0.863,1,0.0,1,1,1
1ahxnduc1fr21fpplm87wkk6,1,2,1a,233,11,1,go,GW,52,A,bacs1,1,1,0.693,1,0.0,1,1,1
1ahxnduc1fr21fpplm87wkk6,1,2,1a,239,12,1,go,GW,52,A,bacs1,1,1,0.557,1,0.0,1,1,1
1ahxnduc1fr21fpplm87wkk6,1,2,1a,121,1,0,no-go,NGAL,53,B,bacs1,0,0,,1,1.0,0,0,1
1ahxnduc1fr21fpplm87wkk6,1,2,1a,128,2,0,no-go,NGAL,53,B,bacs1,0,1,0.976,0,0.0,0,1,1
1ahxnduc1fr21fpplm87wkk6,1,2,1a,129,3,0,no-go,NGAL,53,B,bacs1,0,0,,1,0.0,1,0,1
1ahxnduc1fr21fpplm87wkk6,1,2,1a,134,4,0,no-go,NGAL,53,B,bacs1,0,0,,1,0.0,1,1,1
1ahxnduc1fr21fpplm87wkk6,1,2,1a,137,5,0,no-go,NGAL,53,B,bacs1,0,0,,1,0.0,1,1,1
1ahxnduc1fr21fpplm87wkk6,1,2,1a,141,6,0,no-go,NGAL,53,B,bacs1,0,0,,1,0.0,1,0,1
1ahxnduc1fr21fpplm87wkk6,1,2,1a,147,7,0,no-go,NGAL,53,B,bacs1,0,0,,1,0.0,1,0,1
1ahxnduc1fr21fpplm87wkk6,1,2,1a,151,8,0,no-go,NGAL,53,B,bacs1,0,0,,1,0.0,1,0,1
1ahxnduc1fr21fpplm87wkk6,1,2,1a,154,9,0,no-go,NGAL,53,B,bacs1,0,0,,1,0.0,1,0,1
1ahxnduc1fr21fpplm87wkk6,1,2,1a,157,10,0,no-go,NGAL,53,B,bacs1,0,0,,1,0.0,1,0,1
1ahxnduc1fr21fpplm87wkk6,1,2,1a,161,11,0,no-go,NGAL,53,B,bacs1,0,0,,1,0.0,1,0,1
1ahxnduc1fr21fpplm87wkk6,1,2,1a,166,12,0,no-go,NGAL,53,B,bacs1,0,0,,1,0.0,1,0,1
1ahxnduc1fr21fpplm87wkk6,1,2,1a,195,1,0,go,GAL,54,C,bacs1,1,0,,0,0.0,0,0,0
1ahxnduc1fr21fpplm87wkk6,1,2,1a,199,2,0,go,GAL,54,C,bacs1,1,1,0.773,1,0.0,1,1,0
1ahxnduc1fr21fpplm87wkk6,1,2,1a,201,3,0,go,GAL,54,C,bacs1,1,1,0.773,1,0.0,1,1,0
1ahxnduc1fr21fpplm87wkk6,1,2,1a,205,4,0,go,GAL,54,C,bacs1,1,1,0.711,1,0.0,1,1,0
1ahxnduc1fr21fpplm87wkk6,1,2,1a,210,5,0,go,GAL,54,C,bacs1,1,1,1.08,1,0.0,1,1,0
1ahxnduc1fr21fpplm87wkk6,1,2,1a,216,6,0,go,GAL,54,C,bacs1,1,1,0.624,1,0.0,1,1,0
1ahxnduc1fr21fpplm87wkk6,1,2,1a,219,7,0,go,GAL,54,C,bacs1,1,1,0.5589999999999999,1,0.0,1,1,0
1ahxnduc1fr21fpplm87wkk6,1,2,1a,224,8,0,go,GAL,54,C,bacs1,1,1,0.606,1,0.0,1,1,0
1ahxnduc1fr21fpplm87wkk6,1,2,1a,226,9,0,go,GAL,54,C,bacs1,1,1,0.535,1,0.0,1,1,0
1ahxnduc1fr21fpplm87wkk6,1,2,1a,229,10,0,go,GAL,54,C,bacs1,1,1,0.604,1,1.0,0,1,0
1ahxnduc1fr21fpplm87wkk6,1,2,1a,234,11,0,go,GAL,54,C,bacs1,1,1,0.516,1,0.0,1,1,0
1ahxnduc1fr21fpplm87wkk6,1,2,1a,240,12,0,go,GAL,54,C,bacs1,1,1,0.52,1,1.0,0,1,0
1ahxnduc1fr21fpplm87wkk6,1,1,1b,33,1,1,go,GW,55,D,bacs1,1,0,,0,0.0,0,0,1
1ahxnduc1fr21fpplm87wkk6,1,1,1b,40,2,1,go,GW,55,D,bacs1,1,1,0.635,1,0.0,1,1,1
1ahxnduc1fr21fpplm87wkk6,1,1,1b,41,3,1,go,GW,55,D,bacs1,1,1,0.684,1,1.0,0,1,1
1ahxnduc1fr21fpplm87wkk6,1,1,1b,48,4,1,go,GW,55,D,bacs1,1,1,0.774,1,1.0,0,1,1
1ahxnduc1fr21fpplm87wkk6,1,1,1b,52,5,1,go,GW,55,D,bacs1,1,1,0.6609999999999999,1,1.0,0,1,1
1ahxnduc1fr21fpplm87wkk6,1,1,1b,53,6,1,go,GW,55,D,bacs1,1,0,,0,0.0,0,0,1
1ahxnduc1fr21fpplm87wkk6,1,1,1b,59,7,1,go,GW,55,D,bacs1,1,0,,0,1.0,1,0,1
1ahxnduc1fr21fpplm87wkk6,1,1,1b,63,8,1,go,GW,55,D,bacs1,1,1,0.826,1,1.0,0,1,1
1ahxnduc1fr21fpplm87wkk6,1,1,1b,66,9,1,go,GW,55,D,bacs1,1,0,,0,1.0,1,0,1
1ahxnduc1fr21fpplm87wkk6,1,1,1b,72,10,1,go,GW,55,D,bacs1,1,1,0.889,1,0.0,1,1,1
1ahxnduc1fr21fpplm87wkk6,1,1,1b,74,11,1,go,GW,55,D,bacs1,1,0,,0,1.0,1,0,1
1ahxnduc1fr21fpplm87wkk6,1,1,1b,77,12,1,go,GW,55,D,bacs1,1,0,,0,0.0,0,0,1
1ahxnduc1fr21fpplm87wkk6,1,2,1a,163,1,1,no-go,NGW,56,E,bacs1,0,0,,1,0.0,1,0,0
1ahxnduc1fr21fpplm87wkk6,1,2,1a,165,2,1,no-go,NGW,56,E,bacs1,0,0,,1,0.0,1,0,0
1ahxnduc1fr21fpplm87wkk6,1,2,1a,171,3,1,no-go,NGW,56,E,bacs1,0,0,,1,0.0,1,0,0
1ahxnduc1fr21fpplm87wkk6,1,2,1a,176,4,1,no-go,NGW,56,E,bacs1,0,0,,1,1.0,0,0,0
1ahxnduc1fr21fpplm87wkk6,1,2,1a,180,5,1,no-go,NGW,56,E,bacs1,0,0,,1,0.0,1,0,0
1ahxnduc1fr21fpplm87wkk6,1,2,1a,184,6,1,no-go,NGW,56,E,bacs1,0,0,,1,0.0,1,0,0
1ahxnduc1fr21fpplm87wkk6,1,2,1a,186,7,1,no-go,NGW,56,E,bacs1,0,0,,1,0.0,1,0,0
1ahxnduc1fr21fpplm87wkk6,1,2,1a,191,8,1,no-go,NGW,56,E,bacs1,0,0,,1,0.0,1,0,0
1ahxnduc1fr21fpplm87wkk6,1,2,1a,193,9,1,no-go,NGW,56,E,bacs1,0,1,1.256,0,0.0,0,1,0
1ahxnduc1fr21fpplm87wkk6,1,2,1a,198,10,1,no-go,NGW,56,E,bacs1,0,0,,1,0.0,1,0,0
1ahxnduc1fr21fpplm87wkk6,1,2,1a,202,11,1,no-go,NGW,56,E,bacs1,0,0,,1,0.0,1,0,0
1ahxnduc1fr21fpplm87wkk6,1,2,1a,208,12,1,no-go,NGW,56,E,bacs1,0,0,,1,0.0,1,0,0
1ahxnduc1fr21fpplm87wkk6,1,2,1a,169,1,0,no-go,NGAL,57,F,bacs1,0,1,0.9259999999999999,0,0.0,0,1,1
1ahxnduc1fr21fpplm87wkk6,1,2,1a,173,2,0,no-go,NGAL,57,F,bacs1,0,1,0.9329999999999999,0,0.0,0,1,1
1ahxnduc1fr21fpplm87wkk6,1,2,1a,177,3,0,no-go,NGAL,57,F,bacs1,0,1,0.6509999999999999,0,0.0,0,1,1
1ahxnduc1fr21fpplm87wkk6,1,2,1a,182,4,0,no-go,NGAL,57,F,bacs1,0,1,0.6859999999999999,0,0.0,0,1,1
1ahxnduc1fr21fpplm87wkk6,1,2,1a,187,5,0,no-go,NGAL,57,F,bacs1,0,0,,1,0.0,1,0,1
1ahxnduc1fr21fpplm87wkk6,1,2,1a,189,6,0,no-go,NGAL,57,F,bacs1,0,0,,1,1.0,0,0,1
1ahxnduc1fr21fpplm87wkk6,1,2,1a,196,7,0,no-go,NGAL,57,F,bacs1,0,0,,1,1.0,0,0,1
1ahxnduc1fr21fpplm87wkk6,1,2,1a,197,8,0,no-go,NGAL,57,F,bacs1,0,1,0.72,0,1.0,1,1,1
1ahxnduc1fr21fpplm87wkk6,1,2,1a,204,9,0,no-go,NGAL,57,F,bacs1,0,0,,1,0.0,1,0,1
1ahxnduc1fr21fpplm87wkk6,1,2,1a,206,10,0,no-go,NGAL,57,F,bacs1,0,0,,1,0.0,1,0,1
1ahxnduc1fr21fpplm87wkk6,1,1,1b,4,1,1,go,GW,58,G,bacs1,1,1,0.9109999999999999,1,0.0,1,1,1
1ahxnduc1fr21fpplm87wkk6,1,1,1b,7,2,1,go,GW,58,G,bacs1,1,1,0.847,1,0.0,1,1,1
1ahxnduc1fr21fpplm87wkk6,1,1,1b,11,3,1,go,GW,58,G,bacs1,1,1,0.777,1,0.0,1,1,1
1ahxnduc1fr21fpplm87wkk6,1,1,1b,13,4,1,go,GW,58,G,bacs1,1,1,0.6559999999999999,1,0.0,1,1,1
1ahxnduc1fr21fpplm87wkk6,1,1,1b,17,5,1,go,GW,58,G,bacs1,1,1,0.632,1,0.0,1,1,1
1ahxnduc1fr21fpplm87wkk6,1,1,1b,23,6,1,go,GW,58,G,bacs1,1,1,0.647,1,0.0,1,1,1
1ahxnduc1fr21fpplm87wkk6,1,1,1b,26,7,1,go,GW,58,G,bacs1,1,1,0.6409999999999999,1,0.0,1,1,1
1ahxnduc1fr21fpplm87wkk6,1,1,1b,32,8,1,go,GW,58,G,bacs1,1,1,0.6779999999999999,1,1.0,0,1,1
1ahxnduc1fr21fpplm87wkk6,1,1,1b,92,1,0,no-go,NGAL,59,H,bacs1,0,0,,1,1.0,0,0,1
1ahxnduc1fr21fpplm87wkk6,1,1,1b,95,2,0,no-go,NGAL,59,H,bacs1,0,1,0.733,0,0.0,0,1,1
1ahxnduc1fr21fpplm87wkk6,1,1,1b,100,3,0,no-go,NGAL,59,H,bacs1,0,0,,1,0.0,1,0,1
1ahxnduc1fr21fpplm87wkk6,1,1,1b,103,4,0,no-go,NGAL,59,H,bacs1,0,0,,1,0.0,1,0,1
1ahxnduc1fr21fpplm87wkk6,1,1,1b,107,5,0,no-go,NGAL,59,H,bacs1,0,0,,1,0.0,1,0,1
1ahxnduc1fr21fpplm87wkk6,1,1,1b,110,6,0,no-go,NGAL,59,H,bacs1,0,0,,1,0.0,1,0,1
1ahxnduc1fr21fpplm87wkk6,1,1,1b,113,7,0,no-go,NGAL,59,H,bacs1,0,1,0.684,0,0.0,0,1,1
1ahxnduc1fr21fpplm87wkk6,1,1,1b,117,8,0,no-go,NGAL,59,H,bacs1,0,1,0.757,0,0.0,0,1,1
1ahxnduc1fr21fpplm87wkk6,1,1,1b,3,1,0,no-go,NGAL,60,I,bacs1,0,1,1.037,0,0.0,0,1,1
1ahxnduc1fr21fpplm87wkk6,1,1,1b,5,2,0,no-go,NGAL,60,I,bacs1,0,0,,1,0.0,1,0,1
1ahxnduc1fr21fpplm87wkk6,1,1,1b,12,3,0,no-go,NGAL,60,I,bacs1,0,0,,1,1.0,0,0,1
1ahxnduc1fr21fpplm87wkk6,1,1,1b,16,4,0,no-go,NGAL,60,I,bacs1,0,0,,1,1.0,0,0,1
1ahxnduc1fr21fpplm87wkk6,1,1,1b,19,5,0,no-go,NGAL,60,I,bacs1,0,1,0.445,0,0.0,0,1,1
1ahxnduc1fr21fpplm87wkk6,1,1,1b,21,6,0,no-go,NGAL,60,I,bacs1,0,1,0.562,0,0.0,0,1,1
1ahxnduc1fr21fpplm87wkk6,1,1,1b,28,7,0,no-go,NGAL,60,I,bacs1,0,1,0.723,0,0.0,0,1,1
1ahxnduc1fr21fpplm87wkk6,1,1,1b,31,8,0,no-go,NGAL,60,I,bacs1,0,0,,1,0.0,1,0,1
1ahxnduc1fr21fpplm87wkk6,1,1,1b,35,9,0,no-go,NGAL,60,I,bacs1,0,1,0.6920000000000001,0,0.0,0,1,1
1ahxnduc1fr21fpplm87wkk6,1,1,1b,37,10,0,no-go,NGAL,60,I,bacs1,0,0,,1,0.0,1,0,1
1ahxnduc1fr21fpplm87wkk6,1,2,1a,124,1,1,go,GW,61,J,bacs1,1,0,,0,0.0,0,0,1
1ahxnduc1fr21fpplm87wkk6,1,2,1a,127,2,1,go,GW,61,J,bacs1,1,1,0.6509999999999999,1,0.0,1,1,1
1ahxnduc1fr21fpplm87wkk6,1,2,1a,130,3,1,go,GW,61,J,bacs1,1,1,0.9129999999999999,1,0.0,1,1,1
1ahxnduc1fr21fpplm87wkk6,1,2,1a,133,4,1,go,GW,61,J,bacs1,1,1,0.6779999999999999,1,0.0,1,1,1
1ahxnduc1fr21fpplm87wkk6,1,2,1a,140,5,1,go,GW,61,J,bacs1,1,1,0.585,1,0.0,1,1,1
1ahxnduc1fr21fpplm87wkk6,1,2,1a,144,6,1,go,GW,61,J,bacs1,1,1,0.583,1,0.0,1,1,1
1ahxnduc1fr21fpplm87wkk6,1,2,1a,146,7,1,go,GW,61,J,bacs1,1,1,0.759,1,1.0,0,1,1
1ahxnduc1fr21fpplm87wkk6,1,2,1a,152,8,1,go,GW,61,J,bacs1,1,1,0.5820000000000001,1,1.0,0,1,1
1ahxnduc1fr21fpplm87wkk6,1,2,1a,156,9,1,go,GW,61,J,bacs1,1,0,,0,0.0,0,0,1
1ahxnduc1fr21fpplm87wkk6,1,2,1a,160,10,1,go,GW,61,J,bacs1,1,1,0.9440000000000001,1,0.0,1,1,1
1ahxnduc1fr21fpplm87wkk6,1,1,1b,42,1,0,go,GAL,62,K,bacs1,1,0,,0,0.0,0,0,0
1ahxnduc1fr21fpplm87wkk6,1,1,1b,46,2,0,go,GAL,62,K,bacs1,1,0,,0,0.0,0,0,0
1ahxnduc1fr21fpplm87wkk6,1,1,1b,50,3,0,go,GAL,62,K,bacs1,1,1,0.904,1,1.0,0,1,0
1ahxnduc1fr21fpplm87wkk6,1,1,1b,54,4,0,go,GAL,62,K,bacs1,1,0,,0,0.0,0,0,0
1ahxnduc1fr21fpplm87wkk6,1,1,1b,57,5,0,go,GAL,62,K,bacs1,1,1,0.976,1,1.0,0,1,0
1ahxnduc1fr21fpplm87wkk6,1,1,1b,64,6,0,go,GAL,62,K,bacs1,1,0,,0,0.0,0,0,0
1ahxnduc1fr21fpplm87wkk6,1,1,1b,67,7,0,go,GAL,62,K,bacs1,1,0,,0,1.0,1,1,0
1ahxnduc1fr21fpplm87wkk6,1,1,1b,71,8,0,go,GAL,62,K,bacs1,1,0,,0,0.0,0,0,0
1ahxnduc1fr21fpplm87wkk6,1,2,1a,211,1,0,go,GAL,63,L,bacs1,1,0,,0,0.0,0,0,0
1ahxnduc1fr21fpplm87wkk6,1,2,1a,214,2,0,go,GAL,63,L,bacs1,1,1,0.7070000000000001,1,0.0,1,1,0
1ahxnduc1fr21fpplm87wkk6,1,2,1a,218,3,0,go,GAL,63,L,bacs1,1,1,0.669,1,0.0,1,1,0
1ahxnduc1fr21fpplm87wkk6,1,2,1a,222,4,0,go,GAL,63,L,bacs1,1,1,0.648,1,0.0,1,1,0
1ahxnduc1fr21fpplm87wkk6,1,2,1a,225,5,0,go,GAL,63,L,bacs1,1,1,0.5870000000000001,1,1.0,0,1,0
1ahxnduc1fr21fpplm87wkk6,1,2,1a,231,6,0,go,GAL,63,L,bacs1,1,1,0.682,1,0.0,1,1,0
1ahxnduc1fr21fpplm87wkk6,1,2,1a,235,7,0,go,GAL,63,L,bacs1,1,1,0.5479999999999999,1,0.0,1,1,0
1ahxnduc1fr21fpplm87wkk6,1,2,1a,237,8,0,go,GAL,63,L,bacs1,1,1,0.5,1,0.0,1,1,0
1ahxnduc1fr21fpplm87wkk6,1,1,1b,75,1,0,go,GAL,64,M,bacs1,1,0,,0,0.0,0,0,0
1ahxnduc1fr21fpplm87wkk6,1,1,1b,78,2,0,go,GAL,64,M,bacs1,1,1,1.011,1,0.0,1,1,0
1ahxnduc1fr21fpplm87wkk6,1,1,1b,82,3,0,go,GAL,64,M,bacs1,1,0,,0,1.0,1,1,0
1ahxnduc1fr21fpplm87wkk6,1,1,1b,86,4,0,go,GAL,64,M,bacs1,1,0,,0,0.0,0,0,0
1ahxnduc1fr21fpplm87wkk6,1,1,1b,91,5,0,go,GAL,64,M,bacs1,1,1,0.9179999999999999,1,0.0,1,1,0
1ahxnduc1fr21fpplm87wkk6,1,1,1b,94,6,0,go,GAL,64,M,bacs1,1,1,1.028,1,0.0,1,1,0
1ahxnduc1fr21fpplm87wkk6,1,1,1b,99,7,0,go,GAL,64,M,bacs1,1,1,0.83,1,0.0,1,1,0
1ahxnduc1fr21fpplm87wkk6,1,1,1b,101,8,0,go,GAL,64,M,bacs1,1,1,0.852,1,0.0,1,1,0
1ahxnduc1fr21fpplm87wkk6,1,1,1b,106,9,0,go,GAL,64,M,bacs1,1,1,0.639,1,0.0,1,1,0
1ahxnduc1fr21fpplm87wkk6,1,1,1b,109,10,0,go,GAL,64,M,bacs1,1,1,0.8240000000000001,1,0.0,1,1,0
1ahxnduc1fr21fpplm87wkk6,1,1,1b,115,11,0,go,GAL,64,M,bacs1,1,1,0.675,1,0.0,1,1,0
1ahxnduc1fr21fpplm87wkk6,1,1,1b,118,12,0,go,GAL,64,M,bacs1,1,1,0.6409999999999999,1,0.0,1,1,0
1ahxnduc1fr21fpplm87wkk6,1,1,1b,2,1,1,no-go,NGW,65,N,bacs1,0,0,,1,0.0,1,0,0
1ahxnduc1fr21fpplm87wkk6,1,1,1b,8,2,1,no-go,NGW,65,N,bacs1,0,0,,1,0.0,1,0,0
1ahxnduc1fr21fpplm87wkk6,1,1,1b,10,3,1,no-go,NGW,65,N,bacs1,0,0,,1,1.0,0,1,0
1ahxnduc1fr21fpplm87wkk6,1,1,1b,15,4,1,no-go,NGW,65,N,bacs1,0,1,0.523,0,0.0,0,1,0
1ahxnduc1fr21fpplm87wkk6,1,1,1b,18,5,1,no-go,NGW,65,N,bacs1,0,1,0.631,0,0.0,0,1,0
1ahxnduc1fr21fpplm87wkk6,1,1,1b,24,6,1,no-go,NGW,65,N,bacs1,0,1,0.588,0,0.0,0,1,0
1ahxnduc1fr21fpplm87wkk6,1,1,1b,25,7,1,no-go,NGW,65,N,bacs1,0,1,0.564,0,0.0,0,1,0
1ahxnduc1fr21fpplm87wkk6,1,1,1b,29,8,1,no-go,NGW,65,N,bacs1,0,0,,1,1.0,0,0,0
1ahxnduc1fr21fpplm87wkk6,1,1,1b,34,9,1,no-go,NGW,65,N,bacs1,0,1,0.858,0,1.0,1,1,0
1ahxnduc1fr21fpplm87wkk6,1,1,1b,38,10,1,no-go,NGW,65,N,bacs1,0,1,0.542,0,0.0,0,1,0
1ahxnduc1fr21fpplm87wkk6,1,1,1b,44,11,1,no-go,NGW,65,N,bacs1,0,1,0.5920000000000001,0,0.0,0,1,0
1ahxnduc1fr21fpplm87wkk6,1,1,1b,45,12,1,no-go,NGW,65,N,bacs1,0,0,,1,0.0,1,0,0
1ahxnduc1fr21fpplm87wkk6,1,1,1b,1,1,1,go,GW,66,O,bacs1,1,1,0.82,1,0.0,1,1,1
1ahxnduc1fr21fpplm87wkk6,1,1,1b,6,2,1,go,GW,66,O,bacs1,1,1,0.9329999999999999,1,0.0,1,1,1
1ahxnduc1fr21fpplm87wkk6,1,1,1b,9,3,1,go,GW,66,O,bacs1,1,1,0.5820000000000001,1,0.0,1,1,1
1ahxnduc1fr21fpplm87wkk6,1,1,1b,14,4,1,go,GW,66,O,bacs1,1,1,0.519,1,0.0,1,1,1
1ahxnduc1fr21fpplm87wkk6,1,1,1b,20,5,1,go,GW,66,O,bacs1,1,1,0.5720000000000001,1,1.0,0,1,1
1ahxnduc1fr21fpplm87wkk6,1,1,1b,22,6,1,go,GW,66,O,bacs1,1,1,0.535,1,0.0,1,1,1
1ahxnduc1fr21fpplm87wkk6,1,1,1b,27,7,1,go,GW,66,O,bacs1,1,1,0.526,1,0.0,1,1,1
1ahxnduc1fr21fpplm87wkk6,1,1,1b,30,8,1,go,GW,66,O,bacs1,1,1,0.583,1,0.0,1,1,1
1ahxnduc1fr21fpplm87wkk6,1,1,1b,36,9,1,go,GW,66,O,bacs1,1,1,0.573,1,0.0,1,1,1
1ahxnduc1fr21fpplm87wkk6,1,1,1b,39,10,1,go,GW,66,O,bacs1,1,1,0.5670000000000001,1,0.0,1,1,1
1ahxnduc1fr21fpplm87wkk6,1,1,1b,83,1,0,go,GAL,67,P,bacs1,1,1,1.0,1,0.0,1,1,0
1ahxnduc1fr21fpplm87wkk6,1,1,1b,85,2,0,go,GAL,67,P,bacs1,1,1,0.89,1,0.0,1,1,0
1ahxnduc1fr21fpplm87wkk6,1,1,1b,89,3,0,go,GAL,67,P,bacs1,1,1,0.669,1,0.0,1,1,0
1ahxnduc1fr21fpplm87wkk6,1,1,1b,96,4,0,go,GAL,67,P,bacs1,1,1,0.812,1,0.0,1,1,0
1ahxnduc1fr21fpplm87wkk6,1,1,1b,97,5,0,go,GAL,67,P,bacs1,1,1,0.636,1,0.0,1,1,0
1ahxnduc1fr21fpplm87wkk6,1,1,1b,104,6,0,go,GAL,67,P,bacs1,1,1,0.627,1,0.0,1,1,0
1ahxnduc1fr21fpplm87wkk6,1,1,1b,105,7,0,go,GAL,67,P,bacs1,1,1,0.5820000000000001,1,0.0,1,1,0
1ahxnduc1fr21fpplm87wkk6,1,1,1b,111,8,0,go,GAL,67,P,bacs1,1,1,0.601,1,0.0,1,1,0
1ahxnduc1fr21fpplm87wkk6,1,1,1b,114,9,0,go,GAL,67,P,bacs1,1,1,0.5489999999999999,1,0.0,1,1,0
1ahxnduc1fr21fpplm87wkk6,1,1,1b,119,10,0,go,GAL,67,P,bacs1,1,1,0.659,1,0.0,1,1,0
1ahxnduc1fr21fpplm87wkk6,1,2,1a,209,1,1,no-go,NGW,68,Q,bacs1,0,0,,1,0.0,1,0,0
1ahxnduc1fr21fpplm87wkk6,1,2,1a,215,2,1,no-go,NGW,68,Q,bacs1,0,0,,1,0.0,1,0,0
1ahxnduc1fr21fpplm87wkk6,1,2,1a,220,3,1,no-go,NGW,68,Q,bacs1,0,0,,1,0.0,1,0,0
1ahxnduc1fr21fpplm87wkk6,1,2,1a,221,4,1,no-go,NGW,68,Q,bacs1,0,0,,1,0.0,1,0,0
1ahxnduc1fr21fpplm87wkk6,1,2,1a,228,5,1,no-go,NGW,68,Q,bacs1,0,0,,1,0.0,1,0,0
1ahxnduc1fr21fpplm87wkk6,1,2,1a,232,6,1,no-go,NGW,68,Q,bacs1,0,0,,1,0.0,1,0,0
1ahxnduc1fr21fpplm87wkk6,1,2,1a,236,7,1,no-go,NGW,68,Q,bacs1,0,0,,1,1.0,0,0,0
1ahxnduc1fr21fpplm87wkk6,1,2,1a,238,8,1,no-go,NGW,68,Q,bacs1,0,1,0.604,0,0.0,0,1,0
1ahxnduc1fr21fpplm87wkk6,1,2,1a,122,1,1,no-go,NGW,69,R,bacs1,0,0,,1,0.0,1,0,0
1ahxnduc1fr21fpplm87wkk6,1,2,1a,126,2,1,no-go,NGW,69,R,bacs1,0,0,,1,0.0,1,0,0
1ahxnduc1fr21fpplm87wkk6,1,2,1a,131,3,1,no-go,NGW,69,R,bacs1,0,0,,1,0.0,1,0,0
1ahxnduc1fr21fpplm87wkk6,1,2,1a,135,4,1,no-go,NGW,69,R,bacs1,0,0,,1,1.0,0,0,0
1ahxnduc1fr21fpplm87wkk6,1,2,1a,138,5,1,no-go,NGW,69,R,bacs1,0,0,,1,0.0,1,0,0
1ahxnduc1fr21fpplm87wkk6,1,2,1a,142,6,1,no-go,NGW,69,R,bacs1,0,1,0.629,0,0.0,0,1,0
1ahxnduc1fr21fpplm87wkk6,1,2,1a,145,7,1,no-go,NGW,69,R,bacs1,0,0,,1,0.0,1,0,0
1ahxnduc1fr21fpplm87wkk6,1,2,1a,150,8,1,no-go,NGW,69,R,bacs1,0,0,,1,0.0,1,0,0
1ahxnduc1fr21fpplm87wkk6,1,2,1a,153,9,1,no-go,NGW,69,R,bacs1,0,0,,1,0.0,1,0,0
1ahxnduc1fr21fpplm87wkk6,1,2,1a,158,10,1,no-go,NGW,69,R,bacs1,0,0,,1,0.0,1,0,0
1ahxnduc1fr21fpplm87wkk6,1,1,1b,43,1,0,no-go,NGAL,70,S,bacs1,0,1,0.723,0,0.0,0,1,1
1ahxnduc1fr21fpplm87wkk6,1,1,1b,47,2,0,no-go,NGAL,70,S,bacs1,0,1,0.821,0,0.0,0,1,1
1ahxnduc1fr21fpplm87wkk6,1,1,1b,49,3,0,no-go,NGAL,70,S,bacs1,0,0,,1,0.0,1,0,1
1ahxnduc1fr21fpplm87wkk6,1,1,1b,56,4,0,no-go,NGAL,70,S,bacs1,0,1,1.2990000000000002,0,1.0,1,1,1
1ahxnduc1fr21fpplm87wkk6,1,1,1b,60,5,0,no-go,NGAL,70,S,bacs1,0,1,1.023,0,0.0,0,1,1
1ahxnduc1fr21fpplm87wkk6,1,1,1b,62,6,0,no-go,NGAL,70,S,bacs1,0,1,0.831,0,0.0,0,1,1
1ahxnduc1fr21fpplm87wkk6,1,1,1b,65,7,0,no-go,NGAL,70,S,bacs1,0,0,,1,0.0,1,0,1
1ahxnduc1fr21fpplm87wkk6,1,1,1b,70,8,0,no-go,NGAL,70,S,bacs1,0,0,,1,1.0,0,0,1
1ahxnduc1fr21fpplm87wkk6,1,1,1b,76,9,0,no-go,NGAL,70,S,bacs1,0,1,1.08,0,0.0,0,1,1
1ahxnduc1fr21fpplm87wkk6,1,1,1b,79,10,0,no-go,NGAL,70,S,bacs1,0,1,1.046,0,0.0,0,1,1
1ahxnduc1fr21fpplm87wkk6,1,1,1b,84,11,0,no-go,NGAL,70,S,bacs1,0,0,,1,0.0,1,0,1
1ahxnduc1fr21fpplm87wkk6,1,1,1b,87,12,0,no-go,NGAL,70,S,bacs1,0,0,,1,0.0,1,0,1
1ahxnduc1fr21fpplm87wkk6,1,2,1a,162,1,1,go,GW,71,T,bacs1,1,0,,0,1.0,1,0,1
1ahxnduc1fr21fpplm87wkk6,1,2,1a,168,2,1,go,GW,71,T,bacs1,1,0,,0,1.0,1,0,1
1ahxnduc1fr21fpplm87wkk6,1,2,1a,170,3,1,go,GW,71,T,bacs1,1,0,,0,0.0,0,0,1
1ahxnduc1fr21fpplm87wkk6,1,2,1a,175,4,1,go,GW,71,T,bacs1,1,0,,0,1.0,1,0,1
1ahxnduc1fr21fpplm87wkk6,1,2,1a,179,5,1,go,GW,71,T,bacs1,1,0,,0,0.0,0,0,1
1ahxnduc1fr21fpplm87wkk6,1,2,1a,181,6,1,go,GW,71,T,bacs1,1,0,,0,1.0,1,0,1
1ahxnduc1fr21fpplm87wkk6,1,2,1a,188,7,1,go,GW,71,T,bacs1,1,0,,0,0.0,0,0,1
1ahxnduc1fr21fpplm87wkk6,1,2,1a,190,8,1,go,GW,71,T,bacs1,1,0,,0,0.0,0,0,1
1ahxnduc1fr21fpplm87wkk6,1,1,1b,51,1,1,no-go,NGW,72,U,bacs1,0,1,1.074,0,0.0,0,1,0
1ahxnduc1fr21fpplm87wkk6,1,1,1b,55,2,1,no-go,NGW,72,U,bacs1,0,1,0.8079999999999999,0,0.0,0,1,0
1ahxnduc1fr21fpplm87wkk6,1,1,1b,58,3,1,no-go,NGW,72,U,bacs1,0,0,,1,1.0,0,0,0
1ahxnduc1fr21fpplm87wkk6,1,1,1b,61,4,1,no-go,NGW,72,U,bacs1,0,0,,1,0.0,1,0,0
1ahxnduc1fr21fpplm87wkk6,1,1,1b,68,5,1,no-go,NGW,72,U,bacs1,0,1,0.898,0,1.0,1,1,0
1ahxnduc1fr21fpplm87wkk6,1,1,1b,69,6,1,no-go,NGW,72,U,bacs1,0,1,0.642,0,0.0,0,1,0
1ahxnduc1fr21fpplm87wkk6,1,1,1b,73,7,1,no-go,NGW,72,U,bacs1,0,1,1.1540000000000001,0,0.0,0,1,0
1ahxnduc1fr21fpplm87wkk6,1,1,1b,80,8,1,no-go,NGW,72,U,bacs1,0,1,0.995,0,0.0,0,1,0
1ahxnduc1fr21fpplm87wkk6,1,1,1b,81,9,1,no-go,NGW,72,U,bacs1,0,0,,1,0.0,1,0,0
1ahxnduc1fr21fpplm87wkk6,1,1,1b,88,10,1,no-go,NGW,72,U,bacs1,0,1,0.8590000000000001,0,0.0,0,1,0
1ahxnduc1fr21fpplm87wkk6,1,2,1a,155,1,0,go,GAL,73,V,bacs1,1,0,,0,0.0,0,0,0
1ahxnduc1fr21fpplm87wkk6,1,2,1a,159,2,0,go,GAL,73,V,bacs1,1,1,0.778,1,1.0,0,1,0
1ahxnduc1fr21fpplm87wkk6,1,2,1a,164,3,0,go,GAL,73,V,bacs1,1,0,,0,0.0,0,0,0
1ahxnduc1fr21fpplm87wkk6,1,2,1a,167,4,0,go,GAL,73,V,bacs1,1,1,0.938,1,0.0,1,1,0
1ahxnduc1fr21fpplm87wkk6,1,2,1a,172,5,0,go,GAL,73,V,bacs1,1,1,0.728,1,0.0,1,1,0
1ahxnduc1fr21fpplm87wkk6,1,2,1a,174,6,0,go,GAL,73,V,bacs1,1,1,0.535,1,0.0,1,1,0
1ahxnduc1fr21fpplm87wkk6,1,2,1a,178,7,0,go,GAL,73,V,bacs1,1,1,0.6459999999999999,1,1.0,0,1,0
1ahxnduc1fr21fpplm87wkk6,1,2,1a,183,8,0,go,GAL,73,V,bacs1,1,1,0.991,1,1.0,0,1,0
1ahxnduc1fr21fpplm87wkk6,1,2,1a,185,9,0,go,GAL,73,V,bacs1,1,0,,0,0.0,0,0,0
1ahxnduc1fr21fpplm87wkk6,1,2,1a,192,10,0,go,GAL,73,V,bacs1,1,0,,0,1.0,1,0,0
1ahxnduc1fr21fpplm87wkk6,1,1,1b,90,1,1,no-go,NGW,76,Y,bacs1,0,1,0.9790000000000001,0,0.0,0,1,0
1ahxnduc1fr21fpplm87wkk6,1,1,1b,93,2,1,no-go,NGW,76,Y,bacs1,0,1,0.7490000000000001,0,0.0,0,1,0
1ahxnduc1fr21fpplm87wkk6,1,1,1b,98,3,1,no-go,NGW,76,Y,bacs1,0,0,,1,0.0,1,0,0
1ahxnduc1fr21fpplm87wkk6,1,1,1b,102,4,1,no-go,NGW,76,Y,bacs1,0,0,,1,0.0,1,0,0
1ahxnduc1fr21fpplm87wkk6,1,1,1b,108,5,1,no-go,NGW,76,Y,bacs1,0,0,,1,1.0,0,0,0
1ahxnduc1fr21fpplm87wkk6,1,1,1b,112,6,1,no-go,NGW,76,Y,bacs1,0,1,1.014,0,0.0,0,1,0
1ahxnduc1fr21fpplm87wkk6,1,1,1b,116,7,1,no-go,NGW,76,Y,bacs1,0,0,,1,0.0,1,0,0
1ahxnduc1fr21fpplm87wkk6,1,1,1b,120,8,1,no-go,NGW,76,Y,bacs1,0,0,,1,0.0,1,0,0
1ahxnduc1fr21fpplm87wkk6,1,2,1a,123,1,0,no-go,NGAL,77,Z,bacs1,0,1,0.736,0,0.0,0,1,1
1ahxnduc1fr21fpplm87wkk6,1,2,1a,125,2,0,no-go,NGAL,77,Z,bacs1,0,1,1.105,0,0.0,0,1,1
1ahxnduc1fr21fpplm87wkk6,1,2,1a,132,3,0,no-go,NGAL,77,Z,bacs1,0,1,0.9890000000000001,0,1.0,1,1,1
1ahxnduc1fr21fpplm87wkk6,1,2,1a,136,4,0,no-go,NGAL,77,Z,bacs1,0,1,0.9,0,0.0,0,1,1
1ahxnduc1fr21fpplm87wkk6,1,2,1a,139,5,0,no-go,NGAL,77,Z,bacs1,0,0,,1,0.0,1,0,1
1ahxnduc1fr21fpplm87wkk6,1,2,1a,143,6,0,no-go,NGAL,77,Z,bacs1,0,0,,1,1.0,0,0,1
1ahxnduc1fr21fpplm87wkk6,1,2,1a,148,7,0,no-go,NGAL,77,Z,bacs1,0,0,,1,0.0,1,0,1
1ahxnduc1fr21fpplm87wkk6,1,2,1a,149,8,0,no-go,NGAL,77,Z,bacs1,0,0,,1,0.0,1,0,1
1nn8ci654pmi5ny2ho1q3dxi,1,2,1a,196,1,0,go,GAL,78,A,bacs2,1,0,,0,0.0,0,0,0
1nn8ci654pmi5ny2ho1q3dxi,1,2,1a,198,2,0,go,GAL,78,A,bacs2,1,1,0.622,1,1.0,0,1,0
1nn8ci654pmi5ny2ho1q3dxi,1,2,1a,202,3,0,go,GAL,78,A,bacs2,1,1,0.728,1,0.0,1,1,0
1nn8ci654pmi5ny2ho1q3dxi,1,2,1a,206,4,0,go,GAL,78,A,bacs2,1,1,0.5870000000000001,1,0.0,1,1,0
1nn8ci654pmi5ny2ho1q3dxi,1,2,1a,211,5,0,go,GAL,78,A,bacs2,1,0,,0,0.0,0,0,0
1nn8ci654pmi5ny2ho1q3dxi,1,2,1a,213,6,0,go,GAL,78,A,bacs2,1,0,,0,0.0,0,0,0
1nn8ci654pmi5ny2ho1q3dxi,1,2,1a,219,7,0,go,GAL,78,A,bacs2,1,1,0.516,1,0.0,1,1,0
1nn8ci654pmi5ny2ho1q3dxi,1,2,1a,224,8,0,go,GAL,78,A,bacs2,1,0,,0,0.0,0,0,0
1nn8ci654pmi5ny2ho1q3dxi,1,2,1a,228,9,0,go,GAL,78,A,bacs2,1,1,0.523,1,0.0,1,1,0
1nn8ci654pmi5ny2ho1q3dxi,1,2,1a,232,10,0,go,GAL,78,A,bacs2,1,1,0.53,1,0.0,1,1,0
1nn8ci654pmi5ny2ho1q3dxi,1,2,1a,236,11,0,go,GAL,78,A,bacs2,1,1,0.722,1,0.0,1,1,0
1nn8ci654pmi5ny2ho1q3dxi,1,2,1a,239,12,0,go,GAL,78,A,bacs2,1,1,0.467,1,1.0,0,1,0
1nn8ci654pmi5ny2ho1q3dxi,1,2,1a,122,1,0,no-go,NGAL,79,B,bacs2,0,1,0.601,0,1.0,1,1,1
1nn8ci654pmi5ny2ho1q3dxi,1,2,1a,128,2,0,no-go,NGAL,79,B,bacs2,0,1,0.544,0,0.0,0,1,1
1nn8ci654pmi5ny2ho1q3dxi,1,2,1a,131,3,0,no-go,NGAL,79,B,bacs2,0,1,0.498,0,0.0,0,1,1
1nn8ci654pmi5ny2ho1q3dxi,1,2,1a,135,4,0,no-go,NGAL,79,B,bacs2,0,0,,1,0.0,1,0,1
1nn8ci654pmi5ny2ho1q3dxi,1,2,1a,140,5,0,no-go,NGAL,79,B,bacs2,0,0,,1,0.0,1,0,1
1nn8ci654pmi5ny2ho1q3dxi,1,2,1a,144,6,0,no-go,NGAL,79,B,bacs2,0,0,,1,0.0,1,0,1
1nn8ci654pmi5ny2ho1q3dxi,1,2,1a,148,7,0,no-go,NGAL,79,B,bacs2,0,1,0.583,0,0.0,0,1,1
1nn8ci654pmi5ny2ho1q3dxi,1,2,1a,149,8,0,no-go,NGAL,79,B,bacs2,0,0,,1,1.0,0,0,1
1nn8ci654pmi5ny2ho1q3dxi,1,1,1b,44,1,0,no-go,NGAL,80,C,bacs2,0,0,,1,0.0,1,0,1
1nn8ci654pmi5ny2ho1q3dxi,1,1,1b,48,2,0,no-go,NGAL,80,C,bacs2,0,1,0.627,0,0.0,0,1,1
1nn8ci654pmi5ny2ho1q3dxi,1,1,1b,52,3,0,no-go,NGAL,80,C,bacs2,0,0,,1,1.0,0,0,1
1nn8ci654pmi5ny2ho1q3dxi,1,1,1b,55,4,0,no-go,NGAL,80,C,bacs2,0,0,,1,1.0,0,0,1
1nn8ci654pmi5ny2ho1q3dxi,1,1,1b,58,5,0,no-go,NGAL,80,C,bacs2,0,0,,1,0.0,1,0,1
1nn8ci654pmi5ny2ho1q3dxi,1,1,1b,64,6,0,no-go,NGAL,80,C,bacs2,0,0,,1,0.0,1,0,1
1nn8ci654pmi5ny2ho1q3dxi,1,1,1b,65,7,0,no-go,NGAL,80,C,bacs2,0,0,,1,0.0,1,0,1
1nn8ci654pmi5ny2ho1q3dxi,1,1,1b,71,8,0,no-go,NGAL,80,C,bacs2,0,1,0.741,0,0.0,0,1,1
1nn8ci654pmi5ny2ho1q3dxi,1,1,1b,74,9,0,no-go,NGAL,80,C,bacs2,0,0,,1,0.0,1,0,1
1nn8ci654pmi5ny2ho1q3dxi,1,1,1b,79,10,0,no-go,NGAL,80,C,bacs2,0,0,,1,0.0,1,0,1
1nn8ci654pmi5ny2ho1q3dxi,1,1,1b,84,11,0,no-go,NGAL,80,C,bacs2,0,0,,1,0.0,1,0,1
1nn8ci654pmi5ny2ho1q3dxi,1,1,1b,86,12,0,no-go,NGAL,80,C,bacs2,0,0,,1,0.0,1,0,1
1nn8ci654pmi5ny2ho1q3dxi,1,1,1b,51,1,1,no-go,NGW,82,E,bacs2,0,1,0.794,0,0.0,0,1,0
1nn8ci654pmi5ny2ho1q3dxi,1,1,1b,54,2,1,no-go,NGW,82,E,bacs2,0,1,0.516,0,0.0,0,1,0
1nn8ci654pmi5ny2ho1q3dxi,1,1,1b,60,3,1,no-go,NGW,82,E,bacs2,0,1,0.524,0,0.0,0,1,0
1nn8ci654pmi5ny2ho1q3dxi,1,1,1b,63,4,1,no-go,NGW,82,E,bacs2,0,0,,1,0.0,1,0,0
1nn8ci654pmi5ny2ho1q3dxi,1,1,1b,68,5,1,no-go,NGW,82,E,bacs2,0,0,,1,0.0,1,0,0
1nn8ci654pmi5ny2ho1q3dxi,1,1,1b,70,6,1,no-go,NGW,82,E,bacs2,0,0,,1,1.0,0,0,0
1nn8ci654pmi5ny2ho1q3dxi,1,1,1b,75,7,1,no-go,NGW,82,E,bacs2,0,0,,1,0.0,1,0,0
1nn8ci654pmi5ny2ho1q3dxi,1,1,1b,77,8,1,no-go,NGW,82,E,bacs2,0,0,,1,1.0,0,0,0
1nn8ci654pmi5ny2ho1q3dxi,1,1,1b,83,9,1,no-go,NGW,82,E,bacs2,0,1,0.488,0,1.0,1,1,0
1nn8ci654pmi5ny2ho1q3dxi,1,1,1b,85,10,1,no-go,NGW,82,E,bacs2,0,1,0.507,0,0.0,0,1,0
1nn8ci654pmi5ny2ho1q3dxi,1,2,1a,209,1,0,go,GAL,83,F,bacs2,1,1,0.75,1,0.0,1,1,0
1nn8ci654pmi5ny2ho1q3dxi,1,2,1a,216,2,0,go,GAL,83,F,bacs2,1,0,,0,1.0,1,0,0
1nn8ci654pmi5ny2ho1q3dxi,1,2,1a,217,3,0,go,GAL,83,F,bacs2,1,0,,0,0.0,0,0,0
1nn8ci654pmi5ny2ho1q3dxi,1,2,1a,222,4,0,go,GAL,83,F,bacs2,1,0,,0,0.0,0,0,0
1nn8ci654pmi5ny2ho1q3dxi,1,2,1a,225,5,0,go,GAL,83,F,bacs2,1,1,0.42,1,1.0,0,1,0
1nn8ci654pmi5ny2ho1q3dxi,1,2,1a,230,6,0,go,GAL,83,F,bacs2,1,1,0.531,1,0.0,1,1,0
1nn8ci654pmi5ny2ho1q3dxi,1,2,1a,233,7,0,go,GAL,83,F,bacs2,1,1,0.541,1,0.0,1,1,0
1nn8ci654pmi5ny2ho1q3dxi,1,2,1a,240,8,0,go,GAL,83,F,bacs2,1,1,0.527,1,0.0,1,1,0
1nn8ci654pmi5ny2ho1q3dxi,1,1,1b,33,1,1,go,GW,84,G,bacs2,1,1,0.551,1,0.0,1,1,1
1nn8ci654pmi5ny2ho1q3dxi,1,1,1b,39,2,1,go,GW,84,G,bacs2,1,1,0.525,1,0.0,1,1,1
1nn8ci654pmi5ny2ho1q3dxi,1,1,1b,43,3,1,go,GW,84,G,bacs2,1,1,0.551,1,0.0,1,1,1
1nn8ci654pmi5ny2ho1q3dxi,1,1,1b,46,4,1,go,GW,84,G,bacs2,1,1,0.509,1,0.0,1,1,1
1nn8ci654pmi5ny2ho1q3dxi,1,1,1b,50,5,1,go,GW,84,G,bacs2,1,1,0.493,1,0.0,1,1,1
1nn8ci654pmi5ny2ho1q3dxi,1,1,1b,53,6,1,go,GW,84,G,bacs2,1,1,0.34,1,1.0,0,1,1
1nn8ci654pmi5ny2ho1q3dxi,1,1,1b,59,7,1,go,GW,84,G,bacs2,1,1,0.45,1,0.0,1,1,1
1nn8ci654pmi5ny2ho1q3dxi,1,1,1b,61,8,1,go,GW,84,G,bacs2,1,1,0.5870000000000001,1,0.0,1,1,1
1nn8ci654pmi5ny2ho1q3dxi,1,1,1b,67,9,1,go,GW,84,G,bacs2,1,1,0.662,1,0.0,1,1,1
1nn8ci654pmi5ny2ho1q3dxi,1,1,1b,69,10,1,go,GW,84,G,bacs2,1,1,0.4,1,0.0,1,1,1
1nn8ci654pmi5ny2ho1q3dxi,1,1,1b,73,11,1,go,GW,84,G,bacs2,1,1,0.43,1,1.0,0,1,1
1nn8ci654pmi5ny2ho1q3dxi,1,1,1b,78,12,1,go,GW,84,G,bacs2,1,1,0.36200000000000004,1,1.0,0,1,1
1nn8ci654pmi5ny2ho1q3dxi,1,1,1b,76,1,0,go,GAL,85,H,bacs2,1,0,,0,0.0,0,0,0
1nn8ci654pmi5ny2ho1q3dxi,1,1,1b,80,2,0,go,GAL,85,H,bacs2,1,1,0.336,1,0.0,1,1,0
1nn8ci654pmi5ny2ho1q3dxi,1,1,1b,82,3,0,go,GAL,85,H,bacs2,1,1,0.444,1,0.0,1,1,0
1nn8ci654pmi5ny2ho1q3dxi,1,1,1b,88,4,0,go,GAL,85,H,bacs2,1,1,0.358,1,0.0,1,1,0
1nn8ci654pmi5ny2ho1q3dxi,1,1,1b,91,5,0,go,GAL,85,H,bacs2,1,1,0.599,1,0.0,1,1,0
1nn8ci654pmi5ny2ho1q3dxi,1,1,1b,95,6,0,go,GAL,85,H,bacs2,1,1,0.49700000000000005,1,1.0,0,1,0
1nn8ci654pmi5ny2ho1q3dxi,1,1,1b,97,7,0,go,GAL,85,H,bacs2,1,0,,0,0.0,0,0,0
1nn8ci654pmi5ny2ho1q3dxi,1,1,1b,104,8,0,go,GAL,85,H,bacs2,1,0,,0,0.0,0,0,0
1nn8ci654pmi5ny2ho1q3dxi,1,1,1b,106,9,0,go,GAL,85,H,bacs2,1,0,,0,1.0,1,0,0
1nn8ci654pmi5ny2ho1q3dxi,1,1,1b,112,10,0,go,GAL,85,H,bacs2,1,0,,0,0.0,0,0,0
1nn8ci654pmi5ny2ho1q3dxi,1,1,1b,116,11,0,go,GAL,85,H,bacs2,1,1,0.738,1,0.0,1,1,0
1nn8ci654pmi5ny2ho1q3dxi,1,1,1b,118,12,0,go,GAL,85,H,bacs2,1,1,0.607,1,1.0,0,1,0
1nn8ci654pmi5ny2ho1q3dxi,1,1,1b,2,1,1,no-go,NGW,87,J,bacs2,0,1,0.36200000000000004,0,1.0,1,1,0
1nn8ci654pmi5ny2ho1q3dxi,1,1,1b,8,2,1,no-go,NGW,87,J,bacs2,0,1,0.4,0,0.0,0,1,0
1nn8ci654pmi5ny2ho1q3dxi,1,1,1b,12,3,1,no-go,NGW,87,J,bacs2,0,0,,1,0.0,1,0,0
1nn8ci654pmi5ny2ho1q3dxi,1,1,1b,15,4,1,no-go,NGW,87,J,bacs2,0,1,0.522,0,1.0,1,1,0
1nn8ci654pmi5ny2ho1q3dxi,1,1,1b,19,5,1,no-go,NGW,87,J,bacs2,0,1,0.599,0,0.0,0,1,0
1nn8ci654pmi5ny2ho1q3dxi,1,1,1b,23,6,1,no-go,NGW,87,J,bacs2,0,1,0.927,0,0.0,0,1,0
1nn8ci654pmi5ny2ho1q3dxi,1,1,1b,26,7,1,no-go,NGW,87,J,bacs2,0,0,,1,0.0,1,0,0
1nn8ci654pmi5ny2ho1q3dxi,1,1,1b,32,8,1,no-go,NGW,87,J,bacs2,0,0,,1,0.0,1,0,0
1nn8ci654pmi5ny2ho1q3dxi,1,1,1b,35,9,1,no-go,NGW,87,J,bacs2,0,0,,1,0.0,1,0,0
1nn8ci654pmi5ny2ho1q3dxi,1,1,1b,37,10,1,no-go,NGW,87,J,bacs2,0,0,,1,1.0,0,0,0
1nn8ci654pmi5ny2ho1q3dxi,1,1,1b,41,11,1,no-go,NGW,87,J,bacs2,0,0,,1,0.0,1,0,0
1nn8ci654pmi5ny2ho1q3dxi,1,1,1b,47,12,1,no-go,NGW,87,J,bacs2,0,0,,1,0.0,1,0,0
1nn8ci654pmi5ny2ho1q3dxi,1,2,1a,121,1,1,go,GW,88,K,bacs2,1,1,0.5720000000000001,1,0.0,1,1,1
1nn8ci654pmi5ny2ho1q3dxi,1,2,1a,126,2,1,go,GW,88,K,bacs2,1,1,0.325,1,1.0,0,1,1
1nn8ci654pmi5ny2ho1q3dxi,1,2,1a,130,3,1,go,GW,88,K,bacs2,1,1,0.299,1,0.0,1,1,1
1nn8ci654pmi5ny2ho1q3dxi,1,2,1a,134,4,1,go,GW,88,K,bacs2,1,1,0.284,1,0.0,1,1,1
1nn8ci654pmi5ny2ho1q3dxi,1,2,1a,138,5,1,go,GW,88,K,bacs2,1,1,0.375,1,1.0,0,1,1
1nn8ci654pmi5ny2ho1q3dxi,1,2,1a,142,6,1,go,GW,88,K,bacs2,1,1,0.313,1,0.0,1,1,1
1nn8ci654pmi5ny2ho1q3dxi,1,2,1a,147,7,1,go,GW,88,K,bacs2,1,1,0.355,1,0.0,1,1,1
1nn8ci654pmi5ny2ho1q3dxi,1,2,1a,150,8,1,go,GW,88,K,bacs2,1,1,0.46399999999999997,1,0.0,1,1,1
1nn8ci654pmi5ny2ho1q3dxi,1,2,1a,154,9,1,go,GW,88,K,bacs2,1,1,0.499,1,0.0,1,1,1
1nn8ci654pmi5ny2ho1q3dxi,1,2,1a,157,10,1,go,GW,88,K,bacs2,1,1,0.49200000000000005,1,0.0,1,1,1
1nn8ci654pmi5ny2ho1q3dxi,1,2,1a,161,1,1,go,GW,89,L,bacs2,1,0,,0,0.0,0,0,1
1nn8ci654pmi5ny2ho1q3dxi,1,2,1a,168,2,1,go,GW,89,L,bacs2,1,1,0.993,1,0.0,1,1,1
1nn8ci654pmi5ny2ho1q3dxi,1,2,1a,172,3,1,go,GW,89,L,bacs2,1,1,0.547,1,0.0,1,1,1
1nn8ci654pmi5ny2ho1q3dxi,1,2,1a,176,4,1,go,GW,89,L,bacs2,1,1,0.35100000000000003,1,0.0,1,1,1
1nn8ci654pmi5ny2ho1q3dxi,1,2,1a,179,5,1,go,GW,89,L,bacs2,1,1,0.449,1,1.0,0,1,1
1nn8ci654pmi5ny2ho1q3dxi,1,2,1a,182,6,1,go,GW,89,L,bacs2,1,1,0.524,1,1.0,0,1,1
1nn8ci654pmi5ny2ho1q3dxi,1,2,1a,186,7,1,go,GW,89,L,bacs2,1,0,,0,0.0,0,0,1
1nn8ci654pmi5ny2ho1q3dxi,1,2,1a,189,8,1,go,GW,89,L,bacs2,1,0,,0,0.0,0,0,1
1nn8ci654pmi5ny2ho1q3dxi,1,2,1a,124,1,0,no-go,NGAL,90,M,bacs2,0,1,0.608,0,0.0,0,1,1
1nn8ci654pmi5ny2ho1q3dxi,1,2,1a,125,2,0,no-go,NGAL,90,M,bacs2,0,0,,1,0.0,1,0,1
1nn8ci654pmi5ny2ho1q3dxi,1,2,1a,132,3,0,no-go,NGAL,90,M,bacs2,0,0,,1,0.0,1,0,1
1nn8ci654pmi5ny2ho1q3dxi,1,2,1a,136,4,0,no-go,NGAL,90,M,bacs2,0,0,,1,0.0,1,0,1
1nn8ci654pmi5ny2ho1q3dxi,1,2,1a,137,5,0,no-go,NGAL,90,M,bacs2,0,0,,1,1.0,0,0,1
1nn8ci654pmi5ny2ho1q3dxi,1,2,1a,141,6,0,no-go,NGAL,90,M,bacs2,0,1,0.605,0,1.0,1,1,1
1nn8ci654pmi5ny2ho1q3dxi,1,2,1a,146,7,0,no-go,NGAL,90,M,bacs2,0,0,,1,0.0,1,0,1
1nn8ci654pmi5ny2ho1q3dxi,1,2,1a,151,8,0,no-go,NGAL,90,M,bacs2,0,1,0.705,0,0.0,0,1,1
1nn8ci654pmi5ny2ho1q3dxi,1,2,1a,155,9,0,no-go,NGAL,90,M,bacs2,0,0,,1,0.0,1,0,1
1nn8ci654pmi5ny2ho1q3dxi,1,2,1a,159,10,0,no-go,NGAL,90,M,bacs2,0,0,,1,1.0,0,0,1
1nn8ci654pmi5ny2ho1q3dxi,1,2,1a,164,11,0,no-go,NGAL,90,M,bacs2,0,1,0.975,0,0.0,0,1,1
1nn8ci654pmi5ny2ho1q3dxi,1,2,1a,165,12,0,no-go,NGAL,90,M,bacs2,0,0,,1,0.0,1,0,1
1nn8ci654pmi5ny2ho1q3dxi,1,2,1a,210,1,1,no-go,NGW,91,N,bacs2,0,1,0.628,0,0.0,0,1,0
1nn8ci654pmi5ny2ho1q3dxi,1,2,1a,215,2,1,no-go,NGW,91,N,bacs2,0,1,0.5329999999999999,0,0.0,0,1,0
1nn8ci654pmi5ny2ho1q3dxi,1,2,1a,220,3,1,no-go,NGW,91,N,bacs2,0,1,0.489,0,0.0,0,1,0
1nn8ci654pmi5ny2ho1q3dxi,1,2,1a,223,4,1,no-go,NGW,91,N,bacs2,0,1,0.695,0,0.0,0,1,0
1nn8ci654pmi5ny2ho1q3dxi,1,2,1a,226,5,1,no-go,NGW,91,N,bacs2,0,1,0.545,0,0.0,0,1,0
1nn8ci654pmi5ny2ho1q3dxi,1,2,1a,229,6,1,no-go,NGW,91,N,bacs2,0,0,,1,0.0,1,0,0
1nn8ci654pmi5ny2ho1q3dxi,1,2,1a,235,7,1,no-go,NGW,91,N,bacs2,0,0,,1,1.0,0,0,0
1nn8ci654pmi5ny2ho1q3dxi,1,2,1a,237,8,1,no-go,NGW,91,N,bacs2,0,1,0.354,0,1.0,1,1,0
1nn8ci654pmi5ny2ho1q3dxi,1,1,1b,42,1,0,go,GAL,92,O,bacs2,1,1,0.685,1,0.0,1,1,0
1nn8ci654pmi5ny2ho1q3dxi,1,1,1b,45,2,0,go,GAL,92,O,bacs2,1,1,0.396,1,0.0,1,1,0
1nn8ci654pmi5ny2ho1q3dxi,1,1,1b,49,3,0,go,GAL,92,O,bacs2,1,1,0.9690000000000001,1,0.0,1,1,0
1nn8ci654pmi5ny2ho1q3dxi,1,1,1b,56,4,0,go,GAL,92,O,bacs2,1,1,0.657,1,0.0,1,1,0
1nn8ci654pmi5ny2ho1q3dxi,1,1,1b,57,5,0,go,GAL,92,O,bacs2,1,1,0.603,1,0.0,1,1,0
1nn8ci654pmi5ny2ho1q3dxi,1,1,1b,62,6,0,go,GAL,92,O,bacs2,1,1,0.45299999999999996,1,0.0,1,1,0
1nn8ci654pmi5ny2ho1q3dxi,1,1,1b,66,7,0,go,GAL,92,O,bacs2,1,1,0.298,1,0.0,1,1,0
1nn8ci654pmi5ny2ho1q3dxi,1,1,1b,72,8,0,go,GAL,92,O,bacs2,1,1,0.319,1,0.0,1,1,0
1nn8ci654pmi5ny2ho1q3dxi,1,2,1a,163,1,1,no-go,NGW,93,P,bacs2,0,1,0.711,0,0.0,0,1,0
1nn8ci654pmi5ny2ho1q3dxi,1,2,1a,166,2,1,no-go,NGW,93,P,bacs2,0,1,0.574,0,0.0,0,1,0
1nn8ci654pmi5ny2ho1q3dxi,1,2,1a,169,3,1,no-go,NGW,93,P,bacs2,0,1,0.602,0,1.0,1,1,0
1nn8ci654pmi5ny2ho1q3dxi,1,2,1a,174,4,1,no-go,NGW,93,P,bacs2,0,1,0.34299999999999997,0,0.0,0,1,0
1nn8ci654pmi5ny2ho1q3dxi,1,2,1a,180,5,1,no-go,NGW,93,P,bacs2,0,1,0.336,0,0.0,0,1,0
1nn8ci654pmi5ny2ho1q3dxi,1,2,1a,183,6,1,no-go,NGW,93,P,bacs2,0,1,0.505,0,0.0,0,1,0
1nn8ci654pmi5ny2ho1q3dxi,1,2,1a,187,7,1,no-go,NGW,93,P,bacs2,0,1,0.534,0,0.0,0,1,0
1nn8ci654pmi5ny2ho1q3dxi,1,2,1a,192,8,1,no-go,NGW,93,P,bacs2,0,1,0.486,0,0.0,0,1,0
1nn8ci654pmi5ny2ho1q3dxi,1,2,1a,193,9,1,no-go,NGW,93,P,bacs2,0,0,,1,0.0,1,0,0
1nn8ci654pmi5ny2ho1q3dxi,1,2,1a,197,10,1,no-go,NGW,93,P,bacs2,0,0,,1,0.0,1,0,0
1nn8ci654pmi5ny2ho1q3dxi,1,2,1a,201,11,1,no-go,NGW,93,P,bacs2,0,0,,1,0.0,1,0,0
1nn8ci654pmi5ny2ho1q3dxi,1,2,1a,208,12,1,no-go,NGW,93,P,bacs2,0,1,0.5760000000000001,0,1.0,1,1,0
1nn8ci654pmi5ny2ho1q3dxi,1,1,1b,81,1,0,go,GAL,94,Q,bacs2,1,0,,0,0.0,0,0,0
1nn8ci654pmi5ny2ho1q3dxi,1,1,1b,87,2,0,go,GAL,94,Q,bacs2,1,1,0.667,1,0.0,1,1,0
1nn8ci654pmi5ny2ho1q3dxi,1,1,1b,92,3,0,go,GAL,94,Q,bacs2,1,1,0.48700000000000004,1,0.0,1,1,0
1nn8ci654pmi5ny2ho1q3dxi,1,1,1b,93,4,0,go,GAL,94,Q,bacs2,1,1,0.537,1,1.0,0,1,0
1nn8ci654pmi5ny2ho1q3dxi,1,1,1b,98,5,0,go,GAL,94,Q,bacs2,1,1,0.474,1,0.0,1,1,0
1nn8ci654pmi5ny2ho1q3dxi,1,1,1b,102,6,0,go,GAL,94,Q,bacs2,1,1,0.516,1,0.0,1,1,0
1nn8ci654pmi5ny2ho1q3dxi,1,1,1b,108,7,0,go,GAL,94,Q,bacs2,1,1,0.54,1,1.0,0,1,0
1nn8ci654pmi5ny2ho1q3dxi,1,1,1b,109,8,0,go,GAL,94,Q,bacs2,1,1,0.512,1,0.0,1,1,0
1nn8ci654pmi5ny2ho1q3dxi,1,1,1b,113,9,0,go,GAL,94,Q,bacs2,1,1,0.49200000000000005,1,0.0,1,1,0
1nn8ci654pmi5ny2ho1q3dxi,1,1,1b,119,10,0,go,GAL,94,Q,bacs2,1,1,0.494,1,0.0,1,1,0
1nn8ci654pmi5ny2ho1q3dxi,1,2,1a,153,1,0,go,GAL,95,R,bacs2,1,0,,0,0.0,0,0,0
1nn8ci654pmi5ny2ho1q3dxi,1,2,1a,158,2,0,go,GAL,95,R,bacs2,1,1,0.544,1,1.0,0,1,0
1nn8ci654pmi5ny2ho1q3dxi,1,2,1a,162,3,0,go,GAL,95,R,bacs2,1,0,,0,0.0,0,0,0
1nn8ci654pmi5ny2ho1q3dxi,1,2,1a,167,4,0,go,GAL,95,R,bacs2,1,1,0.925,1,0.0,1,1,0
1nn8ci654pmi5ny2ho1q3dxi,1,2,1a,171,5,0,go,GAL,95,R,bacs2,1,1,0.49,1,1.0,0,1,0
1nn8ci654pmi5ny2ho1q3dxi,1,2,1a,175,6,0,go,GAL,95,R,bacs2,1,1,0.73,1,0.0,1,1,0
1nn8ci654pmi5ny2ho1q3dxi,1,2,1a,178,7,0,go,GAL,95,R,bacs2,1,1,0.504,1,0.0,1,1,0
1nn8ci654pmi5ny2ho1q3dxi,1,2,1a,184,8,0,go,GAL,95,R,bacs2,1,0,,0,0.0,0,0,0
1nn8ci654pmi5ny2ho1q3dxi,1,2,1a,188,9,0,go,GAL,95,R,bacs2,1,1,0.8079999999999999,1,0.0,1,1,0
1nn8ci654pmi5ny2ho1q3dxi,1,2,1a,191,10,0,go,GAL,95,R,bacs2,1,1,0.508,1,1.0,0,1,0
1nn8ci654pmi5ny2ho1q3dxi,1,2,1a,170,1,0,no-go,NGAL,96,S,bacs2,0,1,0.637,0,1.0,1,1,1
1nn8ci654pmi5ny2ho1q3dxi,1,2,1a,173,2,0,no-go,NGAL,96,S,bacs2,0,0,,1,0.0,1,0,1
1nn8ci654pmi5ny2ho1q3dxi,1,2,1a,177,3,0,no-go,NGAL,96,S,bacs2,0,1,0.545,0,0.0,0,1,1
1nn8ci654pmi5ny2ho1q3dxi,1,2,1a,181,4,0,no-go,NGAL,96,S,bacs2,0,1,0.584,0,1.0,1,1,1
1nn8ci654pmi5ny2ho1q3dxi,1,2,1a,185,5,0,no-go,NGAL,96,S,bacs2,0,1,0.809,0,0.0,0,1,1
1nn8ci654pmi5ny2ho1q3dxi,1,2,1a,190,6,0,no-go,NGAL,96,S,bacs2,0,1,0.9129999999999999,0,0.0,0,1,1
1nn8ci654pmi5ny2ho1q3dxi,1,2,1a,194,7,0,no-go,NGAL,96,S,bacs2,0,0,,1,0.0,1,0,1
1nn8ci654pmi5ny2ho1q3dxi,1,2,1a,199,8,0,no-go,NGAL,96,S,bacs2,0,0,,1,0.0,1,0,1
1nn8ci654pmi5ny2ho1q3dxi,1,2,1a,203,9,0,no-go,NGAL,96,S,bacs2,0,0,,1,0.0,1,0,1
1nn8ci654pmi5ny2ho1q3dxi,1,2,1a,207,10,0,no-go,NGAL,96,S,bacs2,0,0,,1,0.0,1,0,1
1nn8ci654pmi5ny2ho1q3dxi,1,1,1b,90,1,0,no-go,NGAL,97,T,bacs2,0,0,,1,0.0,1,0,1
1nn8ci654pmi5ny2ho1q3dxi,1,1,1b,96,2,0,no-go,NGAL,97,T,bacs2,0,0,,1,1.0,0,0,1
1nn8ci654pmi5ny2ho1q3dxi,1,1,1b,100,3,0,no-go,NGAL,97,T,bacs2,0,1,0.97,0,1.0,1,1,1
1nn8ci654pmi5ny2ho1q3dxi,1,1,1b,101,4,0,no-go,NGAL,97,T,bacs2,0,1,0.898,0,0.0,0,1,1
1nn8ci654pmi5ny2ho1q3dxi,1,1,1b,107,5,0,no-go,NGAL,97,T,bacs2,0,0,,1,0.0,1,0,1
1nn8ci654pmi5ny2ho1q3dxi,1,1,1b,110,6,0,no-go,NGAL,97,T,bacs2,0,0,,1,1.0,0,0,1
1nn8ci654pmi5ny2ho1q3dxi,1,1,1b,114,7,0,no-go,NGAL,97,T,bacs2,0,0,,1,0.0,1,0,1
1nn8ci654pmi5ny2ho1q3dxi,1,1,1b,120,8,0,no-go,NGAL,97,T,bacs2,0,0,,1,0.0,1,0,1
1nn8ci654pmi5ny2ho1q3dxi,1,2,1a,195,1,1,go,GW,98,U,bacs2,1,1,0.5329999999999999,1,1.0,0,1,1
1nn8ci654pmi5ny2ho1q3dxi,1,2,1a,200,2,1,go,GW,98,U,bacs2,1,1,0.551,1,0.0,1,1,1
1nn8ci654pmi5ny2ho1q3dxi,1,2,1a,204,3,1,go,GW,98,U,bacs2,1,1,0.603,1,0.0,1,1,1
1nn8ci654pmi5ny2ho1q3dxi,1,2,1a,205,4,1,go,GW,98,U,bacs2,1,1,0.618,1,0.0,1,1,1
1nn8ci654pmi5ny2ho1q3dxi,1,2,1a,212,5,1,go,GW,98,U,bacs2,1,1,0.494,1,1.0,0,1,1
1nn8ci654pmi5ny2ho1q3dxi,1,2,1a,214,6,1,go,GW,98,U,bacs2,1,1,0.369,1,0.0,1,1,1
1nn8ci654pmi5ny2ho1q3dxi,1,2,1a,218,7,1,go,GW,98,U,bacs2,1,1,0.446,1,0.0,1,1,1
1nn8ci654pmi5ny2ho1q3dxi,1,2,1a,221,8,1,go,GW,98,U,bacs2,1,1,0.523,1,0.0,1,1,1
1nn8ci654pmi5ny2ho1q3dxi,1,2,1a,227,9,1,go,GW,98,U,bacs2,1,1,0.386,1,0.0,1,1,1
1nn8ci654pmi5ny2ho1q3dxi,1,2,1a,231,10,1,go,GW,98,U,bacs2,1,1,0.479,1,1.0,0,1,1
1nn8ci654pmi5ny2ho1q3dxi,1,2,1a,234,11,1,go,GW,98,U,bacs2,1,0,,0,0.0,0,0,1
1nn8ci654pmi5ny2ho1q3dxi,1,2,1a,238,12,1,go,GW,98,U,bacs2,1,1,0.426,1,0.0,1,1,1
1nn8ci654pmi5ny2ho1q3dxi,1,2,1a,123,1,1,no-go,NGW,99,V,bacs2,0,1,0.589,0,0.0,0,1,0
1nn8ci654pmi5ny2ho1q3dxi,1,2,1a,127,2,1,no-go,NGW,99,V,bacs2,0,0,,1,1.0,0,0,0
1nn8ci654pmi5ny2ho1q3dxi,1,2,1a,129,3,1,no-go,NGW,99,V,bacs2,0,1,0.54,0,0.0,0,1,0
1nn8ci654pmi5ny2ho1q3dxi,1,2,1a,133,4,1,no-go,NGW,99,V,bacs2,0,1,0.711,0,0.0,0,1,0
1nn8ci654pmi5ny2ho1q3dxi,1,2,1a,139,5,1,no-go,NGW,99,V,bacs2,0,0,,1,0.0,1,0,0
1nn8ci654pmi5ny2ho1q3dxi,1,2,1a,143,6,1,no-go,NGW,99,V,bacs2,0,0,,1,0.0,1,0,0
1nn8ci654pmi5ny2ho1q3dxi,1,2,1a,145,7,1,no-go,NGW,99,V,bacs2,0,1,0.45,0,1.0,1,1,0
1nn8ci654pmi5ny2ho1q3dxi,1,2,1a,152,8,1,no-go,NGW,99,V,bacs2,0,0,,1,0.0,1,0,0
1nn8ci654pmi5ny2ho1q3dxi,1,2,1a,156,9,1,no-go,NGW,99,V,bacs2,0,0,,1,1.0,0,0,0
1nn8ci654pmi5ny2ho1q3dxi,1,2,1a,160,10,1,no-go,NGW,99,V,bacs2,0,0,,1,0.0,1,0,0
1nn8ci654pmi5ny2ho1q3dxi,1,1,1b,3,1,1,go,GW,100,W,bacs2,1,1,0.42700000000000005,1,0.0,1,1,1
1nn8ci654pmi5ny2ho1q3dxi,1,1,1b,7,2,1,go,GW,100,W,bacs2,1,1,0.659,1,0.0,1,1,1
1nn8ci654pmi5ny2ho1q3dxi,1,1,1b,11,3,1,go,GW,100,W,bacs2,1,1,0.636,1,1.0,0,1,1
1nn8ci654pmi5ny2ho1q3dxi,1,1,1b,13,4,1,go,GW,100,W,bacs2,1,0,,0,0.0,0,0,1
1nn8ci654pmi5ny2ho1q3dxi,1,1,1b,17,5,1,go,GW,100,W,bacs2,1,1,0.475,1,1.0,0,1,1
1nn8ci654pmi5ny2ho1q3dxi,1,1,1b,22,6,1,go,GW,100,W,bacs2,1,1,0.485,1,0.0,1,1,1
1nn8ci654pmi5ny2ho1q3dxi,1,1,1b,25,7,1,go,GW,100,W,bacs2,1,1,0.737,1,1.0,0,1,1
1nn8ci654pmi5ny2ho1q3dxi,1,1,1b,29,8,1,go,GW,100,W,bacs2,1,0,,0,0.0,0,0,1
1nn8ci654pmi5ny2ho1q3dxi,1,1,1b,4,1,0,no-go,NGAL,101,X,bacs2,0,1,0.39,0,0.0,0,1,1
1nn8ci654pmi5ny2ho1q3dxi,1,1,1b,5,2,0,no-go,NGAL,101,X,bacs2,0,0,,1,0.0,1,0,1
1nn8ci654pmi5ny2ho1q3dxi,1,1,1b,10,3,0,no-go,NGAL,101,X,bacs2,0,1,0.938,0,0.0,0,1,1
1nn8ci654pmi5ny2ho1q3dxi,1,1,1b,14,4,0,no-go,NGAL,101,X,bacs2,0,0,,1,1.0,0,0,1
1nn8ci654pmi5ny2ho1q3dxi,1,1,1b,20,5,0,no-go,NGAL,101,X,bacs2,0,0,,1,0.0,1,0,1
1nn8ci654pmi5ny2ho1q3dxi,1,1,1b,21,6,0,no-go,NGAL,101,X,bacs2,0,0,,1,0.0,1,0,1
1nn8ci654pmi5ny2ho1q3dxi,1,1,1b,27,7,0,no-go,NGAL,101,X,bacs2,0,0,,1,0.0,1,0,1
1nn8ci654pmi5ny2ho1q3dxi,1,1,1b,30,8,0,no-go,NGAL,101,X,bacs2,0,0,,1,1.0,0,0,1
1nn8ci654pmi5ny2ho1q3dxi,1,1,1b,36,9,0,no-go,NGAL,101,X,bacs2,0,0,,1,0.0,1,0,1
1nn8ci654pmi5ny2ho1q3dxi,1,1,1b,40,10,0,no-go,NGAL,101,X,bacs2,0,0,,1,0.0,1,0,1
1nn8ci654pmi5ny2ho1q3dxi,1,1,1b,89,1,1,no-go,NGW,102,Y,bacs2,0,0,,1,0.0,1,0,0
1nn8ci654pmi5ny2ho1q3dxi,1,1,1b,94,2,1,no-go,NGW,102,Y,bacs2,0,1,0.573,0,0.0,0,1,0
1nn8ci654pmi5ny2ho1q3dxi,1,1,1b,99,3,1,no-go,NGW,102,Y,bacs2,0,1,0.41600000000000004,0,0.0,0,1,0
1nn8ci654pmi5ny2ho1q3dxi,1,1,1b,103,4,1,no-go,NGW,102,Y,bacs2,0,0,,1,0.0,1,0,0
1nn8ci654pmi5ny2ho1q3dxi,1,1,1b,105,5,1,no-go,NGW,102,Y,bacs2,0,1,0.504,0,0.0,0,1,0
1nn8ci654pmi5ny2ho1q3dxi,1,1,1b,111,6,1,no-go,NGW,102,Y,bacs2,0,1,0.35700000000000004,0,0.0,0,1,0
1nn8ci654pmi5ny2ho1q3dxi,1,1,1b,115,7,1,no-go,NGW,102,Y,bacs2,0,1,0.51,0,1.0,1,1,0
1nn8ci654pmi5ny2ho1q3dxi,1,1,1b,117,8,1,no-go,NGW,102,Y,bacs2,0,0,,1,0.0,1,0,0
1nn8ci654pmi5ny2ho1q3dxi,1,1,1b,1,1,1,go,GW,103,Z,bacs2,1,1,0.373,1,0.0,1,1,1
1nn8ci654pmi5ny2ho1q3dxi,1,1,1b,6,2,1,go,GW,103,Z,bacs2,1,1,0.519,1,0.0,1,1,1
1nn8ci654pmi5ny2ho1q3dxi,1,1,1b,9,3,1,go,GW,103,Z,bacs2,1,1,0.49,1,0.0,1,1,1
1nn8ci654pmi5ny2ho1q3dxi,1,1,1b,16,4,1,go,GW,103,Z,bacs2,1,1,0.40299999999999997,1,0.0,1,1,1
1nn8ci654pmi5ny2ho1q3dxi,1,1,1b,18,5,1,go,GW,103,Z,bacs2,1,1,0.491,1,0.0,1,1,1
1nn8ci654pmi5ny2ho1q3dxi,1,1,1b,24,6,1,go,GW,103,Z,bacs2,1,1,0.441,1,0.0,1,1,1
1nn8ci654pmi5ny2ho1q3dxi,1,1,1b,28,7,1,go,GW,103,Z,bacs2,1,1,0.284,1,0.0,1,1,1
1nn8ci654pmi5ny2ho1q3dxi,1,1,1b,31,8,1,go,GW,103,Z,bacs2,1,1,0.42700000000000005,1,0.0,1,1,1
1nn8ci654pmi5ny2ho1q3dxi,1,1,1b,34,9,1,go,GW,103,Z,bacs2,1,1,0.48700000000000004,1,0.0,1,1,1
1nn8ci654pmi5ny2ho1q3dxi,1,1,1b,38,10,1,go,GW,103,Z,bacs2,1,1,0.37200000000000005,1,0.0,1,1,1
1x8zaa76pikfxwotrhhxcogi,1,2,1b,193,1,0,go,GAL,104,A,bacs1,1,1,0.8029999999999999,1,0.0,1,1,0
1x8zaa76pikfxwotrhhxcogi,1,2,1b,198,2,0,go,GAL,104,A,bacs1,1,1,0.802,1,0.0,1,1,0
1x8zaa76pikfxwotrhhxcogi,1,2,1b,201,3,0,go,GAL,104,A,bacs1,1,1,0.584,1,0.0,1,1,0
1x8zaa76pikfxwotrhhxcogi,1,2,1b,205,4,0,go,GAL,104,A,bacs1,1,1,0.599,1,1.0,0,1,0
1x8zaa76pikfxwotrhhxcogi,1,2,1b,210,5,0,go,GAL,104,A,bacs1,1,1,0.647,1,0.0,1,1,0
1x8zaa76pikfxwotrhhxcogi,1,2,1b,213,6,0,go,GAL,104,A,bacs1,1,1,0.602,1,1.0,0,1,0
1x8zaa76pikfxwotrhhxcogi,1,2,1b,219,7,0,go,GAL,104,A,bacs1,1,1,0.659,1,0.0,1,1,0
1x8zaa76pikfxwotrhhxcogi,1,2,1b,223,8,0,go,GAL,104,A,bacs1,1,1,0.601,1,0.0,1,1,0
1x8zaa76pikfxwotrhhxcogi,1,2,1b,225,9,0,go,GAL,104,A,bacs1,1,1,0.5539999999999999,1,0.0,1,1,0
1x8zaa76pikfxwotrhhxcogi,1,2,1b,232,10,0,go,GAL,104,A,bacs1,1,1,0.608,1,0.0,1,1,0
1x8zaa76pikfxwotrhhxcogi,1,2,1b,234,11,0,go,GAL,104,A,bacs1,1,1,0.46399999999999997,1,0.0,1,1,0
1x8zaa76pikfxwotrhhxcogi,1,2,1b,238,12,0,go,GAL,104,A,bacs1,1,1,0.528,1,1.0,0,1,0
1x8zaa76pikfxwotrhhxcogi,1,2,1b,123,1,1,no-go,NGW,105,B,bacs1,0,0,,1,0.0,1,0,0
1x8zaa76pikfxwotrhhxcogi,1,2,1b,125,2,1,no-go,NGW,105,B,bacs1,0,0,,1,0.0,1,0,0
1x8zaa76pikfxwotrhhxcogi,1,2,1b,132,3,1,no-go,NGW,105,B,bacs1,0,0,,1,0.0,1,0,0
1x8zaa76pikfxwotrhhxcogi,1,2,1b,135,4,1,no-go,NGW,105,B,bacs1,0,0,,1,0.0,1,0,0
1x8zaa76pikfxwotrhhxcogi,1,2,1b,138,5,1,no-go,NGW,105,B,bacs1,0,0,,1,0.0,1,0,0
1x8zaa76pikfxwotrhhxcogi,1,2,1b,143,6,1,no-go,NGW,105,B,bacs1,0,0,,1,0.0,1,0,0
1x8zaa76pikfxwotrhhxcogi,1,2,1b,148,7,1,no-go,NGW,105,B,bacs1,0,0,,1,0.0,1,0,0
1x8zaa76pikfxwotrhhxcogi,1,2,1b,150,8,1,no-go,NGW,105,B,bacs1,0,0,,1,0.0,1,0,0
1x8zaa76pikfxwotrhhxcogi,1,2,1b,155,9,1,no-go,NGW,105,B,bacs1,0,0,,1,0.0,1,0,0
1x8zaa76pikfxwotrhhxcogi,1,2,1b,158,10,1,no-go,NGW,105,B,bacs1,0,0,,1,1.0,0,0,0
1x8zaa76pikfxwotrhhxcogi,1,2,1b,164,11,1,no-go,NGW,105,B,bacs1,0,0,,1,0.0,1,0,0
1x8zaa76pikfxwotrhhxcogi,1,2,1b,165,12,1,no-go,NGW,105,B,bacs1,0,0,,1,1.0,0,0,0
1x8zaa76pikfxwotrhhxcogi,1,2,1b,204,1,0,go,GAL,106,C,bacs1,1,1,0.622,1,0.0,1,1,0
1x8zaa76pikfxwotrhhxcogi,1,2,1b,208,2,0,go,GAL,106,C,bacs1,1,1,0.6629999999999999,1,0.0,1,1,0
1x8zaa76pikfxwotrhhxcogi,1,2,1b,212,3,0,go,GAL,106,C,bacs1,1,1,0.7170000000000001,1,0.0,1,1,0
1x8zaa76pikfxwotrhhxcogi,1,2,1b,215,4,0,go,GAL,106,C,bacs1,1,1,0.47,1,0.0,1,1,0
1x8zaa76pikfxwotrhhxcogi,1,2,1b,218,5,0,go,GAL,106,C,bacs1,1,1,0.606,1,0.0,1,1,0
1x8zaa76pikfxwotrhhxcogi,1,2,1b,222,6,0,go,GAL,106,C,bacs1,1,1,0.547,1,0.0,1,1,0
1x8zaa76pikfxwotrhhxcogi,1,2,1b,227,7,0,go,GAL,106,C,bacs1,1,1,0.536,1,0.0,1,1,0
1x8zaa76pikfxwotrhhxcogi,1,2,1b,231,8,0,go,GAL,106,C,bacs1,1,1,0.5820000000000001,1,0.0,1,1,0
1x8zaa76pikfxwotrhhxcogi,1,2,1b,236,9,0,go,GAL,106,C,bacs1,1,1,0.514,1,0.0,1,1,0
1x8zaa76pikfxwotrhhxcogi,1,2,1b,237,10,0,go,GAL,106,C,bacs1,1,1,0.473,1,0.0,1,1,0
1x8zaa76pikfxwotrhhxcogi,1,1,1a,33,1,0,go,GAL,107,D,bacs1,1,1,1.095,1,0.0,1,1,0
1x8zaa76pikfxwotrhhxcogi,1,1,1a,37,2,0,go,GAL,107,D,bacs1,1,1,0.695,1,0.0,1,1,0
1x8zaa76pikfxwotrhhxcogi,1,1,1a,41,3,0,go,GAL,107,D,bacs1,1,1,0.775,1,0.0,1,1,0
1x8zaa76pikfxwotrhhxcogi,1,1,1a,47,4,0,go,GAL,107,D,bacs1,1,1,0.9540000000000001,1,0.0,1,1,0
1x8zaa76pikfxwotrhhxcogi,1,1,1a,51,5,0,go,GAL,107,D,bacs1,1,1,0.985,1,0.0,1,1,0
1x8zaa76pikfxwotrhhxcogi,1,1,1a,53,6,0,go,GAL,107,D,bacs1,1,1,1.295,1,0.0,1,1,0
1x8zaa76pikfxwotrhhxcogi,1,1,1a,60,7,0,go,GAL,107,D,bacs1,1,1,0.8109999999999999,1,1.0,0,1,0
1x8zaa76pikfxwotrhhxcogi,1,1,1a,63,8,0,go,GAL,107,D,bacs1,1,1,0.501,1,0.0,1,1,0
1x8zaa76pikfxwotrhhxcogi,1,1,1a,68,9,0,go,GAL,107,D,bacs1,1,1,0.542,1,0.0,1,1,0
1x8zaa76pikfxwotrhhxcogi,1,1,1a,72,10,0,go,GAL,107,D,bacs1,1,1,0.57,1,0.0,1,1,0
1x8zaa76pikfxwotrhhxcogi,1,2,1b,162,1,0,go,GAL,108,E,bacs1,1,0,,0,0.0,0,0,0
1x8zaa76pikfxwotrhhxcogi,1,2,1b,168,2,0,go,GAL,108,E,bacs1,1,0,,0,0.0,0,0,0
1x8zaa76pikfxwotrhhxcogi,1,2,1b,170,3,0,go,GAL,108,E,bacs1,1,1,0.649,1,1.0,0,1,0
1x8zaa76pikfxwotrhhxcogi,1,2,1b,174,4,0,go,GAL,108,E,bacs1,1,1,0.768,1,0.0,1,1,0
1x8zaa76pikfxwotrhhxcogi,1,2,1b,180,5,0,go,GAL,108,E,bacs1,1,1,0.631,1,0.0,1,1,0
1x8zaa76pikfxwotrhhxcogi,1,2,1b,184,6,0,go,GAL,108,E,bacs1,1,0,,0,1.0,1,0,0
1x8zaa76pikfxwotrhhxcogi,1,2,1b,186,7,0,go,GAL,108,E,bacs1,1,1,0.8690000000000001,1,0.0,1,1,0
1x8zaa76pikfxwotrhhxcogi,1,2,1b,191,8,0,go,GAL,108,E,bacs1,1,0,,0,1.0,1,0,0
1x8zaa76pikfxwotrhhxcogi,1,2,1b,171,1,1,no-go,NGW,109,F,bacs1,0,1,0.53,0,1.0,1,1,0
1x8zaa76pikfxwotrhhxcogi,1,2,1b,176,2,1,no-go,NGW,109,F,bacs1,0,1,0.6509999999999999,0,1.0,1,1,0
1x8zaa76pikfxwotrhhxcogi,1,2,1b,177,3,1,no-go,NGW,109,F,bacs1,0,1,0.777,0,0.0,0,1,0
1x8zaa76pikfxwotrhhxcogi,1,2,1b,183,4,1,no-go,NGW,109,F,bacs1,0,1,0.52,0,0.0,0,1,0
1x8zaa76pikfxwotrhhxcogi,1,2,1b,187,5,1,no-go,NGW,109,F,bacs1,0,1,0.703,0,0.0,0,1,0
1x8zaa76pikfxwotrhhxcogi,1,2,1b,189,6,1,no-go,NGW,109,F,bacs1,0,1,0.586,0,0.0,0,1,0
1x8zaa76pikfxwotrhhxcogi,1,2,1b,196,7,1,no-go,NGW,109,F,bacs1,0,1,1.1440000000000001,0,0.0,0,1,0
1x8zaa76pikfxwotrhhxcogi,1,2,1b,197,8,1,no-go,NGW,109,F,bacs1,0,1,0.617,0,0.0,0,1,0
1x8zaa76pikfxwotrhhxcogi,1,2,1b,202,9,1,no-go,NGW,109,F,bacs1,0,1,0.537,0,0.0,0,1,0
1x8zaa76pikfxwotrhhxcogi,1,2,1b,207,10,1,no-go,NGW,109,F,bacs1,0,1,0.456,0,0.0,0,1,0
1x8zaa76pikfxwotrhhxcogi,1,1,1a,1,1,0,no-go,NGAL,110,G,bacs1,0,1,0.556,0,0.0,0,1,1
1x8zaa76pikfxwotrhhxcogi,1,1,1a,8,2,0,no-go,NGAL,110,G,bacs1,0,1,0.9740000000000001,0,1.0,1,1,1
1x8zaa76pikfxwotrhhxcogi,1,1,1a,9,3,0,no-go,NGAL,110,G,bacs1,0,0,,1,1.0,0,1,1
1x8zaa76pikfxwotrhhxcogi,1,1,1a,14,4,0,no-go,NGAL,110,G,bacs1,0,0,,1,0.0,1,0,1
1x8zaa76pikfxwotrhhxcogi,1,1,1a,20,5,0,no-go,NGAL,110,G,bacs1,0,0,,1,1.0,0,0,1
1x8zaa76pikfxwotrhhxcogi,1,1,1a,23,6,0,no-go,NGAL,110,G,bacs1,0,1,0.578,0,0.0,0,1,1
1x8zaa76pikfxwotrhhxcogi,1,1,1a,26,7,0,no-go,NGAL,110,G,bacs1,0,1,0.968,0,0.0,0,1,1
1x8zaa76pikfxwotrhhxcogi,1,1,1a,29,8,0,no-go,NGAL,110,G,bacs1,0,1,0.723,0,0.0,0,1,1
1x8zaa76pikfxwotrhhxcogi,1,1,1a,91,1,0,go,GAL,111,H,bacs1,1,0,,0,0.0,0,0,0
1x8zaa76pikfxwotrhhxcogi,1,1,1a,95,2,0,go,GAL,111,H,bacs1,1,1,0.5870000000000001,1,1.0,0,1,0
1x8zaa76pikfxwotrhhxcogi,1,1,1a,100,3,0,go,GAL,111,H,bacs1,1,1,0.737,1,0.0,1,1,0
1x8zaa76pikfxwotrhhxcogi,1,1,1a,104,4,0,go,GAL,111,H,bacs1,1,1,0.726,1,0.0,1,1,0
1x8zaa76pikfxwotrhhxcogi,1,1,1a,105,5,0,go,GAL,111,H,bacs1,1,1,0.642,1,0.0,1,1,0
1x8zaa76pikfxwotrhhxcogi,1,1,1a,111,6,0,go,GAL,111,H,bacs1,1,1,1.008,1,1.0,0,1,0
1x8zaa76pikfxwotrhhxcogi,1,1,1a,116,7,0,go,GAL,111,H,bacs1,1,1,0.596,1,0.0,1,1,0
1x8zaa76pikfxwotrhhxcogi,1,1,1a,118,8,0,go,GAL,111,H,bacs1,1,1,0.993,1,0.0,1,1,0
1x8zaa76pikfxwotrhhxcogi,1,1,1a,2,1,1,go,GW,112,I,bacs1,1,0,,0,0.0,0,0,1
1x8zaa76pikfxwotrhhxcogi,1,1,1a,6,2,1,go,GW,112,I,bacs1,1,1,0.784,1,0.0,1,1,1
1x8zaa76pikfxwotrhhxcogi,1,1,1a,12,3,1,go,GW,112,I,bacs1,1,1,0.753,1,1.0,0,1,1
1x8zaa76pikfxwotrhhxcogi,1,1,1a,13,4,1,go,GW,112,I,bacs1,1,1,1.042,1,0.0,1,1,1
1x8zaa76pikfxwotrhhxcogi,1,1,1a,18,5,1,go,GW,112,I,bacs1,1,0,,0,1.0,1,0,1
1x8zaa76pikfxwotrhhxcogi,1,1,1a,21,6,1,go,GW,112,I,bacs1,1,0,,0,0.0,0,0,1
1x8zaa76pikfxwotrhhxcogi,1,1,1a,27,7,1,go,GW,112,I,bacs1,1,0,,0,1.0,1,0,1
1x8zaa76pikfxwotrhhxcogi,1,1,1a,32,8,1,go,GW,112,I,bacs1,1,0,,0,0.0,0,0,1
1x8zaa76pikfxwotrhhxcogi,1,1,1a,35,9,1,go,GW,112,I,bacs1,1,1,1.125,1,0.0,1,1,1
1x8zaa76pikfxwotrhhxcogi,1,1,1a,38,10,1,go,GW,112,I,bacs1,1,0,,0,0.0,0,0,1
1x8zaa76pikfxwotrhhxcogi,1,2,1b,122,1,0,no-go,NGAL,113,J,bacs1,0,0,,1,0.0,1,0,1
1x8zaa76pikfxwotrhhxcogi,1,2,1b,128,2,0,no-go,NGAL,113,J,bacs1,0,0,,1,0.0,1,0,1
1x8zaa76pikfxwotrhhxcogi,1,2,1b,130,3,0,no-go,NGAL,113,J,bacs1,0,0,,1,0.0,1,0,1
1x8zaa76pikfxwotrhhxcogi,1,2,1b,133,4,0,no-go,NGAL,113,J,bacs1,0,0,,1,0.0,1,0,1
1x8zaa76pikfxwotrhhxcogi,1,2,1b,137,5,0,no-go,NGAL,113,J,bacs1,0,0,,1,0.0,1,0,1
1x8zaa76pikfxwotrhhxcogi,1,2,1b,141,6,0,no-go,NGAL,113,J,bacs1,0,0,,1,0.0,1,0,1
1x8zaa76pikfxwotrhhxcogi,1,2,1b,147,7,0,no-go,NGAL,113,J,bacs1,0,0,,1,0.0,1,0,1
1x8zaa76pikfxwotrhhxcogi,1,2,1b,152,8,0,no-go,NGAL,113,J,bacs1,0,0,,1,0.0,1,0,1
1x8zaa76pikfxwotrhhxcogi,1,2,1b,153,9,0,no-go,NGAL,113,J,bacs1,0,0,,1,0.0,1,0,1
1x8zaa76pikfxwotrhhxcogi,1,2,1b,159,10,0,no-go,NGAL,113,J,bacs1,0,0,,1,0.0,1,0,1
1x8zaa76pikfxwotrhhxcogi,1,1,1a,44,1,1,no-go,NGW,114,K,bacs1,0,1,0.7020000000000001,0,0.0,0,1,0
1x8zaa76pikfxwotrhhxcogi,1,1,1a,48,2,1,no-go,NGW,114,K,bacs1,0,0,,1,0.0,1,0,0
1x8zaa76pikfxwotrhhxcogi,1,1,1a,49,3,1,no-go,NGW,114,K,bacs1,0,0,,1,0.0,1,0,0
1x8zaa76pikfxwotrhhxcogi,1,1,1a,54,4,1,no-go,NGW,114,K,bacs1,0,0,,1,0.0,1,0,0
1x8zaa76pikfxwotrhhxcogi,1,1,1a,58,5,1,no-go,NGW,114,K,bacs1,0,0,,1,1.0,0,0,0
1x8zaa76pikfxwotrhhxcogi,1,1,1a,61,6,1,no-go,NGW,114,K,bacs1,0,0,,1,0.0,1,0,0
1x8zaa76pikfxwotrhhxcogi,1,1,1a,67,7,1,no-go,NGW,114,K,bacs1,0,0,,1,0.0,1,0,0
1x8zaa76pikfxwotrhhxcogi,1,1,1a,70,8,1,no-go,NGW,114,K,bacs1,0,0,,1,0.0,1,0,0
1x8zaa76pikfxwotrhhxcogi,1,1,1a,75,9,1,no-go,NGW,114,K,bacs1,0,0,,1,0.0,1,0,0
1x8zaa76pikfxwotrhhxcogi,1,1,1a,79,10,1,no-go,NGW,114,K,bacs1,0,0,,1,0.0,1,0,0
1x8zaa76pikfxwotrhhxcogi,1,1,1a,84,11,1,no-go,NGW,114,K,bacs1,0,0,,1,0.0,1,0,0
1x8zaa76pikfxwotrhhxcogi,1,1,1a,86,12,1,no-go,NGW,114,K,bacs1,0,0,,1,0.0,1,0,0
1x8zaa76pikfxwotrhhxcogi,1,2,1b,211,1,0,no-go,NGAL,115,L,bacs1,0,0,,1,0.0,1,0,1
1x8zaa76pikfxwotrhhxcogi,1,2,1b,214,2,0,no-go,NGAL,115,L,bacs1,0,0,,1,0.0,1,0,1
1x8zaa76pikfxwotrhhxcogi,1,2,1b,220,3,0,no-go,NGAL,115,L,bacs1,0,0,,1,0.0,1,0,1
1x8zaa76pikfxwotrhhxcogi,1,2,1b,221,4,0,no-go,NGAL,115,L,bacs1,0,0,,1,0.0,1,0,1
1x8zaa76pikfxwotrhhxcogi,1,2,1b,226,5,0,no-go,NGAL,115,L,bacs1,0,0,,1,0.0,1,0,1
1x8zaa76pikfxwotrhhxcogi,1,2,1b,230,6,0,no-go,NGAL,115,L,bacs1,0,0,,1,0.0,1,0,1
1x8zaa76pikfxwotrhhxcogi,1,2,1b,233,7,0,no-go,NGAL,115,L,bacs1,0,0,,1,1.0,0,0,1
1x8zaa76pikfxwotrhhxcogi,1,2,1b,239,8,0,no-go,NGAL,115,L,bacs1,0,0,,1,0.0,1,0,1
1x8zaa76pikfxwotrhhxcogi,1,1,1a,74,1,1,go,GW,116,M,bacs1,1,1,0.968,1,0.0,1,1,1
1x8zaa76pikfxwotrhhxcogi,1,1,1a,80,2,1,go,GW,116,M,bacs1,1,1,0.98,1,0.0,1,1,1
1x8zaa76pikfxwotrhhxcogi,1,1,1a,82,3,1,go,GW,116,M,bacs1,1,1,0.95,1,0.0,1,1,1
1x8zaa76pikfxwotrhhxcogi,1,1,1a,87,4,1,go,GW,116,M,bacs1,1,1,0.991,1,0.0,1,1,1
1x8zaa76pikfxwotrhhxcogi,1,1,1a,90,5,1,go,GW,116,M,bacs1,1,1,0.9620000000000001,1,1.0,0,1,1
1x8zaa76pikfxwotrhhxcogi,1,1,1a,94,6,1,go,GW,116,M,bacs1,1,1,0.521,1,0.0,1,1,1
1x8zaa76pikfxwotrhhxcogi,1,1,1a,98,7,1,go,GW,116,M,bacs1,1,1,0.768,1,1.0,0,1,1
1x8zaa76pikfxwotrhhxcogi,1,1,1a,103,8,1,go,GW,116,M,bacs1,1,0,,0,0.0,0,0,1
1x8zaa76pikfxwotrhhxcogi,1,1,1a,106,9,1,go,GW,116,M,bacs1,1,0,,0,0.0,0,0,1
1x8zaa76pikfxwotrhhxcogi,1,1,1a,109,10,1,go,GW,116,M,bacs1,1,0,,0,1.0,1,0,1
1x8zaa76pikfxwotrhhxcogi,1,1,1a,115,11,1,go,GW,116,M,bacs1,1,0,,0,0.0,0,0,1
1x8zaa76pikfxwotrhhxcogi,1,1,1a,120,12,1,go,GW,116,M,bacs1,1,0,,0,0.0,0,0,1
1x8zaa76pikfxwotrhhxcogi,1,1,1a,3,1,0,no-go,NGAL,117,N,bacs1,0,0,,1,1.0,0,0,1
1x8zaa76pikfxwotrhhxcogi,1,1,1a,5,2,0,no-go,NGAL,117,N,bacs1,0,0,,1,0.0,1,0,1
1x8zaa76pikfxwotrhhxcogi,1,1,1a,10,3,0,no-go,NGAL,117,N,bacs1,0,0,,1,0.0,1,0,1
1x8zaa76pikfxwotrhhxcogi,1,1,1a,15,4,0,no-go,NGAL,117,N,bacs1,0,0,,1,0.0,1,0,1
1x8zaa76pikfxwotrhhxcogi,1,1,1a,17,5,0,no-go,NGAL,117,N,bacs1,0,0,,1,0.0,1,0,1
1x8zaa76pikfxwotrhhxcogi,1,1,1a,22,6,0,no-go,NGAL,117,N,bacs1,0,0,,1,0.0,1,0,1
1x8zaa76pikfxwotrhhxcogi,1,1,1a,28,7,0,no-go,NGAL,117,N,bacs1,0,0,,1,0.0,1,0,1
1x8zaa76pikfxwotrhhxcogi,1,1,1a,31,8,0,no-go,NGAL,117,N,bacs1,0,0,,1,0.0,1,0,1
1x8zaa76pikfxwotrhhxcogi,1,1,1a,36,9,0,no-go,NGAL,117,N,bacs1,0,0,,1,0.0,1,0,1
1x8zaa76pikfxwotrhhxcogi,1,1,1a,40,10,0,no-go,NGAL,117,N,bacs1,0,0,,1,1.0,0,0,1
1x8zaa76pikfxwotrhhxcogi,1,1,1a,43,11,0,no-go,NGAL,117,N,bacs1,0,0,,1,0.0,1,0,1
1x8zaa76pikfxwotrhhxcogi,1,1,1a,45,12,0,no-go,NGAL,117,N,bacs1,0,0,,1,0.0,1,0,1
1x8zaa76pikfxwotrhhxcogi,1,1,1a,4,1,1,no-go,NGW,118,O,bacs1,0,1,0.644,0,0.0,0,1,0
1x8zaa76pikfxwotrhhxcogi,1,1,1a,7,2,1,no-go,NGW,118,O,bacs1,0,0,,1,0.0,1,0,0
1x8zaa76pikfxwotrhhxcogi,1,1,1a,11,3,1,no-go,NGW,118,O,bacs1,0,1,0.9179999999999999,0,0.0,0,1,0
1x8zaa76pikfxwotrhhxcogi,1,1,1a,16,4,1,no-go,NGW,118,O,bacs1,0,1,0.826,0,0.0,0,1,0
1x8zaa76pikfxwotrhhxcogi,1,1,1a,19,5,1,no-go,NGW,118,O,bacs1,0,0,,1,1.0,0,0,0
1x8zaa76pikfxwotrhhxcogi,1,1,1a,24,6,1,no-go,NGW,118,O,bacs1,0,1,1.0070000000000001,0,0.0,0,1,0
1x8zaa76pikfxwotrhhxcogi,1,1,1a,25,7,1,no-go,NGW,118,O,bacs1,0,0,,1,0.0,1,0,0
1x8zaa76pikfxwotrhhxcogi,1,1,1a,30,8,1,no-go,NGW,118,O,bacs1,0,0,,1,0.0,1,0,0
1x8zaa76pikfxwotrhhxcogi,1,1,1a,34,9,1,no-go,NGW,118,O,bacs1,0,0,,1,1.0,0,1,0
1x8zaa76pikfxwotrhhxcogi,1,1,1a,39,10,1,no-go,NGW,118,O,bacs1,0,1,0.45399999999999996,0,0.0,0,1,0
1x8zaa76pikfxwotrhhxcogi,1,1,1a,76,1,0,go,GAL,119,P,bacs1,1,0,,0,0.0,0,0,0
1x8zaa76pikfxwotrhhxcogi,1,1,1a,77,2,0,go,GAL,119,P,bacs1,1,1,0.922,1,0.0,1,1,0
1x8zaa76pikfxwotrhhxcogi,1,1,1a,83,3,0,go,GAL,119,P,bacs1,1,1,1.0490000000000002,1,0.0,1,1,0
1x8zaa76pikfxwotrhhxcogi,1,1,1a,85,4,0,go,GAL,119,P,bacs1,1,1,1.0859999999999999,1,0.0,1,1,0
1x8zaa76pikfxwotrhhxcogi,1,1,1a,92,5,0,go,GAL,119,P,bacs1,1,1,0.638,1,0.0,1,1,0
1x8zaa76pikfxwotrhhxcogi,1,1,1a,93,6,0,go,GAL,119,P,bacs1,1,1,0.721,1,1.0,0,1,0
1x8zaa76pikfxwotrhhxcogi,1,1,1a,97,7,0,go,GAL,119,P,bacs1,1,1,0.696,1,0.0,1,1,0
1x8zaa76pikfxwotrhhxcogi,1,1,1a,101,8,0,go,GAL,119,P,bacs1,1,1,0.8340000000000001,1,0.0,1,1,0
1x8zaa76pikfxwotrhhxcogi,1,1,1a,107,9,0,go,GAL,119,P,bacs1,1,1,0.534,1,0.0,1,1,0
1x8zaa76pikfxwotrhhxcogi,1,1,1a,112,10,0,go,GAL,119,P,bacs1,1,0,,0,0.0,0,0,0
1x8zaa76pikfxwotrhhxcogi,1,1,1a,113,11,0,go,GAL,119,P,bacs1,1,1,0.935,1,1.0,0,1,0
1x8zaa76pikfxwotrhhxcogi,1,1,1a,119,12,0,go,GAL,119,P,bacs1,1,1,0.826,1,0.0,1,1,0
1x8zaa76pikfxwotrhhxcogi,1,2,1b,209,1,1,no-go,NGW,120,Q,bacs1,0,0,,1,0.0,1,0,0
1x8zaa76pikfxwotrhhxcogi,1,2,1b,216,2,1,no-go,NGW,120,Q,bacs1,0,1,0.8170000000000001,0,0.0,0,1,0
1x8zaa76pikfxwotrhhxcogi,1,2,1b,217,3,1,no-go,NGW,120,Q,bacs1,0,0,,1,0.0,1,0,0
1x8zaa76pikfxwotrhhxcogi,1,2,1b,224,4,1,no-go,NGW,120,Q,bacs1,0,1,0.625,0,0.0,0,1,0
1x8zaa76pikfxwotrhhxcogi,1,2,1b,228,5,1,no-go,NGW,120,Q,bacs1,0,1,0.7509999999999999,0,1.0,1,1,0
1x8zaa76pikfxwotrhhxcogi,1,2,1b,229,6,1,no-go,NGW,120,Q,bacs1,0,1,0.473,0,1.0,1,1,0
1x8zaa76pikfxwotrhhxcogi,1,2,1b,235,7,1,no-go,NGW,120,Q,bacs1,0,1,0.551,0,0.0,0,1,0
1x8zaa76pikfxwotrhhxcogi,1,2,1b,240,8,1,no-go,NGW,120,Q,bacs1,0,1,0.579,0,0.0,0,1,0
1x8zaa76pikfxwotrhhxcogi,1,2,1b,121,1,1,go,GW,121,R,bacs1,1,1,0.629,1,0.0,1,1,1
1x8zaa76pikfxwotrhhxcogi,1,2,1b,127,2,1,go,GW,121,R,bacs1,1,1,0.794,1,0.0,1,1,1
1x8zaa76pikfxwotrhhxcogi,1,2,1b,131,3,1,go,GW,121,R,bacs1,1,1,0.8220000000000001,1,0.0,1,1,1
1x8zaa76pikfxwotrhhxcogi,1,2,1b,134,4,1,go,GW,121,R,bacs1,1,1,0.813,1,0.0,1,1,1
1x8zaa76pikfxwotrhhxcogi,1,2,1b,140,5,1,go,GW,121,R,bacs1,1,1,0.7859999999999999,1,0.0,1,1,1
1x8zaa76pikfxwotrhhxcogi,1,2,1b,142,6,1,go,GW,121,R,bacs1,1,1,0.903,1,0.0,1,1,1
1x8zaa76pikfxwotrhhxcogi,1,2,1b,146,7,1,go,GW,121,R,bacs1,1,1,0.8170000000000001,1,0.0,1,1,1
1x8zaa76pikfxwotrhhxcogi,1,2,1b,151,8,1,go,GW,121,R,bacs1,1,1,0.573,1,0.0,1,1,1
1x8zaa76pikfxwotrhhxcogi,1,2,1b,156,9,1,go,GW,121,R,bacs1,1,1,0.877,1,1.0,0,1,1
1x8zaa76pikfxwotrhhxcogi,1,2,1b,157,10,1,go,GW,121,R,bacs1,1,1,0.649,1,0.0,1,1,1
1x8zaa76pikfxwotrhhxcogi,1,1,1a,42,1,1,go,GW,122,S,bacs1,1,1,0.857,1,0.0,1,1,1
1x8zaa76pikfxwotrhhxcogi,1,1,1a,46,2,1,go,GW,122,S,bacs1,1,1,0.774,1,1.0,0,1,1
1x8zaa76pikfxwotrhhxcogi,1,1,1a,52,3,1,go,GW,122,S,bacs1,1,0,,0,0.0,0,0,1
1x8zaa76pikfxwotrhhxcogi,1,1,1a,56,4,1,go,GW,122,S,bacs1,1,0,,0,0.0,0,0,1
1x8zaa76pikfxwotrhhxcogi,1,1,1a,59,5,1,go,GW,122,S,bacs1,1,0,,0,0.0,0,0,1
1x8zaa76pikfxwotrhhxcogi,1,1,1a,62,6,1,go,GW,122,S,bacs1,1,0,,0,0.0,0,0,1
1x8zaa76pikfxwotrhhxcogi,1,1,1a,65,7,1,go,GW,122,S,bacs1,1,0,,0,1.0,1,0,1
1x8zaa76pikfxwotrhhxcogi,1,1,1a,69,8,1,go,GW,122,S,bacs1,1,0,,0,1.0,1,0,1
1x8zaa76pikfxwotrhhxcogi,1,2,1b,161,1,0,no-go,NGAL,123,T,bacs1,0,0,,1,0.0,1,0,1
1x8zaa76pikfxwotrhhxcogi,1,2,1b,166,2,0,no-go,NGAL,123,T,bacs1,0,0,,1,0.0,1,0,1
1x8zaa76pikfxwotrhhxcogi,1,2,1b,169,3,0,no-go,NGAL,123,T,bacs1,0,0,,1,0.0,1,0,1
1x8zaa76pikfxwotrhhxcogi,1,2,1b,175,4,0,no-go,NGAL,123,T,bacs1,0,0,,1,1.0,0,0,1
1x8zaa76pikfxwotrhhxcogi,1,2,1b,179,5,0,no-go,NGAL,123,T,bacs1,0,0,,1,1.0,0,0,1
1x8zaa76pikfxwotrhhxcogi,1,2,1b,181,6,0,no-go,NGAL,123,T,bacs1,0,0,,1,1.0,0,0,1
1x8zaa76pikfxwotrhhxcogi,1,2,1b,185,7,0,no-go,NGAL,123,T,bacs1,0,0,,1,0.0,1,0,1
1x8zaa76pikfxwotrhhxcogi,1,2,1b,192,8,0,no-go,NGAL,123,T,bacs1,0,0,,1,0.0,1,0,1
1x8zaa76pikfxwotrhhxcogi,1,2,1b,194,9,0,no-go,NGAL,123,T,bacs1,0,0,,1,0.0,1,0,1
1x8zaa76pikfxwotrhhxcogi,1,2,1b,199,10,0,no-go,NGAL,123,T,bacs1,0,0,,1,0.0,1,0,1
1x8zaa76pikfxwotrhhxcogi,1,2,1b,203,11,0,no-go,NGAL,123,T,bacs1,0,0,,1,0.0,1,0,1
1x8zaa76pikfxwotrhhxcogi,1,2,1b,206,12,0,no-go,NGAL,123,T,bacs1,0,0,,1,0.0,1,0,1
1x8zaa76pikfxwotrhhxcogi,1,1,1a,50,1,0,no-go,NGAL,124,U,bacs1,0,1,1.042,0,0.0,0,1,1
1x8zaa76pikfxwotrhhxcogi,1,1,1a,55,2,0,no-go,NGAL,124,U,bacs1,0,0,,1,0.0,1,0,1
1x8zaa76pikfxwotrhhxcogi,1,1,1a,57,3,0,no-go,NGAL,124,U,bacs1,0,0,,1,0.0,1,0,1
1x8zaa76pikfxwotrhhxcogi,1,1,1a,64,4,0,no-go,NGAL,124,U,bacs1,0,0,,1,0.0,1,0,1
1x8zaa76pikfxwotrhhxcogi,1,1,1a,66,5,0,no-go,NGAL,124,U,bacs1,0,0,,1,0.0,1,0,1
1x8zaa76pikfxwotrhhxcogi,1,1,1a,71,6,0,no-go,NGAL,124,U,bacs1,0,1,0.629,0,0.0,0,1,1
1x8zaa76pikfxwotrhhxcogi,1,1,1a,73,7,0,no-go,NGAL,124,U,bacs1,0,0,,1,0.0,1,0,1
1x8zaa76pikfxwotrhhxcogi,1,1,1a,78,8,0,no-go,NGAL,124,U,bacs1,0,0,,1,0.0,1,0,1
1x8zaa76pikfxwotrhhxcogi,1,1,1a,81,9,0,no-go,NGAL,124,U,bacs1,0,0,,1,0.0,1,0,1
1x8zaa76pikfxwotrhhxcogi,1,1,1a,88,10,0,no-go,NGAL,124,U,bacs1,0,0,,1,0.0,1,0,1
1x8zaa76pikfxwotrhhxcogi,1,2,1b,154,1,1,go,GW,125,V,bacs1,1,1,0.868,1,0.0,1,1,1
1x8zaa76pikfxwotrhhxcogi,1,2,1b,160,2,1,go,GW,125,V,bacs1,1,1,0.9690000000000001,1,0.0,1,1,1
1x8zaa76pikfxwotrhhxcogi,1,2,1b,163,3,1,go,GW,125,V,bacs1,1,1,0.649,1,0.0,1,1,1
1x8zaa76pikfxwotrhhxcogi,1,2,1b,167,4,1,go,GW,125,V,bacs1,1,1,0.802,1,0.0,1,1,1
1x8zaa76pikfxwotrhhxcogi,1,2,1b,172,5,1,go,GW,125,V,bacs1,1,1,0.569,1,1.0,0,1,1
1x8zaa76pikfxwotrhhxcogi,1,2,1b,173,6,1,go,GW,125,V,bacs1,1,1,0.657,1,1.0,0,1,1
1x8zaa76pikfxwotrhhxcogi,1,2,1b,178,7,1,go,GW,125,V,bacs1,1,1,0.617,1,0.0,1,1,1
1x8zaa76pikfxwotrhhxcogi,1,2,1b,182,8,1,go,GW,125,V,bacs1,1,1,0.45299999999999996,1,1.0,0,1,1
1x8zaa76pikfxwotrhhxcogi,1,2,1b,188,9,1,go,GW,125,V,bacs1,1,1,0.745,1,0.0,1,1,1
1x8zaa76pikfxwotrhhxcogi,1,2,1b,190,10,1,go,GW,125,V,bacs1,1,1,0.593,1,1.0,0,1,1
1x8zaa76pikfxwotrhhxcogi,1,2,1b,195,11,1,go,GW,125,V,bacs1,1,1,0.67,1,1.0,0,1,1
1x8zaa76pikfxwotrhhxcogi,1,2,1b,200,12,1,go,GW,125,V,bacs1,1,1,0.534,1,0.0,1,1,1
1x8zaa76pikfxwotrhhxcogi,1,1,1a,89,1,1,no-go,NGW,128,Y,bacs1,0,1,0.903,0,1.0,1,1,0
1x8zaa76pikfxwotrhhxcogi,1,1,1a,96,2,1,no-go,NGW,128,Y,bacs1,0,1,0.539,0,0.0,0,1,0
1x8zaa76pikfxwotrhhxcogi,1,1,1a,99,3,1,no-go,NGW,128,Y,bacs1,0,1,0.61,0,0.0,0,1,0
1x8zaa76pikfxwotrhhxcogi,1,1,1a,102,4,1,no-go,NGW,128,Y,bacs1,0,1,0.769,0,0.0,0,1,0
1x8zaa76pikfxwotrhhxcogi,1,1,1a,108,5,1,no-go,NGW,128,Y,bacs1,0,0,,1,0.0,1,0,0
1x8zaa76pikfxwotrhhxcogi,1,1,1a,110,6,1,no-go,NGW,128,Y,bacs1,0,1,0.6970000000000001,0,1.0,1,1,0
1x8zaa76pikfxwotrhhxcogi,1,1,1a,114,7,1,no-go,NGW,128,Y,bacs1,0,0,,1,0.0,1,0,0
1x8zaa76pikfxwotrhhxcogi,1,1,1a,117,8,1,no-go,NGW,128,Y,bacs1,0,0,,1,0.0,1,0,0
1x8zaa76pikfxwotrhhxcogi,1,2,1b,124,1,1,go,GW,129,Z,bacs1,1,1,0.9470000000000001,1,0.0,1,1,1
1x8zaa76pikfxwotrhhxcogi,1,2,1b,126,2,1,go,GW,129,Z,bacs1,1,1,0.728,1,0.0,1,1,1
1x8zaa76pikfxwotrhhxcogi,1,2,1b,129,3,1,go,GW,129,Z,bacs1,1,1,0.7659999999999999,1,0.0,1,1,1
1x8zaa76pikfxwotrhhxcogi,1,2,1b,136,4,1,go,GW,129,Z,bacs1,1,1,0.8859999999999999,1,0.0,1,1,1
1x8zaa76pikfxwotrhhxcogi,1,2,1b,139,5,1,go,GW,129,Z,bacs1,1,1,0.8590000000000001,1,0.0,1,1,1
1x8zaa76pikfxwotrhhxcogi,1,2,1b,144,6,1,go,GW,129,Z,bacs1,1,1,0.8079999999999999,1,1.0,0,1,1
1x8zaa76pikfxwotrhhxcogi,1,2,1b,145,7,1,go,GW,129,Z,bacs1,1,1,0.835,1,0.0,1,1,1
1x8zaa76pikfxwotrhhxcogi,1,2,1b,149,8,1,go,GW,129,Z,bacs1,1,1,0.861,1,0.0,1,1,1
1ztbhfxllii1xhq9f1v62x26,1,1,1b,82,1,0,go,GAL,130,A,elianto,1,0,,0,0.0,0,0,0
1ztbhfxllii1xhq9f1v62x26,1,1,1b,88,2,0,go,GAL,130,A,elianto,1,1,0.81,1,0.0,1,1,0
1ztbhfxllii1xhq9f1v62x26,1,1,1b,91,3,0,go,GAL,130,A,elianto,1,1,0.7390000000000001,1,0.0,1,1,0
1ztbhfxllii1xhq9f1v62x26,1,1,1b,95,4,0,go,GAL,130,A,elianto,1,1,0.919,1,0.0,1,1,0
1ztbhfxllii1xhq9f1v62x26,1,1,1b,97,5,0,go,GAL,130,A,elianto,1,1,0.9390000000000001,1,0.0,1,1,0
1ztbhfxllii1xhq9f1v62x26,1,1,1b,103,6,0,go,GAL,130,A,elianto,1,1,0.747,1,0.0,1,1,0
1ztbhfxllii1xhq9f1v62x26,1,1,1b,106,7,0,go,GAL,130,A,elianto,1,1,0.7909999999999999,1,0.0,1,1,0
1ztbhfxllii1xhq9f1v62x26,1,1,1b,109,8,0,go,GAL,130,A,elianto,1,1,0.7959999999999999,1,0.0,1,1,0
1ztbhfxllii1xhq9f1v62x26,1,1,1b,113,9,0,go,GAL,130,A,elianto,1,1,0.6990000000000001,1,0.0,1,1,0
1ztbhfxllii1xhq9f1v62x26,1,1,1b,119,10,0,go,GAL,130,A,elianto,1,1,0.89,1,0.0,1,1,0
1ztbhfxllii1xhq9f1v62x26,1,2,1a,161,1,1,go,GW,131,B,elianto,1,0,,0,0.0,0,0,1
1ztbhfxllii1xhq9f1v62x26,1,2,1a,165,2,1,go,GW,131,B,elianto,1,1,0.47600000000000003,1,0.0,1,1,1
1ztbhfxllii1xhq9f1v62x26,1,2,1a,170,3,1,go,GW,131,B,elianto,1,1,0.862,1,0.0,1,1,1
1ztbhfxllii1xhq9f1v62x26,1,2,1a,175,4,1,go,GW,131,B,elianto,1,1,0.705,1,0.0,1,1,1
1ztbhfxllii1xhq9f1v62x26,1,2,1a,179,5,1,go,GW,131,B,elianto,1,1,1.229,1,0.0,1,1,1
1ztbhfxllii1xhq9f1v62x26,1,2,1a,184,6,1,go,GW,131,B,elianto,1,1,0.778,1,0.0,1,1,1
1ztbhfxllii1xhq9f1v62x26,1,2,1a,187,7,1,go,GW,131,B,elianto,1,1,0.825,1,1.0,0,1,1
1ztbhfxllii1xhq9f1v62x26,1,2,1a,191,8,1,go,GW,131,B,elianto,1,1,1.02,1,0.0,1,1,1
1ztbhfxllii1xhq9f1v62x26,1,2,1a,164,1,1,no-go,NGW,132,C,elianto,0,0,,1,1.0,0,1,0
1ztbhfxllii1xhq9f1v62x26,1,2,1a,167,2,1,no-go,NGW,132,C,elianto,0,1,0.706,0,0.0,0,1,0
1ztbhfxllii1xhq9f1v62x26,1,2,1a,172,3,1,no-go,NGW,132,C,elianto,0,0,,1,1.0,0,0,0
1ztbhfxllii1xhq9f1v62x26,1,2,1a,173,4,1,no-go,NGW,132,C,elianto,0,1,0.578,0,1.0,1,1,0
1ztbhfxllii1xhq9f1v62x26,1,2,1a,180,5,1,no-go,NGW,132,C,elianto,0,1,1.158,0,0.0,0,1,0
1ztbhfxllii1xhq9f1v62x26,1,2,1a,182,6,1,no-go,NGW,132,C,elianto,0,0,,1,0.0,1,0,0
1ztbhfxllii1xhq9f1v62x26,1,2,1a,188,7,1,no-go,NGW,132,C,elianto,0,0,,1,0.0,1,0,0
1ztbhfxllii1xhq9f1v62x26,1,2,1a,190,8,1,no-go,NGW,132,C,elianto,0,0,,1,0.0,1,0,0
1ztbhfxllii1xhq9f1v62x26,1,2,1a,194,9,1,no-go,NGW,132,C,elianto,0,0,,1,0.0,1,0,0
1ztbhfxllii1xhq9f1v62x26,1,2,1a,200,10,1,no-go,NGW,132,C,elianto,0,0,,1,0.0,1,0,0
1ztbhfxllii1xhq9f1v62x26,1,2,1a,203,11,1,no-go,NGW,132,C,elianto,0,0,,1,0.0,1,0,0
