subject,session,block,runsheet,trial,exposure,valence,action,robot,stimulus,rune,rune_set,correct,choice,rt,accuracy,sham,outcome,total_keys,congruence
02lqpjp4pevk73p8f7ipewf9,2,1,2b,82,1,1,no-go,NGW,1,A,elianto,0,1,0.835,0,0.0,0,1,0
02lqpjp4pevk73p8f7ipewf9,2,1,2b,86,2,1,no-go,NGW,1,A,elianto,0,0,,1,0.0,1,1,0
02lqpjp4pevk73p8f7ipewf9,2,1,2b,91,3,1,no-go,NGW,1,A,elianto,0,1,1.0659999999999998,0,1.0,1,1,0
02lqpjp4pevk73p8f7ipewf9,2,1,2b,94,4,1,no-go,NGW,1,A,elianto,0,1,0.701,0,0.0,0,1,0
02lqpjp4pevk73p8f7ipewf9,2,1,2b,98,5,1,no-go,NGW,1,A,elianto,0,1,0.7929999999999999,0,0.0,0,1,0
02lqpjp4pevk73p8f7ipewf9,2,1,2b,101,6,1,no-go,NGW,1,A,elianto,0,0,,1,0.0,1,0,0
02lqpjp4pevk73p8f7ipewf9,2,1,2b,107,7,1,no-go,NGW,1,A,elianto,0,1,0.772,0,1.0,1,1,0
02lqpjp4pevk73p8f7ipewf9,2,1,2b,111,8,1,no-go,NGW,1,A,elianto,0,1,1.266,0,0.0,0,1,0
02lqpjp4pevk73p8f7ipewf9,2,1,2b,116,9,1,no-go,NGW,1,A,elianto,0,0,,1,0.0,1,0,0
02lqpjp4pevk73p8f7ipewf9,2,1,2b,120,10,1,no-go,NGW,1,A,elianto,0,0,,1,1.0,0,0,0
02lqpjp4pevk73p8f7ipewf9,2,2,2a,163,1,0,go,GAL,2,B,elianto,1,0,,0,0.0,0,0,0
02lqpjp4pevk73p8f7ipewf9,2,2,2a,165,2,0,go,GAL,2,B,elianto,1,1,0.6759999999999999,1,0.0,1,1,0
02lqpjp4pevk73p8f7ipewf9,2,2,2a,171,3,0,go,GAL,2,B,elianto,1,0,,0,0.0,0,0,0
02lqpjp4pevk73p8f7ipewf9,2,2,2a,176,4,0,go,GAL,2,B,elianto,1,0,,0,0.0,0,1,0
02lqpjp4pevk73p8f7ipewf9,2,2,2a,180,5,0,go,GAL,2,B,elianto,1,1,1.2229999999999999,1,0.0,1,1,0
02lqpjp4pevk73p8f7ipewf9,2,2,2a,181,6,0,go,GAL,2,B,elianto,1,0,,0,1.0,1,1,0
02lqpjp4pevk73p8f7ipewf9,2,2,2a,185,7,0,go,GAL,2,B,elianto,1,1,1.06,1,0.0,1,1,0
02lqpjp4pevk73p8f7ipewf9,2,2,2a,190,8,0,go,GAL,2,B,elianto,1,1,1.054,1,0.0,1,1,0
02lqpjp4pevk73p8f7ipewf9,2,2,2a,193,9,0,go,GAL,2,B,elianto,1,0,,0,0.0,0,1,0
02lqpjp4pevk73p8f7ipewf9,2,2,2a,200,10,0,go,GAL,2,B,elianto,1,0,,0,0.0,0,0,0
02lqpjp4pevk73p8f7ipewf9,2,2,2a,204,11,0,go,GAL,2,B,elianto,1,1,0.97,1,0.0,1,1,0
02lqpjp4pevk73p8f7ipewf9,2,2,2a,205,12,0,go,GAL,2,B,elianto,1,1,0.493,1,0.0,1,1,0
02lqpjp4pevk73p8f7ipewf9,2,2,2a,169,1,1,no-go,NGW,3,C,elianto,0,1,1.125,0,1.0,1,1,0
02lqpjp4pevk73p8f7ipewf9,2,2,2a,173,2,1,no-go,NGW,3,C,elianto,0,1,0.794,0,1.0,1,1,0
02lqpjp4pevk73p8f7ipewf9,2,2,2a,179,3,1,no-go,NGW,3,C,elianto,0,1,1.236,0,0.0,0,1,0
02lqpjp4pevk73p8f7ipewf9,2,2,2a,184,4,1,no-go,NGW,3,C,elianto,0,1,0.747,0,1.0,1,1,0
02lqpjp4pevk73p8f7ipewf9,2,2,2a,187,5,1,no-go,NGW,3,C,elianto,0,0,,1,0.0,1,0,0
02lqpjp4pevk73p8f7ipewf9,2,2,2a,192,6,1,no-go,NGW,3,C,elianto,0,0,,1,0.0,1,0,0
02lqpjp4pevk73p8f7ipewf9,2,2,2a,196,7,1,no-go,NGW,3,C,elianto,0,0,,1,1.0,0,0,0
02lqpjp4pevk73p8f7ipewf9,2,2,2a,197,8,1,no-go,NGW,3,C,elianto,0,1,1.047,0,0.0,0,1,0
02lqpjp4pevk73p8f7ipewf9,2,1,2b,3,1,0,go,GAL,4,D,elianto,1,1,0.512,1,0.0,1,1,0
02lqpjp4pevk73p8f7ipewf9,2,1,2b,7,2,0,go,GAL,4,D,elianto,1,1,0.992,1,0.0,1,1,0
02lqpjp4pevk73p8f7ipewf9,2,1,2b,10,3,0,go,GAL,4,D,elianto,1,1,0.8370000000000001,1,0.0,1,1,0
02lqpjp4pevk73p8f7ipewf9,2,1,2b,16,4,0,go,GAL,4,D,elianto,1,1,0.777,1,0.0,1,1,0
02lqpjp4pevk73p8f7ipewf9,2,1,2b,17,5,0,go,GAL,4,D,elianto,1,1,1.235,1,0.0,1,1,0
02lqpjp4pevk73p8f7ipewf9,2,1,2b,24,6,0,go,GAL,4,D,elianto,1,1,0.821,1,0.0,1,1,0
02lqpjp4pevk73p8f7ipewf9,2,1,2b,27,7,0,go,GAL,4,D,elianto,1,1,0.485,1,0.0,1,1,0
02lqpjp4pevk73p8f7ipewf9,2,1,2b,31,8,0,go,GAL,4,D,elianto,1,1,0.527,1,0.0,1,1,0
02lqpjp4pevk73p8f7ipewf9,2,1,2b,35,1,0,no-go,NGAL,5,E,elianto,0,1,1.187,0,0.0,0,1,1
02lqpjp4pevk73p8f7ipewf9,2,1,2b,37,2,0,no-go,NGAL,5,E,elianto,0,1,0.9159999999999999,0,0.0,0,1,1
02lqpjp4pevk73p8f7ipewf9,2,1,2b,41,3,0,no-go,NGAL,5,E,elianto,0,0,,1,0.0,1,0,1
02lqpjp4pevk73p8f7ipewf9,2,1,2b,48,4,0,no-go,NGAL,5,E,elianto,0,0,,1,0.0,1,0,1
02lqpjp4pevk73p8f7ipewf9,2,1,2b,50,5,0,no-go,NGAL,5,E,elianto,0,0,,1,0.0,1,0,1
02lqpjp4pevk73p8f7ipewf9,2,1,2b,56,6,0,no-go,NGAL,5,E,elianto,0,1,1.0659999999999998,0,1.0,1,1,1
02lqpjp4pevk73p8f7ipewf9,2,1,2b,57,7,0,no-go,NGAL,5,E,elianto,0,0,,1,1.0,0,0,1
02lqpjp4pevk73p8f7ipewf9,2,1,2b,64,8,0,no-go,NGAL,5,E,elianto,0,0,,1,0.0,1,0,1
02lqpjp4pevk73p8f7ipewf9,2,1,2b,68,9,0,no-go,NGAL,5,E,elianto,0,0,,1,0.0,1,0,1
02lqpjp4pevk73p8f7ipewf9,2,1,2b,69,10,0,no-go,NGAL,5,E,elianto,0,0,,1,0.0,1,0,1
02lqpjp4pevk73p8f7ipewf9,2,2,2a,122,1,0,no-go,NGAL,6,F,elianto,0,1,0.44,0,0.0,0,1,1
02lqpjp4pevk73p8f7ipewf9,2,2,2a,126,2,0,no-go,NGAL,6,F,elianto,0,0,,1,0.0,1,0,1
02lqpjp4pevk73p8f7ipewf9,2,2,2a,132,3,0,no-go,NGAL,6,F,elianto,0,0,,1,0.0,1,0,1
02lqpjp4pevk73p8f7ipewf9,2,2,2a,134,4,0,no-go,NGAL,6,F,elianto,0,1,1.264,0,0.0,0,1,1
02lqpjp4pevk73p8f7ipewf9,2,2,2a,138,5,0,no-go,NGAL,6,F,elianto,0,0,,1,0.0,1,0,1
02lqpjp4pevk73p8f7ipewf9,2,2,2a,144,6,0,no-go,NGAL,6,F,elianto,0,0,,1,0.0,1,0,1
02lqpjp4pevk73p8f7ipewf9,2,2,2a,148,7,0,no-go,NGAL,6,F,elianto,0,1,1.048,0,0.0,0,1,1
02lqpjp4pevk73p8f7ipewf9,2,2,2a,149,8,0,no-go,NGAL,6,F,elianto,0,0,,1,0.0,1,0,1
02lqpjp4pevk73p8f7ipewf9,2,1,2b,74,1,1,go,GW,7,G,elianto,1,1,0.838,1,0.0,1,1,1
02lqpjp4pevk73p8f7ipewf9,2,1,2b,78,2,1,go,GW,7,G,elianto,1,0,,0,0.0,0,0,1
02lqpjp4pevk73p8f7ipewf9,2,1,2b,81,3,1,go,GW,7,G,elianto,1,1,0.862,1,0.0,1,1,1
02lqpjp4pevk73p8f7ipewf9,2,1,2b,87,4,1,go,GW,7,G,elianto,1,1,0.792,1,0.0,1,1,1
02lqpjp4pevk73p8f7ipewf9,2,1,2b,89,5,1,go,GW,7,G,elianto,1,0,,0,0.0,0,0,1
02lqpjp4pevk73p8f7ipewf9,2,1,2b,96,6,1,go,GW,7,G,elianto,1,1,1.072,1,1.0,0,1,1
02lqpjp4pevk73p8f7ipewf9,2,1,2b,100,7,1,go,GW,7,G,elianto,1,1,1.038,1,1.0,0,1,1
02lqpjp4pevk73p8f7ipewf9,2,1,2b,102,8,1,go,GW,7,G,elianto,1,0,,0,0.0,0,0,1
02lqpjp4pevk73p8f7ipewf9,2,1,2b,105,9,1,go,GW,7,G,elianto,1,1,1.055,1,0.0,1,1,1
02lqpjp4pevk73p8f7ipewf9,2,1,2b,110,10,1,go,GW,7,G,elianto,1,1,0.6779999999999999,1,0.0,1,1,1
02lqpjp4pevk73p8f7ipewf9,2,1,2b,114,11,1,go,GW,7,G,elianto,1,0,,0,0.0,0,0,1
02lqpjp4pevk73p8f7ipewf9,2,1,2b,119,12,1,go,GW,7,G,elianto,1,1,1.196,1,0.0,1,1,1
02lqpjp4pevk73p8f7ipewf9,2,2,2a,202,1,1,go,GW,8,H,elianto,1,0,,0,0.0,0,1,1
02lqpjp4pevk73p8f7ipewf9,2,2,2a,207,2,1,go,GW,8,H,elianto,1,0,,0,0.0,0,0,1
02lqpjp4pevk73p8f7ipewf9,2,2,2a,209,3,1,go,GW,8,H,elianto,1,1,1.042,1,0.0,1,1,1
02lqpjp4pevk73p8f7ipewf9,2,2,2a,215,4,1,go,GW,8,H,elianto,1,1,0.8740000000000001,1,0.0,1,1,1
02lqpjp4pevk73p8f7ipewf9,2,2,2a,219,5,1,go,GW,8,H,elianto,1,1,0.818,1,1.0,0,1,1
02lqpjp4pevk73p8f7ipewf9,2,2,2a,224,6,1,go,GW,8,H,elianto,1,0,,0,0.0,0,0,1
02lqpjp4pevk73p8f7ipewf9,2,2,2a,227,7,1,go,GW,8,H,elianto,1,1,0.74,1,0.0,1,1,1
02lqpjp4pevk73p8f7ipewf9,2,2,2a,231,8,1,go,GW,8,H,elianto,1,1,0.732,1,0.0,1,1,1
02lqpjp4pevk73p8f7ipewf9,2,2,2a,235,9,1,go,GW,8,H,elianto,1,1,0.35700000000000004,1,0.0,1,1,1
02lqpjp4pevk73p8f7ipewf9,2,2,2a,238,10,1,go,GW,8,H,elianto,1,1,0.488,1,0.0,1,1,1
02lqpjp4pevk73p8f7ipewf9,2,1,2b,2,1,0,go,GAL,9,J,elianto,1,0,,0,0.0,0,0,0
02lqpjp4pevk73p8f7ipewf9,2,1,2b,6,2,0,go,GAL,9,J,elianto,1,1,0.308,1,1.0,0,1,0
02lqpjp4pevk73p8f7ipewf9,2,1,2b,12,3,0,go,GAL,9,J,elianto,1,1,1.033,1,0.0,1,1,0
02lqpjp4pevk73p8f7ipewf9,2,1,2b,13,4,0,go,GAL,9,J,elianto,1,1,1.016,1,0.0,1,1,0
02lqpjp4pevk73p8f7ipewf9,2,1,2b,20,5,0,go,GAL,9,J,elianto,1,0,,0,1.0,1,0,0
02lqpjp4pevk73p8f7ipewf9,2,1,2b,21,6,0,go,GAL,9,J,elianto,1,0,,0,0.0,0,0,0
02lqpjp4pevk73p8f7ipewf9,2,1,2b,28,7,0,go,GAL,9,J,elianto,1,0,,0,0.0,0,0,0
02lqpjp4pevk73p8f7ipewf9,2,1,2b,29,8,0,go,GAL,9,J,elianto,1,1,0.622,1,0.0,1,1,0
02lqpjp4pevk73p8f7ipewf9,2,1,2b,34,9,0,go,GAL,9,J,elianto,1,0,,0,0.0,0,0,0
02lqpjp4pevk73p8f7ipewf9,2,1,2b,38,10,0,go,GAL,9,J,elianto,1,1,0.6559999999999999,1,0.0,1,1,0
02lqpjp4pevk73p8f7ipewf9,2,1,2b,43,11,0,go,GAL,9,J,elianto,1,1,1.033,1,0.0,1,1,0
02lqpjp4pevk73p8f7ipewf9,2,1,2b,47,12,0,go,GAL,9,J,elianto,1,0,,0,0.0,0,0,0
02lqpjp4pevk73p8f7ipewf9,2,1,2b,1,1,1,go,GW,10,K,elianto,1,1,0.853,1,0.0,1,1,1
02lqpjp4pevk73p8f7ipewf9,2,1,2b,5,2,1,go,GW,10,K,elianto,1,1,0.715,1,0.0,1,1,1
02lqpjp4pevk73p8f7ipewf9,2,1,2b,9,3,1,go,GW,10,K,elianto,1,1,0.583,1,0.0,1,1,1
02lqpjp4pevk73p8f7ipewf9,2,1,2b,15,4,1,go,GW,10,K,elianto,1,1,0.95,1,0.0,1,1,1
02lqpjp4pevk73p8f7ipewf9,2,1,2b,19,5,1,go,GW,10,K,elianto,1,1,0.647,1,0.0,1,1,1
02lqpjp4pevk73p8f7ipewf9,2,1,2b,22,6,1,go,GW,10,K,elianto,1,1,0.525,1,0.0,1,1,1
02lqpjp4pevk73p8f7ipewf9,2,1,2b,25,7,1,go,GW,10,K,elianto,1,1,0.998,1,0.0,1,1,1
02lqpjp4pevk73p8f7ipewf9,2,1,2b,30,8,1,go,GW,10,K,elianto,1,1,0.556,1,0.0,1,1,1
02lqpjp4pevk73p8f7ipewf9,2,1,2b,33,9,1,go,GW,10,K,elianto,1,1,0.456,1,0.0,1,1,1
02lqpjp4pevk73p8f7ipewf9,2,1,2b,40,10,1,go,GW,10,K,elianto,1,1,0.556,1,0.0,1,1,1
02lqpjp4pevk73p8f7ipewf9,2,1,2b,83,1,0,go,GAL,11,L,elianto,1,0,,0,0.0,0,0,0
02lqpjp4pevk73p8f7ipewf9,2,1,2b,85,2,0,go,GAL,11,L,elianto,1,1,1.139,1,0.0,1,1,0
02lqpjp4pevk73p8f7ipewf9,2,1,2b,90,3,0,go,GAL,11,L,elianto,1,1,1.013,1,0.0,1,1,0
02lqpjp4pevk73p8f7ipewf9,2,1,2b,95,4,0,go,GAL,11,L,elianto,1,0,,0,1.0,1,0,0
02lqpjp4pevk73p8f7ipewf9,2,1,2b,97,5,0,go,GAL,11,L,elianto,1,0,,0,0.0,0,0,0
02lqpjp4pevk73p8f7ipewf9,2,1,2b,103,6,0,go,GAL,11,L,elianto,1,0,,0,0.0,0,0,0
02lqpjp4pevk73p8f7ipewf9,2,1,2b,108,7,0,go,GAL,11,L,elianto,1,1,0.846,1,0.0,1,1,0
02lqpjp4pevk73p8f7ipewf9,2,1,2b,112,8,0,go,GAL,11,L,elianto,1,1,1.097,1,0.0,1,1,0
02lqpjp4pevk73p8f7ipewf9,2,1,2b,113,9,0,go,GAL,11,L,elianto,1,1,0.755,1,0.0,1,1,0
02lqpjp4pevk73p8f7ipewf9,2,1,2b,118,10,0,go,GAL,11,L,elianto,1,0,,0,0.0,0,0,0
02lqpjp4pevk73p8f7ipewf9,2,2,2a,211,1,1,go,GW,12,M,elianto,1,1,0.88,1,0.0,1,1,1
02lqpjp4pevk73p8f7ipewf9,2,2,2a,214,2,1,go,GW,12,M,elianto,1,1,0.669,1,0.0,1,1,1
02lqpjp4pevk73p8f7ipewf9,2,2,2a,218,3,1,go,GW,12,M,elianto,1,1,1.042,1,0.0,1,1,1
02lqpjp4pevk73p8f7ipewf9,2,2,2a,221,4,1,go,GW,12,M,elianto,1,1,0.591,1,0.0,1,1,1
02lqpjp4pevk73p8f7ipewf9,2,2,2a,226,5,1,go,GW,12,M,elianto,1,1,0.49700000000000005,1,0.0,1,1,1
02lqpjp4pevk73p8f7ipewf9,2,2,2a,229,6,1,go,GW,12,M,elianto,1,1,0.6709999999999999,1,0.0,1,1,1
02lqpjp4pevk73p8f7ipewf9,2,2,2a,236,7,1,go,GW,12,M,elianto,1,1,0.365,1,0.0,1,1,1
02lqpjp4pevk73p8f7ipewf9,2,2,2a,239,8,1,go,GW,12,M,elianto,1,1,0.355,1,1.0,0,1,1
02lqpjp4pevk73p8f7ipewf9,2,2,2a,121,1,0,go,GAL,13,N,elianto,1,0,,0,0.0,0,0,0
02lqpjp4pevk73p8f7ipewf9,2,2,2a,127,2,0,go,GAL,13,N,elianto,1,1,1.127,1,0.0,1,1,0
02lqpjp4pevk73p8f7ipewf9,2,2,2a,129,3,0,go,GAL,13,N,elianto,1,0,,0,0.0,0,0,0
02lqpjp4pevk73p8f7ipewf9,2,2,2a,136,4,0,go,GAL,13,N,elianto,1,0,,0,0.0,0,0,0
02lqpjp4pevk73p8f7ipewf9,2,2,2a,137,5,0,go,GAL,13,N,elianto,1,1,0.45399999999999996,1,0.0,1,1,0
02lqpjp4pevk73p8f7ipewf9,2,2,2a,143,6,0,go,GAL,13,N,elianto,1,1,1.0759999999999998,1,0.0,1,1,0
02lqpjp4pevk73p8f7ipewf9,2,2,2a,146,7,0,go,GAL,13,N,elianto,1,1,1.165,1,0.0,1,1,0
02lqpjp4pevk73p8f7ipewf9,2,2,2a,150,8,0,go,GAL,13,N,elianto,1,1,1.172,1,0.0,1,1,0
02lqpjp4pevk73p8f7ipewf9,2,2,2a,156,9,0,go,GAL,13,N,elianto,1,1,0.8140000000000001,1,1.0,0,1,0
02lqpjp4pevk73p8f7ipewf9,2,2,2a,160,10,0,go,GAL,13,N,elianto,1,0,,0,1.0,1,0,0
02lqpjp4pevk73p8f7ipewf9,2,1,2b,52,1,1,go,GW,15,P,elianto,1,0,,0,0.0,0,0,1
02lqpjp4pevk73p8f7ipewf9,2,1,2b,54,2,1,go,GW,15,P,elianto,1,1,0.7879999999999999,1,0.0,1,1,1
02lqpjp4pevk73p8f7ipewf9,2,1,2b,58,3,1,go,GW,15,P,elianto,1,1,0.627,1,0.0,1,1,1
02lqpjp4pevk73p8f7ipewf9,2,1,2b,62,4,1,go,GW,15,P,elianto,1,0,,0,0.0,0,0,1
02lqpjp4pevk73p8f7ipewf9,2,1,2b,65,5,1,go,GW,15,P,elianto,1,1,0.55,1,1.0,0,1,1
02lqpjp4pevk73p8f7ipewf9,2,1,2b,70,6,1,go,GW,15,P,elianto,1,1,0.46,1,1.0,0,1,1
02lqpjp4pevk73p8f7ipewf9,2,1,2b,75,7,1,go,GW,15,P,elianto,1,0,,0,0.0,0,0,1
02lqpjp4pevk73p8f7ipewf9,2,1,2b,77,8,1,go,GW,15,P,elianto,1,1,0.723,1,1.0,0,1,1
02lqpjp4pevk73p8f7ipewf9,2,2,2a,124,1,1,go,GW,16,Q,elianto,1,0,,0,0.0,0,0,1
02lqpjp4pevk73p8f7ipewf9,2,2,2a,125,2,1,go,GW,16,Q,elianto,1,1,0.619,1,0.0,1,1,1
02lqpjp4pevk73p8f7ipewf9,2,2,2a,131,3,1,go,GW,16,Q,elianto,1,0,,0,0.0,0,1,1
02lqpjp4pevk73p8f7ipewf9,2,2,2a,135,4,1,go,GW,16,Q,elianto,1,0,,0,0.0,0,0,1
02lqpjp4pevk73p8f7ipewf9,2,2,2a,140,5,1,go,GW,16,Q,elianto,1,1,0.847,1,0.0,1,1,1
02lqpjp4pevk73p8f7ipewf9,2,2,2a,141,6,1,go,GW,16,Q,elianto,1,1,0.983,1,1.0,0,1,1
02lqpjp4pevk73p8f7ipewf9,2,2,2a,145,7,1,go,GW,16,Q,elianto,1,1,0.941,1,0.0,1,1,1
02lqpjp4pevk73p8f7ipewf9,2,2,2a,152,8,1,go,GW,16,Q,elianto,1,1,1.294,1,0.0,1,1,1
02lqpjp4pevk73p8f7ipewf9,2,2,2a,153,9,1,go,GW,16,Q,elianto,1,1,0.51,1,0.0,1,1,1
02lqpjp4pevk73p8f7ipewf9,2,2,2a,157,10,1,go,GW,16,Q,elianto,1,0,,0,0.0,0,0,1
02lqpjp4pevk73p8f7ipewf9,2,2,2a,164,11,1,go,GW,16,Q,elianto,1,0,,0,0.0,0,0,1
02lqpjp4pevk73p8f7ipewf9,2,2,2a,167,12,1,go,GW,16,Q,elianto,1,0,,0,0.0,0,0,1
02lqpjp4pevk73p8f7ipewf9,2,2,2a,210,1,0,go,GAL,17,R,elianto,1,0,,0,0.0,0,0,0
02lqpjp4pevk73p8f7ipewf9,2,2,2a,213,2,0,go,GAL,17,R,elianto,1,0,,0,0.0,0,0,0
02lqpjp4pevk73p8f7ipewf9,2,2,2a,220,3,0,go,GAL,17,R,elianto,1,0,,0,0.0,0,0,0
02lqpjp4pevk73p8f7ipewf9,2,2,2a,223,4,0,go,GAL,17,R,elianto,1,1,0.5770000000000001,1,0.0,1,1,0
02lqpjp4pevk73p8f7ipewf9,2,2,2a,228,5,0,go,GAL,17,R,elianto,1,1,1.105,1,0.0,1,1,0
02lqpjp4pevk73p8f7ipewf9,2,2,2a,230,6,0,go,GAL,17,R,elianto,1,1,0.711,1,0.0,1,1,0
02lqpjp4pevk73p8f7ipewf9,2,2,2a,233,7,0,go,GAL,17,R,elianto,1,1,1.0070000000000001,1,0.0,1,1,0
02lqpjp4pevk73p8f7ipewf9,2,2,2a,237,8,0,go,GAL,17,R,elianto,1,1,1.127,1,1.0,0,1,0
02lqpjp4pevk73p8f7ipewf9,2,1,2b,51,1,0,no-go,NGAL,18,S,elianto,0,1,1.271,0,1.0,1,1,1
02lqpjp4pevk73p8f7ipewf9,2,1,2b,55,2,0,no-go,NGAL,18,S,elianto,0,1,0.862,0,0.0,0,1,1
02lqpjp4pevk73p8f7ipewf9,2,1,2b,60,3,0,no-go,NGAL,18,S,elianto,0,1,0.757,0,0.0,0,1,1
02lqpjp4pevk73p8f7ipewf9,2,1,2b,63,4,0,no-go,NGAL,18,S,elianto,0,1,0.701,0,0.0,0,1,1
02lqpjp4pevk73p8f7ipewf9,2,1,2b,67,5,0,no-go,NGAL,18,S,elianto,0,0,,1,0.0,1,0,1
02lqpjp4pevk73p8f7ipewf9,2,1,2b,72,6,0,no-go,NGAL,18,S,elianto,0,0,,1,0.0,1,0,1
02lqpjp4pevk73p8f7ipewf9,2,1,2b,76,7,0,no-go,NGAL,18,S,elianto,0,0,,1,0.0,1,0,1
02lqpjp4pevk73p8f7ipewf9,2,1,2b,80,8,0,no-go,NGAL,18,S,elianto,0,0,,1,0.0,1,0,1
02lqpjp4pevk73p8f7ipewf9,2,2,2a,154,1,0,no-go,NGAL,19,T,elianto,0,1,0.932,0,0.0,0,1,1
02lqpjp4pevk73p8f7ipewf9,2,2,2a,159,2,0,no-go,NGAL,19,T,elianto,0,1,1.128,0,0.0,0,1,1
02lqpjp4pevk73p8f7ipewf9,2,2,2a,161,3,0,no-go,NGAL,19,T,elianto,0,0,,1,0.0,1,0,1
02lqpjp4pevk73p8f7ipewf9,2,2,2a,168,4,0,no-go,NGAL,19,T,elianto,0,0,,1,0.0,1,1,1
02lqpjp4pevk73p8f7ipewf9,2,2,2a,172,5,0,no-go,NGAL,19,T,elianto,0,0,,1,0.0,1,1,1
02lqpjp4pevk73p8f7ipewf9,2,2,2a,175,6,0,no-go,NGAL,19,T,elianto,0,1,1.162,0,0.0,0,1,1
02lqpjp4pevk73p8f7ipewf9,2,2,2a,178,7,0,no-go,NGAL,19,T,elianto,0,1,1.1440000000000001,0,1.0,1,1,1
02lqpjp4pevk73p8f7ipewf9,2,2,2a,182,8,0,no-go,NGAL,19,T,elianto,0,1,1.092,0,0.0,0,1,1
02lqpjp4pevk73p8f7ipewf9,2,2,2a,188,9,0,no-go,NGAL,19,T,elianto,0,1,0.993,0,0.0,0,1,1
02lqpjp4pevk73p8f7ipewf9,2,2,2a,191,10,0,no-go,NGAL,19,T,elianto,0,0,,1,0.0,1,0,1
02lqpjp4pevk73p8f7ipewf9,2,2,2a,194,11,0,no-go,NGAL,19,T,elianto,0,0,,1,0.0,1,0,1
02lqpjp4pevk73p8f7ipewf9,2,2,2a,198,12,0,no-go,NGAL,19,T,elianto,0,0,,1,0.0,1,1,1
02lqpjp4pevk73p8f7ipewf9,2,1,2b,92,1,1,no-go,NGW,20,U,elianto,0,0,,1,0.0,1,0,0
02lqpjp4pevk73p8f7ipewf9,2,1,2b,93,2,1,no-go,NGW,20,U,elianto,0,0,,1,0.0,1,0,0
02lqpjp4pevk73p8f7ipewf9,2,1,2b,99,3,1,no-go,NGW,20,U,elianto,0,0,,1,0.0,1,0,0
02lqpjp4pevk73p8f7ipewf9,2,1,2b,104,4,1,no-go,NGW,20,U,elianto,0,0,,1,0.0,1,0,0
02lqpjp4pevk73p8f7ipewf9,2,1,2b,106,5,1,no-go,NGW,20,U,elianto,0,1,0.897,0,1.0,1,1,0
02lqpjp4pevk73p8f7ipewf9,2,1,2b,109,6,1,no-go,NGW,20,U,elianto,0,1,1.091,0,0.0,0,1,0
02lqpjp4pevk73p8f7ipewf9,2,1,2b,115,7,1,no-go,NGW,20,U,elianto,0,0,,1,0.0,1,0,0
02lqpjp4pevk73p8f7ipewf9,2,1,2b,117,8,1,no-go,NGW,20,U,elianto,0,0,,1,1.0,0,0,0
02lqpjp4pevk73p8f7ipewf9,2,1,2b,4,1,0,no-go,NGAL,21,V,elianto,0,1,0.85,0,1.0,1,1,1
02lqpjp4pevk73p8f7ipewf9,2,1,2b,8,2,0,no-go,NGAL,21,V,elianto,0,1,1.145,0,0.0,0,1,1
02lqpjp4pevk73p8f7ipewf9,2,1,2b,11,3,0,no-go,NGAL,21,V,elianto,0,0,,1,0.0,1,0,1
02lqpjp4pevk73p8f7ipewf9,2,1,2b,14,4,0,no-go,NGAL,21,V,elianto,0,0,,1,0.0,1,0,1
02lqpjp4pevk73p8f7ipewf9,2,1,2b,18,5,0,no-go,NGAL,21,V,elianto,0,0,,1,0.0,1,0,1
02lqpjp4pevk73p8f7ipewf9,2,1,2b,23,6,0,no-go,NGAL,21,V,elianto,0,0,,1,0.0,1,0,1
02lqpjp4pevk73p8f7ipewf9,2,1,2b,26,7,0,no-go,NGAL,21,V,elianto,0,0,,1,0.0,1,0,1
02lqpjp4pevk73p8f7ipewf9,2,1,2b,32,8,0,no-go,NGAL,21,V,elianto,0,0,,1,0.0,1,0,1
02lqpjp4pevk73p8f7ipewf9,2,1,2b,36,9,0,no-go,NGAL,21,V,elianto,0,0,,1,1.0,0,1,1
02lqpjp4pevk73p8f7ipewf9,2,1,2b,39,10,0,no-go,NGAL,21,V,elianto,0,0,,1,0.0,1,0,1
02lqpjp4pevk73p8f7ipewf9,2,1,2b,44,11,0,no-go,NGAL,21,V,elianto,0,1,0.94,0,0.0,0,1,1
02lqpjp4pevk73p8f7ipewf9,2,1,2b,45,12,0,no-go,NGAL,21,V,elianto,0,0,,1,0.0,1,0,1
02lqpjp4pevk73p8f7ipewf9,2,1,2b,42,1,1,no-go,NGW,22,W,elianto,0,0,,1,1.0,0,0,0
02lqpjp4pevk73p8f7ipewf9,2,1,2b,46,2,1,no-go,NGW,22,W,elianto,0,1,0.951,0,0.0,0,1,0
02lqpjp4pevk73p8f7ipewf9,2,1,2b,49,3,1,no-go,NGW,22,W,elianto,0,1,0.627,0,1.0,1,1,0
02lqpjp4pevk73p8f7ipewf9,2,1,2b,53,4,1,no-go,NGW,22,W,elianto,0,1,0.513,0,0.0,0,1,0
02lqpjp4pevk73p8f7ipewf9,2,1,2b,59,5,1,no-go,NGW,22,W,elianto,0,1,0.42700000000000005,0,0.0,0,1,0
02lqpjp4pevk73p8f7ipewf9,2,1,2b,61,6,1,no-go,NGW,22,W,elianto,0,0,,1,0.0,1,0,0
02lqpjp4pevk73p8f7ipewf9,2,1,2b,66,7,1,no-go,NGW,22,W,elianto,0,1,0.449,0,0.0,0,1,0
02lqpjp4pevk73p8f7ipewf9,2,1,2b,71,8,1,no-go,NGW,22,W,elianto,0,1,0.6809999999999999,0,0.0,0,1,0
02lqpjp4pevk73p8f7ipewf9,2,1,2b,73,9,1,no-go,NGW,22,W,elianto,0,0,,1,0.0,1,0,0
02lqpjp4pevk73p8f7ipewf9,2,1,2b,79,10,1,no-go,NGW,22,W,elianto,0,0,,1,0.0,1,0,0
02lqpjp4pevk73p8f7ipewf9,2,1,2b,84,11,1,no-go,NGW,22,W,elianto,0,0,,1,1.0,0,0,0
02lqpjp4pevk73p8f7ipewf9,2,1,2b,88,12,1,no-go,NGW,22,W,elianto,0,1,0.74,0,0.0,0,1,0
02lqpjp4pevk73p8f7ipewf9,2,2,2a,123,1,1,no-go,NGW,23,X,elianto,0,1,0.652,0,0.0,0,1,0
02lqpjp4pevk73p8f7ipewf9,2,2,2a,128,2,1,no-go,NGW,23,X,elianto,0,0,,1,0.0,1,0,0
02lqpjp4pevk73p8f7ipewf9,2,2,2a,130,3,1,no-go,NGW,23,X,elianto,0,0,,1,0.0,1,0,0
02lqpjp4pevk73p8f7ipewf9,2,2,2a,133,4,1,no-go,NGW,23,X,elianto,0,0,,1,0.0,1,0,0
02lqpjp4pevk73p8f7ipewf9,2,2,2a,139,5,1,no-go,NGW,23,X,elianto,0,0,,1,1.0,0,0,0
02lqpjp4pevk73p8f7ipewf9,2,2,2a,142,6,1,no-go,NGW,23,X,elianto,0,1,1.0759999999999998,0,0.0,0,1,0
02lqpjp4pevk73p8f7ipewf9,2,2,2a,147,7,1,no-go,NGW,23,X,elianto,0,0,,1,0.0,1,0,0
02lqpjp4pevk73p8f7ipewf9,2,2,2a,151,8,1,no-go,NGW,23,X,elianto,0,1,1.0490000000000002,0,0.0,0,1,0
02lqpjp4pevk73p8f7ipewf9,2,2,2a,155,9,1,no-go,NGW,23,X,elianto,0,0,,1,0.0,1,0,0
02lqpjp4pevk73p8f7ipewf9,2,2,2a,158,10,1,no-go,NGW,23,X,elianto,0,0,,1,0.0,1,0,0
02lqpjp4pevk73p8f7ipewf9,2,2,2a,162,11,1,no-go,NGW,23,X,elianto,0,1,1.18,0,0.0,0,1,0
02lqpjp4pevk73p8f7ipewf9,2,2,2a,166,12,1,no-go,NGW,23,X,elianto,0,0,,1,0.0,1,0,0
02lqpjp4pevk73p8f7ipewf9,2,2,2a,203,1,0,no-go,NGAL,24,Y,elianto,0,0,,1,1.0,0,0,1
02lqpjp4pevk73p8f7ipewf9,2,2,2a,208,2,0,no-go,NGAL,24,Y,elianto,0,1,0.618,0,0.0,0,1,1
02lqpjp4pevk73p8f7ipewf9,2,2,2a,212,3,0,no-go,NGAL,24,Y,elianto,0,1,0.866,0,0.0,0,1,1
02lqpjp4pevk73p8f7ipewf9,2,2,2a,216,4,0,no-go,NGAL,24,Y,elianto,0,0,,1,0.0,1,0,1
02lqpjp4pevk73p8f7ipewf9,2,2,2a,217,5,0,no-go,NGAL,24,Y,elianto,0,0,,1,0.0,1,0,1
02lqpjp4pevk73p8f7ipewf9,2,2,2a,222,6,0,no-go,NGAL,24,Y,elianto,0,0,,1,0.0,1,0,1
02lqpjp4pevk73p8f7ipewf9,2,2,2a,225,7,0,no-go,NGAL,24,Y,elianto,0,0,,1,0.0,1,0,1
02lqpjp4pevk73p8f7ipewf9,2,2,2a,232,8,0,no-go,NGAL,24,Y,elianto,0,0,,1,0.0,1,0,1
02lqpjp4pevk73p8f7ipewf9,2,2,2a,234,9,0,no-go,NGAL,24,Y,elianto,0,0,,1,0.0,1,0,1
02lqpjp4pevk73p8f7ipewf9,2,2,2a,240,10,0,no-go,NGAL,24,Y,elianto,0,0,,1,0.0,1,0,1
02lqpjp4pevk73p8f7ipewf9,2,2,2a,170,1,1,no-go,NGW,25,Z,elianto,0,0,,1,0.0,1,0,0
02lqpjp4pevk73p8f7ipewf9,2,2,2a,174,2,1,no-go,NGW,25,Z,elianto,0,0,,1,0.0,1,0,0
02lqpjp4pevk73p8f7ipewf9,2,2,2a,177,3,1,no-go,NGW,25,Z,elianto,0,0,,1,0.0,1,0,0
02lqpjp4pevk73p8f7ipewf9,2,2,2a,183,4,1,no-go,NGW,25,Z,elianto,0,1,0.9009999999999999,0,1.0,1,1,0
02lqpjp4pevk73p8f7ipewf9,2,2,2a,186,5,1,no-go,NGW,25,Z,elianto,0,1,1.093,0,0.0,0,1,0
02lqpjp4pevk73p8f7ipewf9,2,2,2a,189,6,1,no-go,NGW,25,Z,elianto,0,1,1.274,0,0.0,0,1,0
02lqpjp4pevk73p8f7ipewf9,2,2,2a,195,7,1,no-go,NGW,25,Z,elianto,0,1,1.069,0,0.0,0,1,0
02lqpjp4pevk73p8f7ipewf9,2,2,2a,199,8,1,no-go,NGW,25,Z,elianto,0,0,,1,1.0,0,0,0
02lqpjp4pevk73p8f7ipewf9,2,2,2a,201,9,1,no-go,NGW,25,Z,elianto,0,1,0.888,0,0.0,0,1,0
02lqpjp4pevk73p8f7ipewf9,2,2,2a,206,10,1,no-go,NGW,25,Z,elianto,0,1,1.138,0,0.0,0,1,0
09byk3dg92is9b06rwaybmoh,2,1,2a,84,1,0,no-go,NGAL,26,A,bacs2,0,1,1.088,0,0.0,0,1,1
09byk3dg92is9b06rwaybmoh,2,1,2a,85,2,0,no-go,NGAL,26,A,bacs2,0,0,,1,0.0,1,0,1
09byk3dg92is9b06rwaybmoh,2,1,2a,92,3,0,no-go,NGAL,26,A,bacs2,0,0,,1,0.0,1,0,1
09byk3dg92is9b06rwaybmoh,2,1,2a,96,4,0,no-go,NGAL,26,A,bacs2,0,0,,1,0.0,1,0,1
09byk3dg92is9b06rwaybmoh,2,1,2a,99,5,0,no-go,NGAL,26,A,bacs2,0,1,0.965,0,0.0,0,1,1
09byk3dg92is9b06rwaybmoh,2,1,2a,102,6,0,no-go,NGAL,26,A,bacs2,0,0,,1,0.0,1,0,1
09byk3dg92is9b06rwaybmoh,2,1,2a,106,7,0,no-go,NGAL,26,A,bacs2,0,0,,1,0.0,1,0,1
09byk3dg92is9b06rwaybmoh,2,1,2a,110,8,0,no-go,NGAL,26,A,bacs2,0,0,,1,0.0,1,0,1
09byk3dg92is9b06rwaybmoh,2,1,2a,113,9,0,no-go,NGAL,26,A,bacs2,0,1,0.634,0,1.0,1,1,1
09byk3dg92is9b06rwaybmoh,2,1,2a,117,10,0,no-go,NGAL,26,A,bacs2,0,0,,1,0.0,1,0,1
09byk3dg92is9b06rwaybmoh,2,1,2a,2,1,0,go,GAL,27,B,bacs2,1,0,,0,0.0,0,0,0
09byk3dg92is9b06rwaybmoh,2,1,2a,7,2,0,go,GAL,27,B,bacs2,1,1,0.6829999999999999,1,0.0,1,1,0
09byk3dg92is9b06rwaybmoh,2,1,2a,11,3,0,go,GAL,27,B,bacs2,1,1,0.665,1,0.0,1,1,0
09byk3dg92is9b06rwaybmoh,2,1,2a,14,4,0,go,GAL,27,B,bacs2,1,1,0.5539999999999999,1,0.0,1,1,0
09byk3dg92is9b06rwaybmoh,2,1,2a,18,5,0,go,GAL,27,B,bacs2,1,1,0.726,1,0.0,1,1,0
09byk3dg92is9b06rwaybmoh,2,1,2a,23,6,0,go,GAL,27,B,bacs2,1,1,0.746,1,1.0,0,1,0
09byk3dg92is9b06rwaybmoh,2,1,2a,28,7,0,go,GAL,27,B,bacs2,1,1,0.825,1,0.0,1,1,0
09byk3dg92is9b06rwaybmoh,2,1,2a,30,8,0,go,GAL,27,B,bacs2,1,1,0.922,1,0.0,1,1,0
09byk3dg92is9b06rwaybmoh,2,1,2a,34,9,0,go,GAL,27,B,bacs2,1,1,0.607,1,0.0,1,1,0
09byk3dg92is9b06rwaybmoh,2,1,2a,40,10,0,go,GAL,27,B,bacs2,1,0,,0,0.0,0,0,0
09byk3dg92is9b06rwaybmoh,2,2,2b,161,1,1,no-go,NGW,28,C,bacs2,0,0,,1,0.0,1,0,0
09byk3dg92is9b06rwaybmoh,2,2,2b,166,2,1,no-go,NGW,28,C,bacs2,0,0,,1,0.0,1,0,0
09byk3dg92is9b06rwaybmoh,2,2,2b,170,3,1,no-go,NGW,28,C,bacs2,0,1,1.2570000000000001,0,0.0,0,1,0
09byk3dg92is9b06rwaybmoh,2,2,2b,176,4,1,no-go,NGW,28,C,bacs2,0,0,,1,1.0,0,0,0
09byk3dg92is9b06rwaybmoh,2,2,2b,180,5,1,no-go,NGW,28,C,bacs2,0,0,,1,0.0,1,0,0
09byk3dg92is9b06rwaybmoh,2,2,2b,182,6,1,no-go,NGW,28,C,bacs2,0,0,,1,1.0,0,0,0
09byk3dg92is9b06rwaybmoh,2,2,2b,187,7,1,no-go,NGW,28,C,bacs2,0,0,,1,0.0,1,1,0
09byk3dg92is9b06rwaybmoh,2,2,2b,192,8,1,no-go,NGW,28,C,bacs2,0,0,,1,0.0,1,0,0
09byk3dg92is9b06rwaybmoh,2,2,2b,194,9,1,no-go,NGW,28,C,bacs2,0,0,,1,0.0,1,0,0
09byk3dg92is9b06rwaybmoh,2,2,2b,197,10,1,no-go,NGW,28,C,bacs2,0,1,0.7709999999999999,0,0.0,0,1,0
09byk3dg92is9b06rwaybmoh,2,2,2b,202,11,1,no-go,NGW,28,C,bacs2,0,0,,1,0.0,1,0,0
09byk3dg92is9b06rwaybmoh,2,2,2b,207,12,1,no-go,NGW,28,C,bacs2,0,0,,1,0.0,1,0,0
09byk3dg92is9b06rwaybmoh,2,2,2b,156,1,0,no-go,NGAL,30,E,bacs2,0,0,,1,0.0,1,0,1
09byk3dg92is9b06rwaybmoh,2,2,2b,157,2,0,no-go,NGAL,30,E,bacs2,0,0,,1,0.0,1,0,1
09byk3dg92is9b06rwaybmoh,2,2,2b,163,3,0,no-go,NGAL,30,E,bacs2,0,1,0.91,0,0.0,0,1,1
09byk3dg92is9b06rwaybmoh,2,2,2b,168,4,0,no-go,NGAL,30,E,bacs2,0,0,,1,0.0,1,0,1
09byk3dg92is9b06rwaybmoh,2,2,2b,169,5,0,no-go,NGAL,30,E,bacs2,0,0,,1,1.0,0,0,1
09byk3dg92is9b06rwaybmoh,2,2,2b,173,6,0,no-go,NGAL,30,E,bacs2,0,0,,1,0.0,1,0,1
09byk3dg92is9b06rwaybmoh,2,2,2b,177,7,0,no-go,NGAL,30,E,bacs2,0,1,1.2690000000000001,0,0.0,0,1,1
09byk3dg92is9b06rwaybmoh,2,2,2b,184,8,0,no-go,NGAL,30,E,bacs2,0,1,1.17,0,0.0,0,1,1
09byk3dg92is9b06rwaybmoh,2,2,2b,188,9,0,no-go,NGAL,30,E,bacs2,0,0,,1,0.0,1,0,1
09byk3dg92is9b06rwaybmoh,2,2,2b,190,10,0,no-go,NGAL,30,E,bacs2,0,0,,1,0.0,1,0,1
09byk3dg92is9b06rwaybmoh,2,1,2a,91,1,0,go,GAL,31,F,bacs2,1,0,,0,0.0,0,0,0
09byk3dg92is9b06rwaybmoh,2,1,2a,94,2,0,go,GAL,31,F,bacs2,1,0,,0,0.0,0,0,0
09byk3dg92is9b06rwaybmoh,2,1,2a,100,3,0,go,GAL,31,F,bacs2,1,1,0.9670000000000001,1,0.0,1,1,0
09byk3dg92is9b06rwaybmoh,2,1,2a,104,4,0,go,GAL,31,F,bacs2,1,0,,0,0.0,0,0,0
09byk3dg92is9b06rwaybmoh,2,1,2a,105,5,0,go,GAL,31,F,bacs2,1,1,0.6509999999999999,1,0.0,1,1,0
09byk3dg92is9b06rwaybmoh,2,1,2a,111,6,0,go,GAL,31,F,bacs2,1,1,0.639,1,0.0,1,1,0
09byk3dg92is9b06rwaybmoh,2,1,2a,115,7,0,go,GAL,31,F,bacs2,1,0,,0,0.0,0,0,0
09byk3dg92is9b06rwaybmoh,2,1,2a,120,8,0,go,GAL,31,F,bacs2,1,0,,0,0.0,0,0,0
09byk3dg92is9b06rwaybmoh,2,2,2b,171,1,1,go,GW,32,G,bacs2,1,0,,0,0.0,0,0,1
09byk3dg92is9b06rwaybmoh,2,2,2b,175,2,1,go,GW,32,G,bacs2,1,1,0.636,1,0.0,1,1,1
09byk3dg92is9b06rwaybmoh,2,2,2b,178,3,1,go,GW,32,G,bacs2,1,0,,0,0.0,0,0,1
09byk3dg92is9b06rwaybmoh,2,2,2b,183,4,1,go,GW,32,G,bacs2,1,0,,0,1.0,1,0,1
09byk3dg92is9b06rwaybmoh,2,2,2b,185,5,1,go,GW,32,G,bacs2,1,0,,0,0.0,0,0,1
09byk3dg92is9b06rwaybmoh,2,2,2b,189,6,1,go,GW,32,G,bacs2,1,0,,0,1.0,1,0,1
09byk3dg92is9b06rwaybmoh,2,2,2b,195,7,1,go,GW,32,G,bacs2,1,1,0.675,1,0.0,1,1,1
09byk3dg92is9b06rwaybmoh,2,2,2b,200,8,1,go,GW,32,G,bacs2,1,0,,0,0.0,0,0,1
09byk3dg92is9b06rwaybmoh,2,2,2b,121,1,1,go,GW,33,H,bacs2,1,0,,0,0.0,0,0,1
09byk3dg92is9b06rwaybmoh,2,2,2b,127,2,1,go,GW,33,H,bacs2,1,0,,0,0.0,0,0,1
09byk3dg92is9b06rwaybmoh,2,2,2b,130,3,1,go,GW,33,H,bacs2,1,0,,0,0.0,0,0,1
09byk3dg92is9b06rwaybmoh,2,2,2b,135,4,1,go,GW,33,H,bacs2,1,0,,0,0.0,0,0,1
09byk3dg92is9b06rwaybmoh,2,2,2b,140,5,1,go,GW,33,H,bacs2,1,0,,0,0.0,0,0,1
09byk3dg92is9b06rwaybmoh,2,2,2b,143,6,1,go,GW,33,H,bacs2,1,1,1.1840000000000002,1,0.0,1,1,1
09byk3dg92is9b06rwaybmoh,2,2,2b,146,7,1,go,GW,33,H,bacs2,1,1,0.65,1,0.0,1,1,1
09byk3dg92is9b06rwaybmoh,2,2,2b,151,8,1,go,GW,33,H,bacs2,1,0,,0,1.0,1,1,1
09byk3dg92is9b06rwaybmoh,2,2,2b,153,9,1,go,GW,33,H,bacs2,1,0,,0,1.0,1,1,1
09byk3dg92is9b06rwaybmoh,2,2,2b,158,10,1,go,GW,33,H,bacs2,1,1,0.873,1,1.0,0,1,1
09byk3dg92is9b06rwaybmoh,2,2,2b,211,1,1,no-go,NGW,35,J,bacs2,0,0,,1,0.0,1,0,0
09byk3dg92is9b06rwaybmoh,2,2,2b,213,2,1,no-go,NGW,35,J,bacs2,0,0,,1,0.0,1,0,0
09byk3dg92is9b06rwaybmoh,2,2,2b,219,3,1,no-go,NGW,35,J,bacs2,0,0,,1,1.0,0,0,0
09byk3dg92is9b06rwaybmoh,2,2,2b,223,4,1,no-go,NGW,35,J,bacs2,0,1,0.619,0,0.0,0,1,0
09byk3dg92is9b06rwaybmoh,2,2,2b,225,5,1,no-go,NGW,35,J,bacs2,0,1,0.961,0,1.0,1,1,0
09byk3dg92is9b06rwaybmoh,2,2,2b,230,6,1,no-go,NGW,35,J,bacs2,0,1,1.244,0,0.0,0,1,0
09byk3dg92is9b06rwaybmoh,2,2,2b,234,7,1,no-go,NGW,35,J,bacs2,0,1,0.613,0,0.0,0,1,0
09byk3dg92is9b06rwaybmoh,2,2,2b,238,8,1,no-go,NGW,35,J,bacs2,0,1,0.535,0,0.0,0,1,0
09byk3dg92is9b06rwaybmoh,2,1,2a,3,1,0,no-go,NGAL,36,K,bacs2,0,1,0.857,0,0.0,0,1,1
09byk3dg92is9b06rwaybmoh,2,1,2a,6,2,0,no-go,NGAL,36,K,bacs2,0,1,0.789,0,0.0,0,1,1
09byk3dg92is9b06rwaybmoh,2,1,2a,10,3,0,no-go,NGAL,36,K,bacs2,0,0,,1,0.0,1,0,1
09byk3dg92is9b06rwaybmoh,2,1,2a,13,4,0,no-go,NGAL,36,K,bacs2,0,0,,1,0.0,1,0,1
09byk3dg92is9b06rwaybmoh,2,1,2a,20,5,0,no-go,NGAL,36,K,bacs2,0,0,,1,1.0,0,0,1
09byk3dg92is9b06rwaybmoh,2,1,2a,22,6,0,no-go,NGAL,36,K,bacs2,0,1,0.934,0,1.0,1,1,1
09byk3dg92is9b06rwaybmoh,2,1,2a,25,7,0,no-go,NGAL,36,K,bacs2,0,1,0.68,0,0.0,0,1,1
09byk3dg92is9b06rwaybmoh,2,1,2a,32,8,0,no-go,NGAL,36,K,bacs2,0,1,0.56,0,0.0,0,1,1
09byk3dg92is9b06rwaybmoh,2,1,2a,49,1,1,no-go,NGW,37,L,bacs2,0,0,,1,0.0,1,0,0
09byk3dg92is9b06rwaybmoh,2,1,2a,54,2,1,no-go,NGW,37,L,bacs2,0,1,0.948,0,1.0,1,1,0
09byk3dg92is9b06rwaybmoh,2,1,2a,58,3,1,no-go,NGW,37,L,bacs2,0,1,0.62,0,0.0,0,1,0
09byk3dg92is9b06rwaybmoh,2,1,2a,63,4,1,no-go,NGW,37,L,bacs2,0,1,0.6509999999999999,0,0.0,0,1,0
09byk3dg92is9b06rwaybmoh,2,1,2a,65,5,1,no-go,NGW,37,L,bacs2,0,0,,1,1.0,0,0,0
09byk3dg92is9b06rwaybmoh,2,1,2a,71,6,1,no-go,NGW,37,L,bacs2,0,0,,1,0.0,1,0,0
09byk3dg92is9b06rwaybmoh,2,1,2a,75,7,1,no-go,NGW,37,L,bacs2,0,0,,1,0.0,1,0,0
09byk3dg92is9b06rwaybmoh,2,1,2a,80,8,1,no-go,NGW,37,L,bacs2,0,0,,1,1.0,0,0,0
09byk3dg92is9b06rwaybmoh,2,1,2a,4,1,1,go,GW,38,M,bacs2,1,1,0.86,1,1.0,0,1,1
09byk3dg92is9b06rwaybmoh,2,1,2a,8,2,1,go,GW,38,M,bacs2,1,0,,0,0.0,0,0,1
09byk3dg92is9b06rwaybmoh,2,1,2a,12,3,1,go,GW,38,M,bacs2,1,1,0.8079999999999999,1,0.0,1,1,1
09byk3dg92is9b06rwaybmoh,2,1,2a,16,4,1,go,GW,38,M,bacs2,1,1,0.6779999999999999,1,0.0,1,1,1
09byk3dg92is9b06rwaybmoh,2,1,2a,19,5,1,go,GW,38,M,bacs2,1,0,,0,0.0,0,1,1
09byk3dg92is9b06rwaybmoh,2,1,2a,24,6,1,go,GW,38,M,bacs2,1,1,0.604,1,0.0,1,1,1
09byk3dg92is9b06rwaybmoh,2,1,2a,27,7,1,go,GW,38,M,bacs2,1,1,0.542,1,0.0,1,1,1
09byk3dg92is9b06rwaybmoh,2,1,2a,31,8,1,go,GW,38,M,bacs2,1,1,0.486,1,0.0,1,1,1
09byk3dg92is9b06rwaybmoh,2,1,2a,35,9,1,go,GW,38,M,bacs2,1,1,0.588,1,0.0,1,1,1
09byk3dg92is9b06rwaybmoh,2,1,2a,38,10,1,go,GW,38,M,bacs2,1,1,0.6659999999999999,1,0.0,1,1,1
09byk3dg92is9b06rwaybmoh,2,1,2a,41,11,1,go,GW,38,M,bacs2,1,1,0.631,1,0.0,1,1,1
09byk3dg92is9b06rwaybmoh,2,1,2a,47,12,1,go,GW,38,M,bacs2,1,1,1.05,1,0.0,1,1,1
09byk3dg92is9b06rwaybmoh,2,1,2a,89,1,1,go,GW,39,N,bacs2,1,0,,0,1.0,1,0,1
09byk3dg92is9b06rwaybmoh,2,1,2a,95,2,1,go,GW,39,N,bacs2,1,0,,0,0.0,0,0,1
09byk3dg92is9b06rwaybmoh,2,1,2a,98,3,1,go,GW,39,N,bacs2,1,0,,0,0.0,0,0,1
09byk3dg92is9b06rwaybmoh,2,1,2a,103,4,1,go,GW,39,N,bacs2,1,0,,0,0.0,0,0,1
09byk3dg92is9b06rwaybmoh,2,1,2a,107,5,1,go,GW,39,N,bacs2,1,0,,0,1.0,1,0,1
09byk3dg92is9b06rwaybmoh,2,1,2a,112,6,1,go,GW,39,N,bacs2,1,0,,0,0.0,0,0,1
09byk3dg92is9b06rwaybmoh,2,1,2a,114,7,1,go,GW,39,N,bacs2,1,0,,0,1.0,1,0,1
09byk3dg92is9b06rwaybmoh,2,1,2a,118,8,1,go,GW,39,N,bacs2,1,0,,0,0.0,0,0,1
09byk3dg92is9b06rwaybmoh,2,2,2b,172,1,0,no-go,NGAL,40,O,bacs2,0,1,0.415,0,0.0,0,1,1
09byk3dg92is9b06rwaybmoh,2,2,2b,174,2,0,no-go,NGAL,40,O,bacs2,0,1,0.61,0,0.0,0,1,1
09byk3dg92is9b06rwaybmoh,2,2,2b,179,3,0,no-go,NGAL,40,O,bacs2,0,0,,1,0.0,1,0,1
09byk3dg92is9b06rwaybmoh,2,2,2b,181,4,0,no-go,NGAL,40,O,bacs2,0,0,,1,0.0,1,0,1
09byk3dg92is9b06rwaybmoh,2,2,2b,186,5,0,no-go,NGAL,40,O,bacs2,0,1,0.884,0,0.0,0,1,1
09byk3dg92is9b06rwaybmoh,2,2,2b,191,6,0,no-go,NGAL,40,O,bacs2,0,0,,1,0.0,1,0,1
09byk3dg92is9b06rwaybmoh,2,2,2b,193,7,0,no-go,NGAL,40,O,bacs2,0,0,,1,0.0,1,0,1
09byk3dg92is9b06rwaybmoh,2,2,2b,198,8,0,no-go,NGAL,40,O,bacs2,0,0,,1,0.0,1,0,1
09byk3dg92is9b06rwaybmoh,2,1,2a,44,1,0,go,GAL,41,P,bacs2,1,0,,0,0.0,0,0,0
09byk3dg92is9b06rwaybmoh,2,1,2a,48,2,0,go,GAL,41,P,bacs2,1,1,0.8240000000000001,1,0.0,1,1,0
09byk3dg92is9b06rwaybmoh,2,1,2a,52,3,0,go,GAL,41,P,bacs2,1,0,,0,0.0,0,0,0
09byk3dg92is9b06rwaybmoh,2,1,2a,55,4,0,go,GAL,41,P,bacs2,1,1,0.693,1,1.0,0,1,0
09byk3dg92is9b06rwaybmoh,2,1,2a,59,5,0,go,GAL,41,P,bacs2,1,1,0.6940000000000001,1,0.0,1,1,0
09byk3dg92is9b06rwaybmoh,2,1,2a,64,6,0,go,GAL,41,P,bacs2,1,1,0.747,1,1.0,0,1,0
09byk3dg92is9b06rwaybmoh,2,1,2a,66,7,0,go,GAL,41,P,bacs2,1,0,,0,0.0,0,0,0
09byk3dg92is9b06rwaybmoh,2,1,2a,72,8,0,go,GAL,41,P,bacs2,1,0,,0,0.0,0,0,0
09byk3dg92is9b06rwaybmoh,2,1,2a,76,9,0,go,GAL,41,P,bacs2,1,1,0.8220000000000001,1,0.0,1,2,0
09byk3dg92is9b06rwaybmoh,2,1,2a,79,10,0,go,GAL,41,P,bacs2,1,1,1.149,1,0.0,1,1,0
09byk3dg92is9b06rwaybmoh,2,1,2a,82,11,0,go,GAL,41,P,bacs2,1,1,0.514,1,1.0,0,1,0
09byk3dg92is9b06rwaybmoh,2,1,2a,86,12,0,go,GAL,41,P,bacs2,1,0,,0,0.0,0,0,0
09byk3dg92is9b06rwaybmoh,2,2,2b,123,1,0,go,GAL,42,Q,bacs2,1,0,,0,1.0,1,0,0
09byk3dg92is9b06rwaybmoh,2,2,2b,128,2,0,go,GAL,42,Q,bacs2,1,0,,0,1.0,1,0,0
09byk3dg92is9b06rwaybmoh,2,2,2b,131,3,0,go,GAL,42,Q,bacs2,1,0,,0,0.0,0,0,0
09byk3dg92is9b06rwaybmoh,2,2,2b,136,4,0,go,GAL,42,Q,bacs2,1,0,,0,1.0,1,0,0
09byk3dg92is9b06rwaybmoh,2,2,2b,137,5,0,go,GAL,42,Q,bacs2,1,0,,0,1.0,1,0,0
09byk3dg92is9b06rwaybmoh,2,2,2b,144,6,0,go,GAL,42,Q,bacs2,1,0,,0,0.0,0,0,0
09byk3dg92is9b06rwaybmoh,2,2,2b,145,7,0,go,GAL,42,Q,bacs2,1,1,1.028,1,0.0,1,1,0
09byk3dg92is9b06rwaybmoh,2,2,2b,149,8,0,go,GAL,42,Q,bacs2,1,1,0.831,1,0.0,1,1,0
09byk3dg92is9b06rwaybmoh,2,1,2a,33,1,0,no-go,NGAL,43,R,bacs2,0,0,,1,0.0,1,0,1
09byk3dg92is9b06rwaybmoh,2,1,2a,37,2,0,no-go,NGAL,43,R,bacs2,0,0,,1,0.0,1,0,1
09byk3dg92is9b06rwaybmoh,2,1,2a,42,3,0,no-go,NGAL,43,R,bacs2,0,0,,1,0.0,1,0,1
09byk3dg92is9b06rwaybmoh,2,1,2a,46,4,0,no-go,NGAL,43,R,bacs2,0,0,,1,0.0,1,0,1
09byk3dg92is9b06rwaybmoh,2,1,2a,51,5,0,no-go,NGAL,43,R,bacs2,0,0,,1,0.0,1,0,1
09byk3dg92is9b06rwaybmoh,2,1,2a,56,6,0,no-go,NGAL,43,R,bacs2,0,0,,1,1.0,0,0,1
09byk3dg92is9b06rwaybmoh,2,1,2a,57,7,0,no-go,NGAL,43,R,bacs2,0,1,1.112,0,0.0,0,1,1
09byk3dg92is9b06rwaybmoh,2,1,2a,61,8,0,no-go,NGAL,43,R,bacs2,0,0,,1,0.0,1,0,1
09byk3dg92is9b06rwaybmoh,2,1,2a,67,9,0,no-go,NGAL,43,R,bacs2,0,0,,1,0.0,1,0,1
09byk3dg92is9b06rwaybmoh,2,1,2a,69,10,0,no-go,NGAL,43,R,bacs2,0,0,,1,0.0,1,0,1
09byk3dg92is9b06rwaybmoh,2,1,2a,74,11,0,no-go,NGAL,43,R,bacs2,0,0,,1,1.0,0,0,1
09byk3dg92is9b06rwaybmoh,2,1,2a,78,12,0,no-go,NGAL,43,R,bacs2,0,1,1.13,0,0.0,0,1,1
09byk3dg92is9b06rwaybmoh,2,1,2a,50,1,1,no-go,NGW,44,S,bacs2,0,0,,1,0.0,1,0,0
09byk3dg92is9b06rwaybmoh,2,1,2a,53,2,1,no-go,NGW,44,S,bacs2,0,0,,1,1.0,0,0,0
09byk3dg92is9b06rwaybmoh,2,1,2a,60,3,1,no-go,NGW,44,S,bacs2,0,0,,1,0.0,1,0,0
09byk3dg92is9b06rwaybmoh,2,1,2a,62,4,1,no-go,NGW,44,S,bacs2,0,0,,1,0.0,1,0,0
09byk3dg92is9b06rwaybmoh,2,1,2a,68,5,1,no-go,NGW,44,S,bacs2,0,0,,1,0.0,1,0,0
09byk3dg92is9b06rwaybmoh,2,1,2a,70,6,1,no-go,NGW,44,S,bacs2,0,0,,1,1.0,0,0,0
09byk3dg92is9b06rwaybmoh,2,1,2a,73,7,1,no-go,NGW,44,S,bacs2,0,0,,1,0.0,1,0,0
09byk3dg92is9b06rwaybmoh,2,1,2a,77,8,1,no-go,NGW,44,S,bacs2,0,0,,1,0.0,1,0,0
09byk3dg92is9b06rwaybmoh,2,1,2a,83,9,1,no-go,NGW,44,S,bacs2,0,0,,1,0.0,1,0,0
09byk3dg92is9b06rwaybmoh,2,1,2a,88,10,1,no-go,NGW,44,S,bacs2,0,0,,1,0.0,1,0,0
09byk3dg92is9b06rwaybmoh,2,2,2b,124,1,0,go,GAL,45,T,bacs2,1,1,1.043,1,0.0,1,1,0
09byk3dg92is9b06rwaybmoh,2,2,2b,125,2,0,go,GAL,45,T,bacs2,1,1,0.765,1,0.0,1,1,0
09byk3dg92is9b06rwaybmoh,2,2,2b,129,3,0,go,GAL,45,T,bacs2,1,1,0.857,1,0.0,1,2,0
09byk3dg92is9b06rwaybmoh,2,2,2b,134,4,0,go,GAL,45,T,bacs2,1,1,0.769,1,1.0,0,1,0
09byk3dg92is9b06rwaybmoh,2,2,2b,138,5,0,go,GAL,45,T,bacs2,1,0,,0,0.0,0,0,0
09byk3dg92is9b06rwaybmoh,2,2,2b,141,6,0,go,GAL,45,T,bacs2,1,1,1.1420000000000001,1,0.0,1,1,0
09byk3dg92is9b06rwaybmoh,2,2,2b,147,7,0,go,GAL,45,T,bacs2,1,0,,0,0.0,0,0,0
09byk3dg92is9b06rwaybmoh,2,2,2b,152,8,0,go,GAL,45,T,bacs2,1,1,1.048,1,0.0,1,1,0
09byk3dg92is9b06rwaybmoh,2,2,2b,154,9,0,go,GAL,45,T,bacs2,1,0,,0,0.0,0,1,0
09byk3dg92is9b06rwaybmoh,2,2,2b,160,10,0,go,GAL,45,T,bacs2,1,1,0.9670000000000001,1,1.0,0,1,0
09byk3dg92is9b06rwaybmoh,2,2,2b,162,11,0,go,GAL,45,T,bacs2,1,0,,0,0.0,0,0,0
09byk3dg92is9b06rwaybmoh,2,2,2b,167,12,0,go,GAL,45,T,bacs2,1,0,,0,0.0,0,0,0
09byk3dg92is9b06rwaybmoh,2,1,2a,81,1,1,go,GW,46,U,bacs2,1,0,,0,0.0,0,0,1
09byk3dg92is9b06rwaybmoh,2,1,2a,87,2,1,go,GW,46,U,bacs2,1,0,,0,0.0,0,0,1
09byk3dg92is9b06rwaybmoh,2,1,2a,90,3,1,go,GW,46,U,bacs2,1,1,0.892,1,1.0,0,1,1
09byk3dg92is9b06rwaybmoh,2,1,2a,93,4,1,go,GW,46,U,bacs2,1,1,1.258,1,1.0,0,1,1
09byk3dg92is9b06rwaybmoh,2,1,2a,97,5,1,go,GW,46,U,bacs2,1,0,,0,0.0,0,0,1
09byk3dg92is9b06rwaybmoh,2,1,2a,101,6,1,go,GW,46,U,bacs2,1,0,,0,0.0,0,0,1
09byk3dg92is9b06rwaybmoh,2,1,2a,108,7,1,go,GW,46,U,bacs2,1,0,,0,0.0,0,0,1
09byk3dg92is9b06rwaybmoh,2,1,2a,109,8,1,go,GW,46,U,bacs2,1,0,,0,0.0,0,0,1
09byk3dg92is9b06rwaybmoh,2,1,2a,116,9,1,go,GW,46,U,bacs2,1,1,0.713,1,0.0,1,1,1
09byk3dg92is9b06rwaybmoh,2,1,2a,119,10,1,go,GW,46,U,bacs2,1,0,,0,0.0,0,0,1
09byk3dg92is9b06rwaybmoh,2,1,2a,1,1,1,no-go,NGW,47,V,bacs2,0,1,0.737,0,0.0,0,1,0
09byk3dg92is9b06rwaybmoh,2,1,2a,5,2,1,no-go,NGW,47,V,bacs2,0,1,0.738,0,0.0,0,1,0
09byk3dg92is9b06rwaybmoh,2,1,2a,9,3,1,no-go,NGW,47,V,bacs2,0,0,,1,1.0,0,0,0
09byk3dg92is9b06rwaybmoh,2,1,2a,15,4,1,no-go,NGW,47,V,bacs2,0,1,0.828,0,0.0,0,1,0
09byk3dg92is9b06rwaybmoh,2,1,2a,17,5,1,no-go,NGW,47,V,bacs2,0,0,,1,1.0,0,1,0
09byk3dg92is9b06rwaybmoh,2,1,2a,21,6,1,no-go,NGW,47,V,bacs2,0,0,,1,0.0,1,0,0
09byk3dg92is9b06rwaybmoh,2,1,2a,26,7,1,no-go,NGW,47,V,bacs2,0,1,0.649,0,0.0,0,1,0
09byk3dg92is9b06rwaybmoh,2,1,2a,29,8,1,no-go,NGW,47,V,bacs2,0,1,0.748,0,0.0,0,1,0
09byk3dg92is9b06rwaybmoh,2,1,2a,36,9,1,no-go,NGW,47,V,bacs2,0,0,,1,1.0,0,0,0
09byk3dg92is9b06rwaybmoh,2,1,2a,39,10,1,no-go,NGW,47,V,bacs2,0,1,0.847,0,0.0,0,1,0
09byk3dg92is9b06rwaybmoh,2,1,2a,43,11,1,no-go,NGW,47,V,bacs2,0,0,,1,0.0,1,0,0
09byk3dg92is9b06rwaybmoh,2,1,2a,45,12,1,no-go,NGW,47,V,bacs2,0,0,,1,0.0,1,0,0
09byk3dg92is9b06rwaybmoh,2,2,2b,203,1,0,go,GAL,48,W,bacs2,1,1,0.61,1,0.0,1,1,0
09byk3dg92is9b06rwaybmoh,2,2,2b,205,2,0,go,GAL,48,W,bacs2,1,1,1.085,1,0.0,1,1,0
09byk3dg92is9b06rwaybmoh,2,2,2b,212,3,0,go,GAL,48,W,bacs2,1,0,,0,1.0,1,0,0
09byk3dg92is9b06rwaybmoh,2,2,2b,214,4,0,go,GAL,48,W,bacs2,1,1,0.7120000000000001,1,1.0,0,1,0
09byk3dg92is9b06rwaybmoh,2,2,2b,217,5,0,go,GAL,48,W,bacs2,1,0,,0,0.0,0,0,0
09byk3dg92is9b06rwaybmoh,2,2,2b,221,6,0,go,GAL,48,W,bacs2,1,0,,0,0.0,0,1,0
09byk3dg92is9b06rwaybmoh,2,2,2b,228,7,0,go,GAL,48,W,bacs2,1,0,,0,0.0,0,0,0
09byk3dg92is9b06rwaybmoh,2,2,2b,231,8,0,go,GAL,48,W,bacs2,1,0,,0,0.0,0,1,0
09byk3dg92is9b06rwaybmoh,2,2,2b,235,9,0,go,GAL,48,W,bacs2,1,1,0.912,1,0.0,1,1,0
09byk3dg92is9b06rwaybmoh,2,2,2b,237,10,0,go,GAL,48,W,bacs2,1,1,0.727,1,0.0,1,1,0
09byk3dg92is9b06rwaybmoh,2,2,2b,201,1,1,no-go,NGW,49,X,bacs2,0,0,,1,0.0,1,0,0
09byk3dg92is9b06rwaybmoh,2,2,2b,206,2,1,no-go,NGW,49,X,bacs2,0,0,,1,0.0,1,0,0
09byk3dg92is9b06rwaybmoh,2,2,2b,209,3,1,no-go,NGW,49,X,bacs2,0,1,0.9520000000000001,0,0.0,0,1,0
09byk3dg92is9b06rwaybmoh,2,2,2b,216,4,1,no-go,NGW,49,X,bacs2,0,1,1.21,0,0.0,0,1,0
09byk3dg92is9b06rwaybmoh,2,2,2b,220,5,1,no-go,NGW,49,X,bacs2,0,0,,1,1.0,0,0,0
09byk3dg92is9b06rwaybmoh,2,2,2b,224,6,1,no-go,NGW,49,X,bacs2,0,1,0.6659999999999999,0,0.0,0,1,0
09byk3dg92is9b06rwaybmoh,2,2,2b,227,7,1,no-go,NGW,49,X,bacs2,0,1,0.934,0,1.0,1,1,0
09byk3dg92is9b06rwaybmoh,2,2,2b,232,8,1,no-go,NGW,49,X,bacs2,0,0,,1,0.0,1,0,0
09byk3dg92is9b06rwaybmoh,2,2,2b,233,9,1,no-go,NGW,49,X,bacs2,0,0,,1,0.0,1,0,0
09byk3dg92is9b06rwaybmoh,2,2,2b,239,10,1,no-go,NGW,49,X,bacs2,0,1,0.691,0,0.0,0,1,0
09byk3dg92is9b06rwaybmoh,2,2,2b,122,1,0,no-go,NGAL,50,Y,bacs2,0,0,,1,0.0,1,0,1
09byk3dg92is9b06rwaybmoh,2,2,2b,126,2,0,no-go,NGAL,50,Y,bacs2,0,0,,1,0.0,1,0,1
09byk3dg92is9b06rwaybmoh,2,2,2b,132,3,0,no-go,NGAL,50,Y,bacs2,0,0,,1,0.0,1,0,1
09byk3dg92is9b06rwaybmoh,2,2,2b,133,4,0,no-go,NGAL,50,Y,bacs2,0,0,,1,0.0,1,0,1
09byk3dg92is9b06rwaybmoh,2,2,2b,139,5,0,no-go,NGAL,50,Y,bacs2,0,1,0.8270000000000001,0,0.0,0,1,1
09byk3dg92is9b06rwaybmoh,2,2,2b,142,6,0,no-go,NGAL,50,Y,bacs2,0,0,,1,0.0,1,0,1
09byk3dg92is9b06rwaybmoh,2,2,2b,148,7,0,no-go,NGAL,50,Y,bacs2,0,1,0.9520000000000001,0,0.0,0,1,1
09byk3dg92is9b06rwaybmoh,2,2,2b,150,8,0,no-go,NGAL,50,Y,bacs2,0,1,1.2009999999999998,0,0.0,0,1,1
09byk3dg92is9b06rwaybmoh,2,2,2b,155,9,0,no-go,NGAL,50,Y,bacs2,0,1,0.866,0,0.0,0,1,1
09byk3dg92is9b06rwaybmoh,2,2,2b,159,10,0,no-go,NGAL,50,Y,bacs2,0,0,,1,0.0,1,0,1
09byk3dg92is9b06rwaybmoh,2,2,2b,164,11,0,no-go,NGAL,50,Y,bacs2,0,0,,1,0.0,1,0,1
09byk3dg92is9b06rwaybmoh,2,2,2b,165,12,0,no-go,NGAL,50,Y,bacs2,0,1,1.2229999999999999,0,0.0,0,1,1
09byk3dg92is9b06rwaybmoh,2,2,2b,196,1,1,go,GW,51,Z,bacs2,1,1,0.9490000000000001,1,0.0,1,1,1
09byk3dg92is9b06rwaybmoh,2,2,2b,199,2,1,go,GW,51,Z,bacs2,1,1,1.075,1,0.0,1,1,1
09byk3dg92is9b06rwaybmoh,2,2,2b,204,3,1,go,GW,51,Z,bacs2,1,1,0.7,1,0.0,1,1,1
09byk3dg92is9b06rwaybmoh,2,2,2b,208,4,1,go,GW,51,Z,bacs2,1,0,,0,0.0,0,0,1
09byk3dg92is9b06rwaybmoh,2,2,2b,210,5,1,go,GW,51,Z,bacs2,1,1,0.6579999999999999,1,0.0,1,1,1
09byk3dg92is9b06rwaybmoh,2,2,2b,215,6,1,go,GW,51,Z,bacs2,1,0,,0,0.0,0,1,1
09byk3dg92is9b06rwaybmoh,2,2,2b,218,7,1,go,GW,51,Z,bacs2,1,1,1.0,1,0.0,1,1,1
09byk3dg92is9b06rwaybmoh,2,2,2b,222,8,1,go,GW,51,Z,bacs2,1,1,0.677,1,1.0,0,1,1
09byk3dg92is9b06rwaybmoh,2,2,2b,226,9,1,go,GW,51,Z,bacs2,1,0,,0,0.0,0,0,1
09byk3dg92is9b06rwaybmoh,2,2,2b,229,10,1,go,GW,51,Z,bacs2,1,1,0.618,1,0.0,1,1,1
09byk3dg92is9b06rwaybmoh,2,2,2b,236,11,1,go,GW,51,Z,bacs2,1,1,0.7140000000000001,1,0.0,1,1,1
09byk3dg92is9b06rwaybmoh,2,2,2b,240,12,1,go,GW,51,Z,bacs2,1,0,,0,0.0,0,0,1
1ahxnduc1fr21fpplm87wkk6,2,2,2b,122,1,0,go,GAL,52,A,bacs2,1,1,0.534,1,0.0,1,1,0
1ahxnduc1fr21fpplm87wkk6,2,2,2b,125,2,0,go,GAL,52,A,bacs2,1,1,1.182,1,0.0,1,1,0
1ahxnduc1fr21fpplm87wkk6,2,2,2b,129,3,0,go,GAL,52,A,bacs2,1,1,0.91,1,1.0,0,1,0
1ahxnduc1fr21fpplm87wkk6,2,2,2b,135,4,0,go,GAL,52,A,bacs2,1,1,0.792,1,0.0,1,1,0
1ahxnduc1fr21fpplm87wkk6,2,2,2b,140,5,0,go,GAL,52,A,bacs2,1,1,0.643,1,0.0,1,1,0
1ahxnduc1fr21fpplm87wkk6,2,2,2b,144,6,0,go,GAL,52,A,bacs2,1,1,0.652,1,0.0,1,1,0
1ahxnduc1fr21fpplm87wkk6,2,2,2b,147,7,0,go,GAL,52,A,bacs2,1,1,0.9390000000000001,1,0.0,1,1,0
1ahxnduc1fr21fpplm87wkk6,2,2,2b,149,8,0,go,GAL,52,A,bacs2,1,1,0.875,1,0.0,1,1,0
1ahxnduc1fr21fpplm87wkk6,2,2,2b,203,1,0,go,GAL,53,B,bacs2,1,0,,0,1.0,1,0,0
1ahxnduc1fr21fpplm87wkk6,2,2,2b,205,2,0,go,GAL,53,B,bacs2,1,0,,0,1.0,1,0,0
1ahxnduc1fr21fpplm87wkk6,2,2,2b,211,3,0,go,GAL,53,B,bacs2,1,0,,0,0.0,0,0,0
1ahxnduc1fr21fpplm87wkk6,2,2,2b,213,4,0,go,GAL,53,B,bacs2,1,0,,0,0.0,0,0,0
1ahxnduc1fr21fpplm87wkk6,2,2,2b,219,5,0,go,GAL,53,B,bacs2,1,1,1.213,1,0.0,1,1,0
1ahxnduc1fr21fpplm87wkk6,2,2,2b,223,6,0,go,GAL,53,B,bacs2,1,1,0.883,1,1.0,0,1,0
1ahxnduc1fr21fpplm87wkk6,2,2,2b,227,7,0,go,GAL,53,B,bacs2,1,1,0.578,1,0.0,1,1,0
1ahxnduc1fr21fpplm87wkk6,2,2,2b,229,8,0,go,GAL,53,B,bacs2,1,1,0.674,1,0.0,1,1,0
1ahxnduc1fr21fpplm87wkk6,2,2,2b,234,9,0,go,GAL,53,B,bacs2,1,1,0.655,1,0.0,1,1,0
1ahxnduc1fr21fpplm87wkk6,2,2,2b,239,10,0,go,GAL,53,B,bacs2,1,1,0.607,1,0.0,1,1,0
1ahxnduc1fr21fpplm87wkk6,2,1,2a,42,1,0,go,GAL,54,C,bacs2,1,1,0.727,1,1.0,0,1,0
1ahxnduc1fr21fpplm87wkk6,2,1,2a,48,2,0,go,GAL,54,C,bacs2,1,1,1.187,1,0.0,1,1,0
1ahxnduc1fr21fpplm87wkk6,2,1,2a,52,3,0,go,GAL,54,C,bacs2,1,0,,0,0.0,0,0,0
1ahxnduc1fr21fpplm87wkk6,2,1,2a,55,4,0,go,GAL,54,C,bacs2,1,0,,0,0.0,0,0,0
1ahxnduc1fr21fpplm87wkk6,2,1,2a,60,5,0,go,GAL,54,C,bacs2,1,1,0.473,1,0.0,1,1,0
1ahxnduc1fr21fpplm87wkk6,2,1,2a,61,6,0,go,GAL,54,C,bacs2,1,1,0.447,1,1.0,0,1,0
1ahxnduc1fr21fpplm87wkk6,2,1,2a,65,7,0,go,GAL,54,C,bacs2,1,1,0.6579999999999999,1,0.0,1,1,0
1ahxnduc1fr21fpplm87wkk6,2,1,2a,72,8,0,go,GAL,54,C,bacs2,1,1,0.512,1,0.0,1,1,0
1ahxnduc1fr21fpplm87wkk6,2,1,2a,75,9,0,go,GAL,54,C,bacs2,1,1,0.506,1,0.0,1,1,0
1ahxnduc1fr21fpplm87wkk6,2,1,2a,79,10,0,go,GAL,54,C,bacs2,1,1,0.444,1,0.0,1,1,0
1ahxnduc1fr21fpplm87wkk6,2,1,2a,84,11,0,go,GAL,54,C,bacs2,1,1,0.594,1,0.0,1,1,0
1ahxnduc1fr21fpplm87wkk6,2,1,2a,87,12,0,go,GAL,54,C,bacs2,1,1,0.47600000000000003,1,0.0,1,1,0
1ahxnduc1fr21fpplm87wkk6,2,1,2a,33,1,0,no-go,NGAL,56,E,bacs2,0,1,0.909,0,1.0,1,1,1
1ahxnduc1fr21fpplm87wkk6,2,1,2a,40,2,0,no-go,NGAL,56,E,bacs2,0,0,,1,1.0,0,0,1
1ahxnduc1fr21fpplm87wkk6,2,1,2a,43,3,0,no-go,NGAL,56,E,bacs2,0,1,0.7659999999999999,0,0.0,0,1,1
1ahxnduc1fr21fpplm87wkk6,2,1,2a,46,4,0,no-go,NGAL,56,E,bacs2,0,1,0.754,0,0.0,0,1,1
1ahxnduc1fr21fpplm87wkk6,2,1,2a,50,5,0,no-go,NGAL,56,E,bacs2,0,1,1.046,0,0.0,0,1,1
1ahxnduc1fr21fpplm87wkk6,2,1,2a,56,6,0,no-go,NGAL,56,E,bacs2,0,0,,1,0.0,1,0,1
1ahxnduc1fr21fpplm87wkk6,2,1,2a,58,7,0,no-go,NGAL,56,E,bacs2,0,0,,1,0.0,1,0,1
1ahxnduc1fr21fpplm87wkk6,2,1,2a,63,8,0,no-go,NGAL,56,E,bacs2,0,0,,1,0.0,1,0,1
1ahxnduc1fr21fpplm87wkk6,2,1,2a,66,9,0,no-go,NGAL,56,E,bacs2,0,0,,1,0.0,1,0,1
1ahxnduc1fr21fpplm87wkk6,2,1,2a,70,10,0,no-go,NGAL,56,E,bacs2,0,0,,1,0.0,1,0,1
1ahxnduc1fr21fpplm87wkk6,2,1,2a,73,11,0,no-go,NGAL,56,E,bacs2,0,0,,1,0.0,1,0,1
1ahxnduc1fr21fpplm87wkk6,2,1,2a,80,12,0,no-go,NGAL,56,E,bacs2,0,0,,1,1.0,0,0,1
1ahxnduc1fr21fpplm87wkk6,2,2,2b,121,1,0,go,GAL,57,F,bacs2,1,1,0.6809999999999999,1,1.0,0,1,0
1ahxnduc1fr21fpplm87wkk6,2,2,2b,128,2,0,go,GAL,57,F,bacs2,1,1,0.9440000000000001,1,0.0,1,1,0
1ahxnduc1fr21fpplm87wkk6,2,2,2b,130,3,0,go,GAL,57,F,bacs2,1,1,0.508,1,0.0,1,1,0
1ahxnduc1fr21fpplm87wkk6,2,2,2b,134,4,0,go,GAL,57,F,bacs2,1,1,0.563,1,0.0,1,1,0
1ahxnduc1fr21fpplm87wkk6,2,2,2b,138,5,0,go,GAL,57,F,bacs2,1,1,0.49700000000000005,1,0.0,1,1,0
1ahxnduc1fr21fpplm87wkk6,2,2,2b,142,6,0,go,GAL,57,F,bacs2,1,1,0.503,1,1.0,0,1,0
1ahxnduc1fr21fpplm87wkk6,2,2,2b,145,7,0,go,GAL,57,F,bacs2,1,1,0.79,1,0.0,1,1,0
1ahxnduc1fr21fpplm87wkk6,2,2,2b,151,8,0,go,GAL,57,F,bacs2,1,1,0.5479999999999999,1,1.0,0,1,0
1ahxnduc1fr21fpplm87wkk6,2,2,2b,153,9,0,go,GAL,57,F,bacs2,1,0,,0,1.0,1,0,0
1ahxnduc1fr21fpplm87wkk6,2,2,2b,158,10,0,go,GAL,57,F,bacs2,1,1,0.747,1,1.0,0,1,0
1ahxnduc1fr21fpplm87wkk6,2,2,2b,161,11,0,go,GAL,57,F,bacs2,1,0,,0,0.0,0,0,0
1ahxnduc1fr21fpplm87wkk6,2,2,2b,165,12,0,go,GAL,57,F,bacs2,1,1,0.883,1,0.0,1,1,0
1ahxnduc1fr21fpplm87wkk6,2,1,2a,49,1,1,no-go,NGW,58,G,bacs2,0,1,0.772,0,0.0,0,1,0
1ahxnduc1fr21fpplm87wkk6,2,1,2a,54,2,1,no-go,NGW,58,G,bacs2,0,0,,1,0.0,1,0,0
1ahxnduc1fr21fpplm87wkk6,2,1,2a,59,3,1,no-go,NGW,58,G,bacs2,0,0,,1,0.0,1,0,0
1ahxnduc1fr21fpplm87wkk6,2,1,2a,62,4,1,no-go,NGW,58,G,bacs2,0,0,,1,0.0,1,0,0
1ahxnduc1fr21fpplm87wkk6,2,1,2a,68,5,1,no-go,NGW,58,G,bacs2,0,0,,1,1.0,0,0,0
1ahxnduc1fr21fpplm87wkk6,2,1,2a,71,6,1,no-go,NGW,58,G,bacs2,0,1,0.887,0,0.0,0,1,0
1ahxnduc1fr21fpplm87wkk6,2,1,2a,74,7,1,no-go,NGW,58,G,bacs2,0,1,0.521,0,1.0,1,1,0
1ahxnduc1fr21fpplm87wkk6,2,1,2a,78,8,1,no-go,NGW,58,G,bacs2,0,1,0.622,0,0.0,0,1,0
1ahxnduc1fr21fpplm87wkk6,2,1,2a,82,9,1,no-go,NGW,58,G,bacs2,0,1,0.618,0,1.0,1,1,0
1ahxnduc1fr21fpplm87wkk6,2,1,2a,85,10,1,no-go,NGW,58,G,bacs2,0,1,0.614,0,0.0,0,1,0
1ahxnduc1fr21fpplm87wkk6,2,1,2a,2,1,1,no-go,NGW,59,H,bacs2,0,1,0.7809999999999999,0,0.0,0,1,0
1ahxnduc1fr21fpplm87wkk6,2,1,2a,6,2,1,no-go,NGW,59,H,bacs2,0,0,,1,0.0,1,0,0
1ahxnduc1fr21fpplm87wkk6,2,1,2a,10,3,1,no-go,NGW,59,H,bacs2,0,1,1.038,0,1.0,1,1,0
1ahxnduc1fr21fpplm87wkk6,2,1,2a,13,4,1,no-go,NGW,59,H,bacs2,0,0,,1,1.0,0,1,0
1ahxnduc1fr21fpplm87wkk6,2,1,2a,20,5,1,no-go,NGW,59,H,bacs2,0,1,0.8109999999999999,0,0.0,0,1,0
1ahxnduc1fr21fpplm87wkk6,2,1,2a,21,6,1,no-go,NGW,59,H,bacs2,0,0,,1,0.0,1,0,0
1ahxnduc1fr21fpplm87wkk6,2,1,2a,26,7,1,no-go,NGW,59,H,bacs2,0,0,,1,0.0,1,0,0
1ahxnduc1fr21fpplm87wkk6,2,1,2a,29,8,1,no-go,NGW,59,H,bacs2,0,1,0.951,0,0.0,0,1,0
1ahxnduc1fr21fpplm87wkk6,2,1,2a,34,9,1,no-go,NGW,59,H,bacs2,0,0,,1,0.0,1,0,0
1ahxnduc1fr21fpplm87wkk6,2,1,2a,38,10,1,no-go,NGW,59,H,bacs2,0,0,,1,0.0,1,0,0
1ahxnduc1fr21fpplm87wkk6,2,1,2a,41,11,1,no-go,NGW,59,H,bacs2,0,0,,1,0.0,1,0,0
1ahxnduc1fr21fpplm87wkk6,2,1,2a,47,12,1,no-go,NGW,59,H,bacs2,0,0,,1,0.0,1,0,0
1ahxnduc1fr21fpplm87wkk6,2,1,2a,92,1,1,go,GW,61,J,bacs2,1,0,,0,0.0,0,0,1
1ahxnduc1fr21fpplm87wkk6,2,1,2a,94,2,1,go,GW,61,J,bacs2,1,0,,0,0.0,0,1,1
1ahxnduc1fr21fpplm87wkk6,2,1,2a,98,3,1,go,GW,61,J,bacs2,1,0,,0,0.0,0,0,1
1ahxnduc1fr21fpplm87wkk6,2,1,2a,102,4,1,go,GW,61,J,bacs2,1,1,0.972,1,0.0,1,1,1
1ahxnduc1fr21fpplm87wkk6,2,1,2a,106,5,1,go,GW,61,J,bacs2,1,1,0.935,1,0.0,1,1,1
1ahxnduc1fr21fpplm87wkk6,2,1,2a,112,6,1,go,GW,61,J,bacs2,1,1,0.882,1,0.0,1,1,1
1ahxnduc1fr21fpplm87wkk6,2,1,2a,113,7,1,go,GW,61,J,bacs2,1,1,0.502,1,0.0,1,1,1
1ahxnduc1fr21fpplm87wkk6,2,1,2a,119,8,1,go,GW,61,J,bacs2,1,1,0.755,1,0.0,1,1,1
1ahxnduc1fr21fpplm87wkk6,2,2,2b,201,1,1,no-go,NGW,62,K,bacs2,0,1,0.725,0,0.0,0,1,0
1ahxnduc1fr21fpplm87wkk6,2,2,2b,207,2,1,no-go,NGW,62,K,bacs2,0,0,,1,0.0,1,0,0
1ahxnduc1fr21fpplm87wkk6,2,2,2b,209,3,1,no-go,NGW,62,K,bacs2,0,0,,1,0.0,1,0,0
1ahxnduc1fr21fpplm87wkk6,2,2,2b,214,4,1,no-go,NGW,62,K,bacs2,0,0,,1,0.0,1,0,0
1ahxnduc1fr21fpplm87wkk6,2,2,2b,218,5,1,no-go,NGW,62,K,bacs2,0,0,,1,0.0,1,0,0
1ahxnduc1fr21fpplm87wkk6,2,2,2b,221,6,1,no-go,NGW,62,K,bacs2,0,0,,1,0.0,1,0,0
1ahxnduc1fr21fpplm87wkk6,2,2,2b,226,7,1,no-go,NGW,62,K,bacs2,0,0,,1,0.0,1,0,0
1ahxnduc1fr21fpplm87wkk6,2,2,2b,230,8,1,no-go,NGW,62,K,bacs2,0,0,,1,0.0,1,0,0
1ahxnduc1fr21fpplm87wkk6,2,2,2b,235,9,1,no-go,NGW,62,K,bacs2,0,0,,1,1.0,0,0,0
1ahxnduc1fr21fpplm87wkk6,2,2,2b,240,10,1,no-go,NGW,62,K,bacs2,0,0,,1,0.0,1,0,0
1ahxnduc1fr21fpplm87wkk6,2,2,2b,164,1,1,no-go,NGW,63,L,bacs2,0,0,,1,0.0,1,0,0
1ahxnduc1fr21fpplm87wkk6,2,2,2b,166,2,1,no-go,NGW,63,L,bacs2,0,0,,1,1.0,0,1,0
1ahxnduc1fr21fpplm87wkk6,2,2,2b,172,3,1,no-go,NGW,63,L,bacs2,0,1,1.084,0,0.0,0,1,0
1ahxnduc1fr21fpplm87wkk6,2,2,2b,176,4,1,no-go,NGW,63,L,bacs2,0,0,,1,1.0,0,0,0
1ahxnduc1fr21fpplm87wkk6,2,2,2b,180,5,1,no-go,NGW,63,L,bacs2,0,1,0.8490000000000001,0,0.0,0,1,0
1ahxnduc1fr21fpplm87wkk6,2,2,2b,184,6,1,no-go,NGW,63,L,bacs2,0,1,0.943,0,0.0,0,1,0
1ahxnduc1fr21fpplm87wkk6,2,2,2b,188,7,1,no-go,NGW,63,L,bacs2,0,1,0.634,0,1.0,1,1,0
1ahxnduc1fr21fpplm87wkk6,2,2,2b,189,8,1,no-go,NGW,63,L,bacs2,0,1,0.579,0,0.0,0,1,0
1ahxnduc1fr21fpplm87wkk6,2,2,2b,195,9,1,no-go,NGW,63,L,bacs2,0,1,0.61,0,1.0,1,1,0
1ahxnduc1fr21fpplm87wkk6,2,2,2b,199,10,1,no-go,NGW,63,L,bacs2,0,1,0.57,0,0.0,0,1,0
1ahxnduc1fr21fpplm87wkk6,2,2,2b,202,11,1,no-go,NGW,63,L,bacs2,0,1,0.5379999999999999,0,0.0,0,1,0
1ahxnduc1fr21fpplm87wkk6,2,2,2b,208,12,1,no-go,NGW,63,L,bacs2,0,1,0.773,0,0.0,0,1,0
1ahxnduc1fr21fpplm87wkk6,2,2,2b,210,1,1,no-go,NGW,64,M,bacs2,0,1,1.078,0,0.0,0,1,0
1ahxnduc1fr21fpplm87wkk6,2,2,2b,215,2,1,no-go,NGW,64,M,bacs2,0,1,0.778,0,1.0,1,1,0
1ahxnduc1fr21fpplm87wkk6,2,2,2b,217,3,1,no-go,NGW,64,M,bacs2,0,1,0.7070000000000001,0,0.0,0,1,0
1ahxnduc1fr21fpplm87wkk6,2,2,2b,224,4,1,no-go,NGW,64,M,bacs2,0,1,0.747,0,1.0,1,1,0
1ahxnduc1fr21fpplm87wkk6,2,2,2b,225,5,1,no-go,NGW,64,M,bacs2,0,1,0.5,0,0.0,0,1,0
1ahxnduc1fr21fpplm87wkk6,2,2,2b,231,6,1,no-go,NGW,64,M,bacs2,0,1,0.562,0,1.0,1,1,0
1ahxnduc1fr21fpplm87wkk6,2,2,2b,236,7,1,no-go,NGW,64,M,bacs2,0,1,0.593,0,0.0,0,1,0
1ahxnduc1fr21fpplm87wkk6,2,2,2b,237,8,1,no-go,NGW,64,M,bacs2,0,1,0.483,0,0.0,0,1,0
1ahxnduc1fr21fpplm87wkk6,2,2,2b,124,1,0,no-go,NGAL,65,N,bacs2,0,0,,1,1.0,0,0,1
1ahxnduc1fr21fpplm87wkk6,2,2,2b,126,2,0,no-go,NGAL,65,N,bacs2,0,1,0.691,0,0.0,0,1,1
1ahxnduc1fr21fpplm87wkk6,2,2,2b,132,3,0,no-go,NGAL,65,N,bacs2,0,0,,1,0.0,1,0,1
1ahxnduc1fr21fpplm87wkk6,2,2,2b,133,4,0,no-go,NGAL,65,N,bacs2,0,0,,1,0.0,1,0,1
1ahxnduc1fr21fpplm87wkk6,2,2,2b,137,5,0,no-go,NGAL,65,N,bacs2,0,0,,1,1.0,0,0,1
1ahxnduc1fr21fpplm87wkk6,2,2,2b,141,6,0,no-go,NGAL,65,N,bacs2,0,1,0.757,0,0.0,0,1,1
1ahxnduc1fr21fpplm87wkk6,2,2,2b,146,7,0,no-go,NGAL,65,N,bacs2,0,0,,1,1.0,0,0,1
1ahxnduc1fr21fpplm87wkk6,2,2,2b,152,8,0,no-go,NGAL,65,N,bacs2,0,0,,1,0.0,1,0,1
1ahxnduc1fr21fpplm87wkk6,2,2,2b,155,9,0,no-go,NGAL,65,N,bacs2,0,0,,1,1.0,0,1,1
1ahxnduc1fr21fpplm87wkk6,2,2,2b,157,10,0,no-go,NGAL,65,N,bacs2,0,0,,1,0.0,1,0,1
1ahxnduc1fr21fpplm87wkk6,2,2,2b,163,11,0,no-go,NGAL,65,N,bacs2,0,0,,1,0.0,1,0,1
1ahxnduc1fr21fpplm87wkk6,2,2,2b,167,12,0,no-go,NGAL,65,N,bacs2,0,0,,1,0.0,1,0,1
1ahxnduc1fr21fpplm87wkk6,2,1,2a,51,1,1,no-go,NGW,66,O,bacs2,0,1,0.643,0,0.0,0,1,0
1ahxnduc1fr21fpplm87wkk6,2,1,2a,53,2,1,no-go,NGW,66,O,bacs2,0,0,,1,0.0,1,0,0
1ahxnduc1fr21fpplm87wkk6,2,1,2a,57,3,1,no-go,NGW,66,O,bacs2,0,0,,1,0.0,1,0,0
1ahxnduc1fr21fpplm87wkk6,2,1,2a,64,4,1,no-go,NGW,66,O,bacs2,0,0,,1,0.0,1,0,0
1ahxnduc1fr21fpplm87wkk6,2,1,2a,67,5,1,no-go,NGW,66,O,bacs2,0,0,,1,1.0,0,0,0
1ahxnduc1fr21fpplm87wkk6,2,1,2a,69,6,1,no-go,NGW,66,O,bacs2,0,0,,1,0.0,1,0,0
1ahxnduc1fr21fpplm87wkk6,2,1,2a,76,7,1,no-go,NGW,66,O,bacs2,0,0,,1,0.0,1,0,0
1ahxnduc1fr21fpplm87wkk6,2,1,2a,77,8,1,no-go,NGW,66,O,bacs2,0,0,,1,0.0,1,0,0
1ahxnduc1fr21fpplm87wkk6,2,2,2b,169,1,0,no-go,NGAL,67,P,bacs2,0,0,,1,0.0,1,0,1
1ahxnduc1fr21fpplm87wkk6,2,2,2b,174,2,0,no-go,NGAL,67,P,bacs2,0,0,,1,0.0,1,0,1
1ahxnduc1fr21fpplm87wkk6,2,2,2b,179,3,0,no-go,NGAL,67,P,bacs2,0,0,,1,0.0,1,0,1
1ahxnduc1fr21fpplm87wkk6,2,2,2b,181,4,0,no-go,NGAL,67,P,bacs2,0,0,,1,0.0,1,0,1
1ahxnduc1fr21fpplm87wkk6,2,2,2b,187,5,0,no-go,NGAL,67,P,bacs2,0,0,,1,0.0,1,0,1
1ahxnduc1fr21fpplm87wkk6,2,2,2b,192,6,0,no-go,NGAL,67,P,bacs2,0,0,,1,0.0,1,0,1
1ahxnduc1fr21fpplm87wkk6,2,2,2b,193,7,0,no-go,NGAL,67,P,bacs2,0,0,,1,0.0,1,0,1
1ahxnduc1fr21fpplm87wkk6,2,2,2b,198,8,0,no-go,NGAL,67,P,bacs2,0,0,,1,0.0,1,0,1
1ahxnduc1fr21fpplm87wkk6,2,1,2a,4,1,0,no-go,NGAL,68,Q,bacs2,0,0,,1,0.0,1,0,1
1ahxnduc1fr21fpplm87wkk6,2,1,2a,7,2,0,no-go,NGAL,68,Q,bacs2,0,1,1.227,0,0.0,0,1,1
1ahxnduc1fr21fpplm87wkk6,2,1,2a,12,3,0,no-go,NGAL,68,Q,bacs2,0,1,0.867,0,0.0,0,1,1
1ahxnduc1fr21fpplm87wkk6,2,1,2a,14,4,0,no-go,NGAL,68,Q,bacs2,0,1,0.7959999999999999,0,1.0,1,1,1
1ahxnduc1fr21fpplm87wkk6,2,1,2a,18,5,0,no-go,NGAL,68,Q,bacs2,0,1,0.772,0,0.0,0,1,1
1ahxnduc1fr21fpplm87wkk6,2,1,2a,22,6,0,no-go,NGAL,68,Q,bacs2,0,1,1.227,0,0.0,0,3,1
1ahxnduc1fr21fpplm87wkk6,2,1,2a,27,7,0,no-go,NGAL,68,Q,bacs2,0,1,1.0759999999999998,0,0.0,0,1,1
1ahxnduc1fr21fpplm87wkk6,2,1,2a,30,8,0,no-go,NGAL,68,Q,bacs2,0,0,,1,0.0,1,0,1
1ahxnduc1fr21fpplm87wkk6,2,2,2b,171,1,1,go,GW,69,R,bacs2,1,0,,0,1.0,1,0,1
1ahxnduc1fr21fpplm87wkk6,2,2,2b,173,2,1,go,GW,69,R,bacs2,1,0,,0,0.0,0,0,1
1ahxnduc1fr21fpplm87wkk6,2,2,2b,177,3,1,go,GW,69,R,bacs2,1,1,0.789,1,0.0,1,1,1
1ahxnduc1fr21fpplm87wkk6,2,2,2b,182,4,1,go,GW,69,R,bacs2,1,1,0.536,1,0.0,1,1,1
1ahxnduc1fr21fpplm87wkk6,2,2,2b,185,5,1,go,GW,69,R,bacs2,1,1,0.564,1,0.0,1,1,1
1ahxnduc1fr21fpplm87wkk6,2,2,2b,191,6,1,go,GW,69,R,bacs2,1,1,0.537,1,0.0,1,1,1
1ahxnduc1fr21fpplm87wkk6,2,2,2b,196,7,1,go,GW,69,R,bacs2,1,1,0.581,1,0.0,1,1,1
1ahxnduc1fr21fpplm87wkk6,2,2,2b,200,8,1,go,GW,69,R,bacs2,1,1,0.603,1,0.0,1,1,1
1ahxnduc1fr21fpplm87wkk6,2,2,2b,156,1,0,no-go,NGAL,70,S,bacs2,0,1,1.024,0,0.0,0,1,1
1ahxnduc1fr21fpplm87wkk6,2,2,2b,160,2,0,no-go,NGAL,70,S,bacs2,0,1,1.089,0,0.0,0,1,1
1ahxnduc1fr21fpplm87wkk6,2,2,2b,162,3,0,no-go,NGAL,70,S,bacs2,0,1,1.153,0,0.0,0,1,1
1ahxnduc1fr21fpplm87wkk6,2,2,2b,168,4,0,no-go,NGAL,70,S,bacs2,0,1,1.0979999999999999,0,0.0,0,1,1
1ahxnduc1fr21fpplm87wkk6,2,2,2b,170,5,0,no-go,NGAL,70,S,bacs2,0,0,,1,1.0,0,0,1
1ahxnduc1fr21fpplm87wkk6,2,2,2b,175,6,0,no-go,NGAL,70,S,bacs2,0,0,,1,0.0,1,0,1
1ahxnduc1fr21fpplm87wkk6,2,2,2b,178,7,0,no-go,NGAL,70,S,bacs2,0,0,,1,0.0,1,0,1
1ahxnduc1fr21fpplm87wkk6,2,2,2b,183,8,0,no-go,NGAL,70,S,bacs2,0,0,,1,0.0,1,0,1
1ahxnduc1fr21fpplm87wkk6,2,2,2b,186,9,0,no-go,NGAL,70,S,bacs2,0,0,,1,0.0,1,0,1
1ahxnduc1fr21fpplm87wkk6,2,2,2b,190,10,0,no-go,NGAL,70,S,bacs2,0,0,,1,0.0,1,0,1
1ahxnduc1fr21fpplm87wkk6,2,1,2a,1,1,0,go,GAL,71,T,bacs2,1,1,0.8320000000000001,1,0.0,1,1,0
1ahxnduc1fr21fpplm87wkk6,2,1,2a,5,2,0,go,GAL,71,T,bacs2,1,1,0.653,1,0.0,1,1,0
1ahxnduc1fr21fpplm87wkk6,2,1,2a,9,3,0,go,GAL,71,T,bacs2,1,1,0.982,1,1.0,0,1,0
1ahxnduc1fr21fpplm87wkk6,2,1,2a,15,4,0,go,GAL,71,T,bacs2,1,1,0.925,1,0.0,1,1,0
1ahxnduc1fr21fpplm87wkk6,2,1,2a,17,5,0,go,GAL,71,T,bacs2,1,1,1.079,1,0.0,1,1,0
1ahxnduc1fr21fpplm87wkk6,2,1,2a,23,6,0,go,GAL,71,T,bacs2,1,1,1.003,1,0.0,1,1,0
1ahxnduc1fr21fpplm87wkk6,2,1,2a,28,7,0,go,GAL,71,T,bacs2,1,1,0.845,1,0.0,1,1,0
1ahxnduc1fr21fpplm87wkk6,2,1,2a,31,8,0,go,GAL,71,T,bacs2,1,1,0.762,1,1.0,0,1,0
1ahxnduc1fr21fpplm87wkk6,2,1,2a,36,9,0,go,GAL,71,T,bacs2,1,1,1.11,1,0.0,1,1,0
1ahxnduc1fr21fpplm87wkk6,2,1,2a,37,10,0,go,GAL,71,T,bacs2,1,1,0.48100000000000004,1,0.0,1,1,0
1ahxnduc1fr21fpplm87wkk6,2,2,2b,123,1,1,go,GW,72,U,bacs2,1,1,0.688,1,0.0,1,1,1
1ahxnduc1fr21fpplm87wkk6,2,2,2b,127,2,1,go,GW,72,U,bacs2,1,1,1.2919999999999998,1,0.0,1,1,1
1ahxnduc1fr21fpplm87wkk6,2,2,2b,131,3,1,go,GW,72,U,bacs2,1,1,0.584,1,0.0,1,1,1
1ahxnduc1fr21fpplm87wkk6,2,2,2b,136,4,1,go,GW,72,U,bacs2,1,1,0.647,1,0.0,1,1,1
1ahxnduc1fr21fpplm87wkk6,2,2,2b,139,5,1,go,GW,72,U,bacs2,1,1,0.529,1,0.0,1,1,1
1ahxnduc1fr21fpplm87wkk6,2,2,2b,143,6,1,go,GW,72,U,bacs2,1,1,0.591,1,0.0,1,1,1
1ahxnduc1fr21fpplm87wkk6,2,2,2b,148,7,1,go,GW,72,U,bacs2,1,1,0.6559999999999999,1,0.0,1,1,1
1ahxnduc1fr21fpplm87wkk6,2,2,2b,150,8,1,go,GW,72,U,bacs2,1,1,0.5710000000000001,1,1.0,0,1,1
1ahxnduc1fr21fpplm87wkk6,2,2,2b,154,9,1,go,GW,72,U,bacs2,1,1,0.5,1,0.0,1,1,1
1ahxnduc1fr21fpplm87wkk6,2,2,2b,159,10,1,go,GW,72,U,bacs2,1,1,0.557,1,0.0,1,1,1
1ahxnduc1fr21fpplm87wkk6,2,2,2b,194,1,1,go,GW,73,V,bacs2,1,0,,0,0.0,0,0,1
1ahxnduc1fr21fpplm87wkk6,2,2,2b,197,2,1,go,GW,73,V,bacs2,1,1,0.495,1,0.0,1,1,1
1ahxnduc1fr21fpplm87wkk6,2,2,2b,204,3,1,go,GW,73,V,bacs2,1,1,0.9390000000000001,1,0.0,1,1,1
1ahxnduc1fr21fpplm87wkk6,2,2,2b,206,4,1,go,GW,73,V,bacs2,1,1,0.83,1,0.0,1,1,1
1ahxnduc1fr21fpplm87wkk6,2,2,2b,212,5,1,go,GW,73,V,bacs2,1,1,0.618,1,0.0,1,1,1
1ahxnduc1fr21fpplm87wkk6,2,2,2b,216,6,1,go,GW,73,V,bacs2,1,1,0.735,1,1.0,0,1,1
1ahxnduc1fr21fpplm87wkk6,2,2,2b,220,7,1,go,GW,73,V,bacs2,1,1,0.6859999999999999,1,0.0,1,1,1
1ahxnduc1fr21fpplm87wkk6,2,2,2b,222,8,1,go,GW,73,V,bacs2,1,1,0.855,1,1.0,0,1,1
1ahxnduc1fr21fpplm87wkk6,2,2,2b,228,9,1,go,GW,73,V,bacs2,1,1,0.575,1,0.0,1,1,1
1ahxnduc1fr21fpplm87wkk6,2,2,2b,232,10,1,go,GW,73,V,bacs2,1,1,0.6940000000000001,1,0.0,1,1,1
1ahxnduc1fr21fpplm87wkk6,2,2,2b,233,11,1,go,GW,73,V,bacs2,1,1,0.624,1,0.0,1,1,1
1ahxnduc1fr21fpplm87wkk6,2,2,2b,238,12,1,go,GW,73,V,bacs2,1,1,0.51,1,0.0,1,1,1
1ahxnduc1fr21fpplm87wkk6,2,1,2a,90,1,0,go,GAL,74,W,bacs2,1,0,,0,0.0,0,0,0
1ahxnduc1fr21fpplm87wkk6,2,1,2a,95,2,0,go,GAL,74,W,bacs2,1,1,0.767,1,0.0,1,1,0
1ahxnduc1fr21fpplm87wkk6,2,1,2a,100,3,0,go,GAL,74,W,bacs2,1,1,0.708,1,0.0,1,1,0
1ahxnduc1fr21fpplm87wkk6,2,1,2a,101,4,0,go,GAL,74,W,bacs2,1,1,0.495,1,0.0,1,1,0
1ahxnduc1fr21fpplm87wkk6,2,1,2a,105,5,0,go,GAL,74,W,bacs2,1,1,1.124,1,0.0,1,1,0
1ahxnduc1fr21fpplm87wkk6,2,1,2a,110,6,0,go,GAL,74,W,bacs2,1,1,0.698,1,0.0,1,1,0
1ahxnduc1fr21fpplm87wkk6,2,1,2a,114,7,0,go,GAL,74,W,bacs2,1,1,0.607,1,1.0,0,1,0
1ahxnduc1fr21fpplm87wkk6,2,1,2a,118,8,0,go,GAL,74,W,bacs2,1,1,0.631,1,1.0,0,1,0
1ahxnduc1fr21fpplm87wkk6,2,1,2a,81,1,0,no-go,NGAL,75,X,bacs2,0,1,0.6459999999999999,0,0.0,0,1,1
1ahxnduc1fr21fpplm87wkk6,2,1,2a,88,2,0,no-go,NGAL,75,X,bacs2,0,1,0.85,0,0.0,0,1,1
1ahxnduc1fr21fpplm87wkk6,2,1,2a,89,3,0,no-go,NGAL,75,X,bacs2,0,0,,1,0.0,1,0,1
1ahxnduc1fr21fpplm87wkk6,2,1,2a,96,4,0,no-go,NGAL,75,X,bacs2,0,1,0.726,0,0.0,0,1,1
1ahxnduc1fr21fpplm87wkk6,2,1,2a,99,5,0,no-go,NGAL,75,X,bacs2,0,0,,1,1.0,0,0,1
1ahxnduc1fr21fpplm87wkk6,2,1,2a,103,6,0,no-go,NGAL,75,X,bacs2,0,1,0.8690000000000001,0,0.0,0,1,1
1ahxnduc1fr21fpplm87wkk6,2,1,2a,108,7,0,no-go,NGAL,75,X,bacs2,0,1,1.008,0,0.0,0,1,1
1ahxnduc1fr21fpplm87wkk6,2,1,2a,111,8,0,no-go,NGAL,75,X,bacs2,0,1,0.485,0,0.0,0,1,1
1ahxnduc1fr21fpplm87wkk6,2,1,2a,115,9,0,no-go,NGAL,75,X,bacs2,0,0,,1,1.0,0,0,1
1ahxnduc1fr21fpplm87wkk6,2,1,2a,120,10,0,no-go,NGAL,75,X,bacs2,0,1,0.457,0,1.0,1,1,1
1ahxnduc1fr21fpplm87wkk6,2,1,2a,3,1,1,go,GW,76,Y,bacs2,1,1,0.5870000000000001,1,0.0,1,1,1
1ahxnduc1fr21fpplm87wkk6,2,1,2a,8,2,1,go,GW,76,Y,bacs2,1,1,0.9009999999999999,1,0.0,1,1,1
1ahxnduc1fr21fpplm87wkk6,2,1,2a,11,3,1,go,GW,76,Y,bacs2,1,0,,0,1.0,1,0,1
1ahxnduc1fr21fpplm87wkk6,2,1,2a,16,4,1,go,GW,76,Y,bacs2,1,1,0.9790000000000001,1,0.0,1,1,1
1ahxnduc1fr21fpplm87wkk6,2,1,2a,19,5,1,go,GW,76,Y,bacs2,1,0,,0,0.0,0,0,1
1ahxnduc1fr21fpplm87wkk6,2,1,2a,24,6,1,go,GW,76,Y,bacs2,1,0,,0,1.0,1,0,1
1ahxnduc1fr21fpplm87wkk6,2,1,2a,25,7,1,go,GW,76,Y,bacs2,1,0,,0,0.0,0,0,1
1ahxnduc1fr21fpplm87wkk6,2,1,2a,32,8,1,go,GW,76,Y,bacs2,1,0,,0,0.0,0,0,1
1ahxnduc1fr21fpplm87wkk6,2,1,2a,35,9,1,go,GW,76,Y,bacs2,1,1,0.9209999999999999,1,1.0,0,1,1
1ahxnduc1fr21fpplm87wkk6,2,1,2a,39,10,1,go,GW,76,Y,bacs2,1,1,0.623,1,1.0,0,1,1
1ahxnduc1fr21fpplm87wkk6,2,1,2a,44,11,1,go,GW,76,Y,bacs2,1,0,,0,1.0,1,0,1
1ahxnduc1fr21fpplm87wkk6,2,1,2a,45,12,1,go,GW,76,Y,bacs2,1,0,,0,0.0,0,0,1
1ahxnduc1fr21fpplm87wkk6,2,1,2a,83,1,1,go,GW,77,Z,bacs2,1,0,,0,0.0,0,0,1
1ahxnduc1fr21fpplm87wkk6,2,1,2a,86,2,1,go,GW,77,Z,bacs2,1,1,0.615,1,0.0,1,1,1
1ahxnduc1fr21fpplm87wkk6,2,1,2a,91,3,1,go,GW,77,Z,bacs2,1,1,0.799,1,0.0,1,1,1
1ahxnduc1fr21fpplm87wkk6,2,1,2a,93,4,1,go,GW,77,Z,bacs2,1,0,,0,0.0,0,1,1
1ahxnduc1fr21fpplm87wkk6,2,1,2a,97,5,1,go,GW,77,Z,bacs2,1,1,0.7440000000000001,1,0.0,1,1,1
1ahxnduc1fr21fpplm87wkk6,2,1,2a,104,6,1,go,GW,77,Z,bacs2,1,1,0.521,1,0.0,1,1,1
1ahxnduc1fr21fpplm87wkk6,2,1,2a,107,7,1,go,GW,77,Z,bacs2,1,1,0.6629999999999999,1,0.0,1,1,1
1ahxnduc1fr21fpplm87wkk6,2,1,2a,109,8,1,go,GW,77,Z,bacs2,1,1,0.545,1,0.0,1,1,1
1ahxnduc1fr21fpplm87wkk6,2,1,2a,116,9,1,go,GW,77,Z,bacs2,1,1,0.622,1,0.0,1,1,1
1ahxnduc1fr21fpplm87wkk6,2,1,2a,117,10,1,go,GW,77,Z,bacs2,1,1,0.516,1,0.0,1,1,1
1nn8ci654pmi5ny2ho1q3dxi,2,2,2a,202,1,0,no-go,NGAL,78,A,elianto,0,1,0.7020000000000001,0,0.0,0,1,1
1nn8ci654pmi5ny2ho1q3dxi,2,2,2a,206,2,0,no-go,NGAL,78,A,elianto,0,0,,1,0.0,1,0,1
1nn8ci654pmi5ny2ho1q3dxi,2,2,2a,210,3,0,no-go,NGAL,78,A,elianto,0,0,,1,1.0,0,0,1
1nn8ci654pmi5ny2ho1q3dxi,2,2,2a,213,4,0,no-go,NGAL,78,A,elianto,0,0,,1,0.0,1,0,1
1nn8ci654pmi5ny2ho1q3dxi,2,2,2a,220,5,0,no-go,NGAL,78,A,elianto,0,0,,1,0.0,1,1,1
1nn8ci654pmi5ny2ho1q3dxi,2,2,2a,224,6,0,no-go,NGAL,78,A,elianto,0,0,,1,0.0,1,0,1
1nn8ci654pmi5ny2ho1q3dxi,2,2,2a,225,7,0,no-go,NGAL,78,A,elianto,0,0,,1,0.0,1,0,1
1nn8ci654pmi5ny2ho1q3dxi,2,2,2a,231,8,0,no-go,NGAL,78,A,elianto,0,0,,1,0.0,1,0,1
1nn8ci654pmi5ny2ho1q3dxi,2,2,2a,234,9,0,no-go,NGAL,78,A,elianto,0,0,,1,0.0,1,0,1
1nn8ci654pmi5ny2ho1q3dxi,2,2,2a,238,10,0,no-go,NGAL,78,A,elianto,0,0,,1,0.0,1,0,1
1nn8ci654pmi5ny2ho1q3dxi,2,1,2b,43,1,1,no-go,NGW,79,B,elianto,0,1,0.6859999999999999,0,0.0,0,1,0
1nn8ci654pmi5ny2ho1q3dxi,2,1,2b,45,2,1,no-go,NGW,79,B,elianto,0,0,,1,0.0,1,0,0
1nn8ci654pmi5ny2ho1q3dxi,2,1,2b,50,3,1,no-go,NGW,79,B,elianto,0,0,,1,1.0,0,0,0
1nn8ci654pmi5ny2ho1q3dxi,2,1,2b,53,4,1,no-go,NGW,79,B,elianto,0,0,,1,1.0,0,0,0
1nn8ci654pmi5ny2ho1q3dxi,2,1,2b,60,5,1,no-go,NGW,79,B,elianto,0,0,,1,0.0,1,0,0
1nn8ci654pmi5ny2ho1q3dxi,2,1,2b,64,6,1,no-go,NGW,79,B,elianto,0,1,0.602,0,0.0,0,1,0
1nn8ci654pmi5ny2ho1q3dxi,2,1,2b,67,7,1,no-go,NGW,79,B,elianto,0,0,,1,0.0,1,0,0
1nn8ci654pmi5ny2ho1q3dxi,2,1,2b,72,8,1,no-go,NGW,79,B,elianto,0,0,,1,1.0,0,0,0
1nn8ci654pmi5ny2ho1q3dxi,2,1,2b,73,9,1,no-go,NGW,79,B,elianto,0,0,,1,0.0,1,0,0
1nn8ci654pmi5ny2ho1q3dxi,2,1,2b,78,10,1,no-go,NGW,79,B,elianto,0,0,,1,0.0,1,0,0
1nn8ci654pmi5ny2ho1q3dxi,2,1,2b,81,11,1,no-go,NGW,79,B,elianto,0,0,,1,0.0,1,0,0
1nn8ci654pmi5ny2ho1q3dxi,2,1,2b,85,12,1,no-go,NGW,79,B,elianto,0,0,,1,0.0,1,0,0
1nn8ci654pmi5ny2ho1q3dxi,2,1,2b,51,1,0,no-go,NGAL,80,C,elianto,0,1,0.706,0,0.0,0,1,1
1nn8ci654pmi5ny2ho1q3dxi,2,1,2b,56,2,0,no-go,NGAL,80,C,elianto,0,1,0.925,0,0.0,0,1,1
1nn8ci654pmi5ny2ho1q3dxi,2,1,2b,58,3,0,no-go,NGAL,80,C,elianto,0,0,,1,0.0,1,0,1
1nn8ci654pmi5ny2ho1q3dxi,2,1,2b,63,4,0,no-go,NGAL,80,C,elianto,0,0,,1,0.0,1,0,1
1nn8ci654pmi5ny2ho1q3dxi,2,1,2b,68,5,0,no-go,NGAL,80,C,elianto,0,0,,1,0.0,1,0,1
1nn8ci654pmi5ny2ho1q3dxi,2,1,2b,69,6,0,no-go,NGAL,80,C,elianto,0,0,,1,0.0,1,0,1
1nn8ci654pmi5ny2ho1q3dxi,2,1,2b,76,7,0,no-go,NGAL,80,C,elianto,0,0,,1,0.0,1,0,1
1nn8ci654pmi5ny2ho1q3dxi,2,1,2b,79,8,0,no-go,NGAL,80,C,elianto,0,0,,1,0.0,1,0,1
1nn8ci654pmi5ny2ho1q3dxi,2,2,2a,122,1,0,no-go,NGAL,81,D,elianto,0,1,0.45899999999999996,0,0.0,0,1,1
1nn8ci654pmi5ny2ho1q3dxi,2,2,2a,127,2,0,no-go,NGAL,81,D,elianto,0,0,,1,0.0,1,0,1
1nn8ci654pmi5ny2ho1q3dxi,2,2,2a,130,3,0,no-go,NGAL,81,D,elianto,0,0,,1,0.0,1,0,1
1nn8ci654pmi5ny2ho1q3dxi,2,2,2a,136,4,0,no-go,NGAL,81,D,elianto,0,0,,1,0.0,1,0,1
1nn8ci654pmi5ny2ho1q3dxi,2,2,2a,139,5,0,no-go,NGAL,81,D,elianto,0,0,,1,0.0,1,0,1
1nn8ci654pmi5ny2ho1q3dxi,2,2,2a,141,6,0,no-go,NGAL,81,D,elianto,0,0,,1,0.0,1,0,1
1nn8ci654pmi5ny2ho1q3dxi,2,2,2a,145,7,0,no-go,NGAL,81,D,elianto,0,0,,1,0.0,1,0,1
1nn8ci654pmi5ny2ho1q3dxi,2,2,2a,152,8,0,no-go,NGAL,81,D,elianto,0,0,,1,0.0,1,0,1
1nn8ci654pmi5ny2ho1q3dxi,2,2,2a,153,1,0,no-go,NGAL,82,E,elianto,0,1,0.619,0,1.0,1,1,1
1nn8ci654pmi5ny2ho1q3dxi,2,2,2a,160,2,0,no-go,NGAL,82,E,elianto,0,1,0.248,0,1.0,1,1,1
1nn8ci654pmi5ny2ho1q3dxi,2,2,2a,162,3,0,no-go,NGAL,82,E,elianto,0,1,0.361,0,1.0,1,1,1
1nn8ci654pmi5ny2ho1q3dxi,2,2,2a,165,4,0,no-go,NGAL,82,E,elianto,0,1,0.368,0,0.0,0,1,1
1nn8ci654pmi5ny2ho1q3dxi,2,2,2a,170,5,0,no-go,NGAL,82,E,elianto,0,1,0.541,0,1.0,1,1,1
1nn8ci654pmi5ny2ho1q3dxi,2,2,2a,173,6,0,no-go,NGAL,82,E,elianto,0,1,0.655,0,0.0,0,1,1
1nn8ci654pmi5ny2ho1q3dxi,2,2,2a,177,7,0,no-go,NGAL,82,E,elianto,0,0,,1,0.0,1,0,1
1nn8ci654pmi5ny2ho1q3dxi,2,2,2a,183,8,0,no-go,NGAL,82,E,elianto,0,1,0.667,0,0.0,0,1,1
1nn8ci654pmi5ny2ho1q3dxi,2,2,2a,186,9,0,no-go,NGAL,82,E,elianto,0,0,,1,0.0,1,0,1
1nn8ci654pmi5ny2ho1q3dxi,2,2,2a,190,10,0,no-go,NGAL,82,E,elianto,0,0,,1,0.0,1,0,1
1nn8ci654pmi5ny2ho1q3dxi,2,2,2a,194,11,0,no-go,NGAL,82,E,elianto,0,0,,1,0.0,1,0,1
1nn8ci654pmi5ny2ho1q3dxi,2,2,2a,200,12,0,no-go,NGAL,82,E,elianto,0,0,,1,0.0,1,0,1
1nn8ci654pmi5ny2ho1q3dxi,2,1,2b,2,1,0,go,GAL,83,F,elianto,1,1,1.065,1,0.0,1,1,0
1nn8ci654pmi5ny2ho1q3dxi,2,1,2b,5,2,0,go,GAL,83,F,elianto,1,1,0.867,1,1.0,0,1,0
1nn8ci654pmi5ny2ho1q3dxi,2,1,2b,9,3,0,go,GAL,83,F,elianto,1,0,,0,0.0,0,0,0
1nn8ci654pmi5ny2ho1q3dxi,2,1,2b,13,4,0,go,GAL,83,F,elianto,1,0,,0,0.0,0,0,0
1nn8ci654pmi5ny2ho1q3dxi,2,1,2b,20,5,0,go,GAL,83,F,elianto,1,0,,0,0.0,0,0,0
1nn8ci654pmi5ny2ho1q3dxi,2,1,2b,21,6,0,go,GAL,83,F,elianto,1,1,0.41700000000000004,1,0.0,1,1,0
1nn8ci654pmi5ny2ho1q3dxi,2,1,2b,25,7,0,go,GAL,83,F,elianto,1,1,0.457,1,0.0,1,1,0
1nn8ci654pmi5ny2ho1q3dxi,2,1,2b,32,8,0,go,GAL,83,F,elianto,1,0,,0,0.0,0,0,0
1nn8ci654pmi5ny2ho1q3dxi,2,2,2a,204,1,1,go,GW,84,G,elianto,1,1,0.6,1,0.0,1,1,1
1nn8ci654pmi5ny2ho1q3dxi,2,2,2a,208,2,1,go,GW,84,G,elianto,1,1,0.302,1,0.0,1,1,1
1nn8ci654pmi5ny2ho1q3dxi,2,2,2a,209,3,1,go,GW,84,G,elianto,1,1,0.366,1,0.0,1,1,1
1nn8ci654pmi5ny2ho1q3dxi,2,2,2a,215,4,1,go,GW,84,G,elianto,1,1,0.441,1,1.0,0,1,1
1nn8ci654pmi5ny2ho1q3dxi,2,2,2a,217,5,1,go,GW,84,G,elianto,1,1,0.455,1,1.0,0,1,1
1nn8ci654pmi5ny2ho1q3dxi,2,2,2a,223,6,1,go,GW,84,G,elianto,1,1,0.674,1,1.0,0,1,1
1nn8ci654pmi5ny2ho1q3dxi,2,2,2a,228,7,1,go,GW,84,G,elianto,1,1,0.39299999999999996,1,0.0,1,1,1
1nn8ci654pmi5ny2ho1q3dxi,2,2,2a,232,8,1,go,GW,84,G,elianto,1,1,0.466,1,0.0,1,1,1
1nn8ci654pmi5ny2ho1q3dxi,2,2,2a,236,9,1,go,GW,84,G,elianto,1,1,0.33799999999999997,1,0.0,1,1,1
1nn8ci654pmi5ny2ho1q3dxi,2,2,2a,237,10,1,go,GW,84,G,elianto,1,1,0.41200000000000003,1,0.0,1,1,1
1nn8ci654pmi5ny2ho1q3dxi,2,1,2b,74,1,1,go,GW,85,H,elianto,1,1,0.526,1,0.0,1,1,1
1nn8ci654pmi5ny2ho1q3dxi,2,1,2b,77,2,1,go,GW,85,H,elianto,1,1,0.687,1,0.0,1,1,1
1nn8ci654pmi5ny2ho1q3dxi,2,1,2b,84,3,1,go,GW,85,H,elianto,1,1,0.682,1,0.0,1,1,1
1nn8ci654pmi5ny2ho1q3dxi,2,1,2b,87,4,1,go,GW,85,H,elianto,1,1,0.5760000000000001,1,0.0,1,1,1
1nn8ci654pmi5ny2ho1q3dxi,2,1,2b,92,5,1,go,GW,85,H,elianto,1,1,0.509,1,1.0,0,1,1
1nn8ci654pmi5ny2ho1q3dxi,2,1,2b,93,6,1,go,GW,85,H,elianto,1,0,,0,0.0,0,0,1
1nn8ci654pmi5ny2ho1q3dxi,2,1,2b,100,7,1,go,GW,85,H,elianto,1,1,0.866,1,0.0,1,1,1
1nn8ci654pmi5ny2ho1q3dxi,2,1,2b,101,8,1,go,GW,85,H,elianto,1,1,0.47700000000000004,1,1.0,0,1,1
1nn8ci654pmi5ny2ho1q3dxi,2,1,2b,107,9,1,go,GW,85,H,elianto,1,0,,0,1.0,1,0,1
1nn8ci654pmi5ny2ho1q3dxi,2,1,2b,110,10,1,go,GW,85,H,elianto,1,0,,0,1.0,1,0,1
1nn8ci654pmi5ny2ho1q3dxi,2,1,2b,116,11,1,go,GW,85,H,elianto,1,0,,0,0.0,0,0,1
1nn8ci654pmi5ny2ho1q3dxi,2,1,2b,120,12,1,go,GW,85,H,elianto,1,0,,0,0.0,0,0,1
1nn8ci654pmi5ny2ho1q3dxi,2,2,2a,121,1,0,go,GAL,87,J,elianto,1,1,0.315,1,1.0,0,1,0
1nn8ci654pmi5ny2ho1q3dxi,2,2,2a,128,2,0,go,GAL,87,J,elianto,1,0,,0,0.0,0,0,0
1nn8ci654pmi5ny2ho1q3dxi,2,2,2a,132,3,0,go,GAL,87,J,elianto,1,0,,0,0.0,0,0,0
1nn8ci654pmi5ny2ho1q3dxi,2,2,2a,134,4,0,go,GAL,87,J,elianto,1,1,0.32,1,0.0,1,1,0
1nn8ci654pmi5ny2ho1q3dxi,2,2,2a,140,5,0,go,GAL,87,J,elianto,1,1,0.536,1,0.0,1,1,0
1nn8ci654pmi5ny2ho1q3dxi,2,2,2a,144,6,0,go,GAL,87,J,elianto,1,1,0.294,1,0.0,1,1,0
1nn8ci654pmi5ny2ho1q3dxi,2,2,2a,147,7,0,go,GAL,87,J,elianto,1,1,0.636,1,0.0,1,1,0
1nn8ci654pmi5ny2ho1q3dxi,2,2,2a,149,8,0,go,GAL,87,J,elianto,1,0,,0,0.0,0,0,0
1nn8ci654pmi5ny2ho1q3dxi,2,2,2a,156,9,0,go,GAL,87,J,elianto,1,1,0.292,1,0.0,1,1,0
1nn8ci654pmi5ny2ho1q3dxi,2,2,2a,157,10,0,go,GAL,87,J,elianto,1,1,0.647,1,0.0,1,1,0
1nn8ci654pmi5ny2ho1q3dxi,2,2,2a,123,1,1,no-go,NGW,88,K,elianto,0,1,0.5670000000000001,0,0.0,0,1,0
1nn8ci654pmi5ny2ho1q3dxi,2,2,2a,126,2,1,no-go,NGW,88,K,elianto,0,1,0.604,0,0.0,0,1,0
1nn8ci654pmi5ny2ho1q3dxi,2,2,2a,131,3,1,no-go,NGW,88,K,elianto,0,1,0.841,0,0.0,0,1,0
1nn8ci654pmi5ny2ho1q3dxi,2,2,2a,135,4,1,no-go,NGW,88,K,elianto,0,0,,1,0.0,1,0,0
1nn8ci654pmi5ny2ho1q3dxi,2,2,2a,138,5,1,no-go,NGW,88,K,elianto,0,0,,1,0.0,1,0,0
1nn8ci654pmi5ny2ho1q3dxi,2,2,2a,142,6,1,no-go,NGW,88,K,elianto,0,0,,1,0.0,1,0,0
1nn8ci654pmi5ny2ho1q3dxi,2,2,2a,146,7,1,no-go,NGW,88,K,elianto,0,0,,1,0.0,1,0,0
1nn8ci654pmi5ny2ho1q3dxi,2,2,2a,150,8,1,no-go,NGW,88,K,elianto,0,0,,1,0.0,1,0,0
1nn8ci654pmi5ny2ho1q3dxi,2,2,2a,155,9,1,no-go,NGW,88,K,elianto,0,0,,1,0.0,1,0,0
1nn8ci654pmi5ny2ho1q3dxi,2,2,2a,158,10,1,no-go,NGW,88,K,elianto,0,0,,1,0.0,1,0,0
1nn8ci654pmi5ny2ho1q3dxi,2,2,2a,164,11,1,no-go,NGW,88,K,elianto,0,0,,1,0.0,1,0,0
1nn8ci654pmi5ny2ho1q3dxi,2,2,2a,168,12,1,no-go,NGW,88,K,elianto,0,0,,1,1.0,0,0,0
1nn8ci654pmi5ny2ho1q3dxi,2,2,2a,211,1,0,go,GAL,89,L,elianto,1,1,0.725,1,0.0,1,1,0
1nn8ci654pmi5ny2ho1q3dxi,2,2,2a,216,2,0,go,GAL,89,L,elianto,1,1,0.596,1,0.0,1,1,0
1nn8ci654pmi5ny2ho1q3dxi,2,2,2a,218,3,0,go,GAL,89,L,elianto,1,1,0.466,1,0.0,1,1,0
1nn8ci654pmi5ny2ho1q3dxi,2,2,2a,221,4,0,go,GAL,89,L,elianto,1,0,,0,0.0,0,0,0
1nn8ci654pmi5ny2ho1q3dxi,2,2,2a,226,5,0,go,GAL,89,L,elianto,1,1,0.7040000000000001,1,0.0,1,1,0
1nn8ci654pmi5ny2ho1q3dxi,2,2,2a,229,6,0,go,GAL,89,L,elianto,1,1,0.6659999999999999,1,0.0,1,1,0
1nn8ci654pmi5ny2ho1q3dxi,2,2,2a,233,7,0,go,GAL,89,L,elianto,1,1,0.557,1,0.0,1,1,0
1nn8ci654pmi5ny2ho1q3dxi,2,2,2a,239,8,0,go,GAL,89,L,elianto,1,1,0.46,1,0.0,1,1,0
1nn8ci654pmi5ny2ho1q3dxi,2,1,2b,89,1,1,no-go,NGW,90,M,elianto,0,1,0.528,0,0.0,0,1,0
1nn8ci654pmi5ny2ho1q3dxi,2,1,2b,95,2,1,no-go,NGW,90,M,elianto,0,1,0.551,0,0.0,0,1,0
1nn8ci654pmi5ny2ho1q3dxi,2,1,2b,99,3,1,no-go,NGW,90,M,elianto,0,0,,1,0.0,1,0,0
1nn8ci654pmi5ny2ho1q3dxi,2,1,2b,104,4,1,no-go,NGW,90,M,elianto,0,0,,1,0.0,1,0,0
1nn8ci654pmi5ny2ho1q3dxi,2,1,2b,108,5,1,no-go,NGW,90,M,elianto,0,0,,1,0.0,1,0,0
1nn8ci654pmi5ny2ho1q3dxi,2,1,2b,111,6,1,no-go,NGW,90,M,elianto,0,0,,1,0.0,1,0,0
1nn8ci654pmi5ny2ho1q3dxi,2,1,2b,114,7,1,no-go,NGW,90,M,elianto,0,0,,1,0.0,1,0,0
1nn8ci654pmi5ny2ho1q3dxi,2,1,2b,119,8,1,no-go,NGW,90,M,elianto,0,0,,1,0.0,1,0,0
1nn8ci654pmi5ny2ho1q3dxi,2,1,2b,4,1,0,go,GAL,91,N,elianto,1,1,0.514,1,0.0,1,1,0
1nn8ci654pmi5ny2ho1q3dxi,2,1,2b,7,2,0,go,GAL,91,N,elianto,1,1,0.504,1,0.0,1,1,0
1nn8ci654pmi5ny2ho1q3dxi,2,1,2b,12,3,0,go,GAL,91,N,elianto,1,0,,0,0.0,0,0,0
1nn8ci654pmi5ny2ho1q3dxi,2,1,2b,15,4,0,go,GAL,91,N,elianto,1,1,0.402,1,0.0,1,1,0
1nn8ci654pmi5ny2ho1q3dxi,2,1,2b,18,5,0,go,GAL,91,N,elianto,1,1,0.556,1,0.0,1,1,0
1nn8ci654pmi5ny2ho1q3dxi,2,1,2b,23,6,0,go,GAL,91,N,elianto,1,0,,0,0.0,0,0,0
1nn8ci654pmi5ny2ho1q3dxi,2,1,2b,27,7,0,go,GAL,91,N,elianto,1,0,,0,1.0,1,0,0
1nn8ci654pmi5ny2ho1q3dxi,2,1,2b,30,8,0,go,GAL,91,N,elianto,1,1,1.013,1,0.0,1,1,0
1nn8ci654pmi5ny2ho1q3dxi,2,1,2b,35,9,0,go,GAL,91,N,elianto,1,1,0.971,1,0.0,1,1,0
1nn8ci654pmi5ny2ho1q3dxi,2,1,2b,40,10,0,go,GAL,91,N,elianto,1,0,,0,0.0,0,0,0
1nn8ci654pmi5ny2ho1q3dxi,2,1,2b,44,11,0,go,GAL,91,N,elianto,1,0,,0,0.0,0,0,0
1nn8ci654pmi5ny2ho1q3dxi,2,1,2b,47,12,0,go,GAL,91,N,elianto,1,1,1.218,1,0.0,1,1,0
1nn8ci654pmi5ny2ho1q3dxi,2,2,2a,169,1,1,no-go,NGW,93,P,elianto,0,1,0.452,0,0.0,0,1,0
1nn8ci654pmi5ny2ho1q3dxi,2,2,2a,174,2,1,no-go,NGW,93,P,elianto,0,1,0.62,0,0.0,0,1,0
1nn8ci654pmi5ny2ho1q3dxi,2,2,2a,178,3,1,no-go,NGW,93,P,elianto,0,0,,1,0.0,1,0,0
1nn8ci654pmi5ny2ho1q3dxi,2,2,2a,184,4,1,no-go,NGW,93,P,elianto,0,0,,1,0.0,1,0,0
1nn8ci654pmi5ny2ho1q3dxi,2,2,2a,188,5,1,no-go,NGW,93,P,elianto,0,0,,1,0.0,1,0,0
1nn8ci654pmi5ny2ho1q3dxi,2,2,2a,192,6,1,no-go,NGW,93,P,elianto,0,0,,1,0.0,1,0,0
1nn8ci654pmi5ny2ho1q3dxi,2,2,2a,196,7,1,no-go,NGW,93,P,elianto,0,0,,1,1.0,0,0,0
1nn8ci654pmi5ny2ho1q3dxi,2,2,2a,198,8,1,no-go,NGW,93,P,elianto,0,0,,1,0.0,1,0,0
1nn8ci654pmi5ny2ho1q3dxi,2,2,2a,203,9,1,no-go,NGW,93,P,elianto,0,0,,1,0.0,1,0,0
1nn8ci654pmi5ny2ho1q3dxi,2,2,2a,205,10,1,no-go,NGW,93,P,elianto,0,0,,1,0.0,1,0,0
1nn8ci654pmi5ny2ho1q3dxi,2,1,2b,3,1,0,no-go,NGAL,94,Q,elianto,0,1,0.5820000000000001,0,0.0,0,1,1
1nn8ci654pmi5ny2ho1q3dxi,2,1,2b,6,2,0,no-go,NGAL,94,Q,elianto,0,1,0.493,0,0.0,0,1,1
1nn8ci654pmi5ny2ho1q3dxi,2,1,2b,10,3,0,no-go,NGAL,94,Q,elianto,0,1,0.525,0,0.0,0,1,1
1nn8ci654pmi5ny2ho1q3dxi,2,1,2b,16,4,0,no-go,NGAL,94,Q,elianto,0,1,0.49200000000000005,0,0.0,0,1,1
1nn8ci654pmi5ny2ho1q3dxi,2,1,2b,19,5,0,no-go,NGAL,94,Q,elianto,0,0,,1,1.0,0,0,1
1nn8ci654pmi5ny2ho1q3dxi,2,1,2b,24,6,0,no-go,NGAL,94,Q,elianto,0,1,0.597,0,0.0,0,1,1
1nn8ci654pmi5ny2ho1q3dxi,2,1,2b,28,7,0,no-go,NGAL,94,Q,elianto,0,1,0.657,0,0.0,0,1,1
1nn8ci654pmi5ny2ho1q3dxi,2,1,2b,29,8,0,no-go,NGAL,94,Q,elianto,0,0,,1,0.0,1,0,1
1nn8ci654pmi5ny2ho1q3dxi,2,1,2b,34,9,0,no-go,NGAL,94,Q,elianto,0,0,,1,0.0,1,0,1
1nn8ci654pmi5ny2ho1q3dxi,2,1,2b,38,10,0,no-go,NGAL,94,Q,elianto,0,1,1.163,0,0.0,0,1,1
1nn8ci654pmi5ny2ho1q3dxi,2,1,2b,41,11,0,no-go,NGAL,94,Q,elianto,0,1,1.135,0,0.0,0,1,1
1nn8ci654pmi5ny2ho1q3dxi,2,1,2b,48,12,0,no-go,NGAL,94,Q,elianto,0,1,0.8909999999999999,0,0.0,0,1,1
1nn8ci654pmi5ny2ho1q3dxi,2,1,2b,82,1,0,go,GAL,95,R,elianto,1,1,0.606,1,0.0,1,1,0
1nn8ci654pmi5ny2ho1q3dxi,2,1,2b,88,2,0,go,GAL,95,R,elianto,1,0,,0,0.0,0,0,0
1nn8ci654pmi5ny2ho1q3dxi,2,1,2b,90,3,0,go,GAL,95,R,elianto,1,1,0.799,1,0.0,1,1,0
1nn8ci654pmi5ny2ho1q3dxi,2,1,2b,94,4,0,go,GAL,95,R,elianto,1,1,0.7509999999999999,1,0.0,1,1,0
1nn8ci654pmi5ny2ho1q3dxi,2,1,2b,98,5,0,go,GAL,95,R,elianto,1,1,0.517,1,0.0,1,1,0
1nn8ci654pmi5ny2ho1q3dxi,2,1,2b,102,6,0,go,GAL,95,R,elianto,1,1,0.588,1,0.0,1,1,0
1nn8ci654pmi5ny2ho1q3dxi,2,1,2b,105,7,0,go,GAL,95,R,elianto,1,1,0.59,1,0.0,1,1,0
1nn8ci654pmi5ny2ho1q3dxi,2,1,2b,109,8,0,go,GAL,95,R,elianto,1,1,0.341,1,0.0,1,1,0
1nn8ci654pmi5ny2ho1q3dxi,2,1,2b,113,9,0,go,GAL,95,R,elianto,1,1,0.327,1,0.0,1,1,0
1nn8ci654pmi5ny2ho1q3dxi,2,1,2b,118,10,0,go,GAL,95,R,elianto,1,1,0.513,1,0.0,1,1,0
1nn8ci654pmi5ny2ho1q3dxi,2,2,2a,171,1,1,no-go,NGW,96,S,elianto,0,1,0.49,0,0.0,0,1,0
1nn8ci654pmi5ny2ho1q3dxi,2,2,2a,175,2,1,no-go,NGW,96,S,elianto,0,0,,1,0.0,1,0,0
1nn8ci654pmi5ny2ho1q3dxi,2,2,2a,179,3,1,no-go,NGW,96,S,elianto,0,0,,1,0.0,1,0,0
1nn8ci654pmi5ny2ho1q3dxi,2,2,2a,182,4,1,no-go,NGW,96,S,elianto,0,0,,1,1.0,0,0,0
1nn8ci654pmi5ny2ho1q3dxi,2,2,2a,187,5,1,no-go,NGW,96,S,elianto,0,0,,1,0.0,1,0,0
1nn8ci654pmi5ny2ho1q3dxi,2,2,2a,189,6,1,no-go,NGW,96,S,elianto,0,0,,1,0.0,1,0,0
1nn8ci654pmi5ny2ho1q3dxi,2,2,2a,195,7,1,no-go,NGW,96,S,elianto,0,0,,1,1.0,0,0,0
1nn8ci654pmi5ny2ho1q3dxi,2,2,2a,197,8,1,no-go,NGW,96,S,elianto,0,0,,1,0.0,1,0,0
1nn8ci654pmi5ny2ho1q3dxi,2,1,2b,33,1,0,no-go,NGAL,97,T,elianto,0,1,0.6509999999999999,0,0.0,0,1,1
1nn8ci654pmi5ny2ho1q3dxi,2,1,2b,37,2,0,no-go,NGAL,97,T,elianto,0,1,0.948,0,1.0,1,1,1
1nn8ci654pmi5ny2ho1q3dxi,2,1,2b,42,3,0,no-go,NGAL,97,T,elianto,0,1,0.851,0,0.0,0,1,1
1nn8ci654pmi5ny2ho1q3dxi,2,1,2b,46,4,0,no-go,NGAL,97,T,elianto,0,0,,1,0.0,1,0,1
1nn8ci654pmi5ny2ho1q3dxi,2,1,2b,49,5,0,no-go,NGAL,97,T,elianto,0,0,,1,0.0,1,0,1
1nn8ci654pmi5ny2ho1q3dxi,2,1,2b,54,6,0,no-go,NGAL,97,T,elianto,0,0,,1,1.0,0,0,1
1nn8ci654pmi5ny2ho1q3dxi,2,1,2b,57,7,0,no-go,NGAL,97,T,elianto,0,0,,1,0.0,1,0,1
1nn8ci654pmi5ny2ho1q3dxi,2,1,2b,62,8,0,no-go,NGAL,97,T,elianto,0,0,,1,1.0,0,0,1
1nn8ci654pmi5ny2ho1q3dxi,2,1,2b,66,9,0,no-go,NGAL,97,T,elianto,0,1,0.6970000000000001,0,0.0,0,1,1
1nn8ci654pmi5ny2ho1q3dxi,2,1,2b,70,10,0,no-go,NGAL,97,T,elianto,0,1,0.742,0,0.0,0,1,1
1nn8ci654pmi5ny2ho1q3dxi,2,2,2a,212,1,1,go,GW,98,U,elianto,1,1,0.573,1,0.0,1,1,1
1nn8ci654pmi5ny2ho1q3dxi,2,2,2a,214,2,1,go,GW,98,U,elianto,1,1,0.36,1,0.0,1,1,1
1nn8ci654pmi5ny2ho1q3dxi,2,2,2a,219,3,1,go,GW,98,U,elianto,1,0,,0,0.0,0,0,1
1nn8ci654pmi5ny2ho1q3dxi,2,2,2a,222,4,1,go,GW,98,U,elianto,1,1,0.43799999999999994,1,1.0,0,1,1
1nn8ci654pmi5ny2ho1q3dxi,2,2,2a,227,5,1,go,GW,98,U,elianto,1,1,0.348,1,0.0,1,1,1
1nn8ci654pmi5ny2ho1q3dxi,2,2,2a,230,6,1,go,GW,98,U,elianto,1,1,0.355,1,0.0,1,1,1
1nn8ci654pmi5ny2ho1q3dxi,2,2,2a,235,7,1,go,GW,98,U,elianto,1,1,0.545,1,0.0,1,1,1
1nn8ci654pmi5ny2ho1q3dxi,2,2,2a,240,8,1,go,GW,98,U,elianto,1,1,0.354,1,0.0,1,1,1
1nn8ci654pmi5ny2ho1q3dxi,2,2,2a,124,1,1,go,GW,99,V,elianto,1,1,0.545,1,0.0,1,1,1
1nn8ci654pmi5ny2ho1q3dxi,2,2,2a,125,2,1,go,GW,99,V,elianto,1,1,0.531,1,0.0,1,1,1
1nn8ci654pmi5ny2ho1q3dxi,2,2,2a,129,3,1,go,GW,99,V,elianto,1,1,0.358,1,1.0,0,1,1
1nn8ci654pmi5ny2ho1q3dxi,2,2,2a,133,4,1,go,GW,99,V,elianto,1,1,0.40299999999999997,1,0.0,1,1,1
1nn8ci654pmi5ny2ho1q3dxi,2,2,2a,137,5,1,go,GW,99,V,elianto,1,1,0.341,1,0.0,1,1,1
1nn8ci654pmi5ny2ho1q3dxi,2,2,2a,143,6,1,go,GW,99,V,elianto,1,1,0.33299999999999996,1,0.0,1,1,1
1nn8ci654pmi5ny2ho1q3dxi,2,2,2a,148,7,1,go,GW,99,V,elianto,1,1,0.409,1,0.0,1,1,1
1nn8ci654pmi5ny2ho1q3dxi,2,2,2a,151,8,1,go,GW,99,V,elianto,1,1,0.285,1,1.0,0,1,1
1nn8ci654pmi5ny2ho1q3dxi,2,2,2a,154,9,1,go,GW,99,V,elianto,1,1,0.28600000000000003,1,0.0,1,1,1
1nn8ci654pmi5ny2ho1q3dxi,2,2,2a,159,10,1,go,GW,99,V,elianto,1,1,0.29600000000000004,1,0.0,1,1,1
1nn8ci654pmi5ny2ho1q3dxi,2,2,2a,163,11,1,go,GW,99,V,elianto,1,1,0.382,1,0.0,1,1,1
1nn8ci654pmi5ny2ho1q3dxi,2,2,2a,167,12,1,go,GW,99,V,elianto,1,1,0.49700000000000005,1,1.0,0,1,1
1nn8ci654pmi5ny2ho1q3dxi,2,2,2a,161,1,0,go,GAL,100,W,elianto,1,1,0.612,1,0.0,1,1,0
1nn8ci654pmi5ny2ho1q3dxi,2,2,2a,166,2,0,go,GAL,100,W,elianto,1,1,0.289,1,0.0,1,1,0
1nn8ci654pmi5ny2ho1q3dxi,2,2,2a,172,3,0,go,GAL,100,W,elianto,1,1,0.574,1,0.0,1,1,0
1nn8ci654pmi5ny2ho1q3dxi,2,2,2a,176,4,0,go,GAL,100,W,elianto,1,1,0.5579999999999999,1,0.0,1,1,0
1nn8ci654pmi5ny2ho1q3dxi,2,2,2a,180,5,0,go,GAL,100,W,elianto,1,1,0.433,1,1.0,0,1,0
1nn8ci654pmi5ny2ho1q3dxi,2,2,2a,181,6,0,go,GAL,100,W,elianto,1,0,,0,0.0,0,0,0
1nn8ci654pmi5ny2ho1q3dxi,2,2,2a,185,7,0,go,GAL,100,W,elianto,1,1,0.879,1,0.0,1,1,0
1nn8ci654pmi5ny2ho1q3dxi,2,2,2a,191,8,0,go,GAL,100,W,elianto,1,1,0.493,1,1.0,0,1,0
1nn8ci654pmi5ny2ho1q3dxi,2,2,2a,193,9,0,go,GAL,100,W,elianto,1,1,0.77,1,0.0,1,1,0
1nn8ci654pmi5ny2ho1q3dxi,2,2,2a,199,10,0,go,GAL,100,W,elianto,1,1,0.545,1,0.0,1,1,0
1nn8ci654pmi5ny2ho1q3dxi,2,2,2a,201,11,0,go,GAL,100,W,elianto,1,1,0.625,1,1.0,0,1,0
1nn8ci654pmi5ny2ho1q3dxi,2,2,2a,207,12,0,go,GAL,100,W,elianto,1,1,0.462,1,0.0,1,1,0
1nn8ci654pmi5ny2ho1q3dxi,2,1,2b,1,1,1,go,GW,101,X,elianto,1,1,0.389,1,1.0,0,1,1
1nn8ci654pmi5ny2ho1q3dxi,2,1,2b,8,2,1,go,GW,101,X,elianto,1,1,0.629,1,0.0,1,1,1
1nn8ci654pmi5ny2ho1q3dxi,2,1,2b,11,3,1,go,GW,101,X,elianto,1,1,0.455,1,0.0,1,1,1
1nn8ci654pmi5ny2ho1q3dxi,2,1,2b,14,4,1,go,GW,101,X,elianto,1,1,0.47600000000000003,1,0.0,1,1,1
1nn8ci654pmi5ny2ho1q3dxi,2,1,2b,17,5,1,go,GW,101,X,elianto,1,1,0.415,1,1.0,0,1,1
1nn8ci654pmi5ny2ho1q3dxi,2,1,2b,22,6,1,go,GW,101,X,elianto,1,1,0.308,1,1.0,0,1,1
1nn8ci654pmi5ny2ho1q3dxi,2,1,2b,26,7,1,go,GW,101,X,elianto,1,1,0.353,1,1.0,0,1,1
1nn8ci654pmi5ny2ho1q3dxi,2,1,2b,31,8,1,go,GW,101,X,elianto,1,1,0.33299999999999996,1,0.0,1,1,1
1nn8ci654pmi5ny2ho1q3dxi,2,1,2b,36,9,1,go,GW,101,X,elianto,1,1,0.975,1,0.0,1,1,1
1nn8ci654pmi5ny2ho1q3dxi,2,1,2b,39,10,1,go,GW,101,X,elianto,1,1,0.428,1,0.0,1,1,1
1nn8ci654pmi5ny2ho1q3dxi,2,1,2b,83,1,1,no-go,NGW,102,Y,elianto,0,1,0.688,0,1.0,1,1,0
1nn8ci654pmi5ny2ho1q3dxi,2,1,2b,86,2,1,no-go,NGW,102,Y,elianto,0,1,0.446,0,0.0,0,1,0
1nn8ci654pmi5ny2ho1q3dxi,2,1,2b,91,3,1,no-go,NGW,102,Y,elianto,0,1,0.682,0,0.0,0,1,0
1nn8ci654pmi5ny2ho1q3dxi,2,1,2b,96,4,1,no-go,NGW,102,Y,elianto,0,0,,1,0.0,1,0,0
1nn8ci654pmi5ny2ho1q3dxi,2,1,2b,97,5,1,no-go,NGW,102,Y,elianto,0,1,0.848,0,0.0,0,1,0
1nn8ci654pmi5ny2ho1q3dxi,2,1,2b,103,6,1,no-go,NGW,102,Y,elianto,0,0,,1,0.0,1,0,0
1nn8ci654pmi5ny2ho1q3dxi,2,1,2b,106,7,1,no-go,NGW,102,Y,elianto,0,0,,1,0.0,1,0,0
1nn8ci654pmi5ny2ho1q3dxi,2,1,2b,112,8,1,no-go,NGW,102,Y,elianto,0,0,,1,0.0,1,0,0
1nn8ci654pmi5ny2ho1q3dxi,2,1,2b,115,9,1,no-go,NGW,102,Y,elianto,0,0,,1,0.0,1,0,0
1nn8ci654pmi5ny2ho1q3dxi,2,1,2b,117,10,1,no-go,NGW,102,Y,elianto,0,0,,1,0.0,1,0,0
1nn8ci654pmi5ny2ho1q3dxi,2,1,2b,52,1,1,go,GW,103,Z,elianto,1,1,0.736,1,0.0,1,1,1
1nn8ci654pmi5ny2ho1q3dxi,2,1,2b,55,2,1,go,GW,103,Z,elianto,1,1,0.5589999999999999,1,0.0,1,1,1
1nn8ci654pmi5ny2ho1q3dxi,2,1,2b,59,3,1,go,GW,103,Z,elianto,1,1,0.506,1,0.0,1,1,1
1nn8ci654pmi5ny2ho1q3dxi,2,1,2b,61,4,1,go,GW,103,Z,elianto,1,1,0.628,1,0.0,1,1,1
1nn8ci654pmi5ny2ho1q3dxi,2,1,2b,65,5,1,go,GW,103,Z,elianto,1,1,0.652,1,0.0,1,1,1
1nn8ci654pmi5ny2ho1q3dxi,2,1,2b,71,6,1,go,GW,103,Z,elianto,1,1,0.628,1,0.0,1,1,1
1nn8ci654pmi5ny2ho1q3dxi,2,1,2b,75,7,1,go,GW,103,Z,elianto,1,1,0.524,1,0.0,1,1,1
1nn8ci654pmi5ny2ho1q3dxi,2,1,2b,80,8,1,go,GW,103,Z,elianto,1,1,0.728,1,1.0,0,1,1
1x8zaa76pikfxwotrhhxcogi,2,2,2a,123,1,0,no-go,NGAL,104,A,elianto,0,1,0.237,0,1.0,1,1,1
1x8zaa76pikfxwotrhhxcogi,2,2,2a,127,2,0,no-go,NGAL,104,A,elianto,0,0,,1,1.0,0,0,1
1x8zaa76pikfxwotrhhxcogi,2,2,2a,129,3,0,no-go,NGAL,104,A,elianto,0,0,,1,0.0,1,0,1
1x8zaa76pikfxwotrhhxcogi,2,2,2a,136,4,0,no-go,NGAL,104,A,elianto,0,0,,1,0.0,1,0,1
1x8zaa76pikfxwotrhhxcogi,2,2,2a,139,5,0,no-go,NGAL,104,A,elianto,0,0,,1,0.0,1,0,1
1x8zaa76pikfxwotrhhxcogi,2,2,2a,144,6,0,no-go,NGAL,104,A,elianto,0,0,,1,1.0,0,0,1
1x8zaa76pikfxwotrhhxcogi,2,2,2a,148,7,0,no-go,NGAL,104,A,elianto,0,1,0.77,0,1.0,1,1,1
1x8zaa76pikfxwotrhhxcogi,2,2,2a,152,8,0,no-go,NGAL,104,A,elianto,0,1,1.264,0,0.0,0,1,1
1x8zaa76pikfxwotrhhxcogi,2,1,2b,41,1,1,no-go,NGW,105,B,elianto,0,1,0.823,0,0.0,0,1,0
1x8zaa76pikfxwotrhhxcogi,2,1,2b,46,2,1,no-go,NGW,105,B,elianto,0,1,0.897,0,0.0,0,1,0
1x8zaa76pikfxwotrhhxcogi,2,1,2b,52,3,1,no-go,NGW,105,B,elianto,0,1,0.8,0,0.0,0,1,0
1x8zaa76pikfxwotrhhxcogi,2,1,2b,55,4,1,no-go,NGW,105,B,elianto,0,1,1.072,0,0.0,0,1,0
1x8zaa76pikfxwotrhhxcogi,2,1,2b,60,5,1,no-go,NGW,105,B,elianto,0,0,,1,0.0,1,0,0
1x8zaa76pikfxwotrhhxcogi,2,1,2b,62,6,1,no-go,NGW,105,B,elianto,0,0,,1,1.0,0,0,0
1x8zaa76pikfxwotrhhxcogi,2,1,2b,66,7,1,no-go,NGW,105,B,elianto,0,1,0.5489999999999999,0,0.0,0,1,0
1x8zaa76pikfxwotrhhxcogi,2,1,2b,72,8,1,no-go,NGW,105,B,elianto,0,1,0.608,0,0.0,0,1,0
1x8zaa76pikfxwotrhhxcogi,2,1,2b,76,9,1,no-go,NGW,105,B,elianto,0,1,0.672,0,0.0,0,1,0
1x8zaa76pikfxwotrhhxcogi,2,1,2b,78,10,1,no-go,NGW,105,B,elianto,0,0,,1,0.0,1,0,0
1x8zaa76pikfxwotrhhxcogi,2,1,2b,81,11,1,no-go,NGW,105,B,elianto,0,0,,1,0.0,1,0,0
1x8zaa76pikfxwotrhhxcogi,2,1,2b,88,12,1,no-go,NGW,105,B,elianto,0,0,,1,0.0,1,0,0
1x8zaa76pikfxwotrhhxcogi,2,1,2b,49,1,0,no-go,NGAL,106,C,elianto,0,1,0.7070000000000001,0,0.0,0,1,1
1x8zaa76pikfxwotrhhxcogi,2,1,2b,54,2,0,no-go,NGAL,106,C,elianto,0,1,0.583,0,1.0,1,1,1
1x8zaa76pikfxwotrhhxcogi,2,1,2b,59,3,0,no-go,NGAL,106,C,elianto,0,1,0.662,0,0.0,0,1,1
1x8zaa76pikfxwotrhhxcogi,2,1,2b,63,4,0,no-go,NGAL,106,C,elianto,0,0,,1,0.0,1,0,1
1x8zaa76pikfxwotrhhxcogi,2,1,2b,68,5,0,no-go,NGAL,106,C,elianto,0,0,,1,0.0,1,0,1
1x8zaa76pikfxwotrhhxcogi,2,1,2b,71,6,0,no-go,NGAL,106,C,elianto,0,0,,1,1.0,0,0,1
1x8zaa76pikfxwotrhhxcogi,2,1,2b,74,7,0,no-go,NGAL,106,C,elianto,0,1,1.082,0,0.0,0,1,1
1x8zaa76pikfxwotrhhxcogi,2,1,2b,79,8,0,no-go,NGAL,106,C,elianto,0,0,,1,0.0,1,0,1
1x8zaa76pikfxwotrhhxcogi,2,2,2a,204,1,0,no-go,NGAL,107,D,elianto,0,0,,1,1.0,0,0,1
1x8zaa76pikfxwotrhhxcogi,2,2,2a,208,2,0,no-go,NGAL,107,D,elianto,0,0,,1,0.0,1,0,1
1x8zaa76pikfxwotrhhxcogi,2,2,2a,210,3,0,no-go,NGAL,107,D,elianto,0,0,,1,0.0,1,0,1
1x8zaa76pikfxwotrhhxcogi,2,2,2a,215,4,0,no-go,NGAL,107,D,elianto,0,0,,1,1.0,0,0,1
1x8zaa76pikfxwotrhhxcogi,2,2,2a,220,5,0,no-go,NGAL,107,D,elianto,0,0,,1,0.0,1,0,1
1x8zaa76pikfxwotrhhxcogi,2,2,2a,223,6,0,no-go,NGAL,107,D,elianto,0,0,,1,0.0,1,0,1
1x8zaa76pikfxwotrhhxcogi,2,2,2a,228,7,0,no-go,NGAL,107,D,elianto,0,0,,1,0.0,1,0,1
1x8zaa76pikfxwotrhhxcogi,2,2,2a,232,8,0,no-go,NGAL,107,D,elianto,0,0,,1,0.0,1,0,1
1x8zaa76pikfxwotrhhxcogi,2,2,2a,233,9,0,no-go,NGAL,107,D,elianto,0,0,,1,0.0,1,0,1
1x8zaa76pikfxwotrhhxcogi,2,2,2a,238,10,0,no-go,NGAL,107,D,elianto,0,1,0.88,0,0.0,0,1,1
1x8zaa76pikfxwotrhhxcogi,2,2,2a,172,1,1,no-go,NGW,108,E,elianto,0,0,,1,0.0,1,0,0
1x8zaa76pikfxwotrhhxcogi,2,2,2a,175,2,1,no-go,NGW,108,E,elianto,0,0,,1,0.0,1,0,0
1x8zaa76pikfxwotrhhxcogi,2,2,2a,178,3,1,no-go,NGW,108,E,elianto,0,0,,1,0.0,1,0,0
1x8zaa76pikfxwotrhhxcogi,2,2,2a,184,4,1,no-go,NGW,108,E,elianto,0,0,,1,0.0,1,0,0
1x8zaa76pikfxwotrhhxcogi,2,2,2a,187,5,1,no-go,NGW,108,E,elianto,0,1,0.6629999999999999,0,0.0,0,1,0
1x8zaa76pikfxwotrhhxcogi,2,2,2a,192,6,1,no-go,NGW,108,E,elianto,0,1,1.041,0,0.0,0,1,0
1x8zaa76pikfxwotrhhxcogi,2,2,2a,195,7,1,no-go,NGW,108,E,elianto,0,1,0.603,0,0.0,0,1,0
1x8zaa76pikfxwotrhhxcogi,2,2,2a,198,8,1,no-go,NGW,108,E,elianto,0,0,,1,0.0,1,0,0
1x8zaa76pikfxwotrhhxcogi,2,2,2a,203,9,1,no-go,NGW,108,E,elianto,0,0,,1,0.0,1,1,0
1x8zaa76pikfxwotrhhxcogi,2,2,2a,207,10,1,no-go,NGW,108,E,elianto,0,1,0.341,0,0.0,0,1,0
1x8zaa76pikfxwotrhhxcogi,2,1,2b,1,1,0,go,GAL,109,F,elianto,1,1,0.32799999999999996,1,0.0,1,1,0
1x8zaa76pikfxwotrhhxcogi,2,1,2b,6,2,0,go,GAL,109,F,elianto,1,1,0.519,1,0.0,1,1,0
1x8zaa76pikfxwotrhhxcogi,2,1,2b,9,3,0,go,GAL,109,F,elianto,1,1,0.6629999999999999,1,0.0,1,1,0
1x8zaa76pikfxwotrhhxcogi,2,1,2b,14,4,0,go,GAL,109,F,elianto,1,1,0.84,1,1.0,0,1,0
1x8zaa76pikfxwotrhhxcogi,2,1,2b,18,5,0,go,GAL,109,F,elianto,1,1,0.445,1,0.0,1,1,0
1x8zaa76pikfxwotrhhxcogi,2,1,2b,22,6,0,go,GAL,109,F,elianto,1,1,0.7829999999999999,1,0.0,1,1,0
1x8zaa76pikfxwotrhhxcogi,2,1,2b,27,7,0,go,GAL,109,F,elianto,1,1,0.815,1,0.0,1,1,0
1x8zaa76pikfxwotrhhxcogi,2,1,2b,30,8,0,go,GAL,109,F,elianto,1,1,0.657,1,0.0,1,1,0
1x8zaa76pikfxwotrhhxcogi,2,2,2a,124,1,1,no-go,NGW,110,G,elianto,0,1,0.968,0,0.0,0,1,0
1x8zaa76pikfxwotrhhxcogi,2,2,2a,128,2,1,no-go,NGW,110,G,elianto,0,0,,1,1.0,0,0,0
1x8zaa76pikfxwotrhhxcogi,2,2,2a,132,3,1,no-go,NGW,110,G,elianto,0,1,0.8640000000000001,0,0.0,0,1,0
1x8zaa76pikfxwotrhhxcogi,2,2,2a,133,4,1,no-go,NGW,110,G,elianto,0,0,,1,0.0,1,0,0
1x8zaa76pikfxwotrhhxcogi,2,2,2a,140,5,1,no-go,NGW,110,G,elianto,0,1,0.523,0,1.0,1,1,0
1x8zaa76pikfxwotrhhxcogi,2,2,2a,142,6,1,no-go,NGW,110,G,elianto,0,0,,1,0.0,1,1,0
1x8zaa76pikfxwotrhhxcogi,2,2,2a,146,7,1,no-go,NGW,110,G,elianto,0,0,,1,1.0,0,0,0
1x8zaa76pikfxwotrhhxcogi,2,2,2a,149,8,1,no-go,NGW,110,G,elianto,0,0,,1,0.0,1,0,0
1x8zaa76pikfxwotrhhxcogi,2,2,2a,155,9,1,no-go,NGW,110,G,elianto,0,1,0.493,0,0.0,0,1,0
1x8zaa76pikfxwotrhhxcogi,2,2,2a,158,10,1,no-go,NGW,110,G,elianto,0,1,0.39899999999999997,0,0.0,0,1,0
1x8zaa76pikfxwotrhhxcogi,2,2,2a,161,11,1,no-go,NGW,110,G,elianto,0,0,,1,0.0,1,0,0
1x8zaa76pikfxwotrhhxcogi,2,2,2a,168,12,1,no-go,NGW,110,G,elianto,0,1,0.7,0,0.0,0,1,0
1x8zaa76pikfxwotrhhxcogi,2,1,2b,75,1,1,go,GW,111,H,elianto,1,1,0.609,1,0.0,1,1,1
1x8zaa76pikfxwotrhhxcogi,2,1,2b,77,2,1,go,GW,111,H,elianto,1,1,0.777,1,1.0,0,1,1
1x8zaa76pikfxwotrhhxcogi,2,1,2b,84,3,1,go,GW,111,H,elianto,1,1,0.583,1,0.0,1,1,1
1x8zaa76pikfxwotrhhxcogi,2,1,2b,86,4,1,go,GW,111,H,elianto,1,1,0.5429999999999999,1,0.0,1,1,1
1x8zaa76pikfxwotrhhxcogi,2,1,2b,92,5,1,go,GW,111,H,elianto,1,1,0.7929999999999999,1,0.0,1,1,1
1x8zaa76pikfxwotrhhxcogi,2,1,2b,93,6,1,go,GW,111,H,elianto,1,1,0.617,1,0.0,1,1,1
1x8zaa76pikfxwotrhhxcogi,2,1,2b,99,7,1,go,GW,111,H,elianto,1,0,,0,0.0,0,1,1
1x8zaa76pikfxwotrhhxcogi,2,1,2b,101,8,1,go,GW,111,H,elianto,1,1,0.596,1,0.0,1,1,1
1x8zaa76pikfxwotrhhxcogi,2,1,2b,106,9,1,go,GW,111,H,elianto,1,1,0.509,1,1.0,0,1,1
1x8zaa76pikfxwotrhhxcogi,2,1,2b,112,10,1,go,GW,111,H,elianto,1,1,0.586,1,0.0,1,1,1
1x8zaa76pikfxwotrhhxcogi,2,1,2b,114,11,1,go,GW,111,H,elianto,1,1,0.46299999999999997,1,1.0,0,1,1
1x8zaa76pikfxwotrhhxcogi,2,1,2b,117,12,1,go,GW,111,H,elianto,1,1,0.5489999999999999,1,1.0,0,1,1
1x8zaa76pikfxwotrhhxcogi,2,2,2a,212,1,0,go,GAL,113,J,elianto,1,0,,0,0.0,0,0,0
1x8zaa76pikfxwotrhhxcogi,2,2,2a,213,2,0,go,GAL,113,J,elianto,1,0,,0,1.0,1,0,0
1x8zaa76pikfxwotrhhxcogi,2,2,2a,218,3,0,go,GAL,113,J,elianto,1,1,0.316,1,0.0,1,1,0
1x8zaa76pikfxwotrhhxcogi,2,2,2a,221,4,0,go,GAL,113,J,elianto,1,0,,0,0.0,0,0,0
1x8zaa76pikfxwotrhhxcogi,2,2,2a,227,5,0,go,GAL,113,J,elianto,1,0,,0,0.0,0,0,0
1x8zaa76pikfxwotrhhxcogi,2,2,2a,229,6,0,go,GAL,113,J,elianto,1,1,0.7909999999999999,1,1.0,0,1,0
1x8zaa76pikfxwotrhhxcogi,2,2,2a,236,7,0,go,GAL,113,J,elianto,1,0,,0,0.0,0,0,0
1x8zaa76pikfxwotrhhxcogi,2,2,2a,237,8,0,go,GAL,113,J,elianto,1,0,,0,1.0,1,0,0
1x8zaa76pikfxwotrhhxcogi,2,2,2a,202,1,1,go,GW,114,K,elianto,1,0,,0,0.0,0,0,1
1x8zaa76pikfxwotrhhxcogi,2,2,2a,205,2,1,go,GW,114,K,elianto,1,1,0.8190000000000001,1,0.0,1,1,1
1x8zaa76pikfxwotrhhxcogi,2,2,2a,209,3,1,go,GW,114,K,elianto,1,0,,0,0.0,0,0,1
1x8zaa76pikfxwotrhhxcogi,2,2,2a,214,4,1,go,GW,114,K,elianto,1,0,,0,0.0,0,0,1
1x8zaa76pikfxwotrhhxcogi,2,2,2a,217,5,1,go,GW,114,K,elianto,1,0,,0,0.0,0,0,1
1x8zaa76pikfxwotrhhxcogi,2,2,2a,222,6,1,go,GW,114,K,elianto,1,1,0.6509999999999999,1,0.0,1,1,1
1x8zaa76pikfxwotrhhxcogi,2,2,2a,226,7,1,go,GW,114,K,elianto,1,0,,0,0.0,0,0,1
1x8zaa76pikfxwotrhhxcogi,2,2,2a,230,8,1,go,GW,114,K,elianto,1,1,0.631,1,0.0,1,1,1
1x8zaa76pikfxwotrhhxcogi,2,2,2a,235,9,1,go,GW,114,K,elianto,1,0,,0,0.0,0,0,1
1x8zaa76pikfxwotrhhxcogi,2,2,2a,239,10,1,go,GW,114,K,elianto,1,0,,0,0.0,0,0,1
1x8zaa76pikfxwotrhhxcogi,2,2,2a,122,1,0,go,GAL,115,L,elianto,1,0,,0,0.0,0,0,0
1x8zaa76pikfxwotrhhxcogi,2,2,2a,125,2,0,go,GAL,115,L,elianto,1,0,,0,0.0,0,0,0
1x8zaa76pikfxwotrhhxcogi,2,2,2a,131,3,0,go,GAL,115,L,elianto,1,1,0.655,1,0.0,1,1,0
1x8zaa76pikfxwotrhhxcogi,2,2,2a,135,4,0,go,GAL,115,L,elianto,1,0,,0,0.0,0,0,0
1x8zaa76pikfxwotrhhxcogi,2,2,2a,138,5,0,go,GAL,115,L,elianto,1,0,,0,0.0,0,0,0
1x8zaa76pikfxwotrhhxcogi,2,2,2a,143,6,0,go,GAL,115,L,elianto,1,0,,0,0.0,0,0,0
1x8zaa76pikfxwotrhhxcogi,2,2,2a,147,7,0,go,GAL,115,L,elianto,1,0,,0,0.0,0,0,0
1x8zaa76pikfxwotrhhxcogi,2,2,2a,151,8,0,go,GAL,115,L,elianto,1,1,0.503,1,0.0,1,1,0
1x8zaa76pikfxwotrhhxcogi,2,2,2a,154,9,0,go,GAL,115,L,elianto,1,0,,0,0.0,0,0,0
1x8zaa76pikfxwotrhhxcogi,2,2,2a,159,10,0,go,GAL,115,L,elianto,1,0,,0,0.0,0,0,0
1x8zaa76pikfxwotrhhxcogi,2,1,2b,91,1,1,no-go,NGW,116,M,elianto,0,1,0.657,0,0.0,0,1,0
1x8zaa76pikfxwotrhhxcogi,2,1,2b,95,2,1,no-go,NGW,116,M,elianto,0,0,,1,0.0,1,0,0
1x8zaa76pikfxwotrhhxcogi,2,1,2b,97,3,1,no-go,NGW,116,M,elianto,0,1,0.615,0,0.0,0,1,0
1x8zaa76pikfxwotrhhxcogi,2,1,2b,102,4,1,no-go,NGW,116,M,elianto,0,1,0.711,0,1.0,1,1,0
1x8zaa76pikfxwotrhhxcogi,2,1,2b,107,5,1,no-go,NGW,116,M,elianto,0,1,1.088,0,0.0,0,1,0
1x8zaa76pikfxwotrhhxcogi,2,1,2b,109,6,1,no-go,NGW,116,M,elianto,0,1,0.997,0,0.0,0,1,0
1x8zaa76pikfxwotrhhxcogi,2,1,2b,113,7,1,no-go,NGW,116,M,elianto,0,0,,1,1.0,0,0,0
1x8zaa76pikfxwotrhhxcogi,2,1,2b,120,8,1,no-go,NGW,116,M,elianto,0,1,0.728,0,0.0,0,1,0
1x8zaa76pikfxwotrhhxcogi,2,1,2b,3,1,0,go,GAL,117,N,elianto,1,1,0.475,1,1.0,0,1,0
1x8zaa76pikfxwotrhhxcogi,2,1,2b,8,2,0,go,GAL,117,N,elianto,1,0,,0,0.0,0,0,0
1x8zaa76pikfxwotrhhxcogi,2,1,2b,12,3,0,go,GAL,117,N,elianto,1,1,0.86,1,1.0,0,1,0
1x8zaa76pikfxwotrhhxcogi,2,1,2b,16,4,0,go,GAL,117,N,elianto,1,1,1.021,1,1.0,0,1,0
1x8zaa76pikfxwotrhhxcogi,2,1,2b,17,5,0,go,GAL,117,N,elianto,1,0,,0,0.0,0,0,0
1x8zaa76pikfxwotrhhxcogi,2,1,2b,24,6,0,go,GAL,117,N,elianto,1,0,,0,0.0,0,0,0
1x8zaa76pikfxwotrhhxcogi,2,1,2b,26,7,0,go,GAL,117,N,elianto,1,1,0.601,1,0.0,1,1,0
1x8zaa76pikfxwotrhhxcogi,2,1,2b,32,8,0,go,GAL,117,N,elianto,1,0,,0,0.0,0,0,0
1x8zaa76pikfxwotrhhxcogi,2,1,2b,36,9,0,go,GAL,117,N,elianto,1,0,,0,1.0,1,0,0
1x8zaa76pikfxwotrhhxcogi,2,1,2b,40,10,0,go,GAL,117,N,elianto,1,1,0.932,1,0.0,1,1,0
1x8zaa76pikfxwotrhhxcogi,2,1,2b,43,11,0,go,GAL,117,N,elianto,1,0,,0,1.0,1,0,0
1x8zaa76pikfxwotrhhxcogi,2,1,2b,47,12,0,go,GAL,117,N,elianto,1,0,,0,1.0,1,0,0
1x8zaa76pikfxwotrhhxcogi,2,2,2a,156,1,0,no-go,NGAL,119,P,elianto,0,0,,1,0.0,1,0,1
1x8zaa76pikfxwotrhhxcogi,2,2,2a,157,2,0,no-go,NGAL,119,P,elianto,0,0,,1,0.0,1,0,1
1x8zaa76pikfxwotrhhxcogi,2,2,2a,162,3,0,no-go,NGAL,119,P,elianto,0,0,,1,0.0,1,0,1
1x8zaa76pikfxwotrhhxcogi,2,2,2a,165,4,0,no-go,NGAL,119,P,elianto,0,0,,1,1.0,0,0,1
1x8zaa76pikfxwotrhhxcogi,2,2,2a,171,5,0,no-go,NGAL,119,P,elianto,0,0,,1,0.0,1,0,1
1x8zaa76pikfxwotrhhxcogi,2,2,2a,176,6,0,no-go,NGAL,119,P,elianto,0,0,,1,1.0,0,0,1
1x8zaa76pikfxwotrhhxcogi,2,2,2a,179,7,0,no-go,NGAL,119,P,elianto,0,0,,1,0.0,1,0,1
1x8zaa76pikfxwotrhhxcogi,2,2,2a,181,8,0,no-go,NGAL,119,P,elianto,0,0,,1,0.0,1,0,1
1x8zaa76pikfxwotrhhxcogi,2,2,2a,188,9,0,no-go,NGAL,119,P,elianto,0,0,,1,0.0,1,0,1
1x8zaa76pikfxwotrhhxcogi,2,2,2a,190,10,0,no-go,NGAL,119,P,elianto,0,0,,1,0.0,1,0,1
1x8zaa76pikfxwotrhhxcogi,2,2,2a,196,11,0,no-go,NGAL,119,P,elianto,0,0,,1,0.0,1,0,1
1x8zaa76pikfxwotrhhxcogi,2,2,2a,199,12,0,no-go,NGAL,119,P,elianto,0,1,0.599,0,0.0,0,1,1
1x8zaa76pikfxwotrhhxcogi,2,1,2b,2,1,0,no-go,NGAL,120,Q,elianto,0,0,,1,0.0,1,0,1
1x8zaa76pikfxwotrhhxcogi,2,1,2b,5,2,0,no-go,NGAL,120,Q,elianto,0,0,,1,0.0,1,0,1
1x8zaa76pikfxwotrhhxcogi,2,1,2b,11,3,0,no-go,NGAL,120,Q,elianto,0,0,,1,1.0,0,0,1
1x8zaa76pikfxwotrhhxcogi,2,1,2b,15,4,0,no-go,NGAL,120,Q,elianto,0,0,,1,0.0,1,0,1
1x8zaa76pikfxwotrhhxcogi,2,1,2b,20,5,0,no-go,NGAL,120,Q,elianto,0,0,,1,0.0,1,0,1
1x8zaa76pikfxwotrhhxcogi,2,1,2b,23,6,0,no-go,NGAL,120,Q,elianto,0,0,,1,0.0,1,0,1
1x8zaa76pikfxwotrhhxcogi,2,1,2b,25,7,0,no-go,NGAL,120,Q,elianto,0,0,,1,0.0,1,0,1
1x8zaa76pikfxwotrhhxcogi,2,1,2b,31,8,0,no-go,NGAL,120,Q,elianto,0,0,,1,0.0,1,0,1
1x8zaa76pikfxwotrhhxcogi,2,1,2b,34,9,0,no-go,NGAL,120,Q,elianto,0,0,,1,0.0,1,0,1
1x8zaa76pikfxwotrhhxcogi,2,1,2b,39,10,0,no-go,NGAL,120,Q,elianto,0,0,,1,0.0,1,0,1
1x8zaa76pikfxwotrhhxcogi,2,1,2b,44,11,0,no-go,NGAL,120,Q,elianto,0,0,,1,0.0,1,0,1
1x8zaa76pikfxwotrhhxcogi,2,1,2b,45,12,0,no-go,NGAL,120,Q,elianto,0,1,0.535,0,0.0,0,1,1
1x8zaa76pikfxwotrhhxcogi,2,1,2b,82,1,0,go,GAL,121,R,elianto,1,0,,0,0.0,0,0,0
1x8zaa76pikfxwotrhhxcogi,2,1,2b,85,2,0,go,GAL,121,R,elianto,1,0,,0,0.0,0,0,0
1x8zaa76pikfxwotrhhxcogi,2,1,2b,89,3,0,go,GAL,121,R,elianto,1,0,,0,0.0,0,0,0
1x8zaa76pikfxwotrhhxcogi,2,1,2b,94,4,0,go,GAL,121,R,elianto,1,0,,0,1.0,1,0,0
1x8zaa76pikfxwotrhhxcogi,2,1,2b,100,5,0,go,GAL,121,R,elianto,1,0,,0,1.0,1,0,0
1x8zaa76pikfxwotrhhxcogi,2,1,2b,104,6,0,go,GAL,121,R,elianto,1,1,0.5379999999999999,1,0.0,1,1,0
1x8zaa76pikfxwotrhhxcogi,2,1,2b,108,7,0,go,GAL,121,R,elianto,1,0,,0,0.0,0,0,0
1x8zaa76pikfxwotrhhxcogi,2,1,2b,111,8,0,go,GAL,121,R,elianto,1,0,,0,0.0,0,2,0
1x8zaa76pikfxwotrhhxcogi,2,1,2b,116,9,0,go,GAL,121,R,elianto,1,0,,0,0.0,0,0,0
1x8zaa76pikfxwotrhhxcogi,2,1,2b,118,10,0,go,GAL,121,R,elianto,1,0,,0,0.0,0,0,0
1x8zaa76pikfxwotrhhxcogi,2,2,2a,164,1,0,go,GAL,122,S,elianto,1,0,,0,0.0,0,0,0
1x8zaa76pikfxwotrhhxcogi,2,2,2a,167,2,0,go,GAL,122,S,elianto,1,0,,0,0.0,0,0,0
1x8zaa76pikfxwotrhhxcogi,2,2,2a,169,3,0,go,GAL,122,S,elianto,1,0,,0,0.0,0,0,0
1x8zaa76pikfxwotrhhxcogi,2,2,2a,174,4,0,go,GAL,122,S,elianto,1,1,0.81,1,1.0,0,1,0
1x8zaa76pikfxwotrhhxcogi,2,2,2a,177,5,0,go,GAL,122,S,elianto,1,0,,0,0.0,0,0,0
1x8zaa76pikfxwotrhhxcogi,2,2,2a,182,6,0,go,GAL,122,S,elianto,1,1,0.71,1,0.0,1,1,0
1x8zaa76pikfxwotrhhxcogi,2,2,2a,186,7,0,go,GAL,122,S,elianto,1,0,,0,0.0,0,0,0
1x8zaa76pikfxwotrhhxcogi,2,2,2a,191,8,0,go,GAL,122,S,elianto,1,0,,0,0.0,0,0,0
1x8zaa76pikfxwotrhhxcogi,2,2,2a,194,9,0,go,GAL,122,S,elianto,1,0,,0,0.0,0,0,0
1x8zaa76pikfxwotrhhxcogi,2,2,2a,197,10,0,go,GAL,122,S,elianto,1,1,0.431,1,0.0,1,1,0
1x8zaa76pikfxwotrhhxcogi,2,2,2a,201,11,0,go,GAL,122,S,elianto,1,0,,0,1.0,1,0,0
1x8zaa76pikfxwotrhhxcogi,2,2,2a,206,12,0,go,GAL,122,S,elianto,1,0,,0,1.0,1,0,0
1x8zaa76pikfxwotrhhxcogi,2,1,2b,35,1,0,no-go,NGAL,123,T,elianto,0,1,0.8029999999999999,0,0.0,0,1,1
1x8zaa76pikfxwotrhhxcogi,2,1,2b,38,2,0,no-go,NGAL,123,T,elianto,0,0,,1,0.0,1,0,1
1x8zaa76pikfxwotrhhxcogi,2,1,2b,42,3,0,no-go,NGAL,123,T,elianto,0,0,,1,0.0,1,0,1
1x8zaa76pikfxwotrhhxcogi,2,1,2b,48,4,0,no-go,NGAL,123,T,elianto,0,0,,1,0.0,1,0,1
1x8zaa76pikfxwotrhhxcogi,2,1,2b,51,5,0,no-go,NGAL,123,T,elianto,0,0,,1,1.0,0,0,1
1x8zaa76pikfxwotrhhxcogi,2,1,2b,56,6,0,no-go,NGAL,123,T,elianto,0,0,,1,0.0,1,0,1
1x8zaa76pikfxwotrhhxcogi,2,1,2b,58,7,0,no-go,NGAL,123,T,elianto,0,0,,1,1.0,0,0,1
1x8zaa76pikfxwotrhhxcogi,2,1,2b,64,8,0,no-go,NGAL,123,T,elianto,0,1,0.708,0,0.0,0,1,1
1x8zaa76pikfxwotrhhxcogi,2,1,2b,65,9,0,no-go,NGAL,123,T,elianto,0,0,,1,1.0,0,0,1
1x8zaa76pikfxwotrhhxcogi,2,1,2b,70,10,0,no-go,NGAL,123,T,elianto,0,1,0.47200000000000003,0,0.0,0,1,1
1x8zaa76pikfxwotrhhxcogi,2,2,2a,121,1,1,go,GW,124,U,elianto,1,1,0.377,1,0.0,1,1,1
1x8zaa76pikfxwotrhhxcogi,2,2,2a,126,2,1,go,GW,124,U,elianto,1,1,0.6509999999999999,1,1.0,0,1,1
1x8zaa76pikfxwotrhhxcogi,2,2,2a,130,3,1,go,GW,124,U,elianto,1,1,0.374,1,0.0,1,1,1
1x8zaa76pikfxwotrhhxcogi,2,2,2a,134,4,1,go,GW,124,U,elianto,1,1,0.555,1,0.0,1,1,1
1x8zaa76pikfxwotrhhxcogi,2,2,2a,137,5,1,go,GW,124,U,elianto,1,1,0.662,1,0.0,1,1,1
1x8zaa76pikfxwotrhhxcogi,2,2,2a,141,6,1,go,GW,124,U,elianto,1,0,,0,0.0,0,0,1
1x8zaa76pikfxwotrhhxcogi,2,2,2a,145,7,1,go,GW,124,U,elianto,1,1,0.907,1,0.0,1,1,1
1x8zaa76pikfxwotrhhxcogi,2,2,2a,150,8,1,go,GW,124,U,elianto,1,0,,0,0.0,0,0,1
1x8zaa76pikfxwotrhhxcogi,2,2,2a,153,9,1,go,GW,124,U,elianto,1,1,1.051,1,1.0,0,1,1
1x8zaa76pikfxwotrhhxcogi,2,2,2a,160,10,1,go,GW,124,U,elianto,1,1,0.5820000000000001,1,0.0,1,1,1
1x8zaa76pikfxwotrhhxcogi,2,2,2a,163,11,1,go,GW,124,U,elianto,1,1,0.7759999999999999,1,0.0,1,1,1
1x8zaa76pikfxwotrhhxcogi,2,2,2a,166,12,1,go,GW,124,U,elianto,1,0,,0,0.0,0,0,1
1x8zaa76pikfxwotrhhxcogi,2,2,2a,211,1,1,go,GW,125,V,elianto,1,1,0.611,1,0.0,1,1,1
1x8zaa76pikfxwotrhhxcogi,2,2,2a,216,2,1,go,GW,125,V,elianto,1,1,0.805,1,0.0,1,1,1
1x8zaa76pikfxwotrhhxcogi,2,2,2a,219,3,1,go,GW,125,V,elianto,1,1,0.64,1,0.0,1,1,1
1x8zaa76pikfxwotrhhxcogi,2,2,2a,224,4,1,go,GW,125,V,elianto,1,1,0.517,1,0.0,1,1,1
1x8zaa76pikfxwotrhhxcogi,2,2,2a,225,5,1,go,GW,125,V,elianto,1,0,,0,1.0,1,0,1
1x8zaa76pikfxwotrhhxcogi,2,2,2a,231,6,1,go,GW,125,V,elianto,1,0,,0,0.0,0,0,1
1x8zaa76pikfxwotrhhxcogi,2,2,2a,234,7,1,go,GW,125,V,elianto,1,1,0.8490000000000001,1,0.0,1,1,1
1x8zaa76pikfxwotrhhxcogi,2,2,2a,240,8,1,go,GW,125,V,elianto,1,0,,0,0.0,0,0,1
1x8zaa76pikfxwotrhhxcogi,2,2,2a,170,1,1,no-go,NGW,126,W,elianto,0,0,,1,0.0,1,0,0
1x8zaa76pikfxwotrhhxcogi,2,2,2a,173,2,1,no-go,NGW,126,W,elianto,0,0,,1,0.0,1,0,0
1x8zaa76pikfxwotrhhxcogi,2,2,2a,180,3,1,no-go,NGW,126,W,elianto,0,1,0.455,0,0.0,0,1,0
1x8zaa76pikfxwotrhhxcogi,2,2,2a,183,4,1,no-go,NGW,126,W,elianto,0,1,0.6,0,1.0,1,1,0
1x8zaa76pikfxwotrhhxcogi,2,2,2a,185,5,1,no-go,NGW,126,W,elianto,0,1,0.774,0,0.0,0,1,0
1x8zaa76pikfxwotrhhxcogi,2,2,2a,189,6,1,no-go,NGW,126,W,elianto,0,0,,1,1.0,0,0,0
1x8zaa76pikfxwotrhhxcogi,2,2,2a,193,7,1,no-go,NGW,126,W,elianto,0,0,,1,1.0,0,0,0
1x8zaa76pikfxwotrhhxcogi,2,2,2a,200,8,1,no-go,NGW,126,W,elianto,0,0,,1,0.0,1,0,0
1x8zaa76pikfxwotrhhxcogi,2,1,2b,4,1,1,go,GW,127,X,elianto,1,1,0.7190000000000001,1,0.0,1,1,1
1x8zaa76pikfxwotrhhxcogi,2,1,2b,7,2,1,go,GW,127,X,elianto,1,1,0.862,1,0.0,1,1,1
1x8zaa76pikfxwotrhhxcogi,2,1,2b,10,3,1,go,GW,127,X,elianto,1,1,0.843,1,0.0,1,1,1
1x8zaa76pikfxwotrhhxcogi,2,1,2b,13,4,1,go,GW,127,X,elianto,1,1,0.9209999999999999,1,0.0,1,1,1
1x8zaa76pikfxwotrhhxcogi,2,1,2b,19,5,1,go,GW,127,X,elianto,1,1,1.0979999999999999,1,0.0,1,1,1
1x8zaa76pikfxwotrhhxcogi,2,1,2b,21,6,1,go,GW,127,X,elianto,1,1,0.8859999999999999,1,1.0,0,1,1
1x8zaa76pikfxwotrhhxcogi,2,1,2b,28,7,1,go,GW,127,X,elianto,1,1,0.968,1,1.0,0,1,1
1x8zaa76pikfxwotrhhxcogi,2,1,2b,29,8,1,go,GW,127,X,elianto,1,1,1.0490000000000002,1,0.0,1,1,1
1x8zaa76pikfxwotrhhxcogi,2,1,2b,33,9,1,go,GW,127,X,elianto,1,1,0.6629999999999999,1,0.0,1,1,1
1x8zaa76pikfxwotrhhxcogi,2,1,2b,37,10,1,go,GW,127,X,elianto,1,1,0.62,1,0.0,1,1,1
1x8zaa76pikfxwotrhhxcogi,2,1,2b,83,1,1,no-go,NGW,128,Y,elianto,0,1,0.8109999999999999,0,0.0,0,1,0
1x8zaa76pikfxwotrhhxcogi,2,1,2b,87,2,1,no-go,NGW,128,Y,elianto,0,0,,1,0.0,1,0,0
1x8zaa76pikfxwotrhhxcogi,2,1,2b,90,3,1,no-go,NGW,128,Y,elianto,0,1,0.43700000000000006,0,1.0,1,1,0
1x8zaa76pikfxwotrhhxcogi,2,1,2b,96,4,1,no-go,NGW,128,Y,elianto,0,0,,1,0.0,1,0,0
1x8zaa76pikfxwotrhhxcogi,2,1,2b,98,5,1,no-go,NGW,128,Y,elianto,0,0,,1,0.0,1,0,0
1x8zaa76pikfxwotrhhxcogi,2,1,2b,103,6,1,no-go,NGW,128,Y,elianto,0,0,,1,1.0,0,0,0
1x8zaa76pikfxwotrhhxcogi,2,1,2b,105,7,1,no-go,NGW,128,Y,elianto,0,0,,1,0.0,1,0,0
1x8zaa76pikfxwotrhhxcogi,2,1,2b,110,8,1,no-go,NGW,128,Y,elianto,0,0,,1,0.0,1,0,0
1x8zaa76pikfxwotrhhxcogi,2,1,2b,115,9,1,no-go,NGW,128,Y,elianto,0,1,0.6890000000000001,0,0.0,0,1,0
1x8zaa76pikfxwotrhhxcogi,2,1,2b,119,10,1,no-go,NGW,128,Y,elianto,0,1,0.644,0,1.0,1,1,0
1x8zaa76pikfxwotrhhxcogi,2,1,2b,50,1,1,go,GW,129,Z,elianto,1,1,0.6809999999999999,1,0.0,1,1,1
1x8zaa76pikfxwotrhhxcogi,2,1,2b,53,2,1,go,GW,129,Z,elianto,1,0,,0,0.0,0,0,1
1x8zaa76pikfxwotrhhxcogi,2,1,2b,57,3,1,go,GW,129,Z,elianto,1,1,0.573,1,0.0,1,1,1
1x8zaa76pikfxwotrhhxcogi,2,1,2b,61,4,1,go,GW,129,Z,elianto,1,1,0.652,1,1.0,0,1,1
1x8zaa76pikfxwotrhhxcogi,2,1,2b,67,5,1,go,GW,129,Z,elianto,1,0,,0,0.0,0,0,1
1x8zaa76pikfxwotrhhxcogi,2,1,2b,69,6,1,go,GW,129,Z,elianto,1,0,,0,0.0,0,0,1
1x8zaa76pikfxwotrhhxcogi,2,1,2b,73,7,1,go,GW,129,Z,elianto,1,1,0.6890000000000001,1,0.0,1,1,1
1x8zaa76pikfxwotrhhxcogi,2,1,2b,80,8,1,go,GW,129,Z,elianto,1,1,0.601,1,1.0,0,1,1
1ztbhfxllii1xhq9f1v62x26,2,1,2a,1,1,0,no-go,NGAL,130,A,bacs2,0,0,,1,0.0,1,0,1
1ztbhfxllii1xhq9f1v62x26,2,1,2a,7,2,0,no-go,NGAL,130,A,bacs2,0,0,,1,0.0,1,0,1
1ztbhfxllii1xhq9f1v62x26,2,1,2a,12,3,0,no-go,NGAL,130,A,bacs2,0,0,,1,0.0,1,0,1
1ztbhfxllii1xhq9f1v62x26,2,1,2a,15,4,0,no-go,NGAL,130,A,bacs2,0,0,,1,0.0,1,0,1
1ztbhfxllii1xhq9f1v62x26,2,1,2a,20,5,0,no-go,NGAL,130,A,bacs2,0,0,,1,0.0,1,0,1
1ztbhfxllii1xhq9f1v62x26,2,1,2a,23,6,0,no-go,NGAL,130,A,bacs2,0,0,,1,0.0,1,0,1
1ztbhfxllii1xhq9f1v62x26,2,1,2a,26,7,0,no-go,NGAL,130,A,bacs2,0,0,,1,0.0,1,0,1
1ztbhfxllii1xhq9f1v62x26,2,1,2a,30,8,0,no-go,NGAL,130,A,bacs2,0,0,,1,1.0,0,0,1
1ztbhfxllii1xhq9f1v62x26,2,1,2a,89,1,0,go,GAL,131,B,bacs2,1,0,,0,0.0,0,0,0
1ztbhfxllii1xhq9f1v62x26,2,1,2a,95,2,0,go,GAL,131,B,bacs2,1,1,1.015,1,0.0,1,1,0
1ztbhfxllii1xhq9f1v62x26,2,1,2a,97,3,0,go,GAL,131,B,bacs2,1,1,0.703,1,0.0,1,1,0
1ztbhfxllii1xhq9f1v62x26,2,1,2a,104,4,0,go,GAL,131,B,bacs2,1,0,,0,1.0,1,0,0
1ztbhfxllii1xhq9f1v62x26,2,1,2a,108,5,0,go,GAL,131,B,bacs2,1,0,,0,0.0,0,0,0
1ztbhfxllii1xhq9f1v62x26,2,1,2a,111,6,0,go,GAL,131,B,bacs2,1,1,0.8270000000000001,1,0.0,1,1,0
1ztbhfxllii1xhq9f1v62x26,2,1,2a,113,7,0,go,GAL,131,B,bacs2,1,1,0.618,1,0.0,1,1,0
1ztbhfxllii1xhq9f1v62x26,2,1,2a,117,8,0,go,GAL,131,B,bacs2,1,1,0.7090000000000001,1,0.0,1,1,0
1ztbhfxllii1xhq9f1v62x26,2,2,2b,170,1,0,no-go,NGAL,132,C,bacs2,0,0,,1,1.0,0,0,1
1ztbhfxllii1xhq9f1v62x26,2,2,2b,176,2,0,no-go,NGAL,132,C,bacs2,0,0,,1,0.0,1,0,1
1ztbhfxllii1xhq9f1v62x26,2,2,2b,180,3,0,no-go,NGAL,132,C,bacs2,0,0,,1,0.0,1,0,1
1ztbhfxllii1xhq9f1v62x26,2,2,2b,184,4,0,no-go,NGAL,132,C,bacs2,0,0,,1,0.0,1,0,1
1ztbhfxllii1xhq9f1v62x26,2,2,2b,186,5,0,no-go,NGAL,132,C,bacs2,0,0,,1,0.0,1,0,1
1ztbhfxllii1xhq9f1v62x26,2,2,2b,189,6,0,no-go,NGAL,132,C,bacs2,0,0,,1,1.0,0,0,1
