subject,session,block,runsheet,trial,exposure,valence,action,robot,stimulus,rune,rune_set,correct,choice,rt,accuracy,sham,outcome,total_keys,congruence
09byk3dg92is9b06rwaybmoh,3,1,3b,3,1,1,go,GW,26,A,elianto,1,1,0.7759999999999999,1,0.0,1,1,1
09byk3dg92is9b06rwaybmoh,3,1,3b,7,2,1,go,GW,26,A,elianto,1,0,,0,0.0,0,0,1
09byk3dg92is9b06rwaybmoh,3,1,3b,9,3,1,go,GW,26,A,elianto,1,1,1.079,1,0.0,1,1,1
09byk3dg92is9b06rwaybmoh,3,1,3b,15,4,1,go,GW,26,A,elianto,1,1,0.907,1,0.0,1,1,1
09byk3dg92is9b06rwaybmoh,3,1,3b,18,5,1,go,GW,26,A,elianto,1,1,0.865,1,0.0,1,1,1
09byk3dg92is9b06rwaybmoh,3,1,3b,24,6,1,go,GW,26,A,elianto,1,0,,0,0.0,0,1,1
09byk3dg92is9b06rwaybmoh,3,1,3b,26,7,1,go,GW,26,A,elianto,1,1,0.9279999999999999,1,0.0,1,1,1
09byk3dg92is9b06rwaybmoh,3,1,3b,31,8,1,go,GW,26,A,elianto,1,1,0.5660000000000001,1,1.0,0,1,1
09byk3dg92is9b06rwaybmoh,3,1,3b,34,9,1,go,GW,26,A,elianto,1,1,0.893,1,0.0,1,1,1
09byk3dg92is9b06rwaybmoh,3,1,3b,38,10,1,go,GW,26,A,elianto,1,1,1.156,1,0.0,1,1,1
09byk3dg92is9b06rwaybmoh,3,1,3b,43,11,1,go,GW,26,A,elianto,1,1,0.743,1,0.0,1,1,1
09byk3dg92is9b06rwaybmoh,3,1,3b,48,12,1,go,GW,26,A,elianto,1,1,0.89,1,0.0,1,1,1
09byk3dg92is9b06rwaybmoh,3,2,3a,154,1,0,no-go,NGAL,27,B,elianto,0,0,,1,0.0,1,0,1
09byk3dg92is9b06rwaybmoh,3,2,3a,158,2,0,no-go,NGAL,27,B,elianto,0,0,,1,0.0,1,0,1
09byk3dg92is9b06rwaybmoh,3,2,3a,162,3,0,no-go,NGAL,27,B,elianto,0,1,0.929,0,0.0,0,1,1
09byk3dg92is9b06rwaybmoh,3,2,3a,165,4,0,no-go,NGAL,27,B,elianto,0,0,,1,1.0,0,0,1
09byk3dg92is9b06rwaybmoh,3,2,3a,170,5,0,no-go,NGAL,27,B,elianto,0,0,,1,0.0,1,0,1
09byk3dg92is9b06rwaybmoh,3,2,3a,175,6,0,no-go,NGAL,27,B,elianto,0,1,0.847,0,0.0,0,1,1
09byk3dg92is9b06rwaybmoh,3,2,3a,180,7,0,no-go,NGAL,27,B,elianto,0,1,0.727,0,0.0,0,1,1
09byk3dg92is9b06rwaybmoh,3,2,3a,182,8,0,no-go,NGAL,27,B,elianto,0,0,,1,0.0,1,0,1
09byk3dg92is9b06rwaybmoh,3,2,3a,186,9,0,no-go,NGAL,27,B,elianto,0,0,,1,0.0,1,0,1
09byk3dg92is9b06rwaybmoh,3,2,3a,189,10,0,no-go,NGAL,27,B,elianto,0,0,,1,0.0,1,0,1
09byk3dg92is9b06rwaybmoh,3,2,3a,163,1,1,no-go,NGW,28,C,elianto,0,0,,1,0.0,1,0,0
09byk3dg92is9b06rwaybmoh,3,2,3a,167,2,1,no-go,NGW,28,C,elianto,0,1,0.82,0,0.0,0,1,0
09byk3dg92is9b06rwaybmoh,3,2,3a,169,3,1,no-go,NGW,28,C,elianto,0,1,0.728,0,1.0,1,1,0
09byk3dg92is9b06rwaybmoh,3,2,3a,173,4,1,no-go,NGW,28,C,elianto,0,1,0.8859999999999999,0,1.0,1,1,0
09byk3dg92is9b06rwaybmoh,3,2,3a,179,5,1,no-go,NGW,28,C,elianto,0,1,0.722,0,0.0,0,1,0
09byk3dg92is9b06rwaybmoh,3,2,3a,181,6,1,no-go,NGW,28,C,elianto,0,1,0.6579999999999999,0,0.0,0,1,0
09byk3dg92is9b06rwaybmoh,3,2,3a,188,7,1,no-go,NGW,28,C,elianto,0,0,,1,0.0,1,0,0
09byk3dg92is9b06rwaybmoh,3,2,3a,191,8,1,no-go,NGW,28,C,elianto,0,0,,1,0.0,1,0,0
09byk3dg92is9b06rwaybmoh,3,2,3a,196,9,1,no-go,NGW,28,C,elianto,0,0,,1,0.0,1,0,0
09byk3dg92is9b06rwaybmoh,3,2,3a,198,10,1,no-go,NGW,28,C,elianto,0,1,1.1159999999999999,0,0.0,0,1,0
09byk3dg92is9b06rwaybmoh,3,2,3a,201,11,1,no-go,NGW,28,C,elianto,0,1,0.998,0,1.0,1,1,0
09byk3dg92is9b06rwaybmoh,3,2,3a,205,12,1,no-go,NGW,28,C,elianto,0,1,0.46,0,1.0,1,1,0
09byk3dg92is9b06rwaybmoh,3,1,3b,83,1,1,go,GW,29,D,elianto,1,1,0.996,1,1.0,0,1,1
09byk3dg92is9b06rwaybmoh,3,1,3b,88,2,1,go,GW,29,D,elianto,1,0,,0,0.0,0,0,1
09byk3dg92is9b06rwaybmoh,3,1,3b,92,3,1,go,GW,29,D,elianto,1,0,,0,0.0,0,0,1
09byk3dg92is9b06rwaybmoh,3,1,3b,95,4,1,go,GW,29,D,elianto,1,0,,0,0.0,0,0,1
09byk3dg92is9b06rwaybmoh,3,1,3b,100,5,1,go,GW,29,D,elianto,1,1,1.0090000000000001,1,0.0,1,1,1
09byk3dg92is9b06rwaybmoh,3,1,3b,101,6,1,go,GW,29,D,elianto,1,1,0.6709999999999999,1,0.0,1,1,1
09byk3dg92is9b06rwaybmoh,3,1,3b,108,7,1,go,GW,29,D,elianto,1,1,0.941,1,0.0,1,1,1
09byk3dg92is9b06rwaybmoh,3,1,3b,109,8,1,go,GW,29,D,elianto,1,1,0.593,1,0.0,1,1,1
09byk3dg92is9b06rwaybmoh,3,1,3b,115,9,1,go,GW,29,D,elianto,1,1,0.929,1,0.0,1,1,1
09byk3dg92is9b06rwaybmoh,3,1,3b,119,10,1,go,GW,29,D,elianto,1,1,0.887,1,0.0,1,1,1
09byk3dg92is9b06rwaybmoh,3,1,3b,51,1,0,no-go,NGAL,30,E,elianto,0,1,1.284,0,0.0,0,1,1
09byk3dg92is9b06rwaybmoh,3,1,3b,55,2,0,no-go,NGAL,30,E,elianto,0,1,1.101,0,0.0,0,1,1
09byk3dg92is9b06rwaybmoh,3,1,3b,60,3,0,no-go,NGAL,30,E,elianto,0,0,,1,0.0,1,0,1
09byk3dg92is9b06rwaybmoh,3,1,3b,61,4,0,no-go,NGAL,30,E,elianto,0,0,,1,0.0,1,0,1
09byk3dg92is9b06rwaybmoh,3,1,3b,68,5,0,no-go,NGAL,30,E,elianto,0,0,,1,0.0,1,0,1
09byk3dg92is9b06rwaybmoh,3,1,3b,69,6,0,no-go,NGAL,30,E,elianto,0,0,,1,0.0,1,0,1
09byk3dg92is9b06rwaybmoh,3,1,3b,74,7,0,no-go,NGAL,30,E,elianto,0,0,,1,0.0,1,0,1
09byk3dg92is9b06rwaybmoh,3,1,3b,78,8,0,no-go,NGAL,30,E,elianto,0,1,1.065,0,0.0,0,1,1
09byk3dg92is9b06rwaybmoh,3,2,3a,124,1,0,no-go,NGAL,31,F,elianto,0,0,,1,0.0,1,0,1
09byk3dg92is9b06rwaybmoh,3,2,3a,125,2,0,no-go,NGAL,31,F,elianto,0,1,0.8370000000000001,0,0.0,0,1,1
09byk3dg92is9b06rwaybmoh,3,2,3a,132,3,0,no-go,NGAL,31,F,elianto,0,1,1.099,0,0.0,0,1,1
09byk3dg92is9b06rwaybmoh,3,2,3a,136,4,0,no-go,NGAL,31,F,elianto,0,0,,1,0.0,1,1,1
09byk3dg92is9b06rwaybmoh,3,2,3a,138,5,0,no-go,NGAL,31,F,elianto,0,1,1.143,0,0.0,0,1,1
09byk3dg92is9b06rwaybmoh,3,2,3a,141,6,0,no-go,NGAL,31,F,elianto,0,0,,1,1.0,0,0,1
09byk3dg92is9b06rwaybmoh,3,2,3a,145,7,0,no-go,NGAL,31,F,elianto,0,0,,1,0.0,1,0,1
09byk3dg92is9b06rwaybmoh,3,2,3a,151,8,0,no-go,NGAL,31,F,elianto,0,0,,1,1.0,0,0,1
09byk3dg92is9b06rwaybmoh,3,2,3a,153,9,0,no-go,NGAL,31,F,elianto,0,0,,1,0.0,1,0,1
09byk3dg92is9b06rwaybmoh,3,2,3a,157,10,0,no-go,NGAL,31,F,elianto,0,0,,1,0.0,1,0,1
09byk3dg92is9b06rwaybmoh,3,2,3a,161,11,0,no-go,NGAL,31,F,elianto,0,1,0.603,0,0.0,0,1,1
09byk3dg92is9b06rwaybmoh,3,2,3a,166,12,0,no-go,NGAL,31,F,elianto,0,0,,1,0.0,1,0,1
09byk3dg92is9b06rwaybmoh,3,1,3b,1,1,0,go,GAL,32,G,elianto,1,1,0.932,1,0.0,1,1,0
09byk3dg92is9b06rwaybmoh,3,1,3b,8,2,0,go,GAL,32,G,elianto,1,1,0.82,1,1.0,0,1,0
09byk3dg92is9b06rwaybmoh,3,1,3b,12,3,0,go,GAL,32,G,elianto,1,1,0.7709999999999999,1,0.0,1,1,0
09byk3dg92is9b06rwaybmoh,3,1,3b,13,4,0,go,GAL,32,G,elianto,1,0,,0,0.0,0,0,0
09byk3dg92is9b06rwaybmoh,3,1,3b,19,5,0,go,GAL,32,G,elianto,1,0,,0,0.0,0,0,0
09byk3dg92is9b06rwaybmoh,3,1,3b,21,6,0,go,GAL,32,G,elianto,1,1,0.892,1,0.0,1,1,0
09byk3dg92is9b06rwaybmoh,3,1,3b,25,7,0,go,GAL,32,G,elianto,1,0,,0,0.0,0,0,0
09byk3dg92is9b06rwaybmoh,3,1,3b,30,8,0,go,GAL,32,G,elianto,1,1,0.759,1,1.0,0,1,0
09byk3dg92is9b06rwaybmoh,3,2,3a,193,1,1,go,GW,33,H,elianto,1,1,0.627,1,0.0,1,1,1
09byk3dg92is9b06rwaybmoh,3,2,3a,199,2,1,go,GW,33,H,elianto,1,1,0.8109999999999999,1,1.0,0,1,1
09byk3dg92is9b06rwaybmoh,3,2,3a,204,3,1,go,GW,33,H,elianto,1,1,0.541,1,0.0,1,1,1
09byk3dg92is9b06rwaybmoh,3,2,3a,206,4,1,go,GW,33,H,elianto,1,1,0.41,1,0.0,1,1,1
09byk3dg92is9b06rwaybmoh,3,2,3a,210,5,1,go,GW,33,H,elianto,1,1,0.8029999999999999,1,0.0,1,1,1
09byk3dg92is9b06rwaybmoh,3,2,3a,214,6,1,go,GW,33,H,elianto,1,1,0.355,1,0.0,1,1,1
09byk3dg92is9b06rwaybmoh,3,2,3a,218,7,1,go,GW,33,H,elianto,1,1,0.6659999999999999,1,0.0,1,1,1
09byk3dg92is9b06rwaybmoh,3,2,3a,222,8,1,go,GW,33,H,elianto,1,1,0.855,1,0.0,1,1,1
09byk3dg92is9b06rwaybmoh,3,2,3a,228,9,1,go,GW,33,H,elianto,1,0,,0,0.0,0,0,1
09byk3dg92is9b06rwaybmoh,3,2,3a,229,10,1,go,GW,33,H,elianto,1,1,0.611,1,0.0,1,1,1
09byk3dg92is9b06rwaybmoh,3,2,3a,235,11,1,go,GW,33,H,elianto,1,1,0.627,1,0.0,1,1,1
09byk3dg92is9b06rwaybmoh,3,2,3a,240,12,1,go,GW,33,H,elianto,1,1,0.621,1,0.0,1,1,1
09byk3dg92is9b06rwaybmoh,3,1,3b,82,1,0,go,GAL,35,J,elianto,1,0,,0,0.0,0,0,0
09byk3dg92is9b06rwaybmoh,3,1,3b,86,2,0,go,GAL,35,J,elianto,1,0,,0,1.0,1,0,0
09byk3dg92is9b06rwaybmoh,3,1,3b,91,3,0,go,GAL,35,J,elianto,1,1,0.9670000000000001,1,0.0,1,1,0
09byk3dg92is9b06rwaybmoh,3,1,3b,94,4,0,go,GAL,35,J,elianto,1,0,,0,0.0,0,0,0
09byk3dg92is9b06rwaybmoh,3,1,3b,99,5,0,go,GAL,35,J,elianto,1,1,0.904,1,0.0,1,1,0
09byk3dg92is9b06rwaybmoh,3,1,3b,102,6,0,go,GAL,35,J,elianto,1,1,0.846,1,1.0,0,1,0
09byk3dg92is9b06rwaybmoh,3,1,3b,105,7,0,go,GAL,35,J,elianto,1,0,,0,0.0,0,0,0
09byk3dg92is9b06rwaybmoh,3,1,3b,110,8,0,go,GAL,35,J,elianto,1,0,,0,1.0,1,0,0
09byk3dg92is9b06rwaybmoh,3,1,3b,113,9,0,go,GAL,35,J,elianto,1,0,,0,0.0,0,0,0
09byk3dg92is9b06rwaybmoh,3,1,3b,117,10,0,go,GAL,35,J,elianto,1,0,,0,0.0,0,1,0
09byk3dg92is9b06rwaybmoh,3,1,3b,76,1,0,no-go,NGAL,36,K,elianto,0,0,,1,0.0,1,0,1
09byk3dg92is9b06rwaybmoh,3,1,3b,80,2,0,no-go,NGAL,36,K,elianto,0,0,,1,1.0,0,0,1
09byk3dg92is9b06rwaybmoh,3,1,3b,84,3,0,no-go,NGAL,36,K,elianto,0,0,,1,0.0,1,0,1
09byk3dg92is9b06rwaybmoh,3,1,3b,85,4,0,no-go,NGAL,36,K,elianto,0,0,,1,0.0,1,0,1
09byk3dg92is9b06rwaybmoh,3,1,3b,90,5,0,no-go,NGAL,36,K,elianto,0,1,0.7040000000000001,0,1.0,1,1,1
09byk3dg92is9b06rwaybmoh,3,1,3b,93,6,0,no-go,NGAL,36,K,elianto,0,1,0.835,0,0.0,0,1,1
09byk3dg92is9b06rwaybmoh,3,1,3b,98,7,0,no-go,NGAL,36,K,elianto,0,1,0.9670000000000001,0,1.0,1,1,1
09byk3dg92is9b06rwaybmoh,3,1,3b,103,8,0,no-go,NGAL,36,K,elianto,0,1,0.738,0,0.0,0,1,1
09byk3dg92is9b06rwaybmoh,3,1,3b,106,9,0,no-go,NGAL,36,K,elianto,0,1,0.722,0,0.0,0,1,1
09byk3dg92is9b06rwaybmoh,3,1,3b,112,10,0,no-go,NGAL,36,K,elianto,0,0,,1,0.0,1,0,1
09byk3dg92is9b06rwaybmoh,3,1,3b,116,11,0,no-go,NGAL,36,K,elianto,0,0,,1,0.0,1,0,1
09byk3dg92is9b06rwaybmoh,3,1,3b,118,12,0,no-go,NGAL,36,K,elianto,0,1,0.973,0,1.0,1,1,1
09byk3dg92is9b06rwaybmoh,3,1,3b,2,1,1,no-go,NGW,37,L,elianto,0,0,,1,1.0,0,0,0
09byk3dg92is9b06rwaybmoh,3,1,3b,6,2,1,no-go,NGW,37,L,elianto,0,1,0.7090000000000001,0,0.0,0,1,0
09byk3dg92is9b06rwaybmoh,3,1,3b,10,3,1,no-go,NGW,37,L,elianto,0,1,0.929,0,1.0,1,1,0
09byk3dg92is9b06rwaybmoh,3,1,3b,14,4,1,no-go,NGW,37,L,elianto,0,1,0.599,0,0.0,0,1,0
09byk3dg92is9b06rwaybmoh,3,1,3b,17,5,1,no-go,NGW,37,L,elianto,0,1,1.043,0,0.0,0,1,0
09byk3dg92is9b06rwaybmoh,3,1,3b,23,6,1,no-go,NGW,37,L,elianto,0,0,,1,0.0,1,0,0
09byk3dg92is9b06rwaybmoh,3,1,3b,27,7,1,no-go,NGW,37,L,elianto,0,0,,1,0.0,1,0,0
09byk3dg92is9b06rwaybmoh,3,1,3b,29,8,1,no-go,NGW,37,L,elianto,0,0,,1,0.0,1,0,0
09byk3dg92is9b06rwaybmoh,3,2,3a,209,1,0,no-go,NGAL,38,M,elianto,0,0,,1,1.0,0,0,1
09byk3dg92is9b06rwaybmoh,3,2,3a,213,2,0,no-go,NGAL,38,M,elianto,0,0,,1,1.0,0,1,1
09byk3dg92is9b06rwaybmoh,3,2,3a,220,3,0,no-go,NGAL,38,M,elianto,0,0,,1,0.0,1,1,1
09byk3dg92is9b06rwaybmoh,3,2,3a,221,4,0,no-go,NGAL,38,M,elianto,0,1,0.8690000000000001,0,1.0,1,1,1
09byk3dg92is9b06rwaybmoh,3,2,3a,227,5,0,no-go,NGAL,38,M,elianto,0,0,,1,0.0,1,0,1
09byk3dg92is9b06rwaybmoh,3,2,3a,232,6,0,no-go,NGAL,38,M,elianto,0,0,,1,1.0,0,0,1
09byk3dg92is9b06rwaybmoh,3,2,3a,236,7,0,no-go,NGAL,38,M,elianto,0,0,,1,0.0,1,0,1
09byk3dg92is9b06rwaybmoh,3,2,3a,238,8,0,no-go,NGAL,38,M,elianto,0,0,,1,0.0,1,0,1
09byk3dg92is9b06rwaybmoh,3,2,3a,121,1,0,go,GAL,39,N,elianto,1,0,,0,0.0,0,0,0
09byk3dg92is9b06rwaybmoh,3,2,3a,127,2,0,go,GAL,39,N,elianto,1,0,,0,1.0,1,1,0
09byk3dg92is9b06rwaybmoh,3,2,3a,129,3,0,go,GAL,39,N,elianto,1,0,,0,0.0,0,0,0
09byk3dg92is9b06rwaybmoh,3,2,3a,135,4,0,go,GAL,39,N,elianto,1,0,,0,0.0,0,1,0
09byk3dg92is9b06rwaybmoh,3,2,3a,139,5,0,go,GAL,39,N,elianto,1,0,,0,0.0,0,0,0
09byk3dg92is9b06rwaybmoh,3,2,3a,144,6,0,go,GAL,39,N,elianto,1,0,,0,0.0,0,0,0
09byk3dg92is9b06rwaybmoh,3,2,3a,147,7,0,go,GAL,39,N,elianto,1,0,,0,0.0,0,0,0
09byk3dg92is9b06rwaybmoh,3,2,3a,152,8,0,go,GAL,39,N,elianto,1,1,0.87,1,0.0,1,1,0
09byk3dg92is9b06rwaybmoh,3,2,3a,156,9,0,go,GAL,39,N,elianto,1,0,,0,1.0,1,0,0
09byk3dg92is9b06rwaybmoh,3,2,3a,160,10,0,go,GAL,39,N,elianto,1,0,,0,0.0,0,0,0
09byk3dg92is9b06rwaybmoh,3,1,3b,35,1,0,no-go,NGAL,41,P,elianto,0,0,,1,1.0,0,0,1
09byk3dg92is9b06rwaybmoh,3,1,3b,37,2,0,no-go,NGAL,41,P,elianto,0,0,,1,1.0,0,0,1
09byk3dg92is9b06rwaybmoh,3,1,3b,42,3,0,no-go,NGAL,41,P,elianto,0,1,1.07,0,1.0,1,1,1
09byk3dg92is9b06rwaybmoh,3,1,3b,45,4,0,no-go,NGAL,41,P,elianto,0,1,0.82,0,1.0,1,1,1
09byk3dg92is9b06rwaybmoh,3,1,3b,52,5,0,no-go,NGAL,41,P,elianto,0,0,,1,0.0,1,0,1
09byk3dg92is9b06rwaybmoh,3,1,3b,56,6,0,no-go,NGAL,41,P,elianto,0,0,,1,1.0,0,0,1
09byk3dg92is9b06rwaybmoh,3,1,3b,57,7,0,no-go,NGAL,41,P,elianto,0,1,0.636,0,0.0,0,1,1
09byk3dg92is9b06rwaybmoh,3,1,3b,63,8,0,no-go,NGAL,41,P,elianto,0,0,,1,0.0,1,0,1
09byk3dg92is9b06rwaybmoh,3,1,3b,67,9,0,no-go,NGAL,41,P,elianto,0,1,0.845,0,0.0,0,1,1
09byk3dg92is9b06rwaybmoh,3,1,3b,71,10,0,no-go,NGAL,41,P,elianto,0,0,,1,0.0,1,0,1
09byk3dg92is9b06rwaybmoh,3,2,3a,122,1,1,no-go,NGW,42,Q,elianto,0,0,,1,0.0,1,0,0
09byk3dg92is9b06rwaybmoh,3,2,3a,128,2,1,no-go,NGW,42,Q,elianto,0,1,0.772,0,0.0,0,1,0
09byk3dg92is9b06rwaybmoh,3,2,3a,131,3,1,no-go,NGW,42,Q,elianto,0,1,0.659,0,0.0,0,1,0
09byk3dg92is9b06rwaybmoh,3,2,3a,134,4,1,no-go,NGW,42,Q,elianto,0,0,,1,0.0,1,0,0
09byk3dg92is9b06rwaybmoh,3,2,3a,140,5,1,no-go,NGW,42,Q,elianto,0,1,0.633,0,0.0,0,1,0
09byk3dg92is9b06rwaybmoh,3,2,3a,142,6,1,no-go,NGW,42,Q,elianto,0,1,0.628,0,0.0,0,1,0
09byk3dg92is9b06rwaybmoh,3,2,3a,146,7,1,no-go,NGW,42,Q,elianto,0,0,,1,0.0,1,0,0
09byk3dg92is9b06rwaybmoh,3,2,3a,150,8,1,no-go,NGW,42,Q,elianto,0,0,,1,0.0,1,0,0
09byk3dg92is9b06rwaybmoh,3,2,3a,211,1,0,go,GAL,43,R,elianto,1,0,,0,0.0,0,0,0
09byk3dg92is9b06rwaybmoh,3,2,3a,216,2,0,go,GAL,43,R,elianto,1,1,0.902,1,0.0,1,1,0
09byk3dg92is9b06rwaybmoh,3,2,3a,217,3,0,go,GAL,43,R,elianto,1,1,0.5710000000000001,1,1.0,0,1,0
09byk3dg92is9b06rwaybmoh,3,2,3a,224,4,0,go,GAL,43,R,elianto,1,0,,0,0.0,0,0,0
09byk3dg92is9b06rwaybmoh,3,2,3a,225,5,0,go,GAL,43,R,elianto,1,0,,0,0.0,0,0,0
09byk3dg92is9b06rwaybmoh,3,2,3a,230,6,0,go,GAL,43,R,elianto,1,0,,0,0.0,0,0,0
09byk3dg92is9b06rwaybmoh,3,2,3a,233,7,0,go,GAL,43,R,elianto,1,1,0.812,1,0.0,1,1,0
09byk3dg92is9b06rwaybmoh,3,2,3a,239,8,0,go,GAL,43,R,elianto,1,1,1.214,1,0.0,1,1,0
09byk3dg92is9b06rwaybmoh,3,1,3b,33,1,0,go,GAL,44,S,elianto,1,1,0.975,1,0.0,1,1,0
09byk3dg92is9b06rwaybmoh,3,1,3b,40,2,0,go,GAL,44,S,elianto,1,0,,0,0.0,0,0,0
09byk3dg92is9b06rwaybmoh,3,1,3b,44,3,0,go,GAL,44,S,elianto,1,1,0.943,1,1.0,0,1,0
09byk3dg92is9b06rwaybmoh,3,1,3b,46,4,0,go,GAL,44,S,elianto,1,1,0.8079999999999999,1,0.0,1,1,0
09byk3dg92is9b06rwaybmoh,3,1,3b,49,5,0,go,GAL,44,S,elianto,1,0,,0,0.0,0,0,0
09byk3dg92is9b06rwaybmoh,3,1,3b,54,6,0,go,GAL,44,S,elianto,1,0,,0,0.0,0,0,0
09byk3dg92is9b06rwaybmoh,3,1,3b,58,7,0,go,GAL,44,S,elianto,1,1,0.941,1,0.0,1,1,0
09byk3dg92is9b06rwaybmoh,3,1,3b,64,8,0,go,GAL,44,S,elianto,1,0,,0,0.0,0,0,0
09byk3dg92is9b06rwaybmoh,3,1,3b,66,9,0,go,GAL,44,S,elianto,1,0,,0,0.0,0,0,0
09byk3dg92is9b06rwaybmoh,3,1,3b,72,10,0,go,GAL,44,S,elianto,1,1,1.255,1,0.0,1,1,0
09byk3dg92is9b06rwaybmoh,3,1,3b,75,11,0,go,GAL,44,S,elianto,1,0,,0,0.0,0,0,0
09byk3dg92is9b06rwaybmoh,3,1,3b,77,12,0,go,GAL,44,S,elianto,1,0,,0,0.0,0,0,0
09byk3dg92is9b06rwaybmoh,3,2,3a,155,1,0,go,GAL,45,T,elianto,1,1,0.797,1,0.0,1,1,0
09byk3dg92is9b06rwaybmoh,3,2,3a,159,2,0,go,GAL,45,T,elianto,1,0,,0,0.0,0,0,0
09byk3dg92is9b06rwaybmoh,3,2,3a,164,3,0,go,GAL,45,T,elianto,1,0,,0,0.0,0,1,0
09byk3dg92is9b06rwaybmoh,3,2,3a,168,4,0,go,GAL,45,T,elianto,1,1,0.762,1,0.0,1,1,0
09byk3dg92is9b06rwaybmoh,3,2,3a,171,5,0,go,GAL,45,T,elianto,1,0,,0,0.0,0,1,0
09byk3dg92is9b06rwaybmoh,3,2,3a,176,6,0,go,GAL,45,T,elianto,1,0,,0,0.0,0,0,0
09byk3dg92is9b06rwaybmoh,3,2,3a,178,7,0,go,GAL,45,T,elianto,1,1,0.652,1,0.0,1,1,0
09byk3dg92is9b06rwaybmoh,3,2,3a,183,8,0,go,GAL,45,T,elianto,1,0,,0,0.0,0,0,0
09byk3dg92is9b06rwaybmoh,3,2,3a,185,9,0,go,GAL,45,T,elianto,1,1,1.177,1,1.0,0,1,0
09byk3dg92is9b06rwaybmoh,3,2,3a,192,10,0,go,GAL,45,T,elianto,1,0,,0,0.0,0,0,0
09byk3dg92is9b06rwaybmoh,3,2,3a,195,11,0,go,GAL,45,T,elianto,1,1,0.308,1,0.0,1,1,0
09byk3dg92is9b06rwaybmoh,3,2,3a,197,12,0,go,GAL,45,T,elianto,1,1,0.8490000000000001,1,0.0,1,1,0
09byk3dg92is9b06rwaybmoh,3,1,3b,4,1,1,no-go,NGW,46,U,elianto,0,0,,1,0.0,1,0,0
09byk3dg92is9b06rwaybmoh,3,1,3b,5,2,1,no-go,NGW,46,U,elianto,0,1,0.763,0,0.0,0,1,0
09byk3dg92is9b06rwaybmoh,3,1,3b,11,3,1,no-go,NGW,46,U,elianto,0,0,,1,1.0,0,0,0
09byk3dg92is9b06rwaybmoh,3,1,3b,16,4,1,no-go,NGW,46,U,elianto,0,1,0.852,0,0.0,0,1,0
09byk3dg92is9b06rwaybmoh,3,1,3b,20,5,1,no-go,NGW,46,U,elianto,0,1,0.77,0,0.0,0,1,0
09byk3dg92is9b06rwaybmoh,3,1,3b,22,6,1,no-go,NGW,46,U,elianto,0,1,0.772,0,0.0,0,1,0
09byk3dg92is9b06rwaybmoh,3,1,3b,28,7,1,no-go,NGW,46,U,elianto,0,0,,1,0.0,1,0,0
09byk3dg92is9b06rwaybmoh,3,1,3b,32,8,1,no-go,NGW,46,U,elianto,0,0,,1,0.0,1,0,0
09byk3dg92is9b06rwaybmoh,3,1,3b,36,9,1,no-go,NGW,46,U,elianto,0,0,,1,0.0,1,0,0
09byk3dg92is9b06rwaybmoh,3,1,3b,39,10,1,no-go,NGW,46,U,elianto,0,0,,1,1.0,0,0,0
09byk3dg92is9b06rwaybmoh,3,1,3b,89,1,1,go,GW,47,V,elianto,1,0,,0,1.0,1,0,1
09byk3dg92is9b06rwaybmoh,3,1,3b,96,2,1,go,GW,47,V,elianto,1,1,0.542,1,0.0,1,1,1
09byk3dg92is9b06rwaybmoh,3,1,3b,97,3,1,go,GW,47,V,elianto,1,1,0.9,1,0.0,1,1,1
09byk3dg92is9b06rwaybmoh,3,1,3b,104,4,1,go,GW,47,V,elianto,1,1,0.993,1,0.0,1,1,1
09byk3dg92is9b06rwaybmoh,3,1,3b,107,5,1,go,GW,47,V,elianto,1,1,1.251,1,0.0,1,1,1
09byk3dg92is9b06rwaybmoh,3,1,3b,111,6,1,go,GW,47,V,elianto,1,1,0.7040000000000001,1,0.0,1,1,1
09byk3dg92is9b06rwaybmoh,3,1,3b,114,7,1,go,GW,47,V,elianto,1,1,0.679,1,0.0,1,1,1
09byk3dg92is9b06rwaybmoh,3,1,3b,120,8,1,go,GW,47,V,elianto,1,1,0.613,1,1.0,0,1,1
09byk3dg92is9b06rwaybmoh,3,1,3b,41,1,1,no-go,NGW,48,W,elianto,0,1,1.0070000000000001,0,0.0,0,1,0
09byk3dg92is9b06rwaybmoh,3,1,3b,47,2,1,no-go,NGW,48,W,elianto,0,1,0.925,0,1.0,1,1,0
09byk3dg92is9b06rwaybmoh,3,1,3b,50,3,1,no-go,NGW,48,W,elianto,0,1,0.687,0,0.0,0,1,0
09byk3dg92is9b06rwaybmoh,3,1,3b,53,4,1,no-go,NGW,48,W,elianto,0,1,0.76,0,0.0,0,1,0
09byk3dg92is9b06rwaybmoh,3,1,3b,59,5,1,no-go,NGW,48,W,elianto,0,0,,1,0.0,1,0,0
09byk3dg92is9b06rwaybmoh,3,1,3b,62,6,1,no-go,NGW,48,W,elianto,0,1,0.895,0,0.0,0,1,0
09byk3dg92is9b06rwaybmoh,3,1,3b,65,7,1,no-go,NGW,48,W,elianto,0,1,0.44299999999999995,0,0.0,0,2,0
09byk3dg92is9b06rwaybmoh,3,1,3b,70,8,1,no-go,NGW,48,W,elianto,0,0,,1,0.0,1,0,0
09byk3dg92is9b06rwaybmoh,3,1,3b,73,9,1,no-go,NGW,48,W,elianto,0,0,,1,0.0,1,0,0
09byk3dg92is9b06rwaybmoh,3,1,3b,79,10,1,no-go,NGW,48,W,elianto,0,0,,1,0.0,1,0,0
09byk3dg92is9b06rwaybmoh,3,1,3b,81,11,1,no-go,NGW,48,W,elianto,0,1,0.89,0,1.0,1,1,0
09byk3dg92is9b06rwaybmoh,3,1,3b,87,12,1,no-go,NGW,48,W,elianto,0,1,0.684,0,0.0,0,1,0
09byk3dg92is9b06rwaybmoh,3,2,3a,123,1,1,go,GW,49,X,elianto,1,0,,0,1.0,1,0,1
09byk3dg92is9b06rwaybmoh,3,2,3a,126,2,1,go,GW,49,X,elianto,1,1,0.792,1,0.0,1,1,1
09byk3dg92is9b06rwaybmoh,3,2,3a,130,3,1,go,GW,49,X,elianto,1,1,0.752,1,0.0,1,1,1
09byk3dg92is9b06rwaybmoh,3,2,3a,133,4,1,go,GW,49,X,elianto,1,1,0.804,1,0.0,1,1,1
09byk3dg92is9b06rwaybmoh,3,2,3a,137,5,1,go,GW,49,X,elianto,1,0,,0,0.0,0,0,1
09byk3dg92is9b06rwaybmoh,3,2,3a,143,6,1,go,GW,49,X,elianto,1,1,0.084,1,0.0,1,1,1
09byk3dg92is9b06rwaybmoh,3,2,3a,148,7,1,go,GW,49,X,elianto,1,1,0.568,1,0.0,1,1,1
09byk3dg92is9b06rwaybmoh,3,2,3a,149,8,1,go,GW,49,X,elianto,1,1,0.579,1,0.0,1,1,1
09byk3dg92is9b06rwaybmoh,3,2,3a,202,1,1,no-go,NGW,50,Y,elianto,0,1,1.044,0,1.0,1,1,0
09byk3dg92is9b06rwaybmoh,3,2,3a,207,2,1,no-go,NGW,50,Y,elianto,0,0,,1,0.0,1,0,0
09byk3dg92is9b06rwaybmoh,3,2,3a,212,3,1,no-go,NGW,50,Y,elianto,0,1,0.9179999999999999,0,0.0,0,1,0
09byk3dg92is9b06rwaybmoh,3,2,3a,215,4,1,no-go,NGW,50,Y,elianto,0,1,0.68,0,1.0,1,1,0
09byk3dg92is9b06rwaybmoh,3,2,3a,219,5,1,no-go,NGW,50,Y,elianto,0,0,,1,0.0,1,0,0
09byk3dg92is9b06rwaybmoh,3,2,3a,223,6,1,no-go,NGW,50,Y,elianto,0,1,0.742,0,0.0,0,1,0
09byk3dg92is9b06rwaybmoh,3,2,3a,226,7,1,no-go,NGW,50,Y,elianto,0,1,0.473,0,0.0,0,1,0
09byk3dg92is9b06rwaybmoh,3,2,3a,231,8,1,no-go,NGW,50,Y,elianto,0,1,0.153,0,0.0,0,1,0
09byk3dg92is9b06rwaybmoh,3,2,3a,234,9,1,no-go,NGW,50,Y,elianto,0,1,0.322,0,0.0,0,1,0
09byk3dg92is9b06rwaybmoh,3,2,3a,237,10,1,no-go,NGW,50,Y,elianto,0,0,,1,0.0,1,0,0
09byk3dg92is9b06rwaybmoh,3,2,3a,172,1,1,go,GW,51,Z,elianto,1,0,,0,0.0,0,0,1
09byk3dg92is9b06rwaybmoh,3,2,3a,174,2,1,go,GW,51,Z,elianto,1,0,,0,0.0,0,0,1
09byk3dg92is9b06rwaybmoh,3,2,3a,177,3,1,go,GW,51,Z,elianto,1,0,,0,0.0,0,0,1
09byk3dg92is9b06rwaybmoh,3,2,3a,184,4,1,go,GW,51,Z,elianto,1,1,1.227,1,0.0,1,1,1
09byk3dg92is9b06rwaybmoh,3,2,3a,187,5,1,go,GW,51,Z,elianto,1,0,,0,0.0,0,1,1
09byk3dg92is9b06rwaybmoh,3,2,3a,190,6,1,go,GW,51,Z,elianto,1,1,1.27,1,1.0,0,1,1
09byk3dg92is9b06rwaybmoh,3,2,3a,194,7,1,go,GW,51,Z,elianto,1,0,,0,0.0,0,0,1
09byk3dg92is9b06rwaybmoh,3,2,3a,200,8,1,go,GW,51,Z,elianto,1,0,,0,0.0,0,0,1
09byk3dg92is9b06rwaybmoh,3,2,3a,203,9,1,go,GW,51,Z,elianto,1,1,0.657,1,0.0,1,1,1
09byk3dg92is9b06rwaybmoh,3,2,3a,208,10,1,go,GW,51,Z,elianto,1,1,0.805,1,0.0,1,1,1
1ahxnduc1fr21fpplm87wkk6,3,2,3b,203,1,1,go,GW,52,A,elianto,1,0,,0,1.0,1,0,1
1ahxnduc1fr21fpplm87wkk6,3,2,3b,206,2,1,go,GW,52,A,elianto,1,0,,0,0.0,0,0,1
1ahxnduc1fr21fpplm87wkk6,3,2,3b,211,3,1,go,GW,52,A,elianto,1,1,0.652,1,0.0,1,1,1
1ahxnduc1fr21fpplm87wkk6,3,2,3b,214,4,1,go,GW,52,A,elianto,1,0,,0,1.0,1,0,1
1ahxnduc1fr21fpplm87wkk6,3,2,3b,218,5,1,go,GW,52,A,elianto,1,1,0.539,1,0.0,1,1,1
1ahxnduc1fr21fpplm87wkk6,3,2,3b,224,6,1,go,GW,52,A,elianto,1,1,0.584,1,1.0,0,1,1
1ahxnduc1fr21fpplm87wkk6,3,2,3b,226,7,1,go,GW,52,A,elianto,1,1,0.662,1,0.0,1,1,1
1ahxnduc1fr21fpplm87wkk6,3,2,3b,232,8,1,go,GW,52,A,elianto,1,1,0.631,1,1.0,0,1,1
1ahxnduc1fr21fpplm87wkk6,3,2,3b,236,9,1,go,GW,52,A,elianto,1,1,0.732,1,1.0,0,1,1
1ahxnduc1fr21fpplm87wkk6,3,2,3b,238,10,1,go,GW,52,A,elianto,1,0,,0,0.0,0,0,1
1ahxnduc1fr21fpplm87wkk6,3,1,3a,41,1,1,no-go,NGW,53,B,elianto,0,1,0.784,0,0.0,0,1,0
1ahxnduc1fr21fpplm87wkk6,3,1,3a,47,2,1,no-go,NGW,53,B,elianto,0,0,,1,0.0,1,0,0
1ahxnduc1fr21fpplm87wkk6,3,1,3a,52,3,1,no-go,NGW,53,B,elianto,0,0,,1,0.0,1,0,0
1ahxnduc1fr21fpplm87wkk6,3,1,3a,55,4,1,no-go,NGW,53,B,elianto,0,0,,1,0.0,1,0,0
1ahxnduc1fr21fpplm87wkk6,3,1,3a,59,5,1,no-go,NGW,53,B,elianto,0,1,0.9840000000000001,0,1.0,1,1,0
1ahxnduc1fr21fpplm87wkk6,3,1,3a,64,6,1,no-go,NGW,53,B,elianto,0,0,,1,1.0,0,0,0
1ahxnduc1fr21fpplm87wkk6,3,1,3a,68,7,1,no-go,NGW,53,B,elianto,0,1,0.955,0,1.0,1,1,0
1ahxnduc1fr21fpplm87wkk6,3,1,3a,70,8,1,no-go,NGW,53,B,elianto,0,1,0.853,0,0.0,0,1,0
1ahxnduc1fr21fpplm87wkk6,3,1,3a,74,9,1,no-go,NGW,53,B,elianto,0,0,,1,0.0,1,0,0
1ahxnduc1fr21fpplm87wkk6,3,1,3a,77,10,1,no-go,NGW,53,B,elianto,0,1,0.778,0,1.0,1,1,0
1ahxnduc1fr21fpplm87wkk6,3,1,3a,84,11,1,no-go,NGW,53,B,elianto,0,1,0.769,0,1.0,1,1,0
1ahxnduc1fr21fpplm87wkk6,3,1,3a,88,12,1,no-go,NGW,53,B,elianto,0,1,0.7979999999999999,0,0.0,0,1,0
1ahxnduc1fr21fpplm87wkk6,3,1,3a,36,1,0,no-go,NGAL,54,C,elianto,0,1,0.998,0,0.0,0,1,1
1ahxnduc1fr21fpplm87wkk6,3,1,3a,40,2,0,no-go,NGAL,54,C,elianto,0,0,,1,1.0,0,0,1
1ahxnduc1fr21fpplm87wkk6,3,1,3a,44,3,0,no-go,NGAL,54,C,elianto,0,0,,1,1.0,0,0,1
1ahxnduc1fr21fpplm87wkk6,3,1,3a,46,4,0,no-go,NGAL,54,C,elianto,0,1,0.5489999999999999,0,0.0,0,1,1
1ahxnduc1fr21fpplm87wkk6,3,1,3a,49,5,0,no-go,NGAL,54,C,elianto,0,1,0.904,0,1.0,1,1,1
1ahxnduc1fr21fpplm87wkk6,3,1,3a,54,6,0,no-go,NGAL,54,C,elianto,0,1,0.987,0,0.0,0,1,1
1ahxnduc1fr21fpplm87wkk6,3,1,3a,60,7,0,no-go,NGAL,54,C,elianto,0,1,0.948,0,0.0,0,1,1
1ahxnduc1fr21fpplm87wkk6,3,1,3a,62,8,0,no-go,NGAL,54,C,elianto,0,0,,1,1.0,0,0,1
1ahxnduc1fr21fpplm87wkk6,3,1,3a,65,9,0,no-go,NGAL,54,C,elianto,0,1,0.882,0,0.0,0,1,1
1ahxnduc1fr21fpplm87wkk6,3,1,3a,71,10,0,no-go,NGAL,54,C,elianto,0,1,0.787,0,0.0,0,1,1
1ahxnduc1fr21fpplm87wkk6,3,2,3b,121,1,1,go,GW,55,D,elianto,1,0,,0,0.0,0,0,1
1ahxnduc1fr21fpplm87wkk6,3,2,3b,127,2,1,go,GW,55,D,elianto,1,0,,0,0.0,0,0,1
1ahxnduc1fr21fpplm87wkk6,3,2,3b,129,3,1,go,GW,55,D,elianto,1,0,,0,0.0,0,0,1
1ahxnduc1fr21fpplm87wkk6,3,2,3b,135,4,1,go,GW,55,D,elianto,1,1,0.8240000000000001,1,0.0,1,1,1
1ahxnduc1fr21fpplm87wkk6,3,2,3b,138,5,1,go,GW,55,D,elianto,1,1,0.502,1,0.0,1,1,1
1ahxnduc1fr21fpplm87wkk6,3,2,3b,141,6,1,go,GW,55,D,elianto,1,1,0.802,1,0.0,1,1,1
1ahxnduc1fr21fpplm87wkk6,3,2,3b,145,7,1,go,GW,55,D,elianto,1,1,0.62,1,0.0,1,1,1
1ahxnduc1fr21fpplm87wkk6,3,2,3b,149,8,1,go,GW,55,D,elianto,1,1,0.5670000000000001,1,0.0,1,1,1
1ahxnduc1fr21fpplm87wkk6,3,2,3b,156,9,1,go,GW,55,D,elianto,1,1,0.501,1,0.0,1,1,1
1ahxnduc1fr21fpplm87wkk6,3,2,3b,157,10,1,go,GW,55,D,elianto,1,1,0.598,1,0.0,1,1,1
1ahxnduc1fr21fpplm87wkk6,3,2,3b,162,11,1,go,GW,55,D,elianto,1,1,0.599,1,0.0,1,1,1
1ahxnduc1fr21fpplm87wkk6,3,2,3b,167,12,1,go,GW,55,D,elianto,1,1,0.591,1,0.0,1,1,1
1ahxnduc1fr21fpplm87wkk6,3,2,3b,154,1,0,no-go,NGAL,56,E,elianto,0,0,,1,0.0,1,0,1
1ahxnduc1fr21fpplm87wkk6,3,2,3b,160,2,0,no-go,NGAL,56,E,elianto,0,0,,1,0.0,1,0,1
1ahxnduc1fr21fpplm87wkk6,3,2,3b,161,3,0,no-go,NGAL,56,E,elianto,0,1,1.078,0,0.0,0,1,1
1ahxnduc1fr21fpplm87wkk6,3,2,3b,168,4,0,no-go,NGAL,56,E,elianto,0,0,,1,0.0,1,0,1
1ahxnduc1fr21fpplm87wkk6,3,2,3b,169,5,0,no-go,NGAL,56,E,elianto,0,0,,1,0.0,1,0,1
1ahxnduc1fr21fpplm87wkk6,3,2,3b,174,6,0,no-go,NGAL,56,E,elianto,0,1,0.924,0,0.0,0,1,1
1ahxnduc1fr21fpplm87wkk6,3,2,3b,179,7,0,no-go,NGAL,56,E,elianto,0,0,,1,0.0,1,0,1
1ahxnduc1fr21fpplm87wkk6,3,2,3b,183,8,0,no-go,NGAL,56,E,elianto,0,0,,1,0.0,1,1,1
1ahxnduc1fr21fpplm87wkk6,3,2,3b,188,9,0,no-go,NGAL,56,E,elianto,0,0,,1,0.0,1,0,1
1ahxnduc1fr21fpplm87wkk6,3,2,3b,192,10,0,no-go,NGAL,56,E,elianto,0,0,,1,0.0,1,0,1
1ahxnduc1fr21fpplm87wkk6,3,1,3a,83,1,1,no-go,NGW,57,F,elianto,0,0,,1,0.0,1,0,0
1ahxnduc1fr21fpplm87wkk6,3,1,3a,85,2,1,no-go,NGW,57,F,elianto,0,1,1.143,0,0.0,0,1,0
1ahxnduc1fr21fpplm87wkk6,3,1,3a,91,3,1,no-go,NGW,57,F,elianto,0,0,,1,1.0,0,0,0
1ahxnduc1fr21fpplm87wkk6,3,1,3a,94,4,1,no-go,NGW,57,F,elianto,0,1,0.9570000000000001,0,1.0,1,1,0
1ahxnduc1fr21fpplm87wkk6,3,1,3a,98,5,1,no-go,NGW,57,F,elianto,0,1,1.15,0,0.0,0,1,0
1ahxnduc1fr21fpplm87wkk6,3,1,3a,102,6,1,no-go,NGW,57,F,elianto,0,0,,1,1.0,0,0,0
1ahxnduc1fr21fpplm87wkk6,3,1,3a,108,7,1,no-go,NGW,57,F,elianto,0,0,,1,0.0,1,0,0
1ahxnduc1fr21fpplm87wkk6,3,1,3a,110,8,1,no-go,NGW,57,F,elianto,0,0,,1,1.0,0,0,0
1ahxnduc1fr21fpplm87wkk6,3,1,3a,116,9,1,no-go,NGW,57,F,elianto,0,0,,1,0.0,1,0,0
1ahxnduc1fr21fpplm87wkk6,3,1,3a,119,10,1,no-go,NGW,57,F,elianto,0,0,,1,1.0,0,0,0
1ahxnduc1fr21fpplm87wkk6,3,2,3b,194,1,0,no-go,NGAL,58,G,elianto,0,0,,1,0.0,1,0,1
1ahxnduc1fr21fpplm87wkk6,3,2,3b,199,2,0,no-go,NGAL,58,G,elianto,0,0,,1,0.0,1,0,1
1ahxnduc1fr21fpplm87wkk6,3,2,3b,201,3,0,no-go,NGAL,58,G,elianto,0,0,,1,0.0,1,0,1
1ahxnduc1fr21fpplm87wkk6,3,2,3b,208,4,0,no-go,NGAL,58,G,elianto,0,0,,1,0.0,1,0,1
1ahxnduc1fr21fpplm87wkk6,3,2,3b,209,5,0,no-go,NGAL,58,G,elianto,0,0,,1,1.0,0,0,1
1ahxnduc1fr21fpplm87wkk6,3,2,3b,215,6,0,no-go,NGAL,58,G,elianto,0,0,,1,0.0,1,0,1
1ahxnduc1fr21fpplm87wkk6,3,2,3b,217,7,0,no-go,NGAL,58,G,elianto,0,1,1.1540000000000001,0,0.0,0,1,1
1ahxnduc1fr21fpplm87wkk6,3,2,3b,223,8,0,no-go,NGAL,58,G,elianto,0,0,,1,0.0,1,0,1
1ahxnduc1fr21fpplm87wkk6,3,2,3b,227,9,0,no-go,NGAL,58,G,elianto,0,0,,1,0.0,1,0,1
1ahxnduc1fr21fpplm87wkk6,3,2,3b,231,10,0,no-go,NGAL,58,G,elianto,0,0,,1,1.0,0,0,1
1ahxnduc1fr21fpplm87wkk6,3,2,3b,235,11,0,no-go,NGAL,58,G,elianto,0,0,,1,0.0,1,0,1
1ahxnduc1fr21fpplm87wkk6,3,2,3b,237,12,0,no-go,NGAL,58,G,elianto,0,0,,1,0.0,1,0,1
1ahxnduc1fr21fpplm87wkk6,3,1,3a,2,1,1,go,GW,59,H,elianto,1,1,1.024,1,0.0,1,1,1
1ahxnduc1fr21fpplm87wkk6,3,1,3a,6,2,1,go,GW,59,H,elianto,1,1,0.9059999999999999,1,0.0,1,1,1
1ahxnduc1fr21fpplm87wkk6,3,1,3a,9,3,1,go,GW,59,H,elianto,1,1,0.818,1,0.0,1,1,1
1ahxnduc1fr21fpplm87wkk6,3,1,3a,14,4,1,go,GW,59,H,elianto,1,1,1.02,1,0.0,1,1,1
1ahxnduc1fr21fpplm87wkk6,3,1,3a,17,5,1,go,GW,59,H,elianto,1,1,1.172,1,0.0,1,1,1
1ahxnduc1fr21fpplm87wkk6,3,1,3a,21,6,1,go,GW,59,H,elianto,1,1,0.991,1,0.0,1,1,1
1ahxnduc1fr21fpplm87wkk6,3,1,3a,28,7,1,go,GW,59,H,elianto,1,0,,0,1.0,1,0,1
1ahxnduc1fr21fpplm87wkk6,3,1,3a,29,8,1,go,GW,59,H,elianto,1,1,0.725,1,0.0,1,1,1
1ahxnduc1fr21fpplm87wkk6,3,2,3b,122,1,1,no-go,NGW,61,J,elianto,0,0,,1,0.0,1,0,0
1ahxnduc1fr21fpplm87wkk6,3,2,3b,128,2,1,no-go,NGW,61,J,elianto,0,1,0.516,0,0.0,0,1,0
1ahxnduc1fr21fpplm87wkk6,3,2,3b,130,3,1,no-go,NGW,61,J,elianto,0,1,0.53,0,0.0,0,1,0
1ahxnduc1fr21fpplm87wkk6,3,2,3b,133,4,1,no-go,NGW,61,J,elianto,0,1,0.9229999999999999,0,0.0,0,1,0
1ahxnduc1fr21fpplm87wkk6,3,2,3b,137,5,1,no-go,NGW,61,J,elianto,0,1,0.773,0,1.0,1,1,0
1ahxnduc1fr21fpplm87wkk6,3,2,3b,144,6,1,no-go,NGW,61,J,elianto,0,1,0.902,0,0.0,0,1,0
1ahxnduc1fr21fpplm87wkk6,3,2,3b,148,7,1,no-go,NGW,61,J,elianto,0,1,0.882,0,1.0,1,1,0
1ahxnduc1fr21fpplm87wkk6,3,2,3b,150,8,1,no-go,NGW,61,J,elianto,0,1,0.738,0,0.0,0,1,0
1ahxnduc1fr21fpplm87wkk6,3,2,3b,124,1,0,go,GAL,62,K,elianto,1,0,,0,0.0,0,0,0
1ahxnduc1fr21fpplm87wkk6,3,2,3b,126,2,0,go,GAL,62,K,elianto,1,1,0.7979999999999999,1,0.0,1,1,0
1ahxnduc1fr21fpplm87wkk6,3,2,3b,131,3,0,go,GAL,62,K,elianto,1,0,,0,0.0,0,0,0
1ahxnduc1fr21fpplm87wkk6,3,2,3b,134,4,0,go,GAL,62,K,elianto,1,1,0.991,1,0.0,1,1,0
1ahxnduc1fr21fpplm87wkk6,3,2,3b,139,5,0,go,GAL,62,K,elianto,1,0,,0,0.0,0,0,0
1ahxnduc1fr21fpplm87wkk6,3,2,3b,142,6,0,go,GAL,62,K,elianto,1,1,0.6920000000000001,1,0.0,1,1,0
1ahxnduc1fr21fpplm87wkk6,3,2,3b,146,7,0,go,GAL,62,K,elianto,1,1,0.872,1,1.0,0,1,0
1ahxnduc1fr21fpplm87wkk6,3,2,3b,151,8,0,go,GAL,62,K,elianto,1,1,0.821,1,0.0,1,1,0
1ahxnduc1fr21fpplm87wkk6,3,2,3b,204,1,0,go,GAL,63,L,elianto,1,1,0.865,1,0.0,1,1,0
1ahxnduc1fr21fpplm87wkk6,3,2,3b,205,2,0,go,GAL,63,L,elianto,1,1,0.616,1,0.0,1,1,0
1ahxnduc1fr21fpplm87wkk6,3,2,3b,210,3,0,go,GAL,63,L,elianto,1,0,,0,0.0,0,1,0
1ahxnduc1fr21fpplm87wkk6,3,2,3b,213,4,0,go,GAL,63,L,elianto,1,1,1.124,1,1.0,0,1,0
1ahxnduc1fr21fpplm87wkk6,3,2,3b,220,5,0,go,GAL,63,L,elianto,1,0,,0,0.0,0,0,0
1ahxnduc1fr21fpplm87wkk6,3,2,3b,221,6,0,go,GAL,63,L,elianto,1,1,0.457,1,0.0,1,1,0
1ahxnduc1fr21fpplm87wkk6,3,2,3b,228,7,0,go,GAL,63,L,elianto,1,1,0.9570000000000001,1,0.0,1,1,0
1ahxnduc1fr21fpplm87wkk6,3,2,3b,229,8,0,go,GAL,63,L,elianto,1,1,0.563,1,0.0,1,1,0
1ahxnduc1fr21fpplm87wkk6,3,2,3b,234,9,0,go,GAL,63,L,elianto,1,1,0.5670000000000001,1,0.0,1,1,0
1ahxnduc1fr21fpplm87wkk6,3,2,3b,239,10,0,go,GAL,63,L,elianto,1,1,0.889,1,0.0,1,1,0
1ahxnduc1fr21fpplm87wkk6,3,1,3a,4,1,1,no-go,NGW,64,M,elianto,0,1,0.995,0,1.0,1,1,0
1ahxnduc1fr21fpplm87wkk6,3,1,3a,7,2,1,no-go,NGW,64,M,elianto,0,1,0.899,0,0.0,0,1,0
1ahxnduc1fr21fpplm87wkk6,3,1,3a,11,3,1,no-go,NGW,64,M,elianto,0,0,,1,0.0,1,0,0
1ahxnduc1fr21fpplm87wkk6,3,1,3a,16,4,1,no-go,NGW,64,M,elianto,0,0,,1,0.0,1,0,0
1ahxnduc1fr21fpplm87wkk6,3,1,3a,18,5,1,no-go,NGW,64,M,elianto,0,1,1.148,0,0.0,0,1,0
1ahxnduc1fr21fpplm87wkk6,3,1,3a,24,6,1,no-go,NGW,64,M,elianto,0,1,0.97,0,0.0,0,1,0
1ahxnduc1fr21fpplm87wkk6,3,1,3a,27,7,1,no-go,NGW,64,M,elianto,0,0,,1,0.0,1,0,0
1ahxnduc1fr21fpplm87wkk6,3,1,3a,31,8,1,no-go,NGW,64,M,elianto,0,0,,1,0.0,1,0,0
1ahxnduc1fr21fpplm87wkk6,3,1,3a,89,1,0,go,GAL,65,N,elianto,1,0,,0,0.0,0,0,0
1ahxnduc1fr21fpplm87wkk6,3,1,3a,95,2,0,go,GAL,65,N,elianto,1,1,1.028,1,1.0,0,1,0
1ahxnduc1fr21fpplm87wkk6,3,1,3a,100,3,0,go,GAL,65,N,elianto,1,0,,0,1.0,1,0,0
1ahxnduc1fr21fpplm87wkk6,3,1,3a,104,4,0,go,GAL,65,N,elianto,1,0,,0,0.0,0,0,0
1ahxnduc1fr21fpplm87wkk6,3,1,3a,106,5,0,go,GAL,65,N,elianto,1,0,,0,0.0,0,0,0
1ahxnduc1fr21fpplm87wkk6,3,1,3a,109,6,0,go,GAL,65,N,elianto,1,0,,0,1.0,1,0,0
1ahxnduc1fr21fpplm87wkk6,3,1,3a,114,7,0,go,GAL,65,N,elianto,1,0,,0,0.0,0,0,0
1ahxnduc1fr21fpplm87wkk6,3,1,3a,120,8,0,go,GAL,65,N,elianto,1,0,,0,0.0,0,0,0
1ahxnduc1fr21fpplm87wkk6,3,2,3b,172,1,0,no-go,NGAL,67,P,elianto,0,0,,1,1.0,0,0,1
1ahxnduc1fr21fpplm87wkk6,3,2,3b,175,2,0,no-go,NGAL,67,P,elianto,0,0,,1,0.0,1,0,1
1ahxnduc1fr21fpplm87wkk6,3,2,3b,178,3,0,no-go,NGAL,67,P,elianto,0,0,,1,0.0,1,0,1
1ahxnduc1fr21fpplm87wkk6,3,2,3b,182,4,0,no-go,NGAL,67,P,elianto,0,0,,1,0.0,1,0,1
1ahxnduc1fr21fpplm87wkk6,3,2,3b,186,5,0,no-go,NGAL,67,P,elianto,0,0,,1,0.0,1,0,1
1ahxnduc1fr21fpplm87wkk6,3,2,3b,191,6,0,no-go,NGAL,67,P,elianto,0,0,,1,1.0,0,0,1
1ahxnduc1fr21fpplm87wkk6,3,2,3b,195,7,0,no-go,NGAL,67,P,elianto,0,0,,1,0.0,1,0,1
1ahxnduc1fr21fpplm87wkk6,3,2,3b,197,8,0,no-go,NGAL,67,P,elianto,0,0,,1,1.0,0,0,1
1ahxnduc1fr21fpplm87wkk6,3,1,3a,92,1,0,no-go,NGAL,68,Q,elianto,0,0,,1,1.0,0,0,1
1ahxnduc1fr21fpplm87wkk6,3,1,3a,96,2,0,no-go,NGAL,68,Q,elianto,0,1,0.8140000000000001,0,0.0,0,1,1
1ahxnduc1fr21fpplm87wkk6,3,1,3a,99,3,0,no-go,NGAL,68,Q,elianto,0,0,,1,0.0,1,0,1
1ahxnduc1fr21fpplm87wkk6,3,1,3a,103,4,0,no-go,NGAL,68,Q,elianto,0,0,,1,0.0,1,0,1
1ahxnduc1fr21fpplm87wkk6,3,1,3a,105,5,0,no-go,NGAL,68,Q,elianto,0,0,,1,1.0,0,0,1
1ahxnduc1fr21fpplm87wkk6,3,1,3a,112,6,0,no-go,NGAL,68,Q,elianto,0,0,,1,1.0,0,0,1
1ahxnduc1fr21fpplm87wkk6,3,1,3a,115,7,0,no-go,NGAL,68,Q,elianto,0,1,0.615,0,0.0,0,1,1
1ahxnduc1fr21fpplm87wkk6,3,1,3a,117,8,0,no-go,NGAL,68,Q,elianto,0,0,,1,0.0,1,0,1
1ahxnduc1fr21fpplm87wkk6,3,1,3a,1,1,0,go,GAL,69,R,elianto,1,1,0.659,1,0.0,1,1,0
1ahxnduc1fr21fpplm87wkk6,3,1,3a,5,2,0,go,GAL,69,R,elianto,1,0,,0,0.0,0,0,0
1ahxnduc1fr21fpplm87wkk6,3,1,3a,10,3,0,go,GAL,69,R,elianto,1,1,1.181,1,0.0,1,1,0
1ahxnduc1fr21fpplm87wkk6,3,1,3a,13,4,0,go,GAL,69,R,elianto,1,1,0.809,1,1.0,0,1,0
1ahxnduc1fr21fpplm87wkk6,3,1,3a,19,5,0,go,GAL,69,R,elianto,1,1,1.163,1,0.0,1,1,0
1ahxnduc1fr21fpplm87wkk6,3,1,3a,23,6,0,go,GAL,69,R,elianto,1,1,0.515,1,0.0,1,1,0
1ahxnduc1fr21fpplm87wkk6,3,1,3a,26,7,0,go,GAL,69,R,elianto,1,1,0.685,1,0.0,1,1,0
1ahxnduc1fr21fpplm87wkk6,3,1,3a,30,8,0,go,GAL,69,R,elianto,1,1,0.966,1,0.0,1,1,0
1ahxnduc1fr21fpplm87wkk6,3,1,3a,35,9,0,go,GAL,69,R,elianto,1,1,0.8320000000000001,1,0.0,1,1,0
1ahxnduc1fr21fpplm87wkk6,3,1,3a,38,10,0,go,GAL,69,R,elianto,1,1,0.599,1,0.0,1,1,0
1ahxnduc1fr21fpplm87wkk6,3,2,3b,164,1,1,no-go,NGW,70,S,elianto,0,1,0.9009999999999999,0,0.0,0,1,0
1ahxnduc1fr21fpplm87wkk6,3,2,3b,166,2,1,no-go,NGW,70,S,elianto,0,0,,1,0.0,1,0,0
1ahxnduc1fr21fpplm87wkk6,3,2,3b,170,3,1,no-go,NGW,70,S,elianto,0,0,,1,0.0,1,0,0
1ahxnduc1fr21fpplm87wkk6,3,2,3b,173,4,1,no-go,NGW,70,S,elianto,0,0,,1,1.0,0,0,0
1ahxnduc1fr21fpplm87wkk6,3,2,3b,180,5,1,no-go,NGW,70,S,elianto,0,0,,1,0.0,1,0,0
1ahxnduc1fr21fpplm87wkk6,3,2,3b,181,6,1,no-go,NGW,70,S,elianto,0,0,,1,0.0,1,0,0
1ahxnduc1fr21fpplm87wkk6,3,2,3b,185,7,1,no-go,NGW,70,S,elianto,0,0,,1,0.0,1,0,0
1ahxnduc1fr21fpplm87wkk6,3,2,3b,189,8,1,no-go,NGW,70,S,elianto,0,0,,1,0.0,1,0,0
1ahxnduc1fr21fpplm87wkk6,3,2,3b,193,9,1,no-go,NGW,70,S,elianto,0,0,,1,0.0,1,0,0
1ahxnduc1fr21fpplm87wkk6,3,2,3b,198,10,1,no-go,NGW,70,S,elianto,0,0,,1,0.0,1,0,0
1ahxnduc1fr21fpplm87wkk6,3,2,3b,202,11,1,no-go,NGW,70,S,elianto,0,0,,1,0.0,1,0,0
1ahxnduc1fr21fpplm87wkk6,3,2,3b,207,12,1,no-go,NGW,70,S,elianto,0,0,,1,0.0,1,0,0
1ahxnduc1fr21fpplm87wkk6,3,1,3a,51,1,1,go,GW,71,T,elianto,1,0,,0,1.0,1,0,1
1ahxnduc1fr21fpplm87wkk6,3,1,3a,56,2,1,go,GW,71,T,elianto,1,0,,0,0.0,0,0,1
1ahxnduc1fr21fpplm87wkk6,3,1,3a,57,3,1,go,GW,71,T,elianto,1,1,0.563,1,1.0,0,2,1
1ahxnduc1fr21fpplm87wkk6,3,1,3a,63,4,1,go,GW,71,T,elianto,1,1,1.0659999999999998,1,0.0,1,1,1
1ahxnduc1fr21fpplm87wkk6,3,1,3a,66,5,1,go,GW,71,T,elianto,1,0,,0,0.0,0,0,1
1ahxnduc1fr21fpplm87wkk6,3,1,3a,72,6,1,go,GW,71,T,elianto,1,1,0.9740000000000001,1,1.0,0,1,1
1ahxnduc1fr21fpplm87wkk6,3,1,3a,76,7,1,go,GW,71,T,elianto,1,1,0.935,1,0.0,1,1,1
1ahxnduc1fr21fpplm87wkk6,3,1,3a,79,8,1,go,GW,71,T,elianto,1,1,0.7559999999999999,1,0.0,1,1,1
1ahxnduc1fr21fpplm87wkk6,3,1,3a,81,9,1,go,GW,71,T,elianto,1,1,0.772,1,0.0,1,1,1
1ahxnduc1fr21fpplm87wkk6,3,1,3a,87,10,1,go,GW,71,T,elianto,1,1,0.777,1,0.0,1,1,1
1ahxnduc1fr21fpplm87wkk6,3,2,3b,212,1,1,go,GW,72,U,elianto,1,1,0.856,1,0.0,1,1,1
1ahxnduc1fr21fpplm87wkk6,3,2,3b,216,2,1,go,GW,72,U,elianto,1,1,0.82,1,0.0,1,1,1
1ahxnduc1fr21fpplm87wkk6,3,2,3b,219,3,1,go,GW,72,U,elianto,1,1,1.196,1,0.0,1,1,1
1ahxnduc1fr21fpplm87wkk6,3,2,3b,222,4,1,go,GW,72,U,elianto,1,1,0.7659999999999999,1,0.0,1,1,1
1ahxnduc1fr21fpplm87wkk6,3,2,3b,225,5,1,go,GW,72,U,elianto,1,1,0.64,1,0.0,1,1,1
1ahxnduc1fr21fpplm87wkk6,3,2,3b,230,6,1,go,GW,72,U,elianto,1,1,0.795,1,0.0,1,1,1
1ahxnduc1fr21fpplm87wkk6,3,2,3b,233,7,1,go,GW,72,U,elianto,1,1,0.573,1,1.0,0,1,1
1ahxnduc1fr21fpplm87wkk6,3,2,3b,240,8,1,go,GW,72,U,elianto,1,1,0.833,1,0.0,1,1,1
1ahxnduc1fr21fpplm87wkk6,3,2,3b,123,1,1,no-go,NGW,73,V,elianto,0,1,0.9309999999999999,0,0.0,0,1,0
1ahxnduc1fr21fpplm87wkk6,3,2,3b,125,2,1,no-go,NGW,73,V,elianto,0,0,,1,0.0,1,0,0
1ahxnduc1fr21fpplm87wkk6,3,2,3b,132,3,1,no-go,NGW,73,V,elianto,0,0,,1,0.0,1,0,0
1ahxnduc1fr21fpplm87wkk6,3,2,3b,136,4,1,no-go,NGW,73,V,elianto,0,0,,1,0.0,1,0,0
1ahxnduc1fr21fpplm87wkk6,3,2,3b,140,5,1,no-go,NGW,73,V,elianto,0,0,,1,1.0,0,0,0
1ahxnduc1fr21fpplm87wkk6,3,2,3b,143,6,1,no-go,NGW,73,V,elianto,0,0,,1,0.0,1,0,0
1ahxnduc1fr21fpplm87wkk6,3,2,3b,147,7,1,no-go,NGW,73,V,elianto,0,0,,1,0.0,1,0,0
1ahxnduc1fr21fpplm87wkk6,3,2,3b,152,8,1,no-go,NGW,73,V,elianto,0,0,,1,1.0,0,0,0
1ahxnduc1fr21fpplm87wkk6,3,2,3b,155,9,1,no-go,NGW,73,V,elianto,0,0,,1,1.0,0,0,0
1ahxnduc1fr21fpplm87wkk6,3,2,3b,158,10,1,no-go,NGW,73,V,elianto,0,0,,1,0.0,1,0,0
1ahxnduc1fr21fpplm87wkk6,3,2,3b,153,1,0,go,GAL,74,W,elianto,1,1,0.802,1,0.0,1,1,0
1ahxnduc1fr21fpplm87wkk6,3,2,3b,159,2,0,go,GAL,74,W,elianto,1,1,1.051,1,0.0,1,1,0
1ahxnduc1fr21fpplm87wkk6,3,2,3b,163,3,0,go,GAL,74,W,elianto,1,1,1.0090000000000001,1,0.0,1,1,0
1ahxnduc1fr21fpplm87wkk6,3,2,3b,165,4,0,go,GAL,74,W,elianto,1,0,,0,0.0,0,0,0
1ahxnduc1fr21fpplm87wkk6,3,2,3b,171,5,0,go,GAL,74,W,elianto,1,1,0.695,1,0.0,1,1,0
1ahxnduc1fr21fpplm87wkk6,3,2,3b,176,6,0,go,GAL,74,W,elianto,1,0,,0,0.0,0,0,0
1ahxnduc1fr21fpplm87wkk6,3,2,3b,177,7,0,go,GAL,74,W,elianto,1,1,0.53,1,1.0,0,1,0
1ahxnduc1fr21fpplm87wkk6,3,2,3b,184,8,0,go,GAL,74,W,elianto,1,1,0.5760000000000001,1,0.0,1,1,0
1ahxnduc1fr21fpplm87wkk6,3,2,3b,187,9,0,go,GAL,74,W,elianto,1,1,0.78,1,0.0,1,1,0
1ahxnduc1fr21fpplm87wkk6,3,2,3b,190,10,0,go,GAL,74,W,elianto,1,0,,0,0.0,0,0,0
1ahxnduc1fr21fpplm87wkk6,3,2,3b,196,11,0,go,GAL,74,W,elianto,1,1,0.534,1,0.0,1,1,0
1ahxnduc1fr21fpplm87wkk6,3,2,3b,200,12,0,go,GAL,74,W,elianto,1,0,,0,0.0,0,0,0
1ahxnduc1fr21fpplm87wkk6,3,1,3a,75,1,1,go,GW,75,X,elianto,1,1,1.158,1,0.0,1,1,1
1ahxnduc1fr21fpplm87wkk6,3,1,3a,80,2,1,go,GW,75,X,elianto,1,1,0.63,1,0.0,1,1,1
1ahxnduc1fr21fpplm87wkk6,3,1,3a,82,3,1,go,GW,75,X,elianto,1,1,0.7140000000000001,1,0.0,1,1,1
1ahxnduc1fr21fpplm87wkk6,3,1,3a,86,4,1,go,GW,75,X,elianto,1,1,0.6890000000000001,1,0.0,1,1,1
1ahxnduc1fr21fpplm87wkk6,3,1,3a,90,5,1,go,GW,75,X,elianto,1,1,0.657,1,0.0,1,1,1
1ahxnduc1fr21fpplm87wkk6,3,1,3a,93,6,1,go,GW,75,X,elianto,1,1,0.987,1,0.0,1,1,1
1ahxnduc1fr21fpplm87wkk6,3,1,3a,97,7,1,go,GW,75,X,elianto,1,1,0.951,1,0.0,1,1,1
1ahxnduc1fr21fpplm87wkk6,3,1,3a,101,8,1,go,GW,75,X,elianto,1,1,0.624,1,0.0,1,1,1
1ahxnduc1fr21fpplm87wkk6,3,1,3a,107,9,1,go,GW,75,X,elianto,1,1,0.52,1,0.0,1,1,1
1ahxnduc1fr21fpplm87wkk6,3,1,3a,111,10,1,go,GW,75,X,elianto,1,1,0.61,1,0.0,1,1,1
1ahxnduc1fr21fpplm87wkk6,3,1,3a,113,11,1,go,GW,75,X,elianto,1,1,0.551,1,0.0,1,1,1
1ahxnduc1fr21fpplm87wkk6,3,1,3a,118,12,1,go,GW,75,X,elianto,1,1,0.5429999999999999,1,0.0,1,1,1
1ahxnduc1fr21fpplm87wkk6,3,1,3a,3,1,0,no-go,NGAL,76,Y,elianto,0,0,,1,0.0,1,0,1
1ahxnduc1fr21fpplm87wkk6,3,1,3a,8,2,0,no-go,NGAL,76,Y,elianto,0,0,,1,0.0,1,0,1
1ahxnduc1fr21fpplm87wkk6,3,1,3a,12,3,0,no-go,NGAL,76,Y,elianto,0,0,,1,0.0,1,0,1
1ahxnduc1fr21fpplm87wkk6,3,1,3a,15,4,0,no-go,NGAL,76,Y,elianto,0,0,,1,0.0,1,0,1
1ahxnduc1fr21fpplm87wkk6,3,1,3a,20,5,0,no-go,NGAL,76,Y,elianto,0,0,,1,1.0,0,0,1
1ahxnduc1fr21fpplm87wkk6,3,1,3a,22,6,0,no-go,NGAL,76,Y,elianto,0,1,1.051,0,1.0,1,1,1
1ahxnduc1fr21fpplm87wkk6,3,1,3a,25,7,0,no-go,NGAL,76,Y,elianto,0,1,0.8909999999999999,0,0.0,0,1,1
1ahxnduc1fr21fpplm87wkk6,3,1,3a,32,8,0,no-go,NGAL,76,Y,elianto,0,1,0.89,0,0.0,0,1,1
1ahxnduc1fr21fpplm87wkk6,3,1,3a,34,9,0,no-go,NGAL,76,Y,elianto,0,0,,1,0.0,1,0,1
1ahxnduc1fr21fpplm87wkk6,3,1,3a,37,10,0,no-go,NGAL,76,Y,elianto,0,1,1.268,0,0.0,0,1,1
1ahxnduc1fr21fpplm87wkk6,3,1,3a,42,11,0,no-go,NGAL,76,Y,elianto,0,0,,1,0.0,1,0,1
1ahxnduc1fr21fpplm87wkk6,3,1,3a,48,12,0,no-go,NGAL,76,Y,elianto,0,0,,1,0.0,1,0,1
1ahxnduc1fr21fpplm87wkk6,3,1,3a,33,1,0,go,GAL,77,Z,elianto,1,1,0.922,1,1.0,0,1,0
1ahxnduc1fr21fpplm87wkk6,3,1,3a,39,2,0,go,GAL,77,Z,elianto,1,0,,0,0.0,0,0,0
1ahxnduc1fr21fpplm87wkk6,3,1,3a,43,3,0,go,GAL,77,Z,elianto,1,0,,0,0.0,0,0,0
1ahxnduc1fr21fpplm87wkk6,3,1,3a,45,4,0,go,GAL,77,Z,elianto,1,1,0.75,1,0.0,1,1,0
1ahxnduc1fr21fpplm87wkk6,3,1,3a,50,5,0,go,GAL,77,Z,elianto,1,1,1.006,1,0.0,1,1,0
1ahxnduc1fr21fpplm87wkk6,3,1,3a,53,6,0,go,GAL,77,Z,elianto,1,1,1.071,1,1.0,0,1,0
1ahxnduc1fr21fpplm87wkk6,3,1,3a,58,7,0,go,GAL,77,Z,elianto,1,1,1.079,1,0.0,1,1,0
1ahxnduc1fr21fpplm87wkk6,3,1,3a,61,8,0,go,GAL,77,Z,elianto,1,1,0.9179999999999999,1,0.0,1,1,0
1ahxnduc1fr21fpplm87wkk6,3,1,3a,67,9,0,go,GAL,77,Z,elianto,1,1,0.946,1,0.0,1,1,0
1ahxnduc1fr21fpplm87wkk6,3,1,3a,69,10,0,go,GAL,77,Z,elianto,1,1,0.836,1,0.0,1,1,0
1ahxnduc1fr21fpplm87wkk6,3,1,3a,73,11,0,go,GAL,77,Z,elianto,1,1,0.747,1,0.0,1,1,0
1ahxnduc1fr21fpplm87wkk6,3,1,3a,78,12,0,go,GAL,77,Z,elianto,1,1,0.7809999999999999,1,1.0,0,1,0
1nn8ci654pmi5ny2ho1q3dxi,3,1,3a,73,1,1,go,GW,78,A,bacs1,1,1,0.9279999999999999,1,0.0,1,1,1
1nn8ci654pmi5ny2ho1q3dxi,3,1,3a,79,2,1,go,GW,78,A,bacs1,1,1,0.33799999999999997,1,0.0,1,1,1
1nn8ci654pmi5ny2ho1q3dxi,3,1,3a,81,3,1,go,GW,78,A,bacs1,1,1,0.522,1,0.0,1,1,1
1nn8ci654pmi5ny2ho1q3dxi,3,1,3a,86,4,1,go,GW,78,A,bacs1,1,1,0.465,1,1.0,0,1,1
1nn8ci654pmi5ny2ho1q3dxi,3,1,3a,91,5,1,go,GW,78,A,bacs1,1,1,0.777,1,0.0,1,1,1
1nn8ci654pmi5ny2ho1q3dxi,3,1,3a,93,6,1,go,GW,78,A,bacs1,1,1,0.606,1,0.0,1,1,1
1nn8ci654pmi5ny2ho1q3dxi,3,1,3a,99,7,1,go,GW,78,A,bacs1,1,1,0.48100000000000004,1,1.0,0,1,1
1nn8ci654pmi5ny2ho1q3dxi,3,1,3a,104,8,1,go,GW,78,A,bacs1,1,1,0.723,1,0.0,1,1,1
1nn8ci654pmi5ny2ho1q3dxi,3,1,3a,106,9,1,go,GW,78,A,bacs1,1,1,0.508,1,0.0,1,1,1
1nn8ci654pmi5ny2ho1q3dxi,3,1,3a,112,10,1,go,GW,78,A,bacs1,1,1,0.591,1,0.0,1,1,1
1nn8ci654pmi5ny2ho1q3dxi,3,1,3a,114,11,1,go,GW,78,A,bacs1,1,1,0.591,1,0.0,1,1,1
1nn8ci654pmi5ny2ho1q3dxi,3,1,3a,119,12,1,go,GW,78,A,bacs1,1,1,0.424,1,0.0,1,1,1
1nn8ci654pmi5ny2ho1q3dxi,3,1,3a,1,1,1,no-go,NGW,79,B,bacs1,0,1,0.48700000000000004,0,0.0,0,1,0
1nn8ci654pmi5ny2ho1q3dxi,3,1,3a,8,2,1,no-go,NGW,79,B,bacs1,0,1,0.9740000000000001,0,0.0,0,1,0
1nn8ci654pmi5ny2ho1q3dxi,3,1,3a,10,3,1,no-go,NGW,79,B,bacs1,0,0,,1,0.0,1,0,0
1nn8ci654pmi5ny2ho1q3dxi,3,1,3a,16,4,1,no-go,NGW,79,B,bacs1,0,0,,1,0.0,1,0,0
1nn8ci654pmi5ny2ho1q3dxi,3,1,3a,18,5,1,no-go,NGW,79,B,bacs1,0,0,,1,0.0,1,0,0
1nn8ci654pmi5ny2ho1q3dxi,3,1,3a,21,6,1,no-go,NGW,79,B,bacs1,0,0,,1,0.0,1,0,0
1nn8ci654pmi5ny2ho1q3dxi,3,1,3a,27,7,1,no-go,NGW,79,B,bacs1,0,0,,1,0.0,1,0,0
1nn8ci654pmi5ny2ho1q3dxi,3,1,3a,31,8,1,no-go,NGW,79,B,bacs1,0,0,,1,0.0,1,0,0
1nn8ci654pmi5ny2ho1q3dxi,3,1,3a,84,1,1,no-go,NGW,80,C,bacs1,0,1,0.736,0,0.0,0,1,0
1nn8ci654pmi5ny2ho1q3dxi,3,1,3a,87,2,1,no-go,NGW,80,C,bacs1,0,0,,1,0.0,1,0,0
1nn8ci654pmi5ny2ho1q3dxi,3,1,3a,92,3,1,no-go,NGW,80,C,bacs1,0,1,0.825,0,0.0,0,1,0
1nn8ci654pmi5ny2ho1q3dxi,3,1,3a,94,4,1,no-go,NGW,80,C,bacs1,0,0,,1,0.0,1,0,0
1nn8ci654pmi5ny2ho1q3dxi,3,1,3a,98,5,1,no-go,NGW,80,C,bacs1,0,0,,1,0.0,1,0,0
1nn8ci654pmi5ny2ho1q3dxi,3,1,3a,103,6,1,no-go,NGW,80,C,bacs1,0,0,,1,0.0,1,0,0
1nn8ci654pmi5ny2ho1q3dxi,3,1,3a,108,7,1,no-go,NGW,80,C,bacs1,0,0,,1,0.0,1,0,0
1nn8ci654pmi5ny2ho1q3dxi,3,1,3a,111,8,1,no-go,NGW,80,C,bacs1,0,0,,1,0.0,1,0,0
1nn8ci654pmi5ny2ho1q3dxi,3,1,3a,113,9,1,no-go,NGW,80,C,bacs1,0,0,,1,0.0,1,0,0
1nn8ci654pmi5ny2ho1q3dxi,3,1,3a,118,10,1,no-go,NGW,80,C,bacs1,0,0,,1,0.0,1,0,0
1nn8ci654pmi5ny2ho1q3dxi,3,2,3b,154,1,0,no-go,NGAL,81,D,bacs1,0,1,0.551,0,0.0,0,1,1
1nn8ci654pmi5ny2ho1q3dxi,3,2,3b,157,2,0,no-go,NGAL,81,D,bacs1,0,0,,1,0.0,1,0,1
1nn8ci654pmi5ny2ho1q3dxi,3,2,3b,163,3,0,no-go,NGAL,81,D,bacs1,0,0,,1,0.0,1,0,1
1nn8ci654pmi5ny2ho1q3dxi,3,2,3b,166,4,0,no-go,NGAL,81,D,bacs1,0,0,,1,0.0,1,0,1
1nn8ci654pmi5ny2ho1q3dxi,3,2,3b,169,5,0,no-go,NGAL,81,D,bacs1,0,0,,1,1.0,0,0,1
1nn8ci654pmi5ny2ho1q3dxi,3,2,3b,175,6,0,no-go,NGAL,81,D,bacs1,0,0,,1,0.0,1,0,1
1nn8ci654pmi5ny2ho1q3dxi,3,2,3b,178,7,0,no-go,NGAL,81,D,bacs1,0,0,,1,0.0,1,0,1
1nn8ci654pmi5ny2ho1q3dxi,3,2,3b,182,8,0,no-go,NGAL,81,D,bacs1,0,0,,1,0.0,1,0,1
1nn8ci654pmi5ny2ho1q3dxi,3,2,3b,188,9,0,no-go,NGAL,81,D,bacs1,0,0,,1,0.0,1,0,1
1nn8ci654pmi5ny2ho1q3dxi,3,2,3b,190,10,0,no-go,NGAL,81,D,bacs1,0,0,,1,0.0,1,0,1
1nn8ci654pmi5ny2ho1q3dxi,3,1,3a,34,1,0,no-go,NGAL,82,E,bacs1,0,0,,1,0.0,1,0,1
1nn8ci654pmi5ny2ho1q3dxi,3,1,3a,38,2,0,no-go,NGAL,82,E,bacs1,0,0,,1,0.0,1,0,1
1nn8ci654pmi5ny2ho1q3dxi,3,1,3a,43,3,0,no-go,NGAL,82,E,bacs1,0,0,,1,0.0,1,0,1
1nn8ci654pmi5ny2ho1q3dxi,3,1,3a,45,4,0,no-go,NGAL,82,E,bacs1,0,0,,1,0.0,1,0,1
1nn8ci654pmi5ny2ho1q3dxi,3,1,3a,49,5,0,no-go,NGAL,82,E,bacs1,0,0,,1,0.0,1,0,1
1nn8ci654pmi5ny2ho1q3dxi,3,1,3a,55,6,0,no-go,NGAL,82,E,bacs1,0,0,,1,1.0,0,0,1
1nn8ci654pmi5ny2ho1q3dxi,3,1,3a,60,7,0,no-go,NGAL,82,E,bacs1,0,0,,1,0.0,1,0,1
1nn8ci654pmi5ny2ho1q3dxi,3,1,3a,64,8,0,no-go,NGAL,82,E,bacs1,0,0,,1,0.0,1,0,1
1nn8ci654pmi5ny2ho1q3dxi,3,1,3a,67,9,0,no-go,NGAL,82,E,bacs1,0,0,,1,0.0,1,0,1
1nn8ci654pmi5ny2ho1q3dxi,3,1,3a,70,10,0,no-go,NGAL,82,E,bacs1,0,0,,1,0.0,1,0,1
1nn8ci654pmi5ny2ho1q3dxi,3,1,3a,51,1,1,go,GW,83,F,bacs1,1,1,0.7490000000000001,1,0.0,1,1,1
1nn8ci654pmi5ny2ho1q3dxi,3,1,3a,54,2,1,go,GW,83,F,bacs1,1,1,0.483,1,0.0,1,1,1
1nn8ci654pmi5ny2ho1q3dxi,3,1,3a,58,3,1,go,GW,83,F,bacs1,1,1,0.42100000000000004,1,0.0,1,1,1
1nn8ci654pmi5ny2ho1q3dxi,3,1,3a,63,4,1,go,GW,83,F,bacs1,1,1,0.5529999999999999,1,0.0,1,1,1
1nn8ci654pmi5ny2ho1q3dxi,3,1,3a,66,5,1,go,GW,83,F,bacs1,1,1,0.415,1,0.0,1,1,1
1nn8ci654pmi5ny2ho1q3dxi,3,1,3a,71,6,1,go,GW,83,F,bacs1,1,1,0.5,1,0.0,1,1,1
1nn8ci654pmi5ny2ho1q3dxi,3,1,3a,75,7,1,go,GW,83,F,bacs1,1,1,0.508,1,0.0,1,1,1
1nn8ci654pmi5ny2ho1q3dxi,3,1,3a,77,8,1,go,GW,83,F,bacs1,1,1,0.444,1,0.0,1,1,1
1nn8ci654pmi5ny2ho1q3dxi,3,1,3a,82,9,1,go,GW,83,F,bacs1,1,1,0.433,1,0.0,1,1,1
1nn8ci654pmi5ny2ho1q3dxi,3,1,3a,85,10,1,go,GW,83,F,bacs1,1,1,0.47600000000000003,1,1.0,0,1,1
1nn8ci654pmi5ny2ho1q3dxi,3,2,3b,124,1,1,no-go,NGW,84,G,bacs1,0,1,0.5720000000000001,0,0.0,0,1,0
1nn8ci654pmi5ny2ho1q3dxi,3,2,3b,127,2,1,no-go,NGW,84,G,bacs1,0,0,,1,1.0,0,0,0
1nn8ci654pmi5ny2ho1q3dxi,3,2,3b,132,3,1,no-go,NGW,84,G,bacs1,0,0,,1,0.0,1,0,0
1nn8ci654pmi5ny2ho1q3dxi,3,2,3b,133,4,1,no-go,NGW,84,G,bacs1,0,0,,1,0.0,1,0,0
1nn8ci654pmi5ny2ho1q3dxi,3,2,3b,137,5,1,no-go,NGW,84,G,bacs1,0,1,0.434,0,0.0,0,1,0
1nn8ci654pmi5ny2ho1q3dxi,3,2,3b,143,6,1,no-go,NGW,84,G,bacs1,0,0,,1,0.0,1,0,0
1nn8ci654pmi5ny2ho1q3dxi,3,2,3b,146,7,1,no-go,NGW,84,G,bacs1,0,0,,1,0.0,1,0,0
1nn8ci654pmi5ny2ho1q3dxi,3,2,3b,149,8,1,no-go,NGW,84,G,bacs1,0,0,,1,0.0,1,0,0
1nn8ci654pmi5ny2ho1q3dxi,3,2,3b,202,1,0,go,GAL,85,H,bacs1,1,1,0.648,1,0.0,1,1,0
1nn8ci654pmi5ny2ho1q3dxi,3,2,3b,206,2,0,go,GAL,85,H,bacs1,1,1,0.56,1,0.0,1,1,0
1nn8ci654pmi5ny2ho1q3dxi,3,2,3b,210,3,0,go,GAL,85,H,bacs1,1,1,0.469,1,1.0,0,1,0
1nn8ci654pmi5ny2ho1q3dxi,3,2,3b,214,4,0,go,GAL,85,H,bacs1,1,0,,0,1.0,1,0,0
1nn8ci654pmi5ny2ho1q3dxi,3,2,3b,217,5,0,go,GAL,85,H,bacs1,1,1,1.03,1,1.0,0,1,0
1nn8ci654pmi5ny2ho1q3dxi,3,2,3b,222,6,0,go,GAL,85,H,bacs1,1,0,,0,0.0,0,0,0
1nn8ci654pmi5ny2ho1q3dxi,3,2,3b,226,7,0,go,GAL,85,H,bacs1,1,1,0.782,1,0.0,1,1,0
1nn8ci654pmi5ny2ho1q3dxi,3,2,3b,229,8,0,go,GAL,85,H,bacs1,1,1,0.722,1,1.0,0,1,0
1nn8ci654pmi5ny2ho1q3dxi,3,2,3b,234,9,0,go,GAL,85,H,bacs1,1,1,0.736,1,0.0,1,1,0
1nn8ci654pmi5ny2ho1q3dxi,3,2,3b,237,10,0,go,GAL,85,H,bacs1,1,1,0.746,1,0.0,1,1,0
1nn8ci654pmi5ny2ho1q3dxi,3,2,3b,122,1,1,go,GW,86,I,bacs1,1,1,0.565,1,0.0,1,1,1
1nn8ci654pmi5ny2ho1q3dxi,3,2,3b,126,2,1,go,GW,86,I,bacs1,1,1,0.611,1,0.0,1,1,1
1nn8ci654pmi5ny2ho1q3dxi,3,2,3b,129,3,1,go,GW,86,I,bacs1,1,1,0.353,1,0.0,1,1,1
1nn8ci654pmi5ny2ho1q3dxi,3,2,3b,134,4,1,go,GW,86,I,bacs1,1,1,0.35700000000000004,1,0.0,1,1,1
1nn8ci654pmi5ny2ho1q3dxi,3,2,3b,139,5,1,go,GW,86,I,bacs1,1,1,0.466,1,1.0,0,1,1
1nn8ci654pmi5ny2ho1q3dxi,3,2,3b,141,6,1,go,GW,86,I,bacs1,1,1,0.441,1,0.0,1,1,1
1nn8ci654pmi5ny2ho1q3dxi,3,2,3b,147,7,1,go,GW,86,I,bacs1,1,1,0.4,1,0.0,1,1,1
1nn8ci654pmi5ny2ho1q3dxi,3,2,3b,151,8,1,go,GW,86,I,bacs1,1,1,0.35,1,1.0,0,1,1
1nn8ci654pmi5ny2ho1q3dxi,3,2,3b,153,9,1,go,GW,86,I,bacs1,1,1,0.7140000000000001,1,0.0,1,1,1
1nn8ci654pmi5ny2ho1q3dxi,3,2,3b,159,10,1,go,GW,86,I,bacs1,1,1,0.386,1,1.0,0,1,1
1nn8ci654pmi5ny2ho1q3dxi,3,2,3b,164,11,1,go,GW,86,I,bacs1,1,1,0.451,1,0.0,1,1,1
1nn8ci654pmi5ny2ho1q3dxi,3,2,3b,168,12,1,go,GW,86,I,bacs1,1,1,0.33799999999999997,1,0.0,1,1,1
1nn8ci654pmi5ny2ho1q3dxi,3,1,3a,2,1,0,no-go,NGAL,87,J,bacs1,0,1,0.52,0,1.0,1,1,1
1nn8ci654pmi5ny2ho1q3dxi,3,1,3a,6,2,0,no-go,NGAL,87,J,bacs1,0,1,0.506,0,0.0,0,1,1
1nn8ci654pmi5ny2ho1q3dxi,3,1,3a,11,3,0,no-go,NGAL,87,J,bacs1,0,1,0.77,0,0.0,0,1,1
1nn8ci654pmi5ny2ho1q3dxi,3,1,3a,15,4,0,no-go,NGAL,87,J,bacs1,0,0,,1,0.0,1,0,1
1nn8ci654pmi5ny2ho1q3dxi,3,1,3a,17,5,0,no-go,NGAL,87,J,bacs1,0,0,,1,0.0,1,0,1
1nn8ci654pmi5ny2ho1q3dxi,3,1,3a,22,6,0,no-go,NGAL,87,J,bacs1,0,0,,1,0.0,1,0,1
1nn8ci654pmi5ny2ho1q3dxi,3,1,3a,25,7,0,no-go,NGAL,87,J,bacs1,0,0,,1,0.0,1,0,1
1nn8ci654pmi5ny2ho1q3dxi,3,1,3a,30,8,0,no-go,NGAL,87,J,bacs1,0,0,,1,0.0,1,0,1
1nn8ci654pmi5ny2ho1q3dxi,3,1,3a,36,9,0,no-go,NGAL,87,J,bacs1,0,0,,1,0.0,1,0,1
1nn8ci654pmi5ny2ho1q3dxi,3,1,3a,37,10,0,no-go,NGAL,87,J,bacs1,0,0,,1,0.0,1,0,1
1nn8ci654pmi5ny2ho1q3dxi,3,1,3a,42,11,0,no-go,NGAL,87,J,bacs1,0,0,,1,0.0,1,0,1
1nn8ci654pmi5ny2ho1q3dxi,3,1,3a,48,12,0,no-go,NGAL,87,J,bacs1,0,0,,1,0.0,1,0,1
1nn8ci654pmi5ny2ho1q3dxi,3,2,3b,156,1,0,go,GAL,88,K,bacs1,1,1,0.624,1,0.0,1,1,0
1nn8ci654pmi5ny2ho1q3dxi,3,2,3b,158,2,0,go,GAL,88,K,bacs1,1,1,0.521,1,0.0,1,1,0
1nn8ci654pmi5ny2ho1q3dxi,3,2,3b,162,3,0,go,GAL,88,K,bacs1,1,1,0.556,1,0.0,1,1,0
1nn8ci654pmi5ny2ho1q3dxi,3,2,3b,165,4,0,go,GAL,88,K,bacs1,1,1,0.449,1,0.0,1,1,0
1nn8ci654pmi5ny2ho1q3dxi,3,2,3b,171,5,0,go,GAL,88,K,bacs1,1,1,0.542,1,0.0,1,1,0
1nn8ci654pmi5ny2ho1q3dxi,3,2,3b,173,6,0,go,GAL,88,K,bacs1,1,1,0.489,1,0.0,1,1,0
1nn8ci654pmi5ny2ho1q3dxi,3,2,3b,179,7,0,go,GAL,88,K,bacs1,1,1,0.406,1,0.0,1,1,0
1nn8ci654pmi5ny2ho1q3dxi,3,2,3b,184,8,0,go,GAL,88,K,bacs1,1,1,0.446,1,1.0,0,1,0
1nn8ci654pmi5ny2ho1q3dxi,3,2,3b,187,9,0,go,GAL,88,K,bacs1,1,1,0.48200000000000004,1,1.0,0,1,0
1nn8ci654pmi5ny2ho1q3dxi,3,2,3b,191,10,0,go,GAL,88,K,bacs1,1,0,,0,0.0,0,0,0
1nn8ci654pmi5ny2ho1q3dxi,3,2,3b,193,11,0,go,GAL,88,K,bacs1,1,1,0.48700000000000004,1,0.0,1,1,0
1nn8ci654pmi5ny2ho1q3dxi,3,2,3b,199,12,0,go,GAL,88,K,bacs1,1,1,1.025,1,0.0,1,1,0
1nn8ci654pmi5ny2ho1q3dxi,3,1,3a,89,1,0,go,GAL,89,L,bacs1,1,1,0.705,1,0.0,1,1,0
1nn8ci654pmi5ny2ho1q3dxi,3,1,3a,96,2,0,go,GAL,89,L,bacs1,1,1,0.626,1,0.0,1,1,0
1nn8ci654pmi5ny2ho1q3dxi,3,1,3a,97,3,0,go,GAL,89,L,bacs1,1,0,,0,0.0,0,0,0
1nn8ci654pmi5ny2ho1q3dxi,3,1,3a,101,4,0,go,GAL,89,L,bacs1,1,1,0.762,1,0.0,1,1,0
1nn8ci654pmi5ny2ho1q3dxi,3,1,3a,107,5,0,go,GAL,89,L,bacs1,1,1,0.621,1,0.0,1,1,0
1nn8ci654pmi5ny2ho1q3dxi,3,1,3a,110,6,0,go,GAL,89,L,bacs1,1,1,0.445,1,1.0,0,1,0
1nn8ci654pmi5ny2ho1q3dxi,3,1,3a,116,7,0,go,GAL,89,L,bacs1,1,1,0.5760000000000001,1,1.0,0,1,0
1nn8ci654pmi5ny2ho1q3dxi,3,1,3a,120,8,0,go,GAL,89,L,bacs1,1,1,0.645,1,1.0,0,1,0
1nn8ci654pmi5ny2ho1q3dxi,3,2,3b,195,1,0,no-go,NGAL,90,M,bacs1,0,1,0.473,0,0.0,0,1,1
1nn8ci654pmi5ny2ho1q3dxi,3,2,3b,200,2,0,no-go,NGAL,90,M,bacs1,0,0,,1,1.0,0,0,1
1nn8ci654pmi5ny2ho1q3dxi,3,2,3b,204,3,0,no-go,NGAL,90,M,bacs1,0,1,0.552,0,0.0,0,1,1
1nn8ci654pmi5ny2ho1q3dxi,3,2,3b,208,4,0,no-go,NGAL,90,M,bacs1,0,1,0.629,0,0.0,0,1,1
1nn8ci654pmi5ny2ho1q3dxi,3,2,3b,211,5,0,no-go,NGAL,90,M,bacs1,0,1,0.68,0,0.0,0,1,1
1nn8ci654pmi5ny2ho1q3dxi,3,2,3b,215,6,0,no-go,NGAL,90,M,bacs1,0,1,0.563,0,0.0,0,1,1
1nn8ci654pmi5ny2ho1q3dxi,3,2,3b,220,7,0,no-go,NGAL,90,M,bacs1,0,0,,1,0.0,1,0,1
1nn8ci654pmi5ny2ho1q3dxi,3,2,3b,224,8,0,no-go,NGAL,90,M,bacs1,0,0,,1,0.0,1,0,1
1nn8ci654pmi5ny2ho1q3dxi,3,2,3b,228,9,0,no-go,NGAL,90,M,bacs1,0,0,,1,0.0,1,0,1
1nn8ci654pmi5ny2ho1q3dxi,3,2,3b,231,10,0,no-go,NGAL,90,M,bacs1,0,0,,1,0.0,1,0,1
1nn8ci654pmi5ny2ho1q3dxi,3,2,3b,233,11,0,no-go,NGAL,90,M,bacs1,0,0,,1,0.0,1,0,1
1nn8ci654pmi5ny2ho1q3dxi,3,2,3b,240,12,0,no-go,NGAL,90,M,bacs1,0,0,,1,1.0,0,0,1
1nn8ci654pmi5ny2ho1q3dxi,3,2,3b,123,1,1,no-go,NGW,91,N,bacs1,0,1,0.62,0,0.0,0,1,0
1nn8ci654pmi5ny2ho1q3dxi,3,2,3b,125,2,1,no-go,NGW,91,N,bacs1,0,1,0.653,0,1.0,1,1,0
1nn8ci654pmi5ny2ho1q3dxi,3,2,3b,131,3,1,no-go,NGW,91,N,bacs1,0,1,0.535,0,1.0,1,1,0
1nn8ci654pmi5ny2ho1q3dxi,3,2,3b,136,4,1,no-go,NGW,91,N,bacs1,0,1,0.434,0,0.0,0,1,0
1nn8ci654pmi5ny2ho1q3dxi,3,2,3b,140,5,1,no-go,NGW,91,N,bacs1,0,1,0.354,0,1.0,1,1,0
1nn8ci654pmi5ny2ho1q3dxi,3,2,3b,142,6,1,no-go,NGW,91,N,bacs1,0,1,0.414,0,0.0,0,1,0
1nn8ci654pmi5ny2ho1q3dxi,3,2,3b,148,7,1,no-go,NGW,91,N,bacs1,0,1,0.406,0,1.0,1,1,0
1nn8ci654pmi5ny2ho1q3dxi,3,2,3b,150,8,1,no-go,NGW,91,N,bacs1,0,1,0.685,0,0.0,0,1,0
1nn8ci654pmi5ny2ho1q3dxi,3,2,3b,155,9,1,no-go,NGW,91,N,bacs1,0,1,0.46,0,1.0,1,1,0
1nn8ci654pmi5ny2ho1q3dxi,3,2,3b,160,10,1,no-go,NGW,91,N,bacs1,0,1,0.525,0,1.0,1,1,0
1nn8ci654pmi5ny2ho1q3dxi,3,2,3b,121,1,0,go,GAL,92,O,bacs1,1,1,0.507,1,1.0,0,1,0
1nn8ci654pmi5ny2ho1q3dxi,3,2,3b,128,2,0,go,GAL,92,O,bacs1,1,0,,0,0.0,0,0,0
1nn8ci654pmi5ny2ho1q3dxi,3,2,3b,130,3,0,go,GAL,92,O,bacs1,1,1,0.541,1,0.0,1,1,0
1nn8ci654pmi5ny2ho1q3dxi,3,2,3b,135,4,0,go,GAL,92,O,bacs1,1,0,,0,0.0,0,0,0
1nn8ci654pmi5ny2ho1q3dxi,3,2,3b,138,5,0,go,GAL,92,O,bacs1,1,1,0.47,1,0.0,1,1,0
1nn8ci654pmi5ny2ho1q3dxi,3,2,3b,144,6,0,go,GAL,92,O,bacs1,1,1,0.457,1,0.0,1,1,0
1nn8ci654pmi5ny2ho1q3dxi,3,2,3b,145,7,0,go,GAL,92,O,bacs1,1,1,0.531,1,0.0,1,1,0
1nn8ci654pmi5ny2ho1q3dxi,3,2,3b,152,8,0,go,GAL,92,O,bacs1,1,1,0.466,1,0.0,1,1,0
1nn8ci654pmi5ny2ho1q3dxi,3,2,3b,203,1,1,go,GW,93,P,bacs1,1,1,0.765,1,0.0,1,1,1
1nn8ci654pmi5ny2ho1q3dxi,3,2,3b,207,2,1,go,GW,93,P,bacs1,1,1,0.336,1,0.0,1,1,1
1nn8ci654pmi5ny2ho1q3dxi,3,2,3b,209,3,1,go,GW,93,P,bacs1,1,1,0.436,1,0.0,1,1,1
1nn8ci654pmi5ny2ho1q3dxi,3,2,3b,216,4,1,go,GW,93,P,bacs1,1,1,0.35700000000000004,1,0.0,1,1,1
1nn8ci654pmi5ny2ho1q3dxi,3,2,3b,218,5,1,go,GW,93,P,bacs1,1,1,0.49,1,0.0,1,1,1
1nn8ci654pmi5ny2ho1q3dxi,3,2,3b,223,6,1,go,GW,93,P,bacs1,1,1,0.418,1,0.0,1,1,1
1nn8ci654pmi5ny2ho1q3dxi,3,2,3b,225,7,1,go,GW,93,P,bacs1,1,1,0.39299999999999996,1,0.0,1,1,1
1nn8ci654pmi5ny2ho1q3dxi,3,2,3b,230,8,1,go,GW,93,P,bacs1,1,1,0.382,1,0.0,1,1,1
1nn8ci654pmi5ny2ho1q3dxi,3,2,3b,235,9,1,go,GW,93,P,bacs1,1,1,0.46399999999999997,1,1.0,0,1,1
1nn8ci654pmi5ny2ho1q3dxi,3,2,3b,239,10,1,go,GW,93,P,bacs1,1,1,0.43200000000000005,1,0.0,1,1,1
1nn8ci654pmi5ny2ho1q3dxi,3,1,3a,90,1,0,no-go,NGAL,94,Q,bacs1,0,1,0.703,0,1.0,1,1,1
1nn8ci654pmi5ny2ho1q3dxi,3,1,3a,95,2,0,no-go,NGAL,94,Q,bacs1,0,1,0.857,0,0.0,0,1,1
1nn8ci654pmi5ny2ho1q3dxi,3,1,3a,100,3,0,no-go,NGAL,94,Q,bacs1,0,0,,1,0.0,1,0,1
1nn8ci654pmi5ny2ho1q3dxi,3,1,3a,102,4,0,no-go,NGAL,94,Q,bacs1,0,0,,1,0.0,1,0,1
1nn8ci654pmi5ny2ho1q3dxi,3,1,3a,105,5,0,no-go,NGAL,94,Q,bacs1,0,0,,1,0.0,1,0,1
1nn8ci654pmi5ny2ho1q3dxi,3,1,3a,109,6,0,no-go,NGAL,94,Q,bacs1,0,0,,1,0.0,1,0,1
1nn8ci654pmi5ny2ho1q3dxi,3,1,3a,115,7,0,no-go,NGAL,94,Q,bacs1,0,0,,1,1.0,0,0,1
1nn8ci654pmi5ny2ho1q3dxi,3,1,3a,117,8,0,no-go,NGAL,94,Q,bacs1,0,0,,1,1.0,0,0,1
1nn8ci654pmi5ny2ho1q3dxi,3,1,3a,3,1,1,go,GW,95,R,bacs1,1,1,0.584,1,1.0,0,1,1
1nn8ci654pmi5ny2ho1q3dxi,3,1,3a,7,2,1,go,GW,95,R,bacs1,1,0,,0,0.0,0,0,1
1nn8ci654pmi5ny2ho1q3dxi,3,1,3a,9,3,1,go,GW,95,R,bacs1,1,1,0.835,1,0.0,1,1,1
1nn8ci654pmi5ny2ho1q3dxi,3,1,3a,14,4,1,go,GW,95,R,bacs1,1,1,0.439,1,0.0,1,1,1
1nn8ci654pmi5ny2ho1q3dxi,3,1,3a,20,5,1,go,GW,95,R,bacs1,1,1,0.41700000000000004,1,0.0,1,1,1
1nn8ci654pmi5ny2ho1q3dxi,3,1,3a,23,6,1,go,GW,95,R,bacs1,1,1,0.358,1,0.0,1,1,1
1nn8ci654pmi5ny2ho1q3dxi,3,1,3a,28,7,1,go,GW,95,R,bacs1,1,1,0.355,1,0.0,1,1,1
1nn8ci654pmi5ny2ho1q3dxi,3,1,3a,29,8,1,go,GW,95,R,bacs1,1,1,0.461,1,0.0,1,1,1
1nn8ci654pmi5ny2ho1q3dxi,3,2,3b,161,1,1,no-go,NGW,96,S,bacs1,0,1,0.6579999999999999,0,0.0,0,1,0
1nn8ci654pmi5ny2ho1q3dxi,3,2,3b,167,2,1,no-go,NGW,96,S,bacs1,0,0,,1,0.0,1,0,0
1nn8ci654pmi5ny2ho1q3dxi,3,2,3b,172,3,1,no-go,NGW,96,S,bacs1,0,0,,1,0.0,1,0,0
1nn8ci654pmi5ny2ho1q3dxi,3,2,3b,176,4,1,no-go,NGW,96,S,bacs1,0,0,,1,0.0,1,0,0
1nn8ci654pmi5ny2ho1q3dxi,3,2,3b,180,5,1,no-go,NGW,96,S,bacs1,0,0,,1,0.0,1,0,0
1nn8ci654pmi5ny2ho1q3dxi,3,2,3b,183,6,1,no-go,NGW,96,S,bacs1,0,0,,1,0.0,1,0,0
1nn8ci654pmi5ny2ho1q3dxi,3,2,3b,185,7,1,no-go,NGW,96,S,bacs1,0,0,,1,0.0,1,0,0
1nn8ci654pmi5ny2ho1q3dxi,3,2,3b,192,8,1,no-go,NGW,96,S,bacs1,0,0,,1,0.0,1,0,0
1nn8ci654pmi5ny2ho1q3dxi,3,2,3b,196,9,1,no-go,NGW,96,S,bacs1,0,0,,1,1.0,0,0,0
1nn8ci654pmi5ny2ho1q3dxi,3,2,3b,197,10,1,no-go,NGW,96,S,bacs1,0,0,,1,0.0,1,0,0
1nn8ci654pmi5ny2ho1q3dxi,3,2,3b,201,11,1,no-go,NGW,96,S,bacs1,0,0,,1,1.0,0,0,0
1nn8ci654pmi5ny2ho1q3dxi,3,2,3b,205,12,1,no-go,NGW,96,S,bacs1,0,0,,1,0.0,1,0,0
1nn8ci654pmi5ny2ho1q3dxi,3,1,3a,44,1,1,no-go,NGW,97,T,bacs1,0,1,0.613,0,1.0,1,1,0
1nn8ci654pmi5ny2ho1q3dxi,3,1,3a,46,2,1,no-go,NGW,97,T,bacs1,0,1,0.525,0,0.0,0,1,0
1nn8ci654pmi5ny2ho1q3dxi,3,1,3a,50,3,1,no-go,NGW,97,T,bacs1,0,1,0.818,0,0.0,0,1,0
1nn8ci654pmi5ny2ho1q3dxi,3,1,3a,56,4,1,no-go,NGW,97,T,bacs1,0,0,,1,0.0,1,0,0
1nn8ci654pmi5ny2ho1q3dxi,3,1,3a,57,5,1,no-go,NGW,97,T,bacs1,0,0,,1,0.0,1,0,0
1nn8ci654pmi5ny2ho1q3dxi,3,1,3a,62,6,1,no-go,NGW,97,T,bacs1,0,0,,1,0.0,1,0,0
1nn8ci654pmi5ny2ho1q3dxi,3,1,3a,65,7,1,no-go,NGW,97,T,bacs1,0,0,,1,0.0,1,0,0
1nn8ci654pmi5ny2ho1q3dxi,3,1,3a,72,8,1,no-go,NGW,97,T,bacs1,0,0,,1,0.0,1,0,0
1nn8ci654pmi5ny2ho1q3dxi,3,1,3a,76,9,1,no-go,NGW,97,T,bacs1,0,0,,1,0.0,1,0,0
1nn8ci654pmi5ny2ho1q3dxi,3,1,3a,80,10,1,no-go,NGW,97,T,bacs1,0,0,,1,1.0,0,0,0
1nn8ci654pmi5ny2ho1q3dxi,3,1,3a,83,11,1,no-go,NGW,97,T,bacs1,0,0,,1,1.0,0,0,0
1nn8ci654pmi5ny2ho1q3dxi,3,1,3a,88,12,1,no-go,NGW,97,T,bacs1,0,0,,1,1.0,0,0,0
1nn8ci654pmi5ny2ho1q3dxi,3,2,3b,170,1,0,no-go,NGAL,98,U,bacs1,0,1,0.5429999999999999,0,0.0,0,1,1
1nn8ci654pmi5ny2ho1q3dxi,3,2,3b,174,2,0,no-go,NGAL,98,U,bacs1,0,0,,1,0.0,1,0,1
1nn8ci654pmi5ny2ho1q3dxi,3,2,3b,177,3,0,no-go,NGAL,98,U,bacs1,0,0,,1,1.0,0,0,1
1nn8ci654pmi5ny2ho1q3dxi,3,2,3b,181,4,0,no-go,NGAL,98,U,bacs1,0,0,,1,0.0,1,0,1
1nn8ci654pmi5ny2ho1q3dxi,3,2,3b,186,5,0,no-go,NGAL,98,U,bacs1,0,0,,1,1.0,0,0,1
1nn8ci654pmi5ny2ho1q3dxi,3,2,3b,189,6,0,no-go,NGAL,98,U,bacs1,0,0,,1,0.0,1,0,1
1nn8ci654pmi5ny2ho1q3dxi,3,2,3b,194,7,0,no-go,NGAL,98,U,bacs1,0,0,,1,1.0,0,0,1
1nn8ci654pmi5ny2ho1q3dxi,3,2,3b,198,8,0,no-go,NGAL,98,U,bacs1,0,0,,1,0.0,1,0,1
1nn8ci654pmi5ny2ho1q3dxi,3,1,3a,35,1,0,go,GAL,99,V,bacs1,1,1,0.75,1,0.0,1,1,0
1nn8ci654pmi5ny2ho1q3dxi,3,1,3a,39,2,0,go,GAL,99,V,bacs1,1,1,0.39,1,0.0,1,1,0
1nn8ci654pmi5ny2ho1q3dxi,3,1,3a,41,3,0,go,GAL,99,V,bacs1,1,1,0.555,1,0.0,1,1,0
1nn8ci654pmi5ny2ho1q3dxi,3,1,3a,47,4,0,go,GAL,99,V,bacs1,1,1,0.507,1,1.0,0,1,0
1nn8ci654pmi5ny2ho1q3dxi,3,1,3a,52,5,0,go,GAL,99,V,bacs1,1,1,0.9590000000000001,1,0.0,1,1,0
1nn8ci654pmi5ny2ho1q3dxi,3,1,3a,53,6,0,go,GAL,99,V,bacs1,1,1,0.5770000000000001,1,0.0,1,1,0
1nn8ci654pmi5ny2ho1q3dxi,3,1,3a,59,7,0,go,GAL,99,V,bacs1,1,1,0.445,1,0.0,1,1,0
1nn8ci654pmi5ny2ho1q3dxi,3,1,3a,61,8,0,go,GAL,99,V,bacs1,1,1,0.5720000000000001,1,0.0,1,1,0
1nn8ci654pmi5ny2ho1q3dxi,3,1,3a,68,9,0,go,GAL,99,V,bacs1,1,1,0.49200000000000005,1,1.0,0,1,0
1nn8ci654pmi5ny2ho1q3dxi,3,1,3a,69,10,0,go,GAL,99,V,bacs1,1,1,0.552,1,0.0,1,1,0
1nn8ci654pmi5ny2ho1q3dxi,3,1,3a,74,11,0,go,GAL,99,V,bacs1,1,1,0.763,1,0.0,1,1,0
1nn8ci654pmi5ny2ho1q3dxi,3,1,3a,78,12,0,go,GAL,99,V,bacs1,1,1,0.542,1,0.0,1,1,0
1nn8ci654pmi5ny2ho1q3dxi,3,2,3b,212,1,1,go,GW,102,Y,bacs1,1,1,0.627,1,0.0,1,1,1
1nn8ci654pmi5ny2ho1q3dxi,3,2,3b,213,2,1,go,GW,102,Y,bacs1,1,1,0.348,1,0.0,1,1,1
1nn8ci654pmi5ny2ho1q3dxi,3,2,3b,219,3,1,go,GW,102,Y,bacs1,1,1,0.602,1,0.0,1,1,1
1nn8ci654pmi5ny2ho1q3dxi,3,2,3b,221,4,1,go,GW,102,Y,bacs1,1,1,0.513,1,0.0,1,1,1
1nn8ci654pmi5ny2ho1q3dxi,3,2,3b,227,5,1,go,GW,102,Y,bacs1,1,1,0.502,1,0.0,1,1,1
1nn8ci654pmi5ny2ho1q3dxi,3,2,3b,232,6,1,go,GW,102,Y,bacs1,1,1,0.45,1,0.0,1,1,1
1nn8ci654pmi5ny2ho1q3dxi,3,2,3b,236,7,1,go,GW,102,Y,bacs1,1,1,0.573,1,0.0,1,1,1
1nn8ci654pmi5ny2ho1q3dxi,3,2,3b,238,8,1,go,GW,102,Y,bacs1,1,1,0.523,1,0.0,1,1,1
1nn8ci654pmi5ny2ho1q3dxi,3,1,3a,4,1,0,go,GAL,103,Z,bacs1,1,1,0.642,1,0.0,1,1,0
1nn8ci654pmi5ny2ho1q3dxi,3,1,3a,5,2,0,go,GAL,103,Z,bacs1,1,1,0.489,1,0.0,1,1,0
1nn8ci654pmi5ny2ho1q3dxi,3,1,3a,12,3,0,go,GAL,103,Z,bacs1,1,1,0.43799999999999994,1,0.0,1,1,0
1nn8ci654pmi5ny2ho1q3dxi,3,1,3a,13,4,0,go,GAL,103,Z,bacs1,1,1,0.49,1,0.0,1,1,0
1nn8ci654pmi5ny2ho1q3dxi,3,1,3a,19,5,0,go,GAL,103,Z,bacs1,1,1,0.424,1,1.0,0,1,0
1nn8ci654pmi5ny2ho1q3dxi,3,1,3a,24,6,0,go,GAL,103,Z,bacs1,1,1,0.297,1,1.0,0,1,0
1nn8ci654pmi5ny2ho1q3dxi,3,1,3a,26,7,0,go,GAL,103,Z,bacs1,1,0,,0,0.0,0,0,0
1nn8ci654pmi5ny2ho1q3dxi,3,1,3a,32,8,0,go,GAL,103,Z,bacs1,1,1,0.349,1,0.0,1,1,0
1nn8ci654pmi5ny2ho1q3dxi,3,1,3a,33,9,0,go,GAL,103,Z,bacs1,1,1,0.5820000000000001,1,0.0,1,1,0
1nn8ci654pmi5ny2ho1q3dxi,3,1,3a,40,10,0,go,GAL,103,Z,bacs1,1,1,0.515,1,0.0,1,1,0
1x8zaa76pikfxwotrhhxcogi,3,2,3a,202,1,1,no-go,NGW,104,A,bacs2,0,0,,1,1.0,0,0,0
1x8zaa76pikfxwotrhhxcogi,3,2,3a,205,2,1,no-go,NGW,104,A,bacs2,0,0,,1,0.0,1,0,0
1x8zaa76pikfxwotrhhxcogi,3,2,3a,210,3,1,no-go,NGW,104,A,bacs2,0,1,0.5489999999999999,0,1.0,1,1,0
1x8zaa76pikfxwotrhhxcogi,3,2,3a,213,4,1,no-go,NGW,104,A,bacs2,0,1,0.508,0,0.0,0,1,0
1x8zaa76pikfxwotrhhxcogi,3,2,3a,218,5,1,no-go,NGW,104,A,bacs2,0,1,0.46799999999999997,0,0.0,0,1,0
1x8zaa76pikfxwotrhhxcogi,3,2,3a,221,6,1,no-go,NGW,104,A,bacs2,0,1,0.833,0,0.0,0,1,0
1x8zaa76pikfxwotrhhxcogi,3,2,3a,228,7,1,no-go,NGW,104,A,bacs2,0,1,0.49700000000000005,0,0.0,0,1,0
1x8zaa76pikfxwotrhhxcogi,3,2,3a,231,8,1,no-go,NGW,104,A,bacs2,0,0,,1,1.0,0,0,0
1x8zaa76pikfxwotrhhxcogi,3,2,3a,234,9,1,no-go,NGW,104,A,bacs2,0,1,0.34299999999999997,0,0.0,0,1,0
1x8zaa76pikfxwotrhhxcogi,3,2,3a,240,10,1,no-go,NGW,104,A,bacs2,0,0,,1,0.0,1,0,0
1x8zaa76pikfxwotrhhxcogi,3,2,3a,124,1,0,go,GAL,105,B,bacs2,1,1,0.758,1,0.0,1,1,0
1x8zaa76pikfxwotrhhxcogi,3,2,3a,127,2,0,go,GAL,105,B,bacs2,1,0,,0,0.0,0,0,0
1x8zaa76pikfxwotrhhxcogi,3,2,3a,131,3,0,go,GAL,105,B,bacs2,1,0,,0,1.0,1,0,0
1x8zaa76pikfxwotrhhxcogi,3,2,3a,136,4,0,go,GAL,105,B,bacs2,1,1,0.205,1,0.0,1,1,0
1x8zaa76pikfxwotrhhxcogi,3,2,3a,137,5,0,go,GAL,105,B,bacs2,1,1,0.495,1,0.0,1,1,0
1x8zaa76pikfxwotrhhxcogi,3,2,3a,144,6,0,go,GAL,105,B,bacs2,1,1,0.833,1,0.0,1,1,0
1x8zaa76pikfxwotrhhxcogi,3,2,3a,145,7,0,go,GAL,105,B,bacs2,1,1,0.7859999999999999,1,0.0,1,1,0
1x8zaa76pikfxwotrhhxcogi,3,2,3a,149,8,0,go,GAL,105,B,bacs2,1,1,1.137,1,0.0,1,1,0
1x8zaa76pikfxwotrhhxcogi,3,2,3a,154,9,0,go,GAL,105,B,bacs2,1,0,,0,0.0,0,0,0
1x8zaa76pikfxwotrhhxcogi,3,2,3a,159,10,0,go,GAL,105,B,bacs2,1,0,,0,1.0,1,0,0
1x8zaa76pikfxwotrhhxcogi,3,1,3b,36,1,0,go,GAL,106,C,bacs2,1,1,1.194,1,0.0,1,1,0
1x8zaa76pikfxwotrhhxcogi,3,1,3b,40,2,0,go,GAL,106,C,bacs2,1,0,,0,0.0,0,0,0
1x8zaa76pikfxwotrhhxcogi,3,1,3b,44,3,0,go,GAL,106,C,bacs2,1,0,,0,0.0,0,0,0
1x8zaa76pikfxwotrhhxcogi,3,1,3b,46,4,0,go,GAL,106,C,bacs2,1,0,,0,0.0,0,0,0
1x8zaa76pikfxwotrhhxcogi,3,1,3b,52,5,0,go,GAL,106,C,bacs2,1,0,,0,0.0,0,0,0
1x8zaa76pikfxwotrhhxcogi,3,1,3b,56,6,0,go,GAL,106,C,bacs2,1,1,0.7959999999999999,1,0.0,1,1,0
1x8zaa76pikfxwotrhhxcogi,3,1,3b,60,7,0,go,GAL,106,C,bacs2,1,0,,0,0.0,0,0,0
1x8zaa76pikfxwotrhhxcogi,3,1,3b,61,8,0,go,GAL,106,C,bacs2,1,1,0.451,1,0.0,1,1,0
1x8zaa76pikfxwotrhhxcogi,3,1,3b,65,9,0,go,GAL,106,C,bacs2,1,1,0.528,1,1.0,0,1,0
1x8zaa76pikfxwotrhhxcogi,3,1,3b,72,10,0,go,GAL,106,C,bacs2,1,1,0.737,1,0.0,1,1,0
1x8zaa76pikfxwotrhhxcogi,3,1,3b,73,11,0,go,GAL,106,C,bacs2,1,1,0.856,1,0.0,1,1,0
1x8zaa76pikfxwotrhhxcogi,3,1,3b,79,12,0,go,GAL,106,C,bacs2,1,1,0.6829999999999999,1,0.0,1,1,0
1x8zaa76pikfxwotrhhxcogi,3,1,3b,33,1,0,no-go,NGAL,108,E,bacs2,0,1,1.005,0,0.0,0,1,1
1x8zaa76pikfxwotrhhxcogi,3,1,3b,39,2,0,no-go,NGAL,108,E,bacs2,0,1,0.7709999999999999,0,1.0,1,1,1
1x8zaa76pikfxwotrhhxcogi,3,1,3b,41,3,0,no-go,NGAL,108,E,bacs2,0,1,0.605,0,0.0,0,1,1
1x8zaa76pikfxwotrhhxcogi,3,1,3b,48,4,0,no-go,NGAL,108,E,bacs2,0,0,,1,0.0,1,0,1
1x8zaa76pikfxwotrhhxcogi,3,1,3b,50,5,0,no-go,NGAL,108,E,bacs2,0,0,,1,0.0,1,0,1
1x8zaa76pikfxwotrhhxcogi,3,1,3b,54,6,0,no-go,NGAL,108,E,bacs2,0,1,0.769,0,0.0,0,1,1
1x8zaa76pikfxwotrhhxcogi,3,1,3b,57,7,0,no-go,NGAL,108,E,bacs2,0,0,,1,0.0,1,0,1
1x8zaa76pikfxwotrhhxcogi,3,1,3b,64,8,0,no-go,NGAL,108,E,bacs2,0,0,,1,0.0,1,0,1
1x8zaa76pikfxwotrhhxcogi,3,1,3b,66,9,0,no-go,NGAL,108,E,bacs2,0,0,,1,0.0,1,0,1
1x8zaa76pikfxwotrhhxcogi,3,1,3b,69,10,0,no-go,NGAL,108,E,bacs2,0,1,0.909,0,0.0,0,1,1
1x8zaa76pikfxwotrhhxcogi,3,2,3a,211,1,0,go,GAL,109,F,bacs2,1,1,0.706,1,0.0,1,1,0
1x8zaa76pikfxwotrhhxcogi,3,2,3a,215,2,0,go,GAL,109,F,bacs2,1,1,0.092,1,1.0,0,1,0
1x8zaa76pikfxwotrhhxcogi,3,2,3a,217,3,0,go,GAL,109,F,bacs2,1,0,,0,0.0,0,0,0
1x8zaa76pikfxwotrhhxcogi,3,2,3a,224,4,0,go,GAL,109,F,bacs2,1,1,0.774,1,1.0,0,1,0
1x8zaa76pikfxwotrhhxcogi,3,2,3a,225,5,0,go,GAL,109,F,bacs2,1,0,,0,0.0,0,0,0
1x8zaa76pikfxwotrhhxcogi,3,2,3a,230,6,0,go,GAL,109,F,bacs2,1,1,0.445,1,0.0,1,1,0
1x8zaa76pikfxwotrhhxcogi,3,2,3a,236,7,0,go,GAL,109,F,bacs2,1,0,,0,1.0,1,0,0
1x8zaa76pikfxwotrhhxcogi,3,2,3a,238,8,0,go,GAL,109,F,bacs2,1,0,,0,0.0,0,0,0
1x8zaa76pikfxwotrhhxcogi,3,1,3b,49,1,0,no-go,NGAL,110,G,bacs2,0,1,1.072,0,1.0,1,1,1
1x8zaa76pikfxwotrhhxcogi,3,1,3b,55,2,0,no-go,NGAL,110,G,bacs2,0,0,,1,1.0,0,0,1
1x8zaa76pikfxwotrhhxcogi,3,1,3b,59,3,0,no-go,NGAL,110,G,bacs2,0,0,,1,0.0,1,0,1
1x8zaa76pikfxwotrhhxcogi,3,1,3b,63,4,0,no-go,NGAL,110,G,bacs2,0,0,,1,0.0,1,0,1
1x8zaa76pikfxwotrhhxcogi,3,1,3b,68,5,0,no-go,NGAL,110,G,bacs2,0,0,,1,1.0,0,0,1
1x8zaa76pikfxwotrhhxcogi,3,1,3b,71,6,0,no-go,NGAL,110,G,bacs2,0,1,0.8240000000000001,0,0.0,0,1,1
1x8zaa76pikfxwotrhhxcogi,3,1,3b,76,7,0,no-go,NGAL,110,G,bacs2,0,0,,1,0.0,1,1,1
1x8zaa76pikfxwotrhhxcogi,3,1,3b,78,8,0,no-go,NGAL,110,G,bacs2,0,0,,1,0.0,1,1,1
1x8zaa76pikfxwotrhhxcogi,3,1,3b,3,1,0,go,GAL,111,H,bacs2,1,0,,0,0.0,0,0,0
1x8zaa76pikfxwotrhhxcogi,3,1,3b,5,2,0,go,GAL,111,H,bacs2,1,1,0.514,1,0.0,1,1,0
1x8zaa76pikfxwotrhhxcogi,3,1,3b,11,3,0,go,GAL,111,H,bacs2,1,0,,0,0.0,0,0,0
1x8zaa76pikfxwotrhhxcogi,3,1,3b,15,4,0,go,GAL,111,H,bacs2,1,1,0.715,1,0.0,1,1,0
1x8zaa76pikfxwotrhhxcogi,3,1,3b,19,5,0,go,GAL,111,H,bacs2,1,1,0.985,1,0.0,1,1,0
1x8zaa76pikfxwotrhhxcogi,3,1,3b,24,6,0,go,GAL,111,H,bacs2,1,0,,0,0.0,0,0,0
1x8zaa76pikfxwotrhhxcogi,3,1,3b,25,7,0,go,GAL,111,H,bacs2,1,0,,0,0.0,0,1,0
1x8zaa76pikfxwotrhhxcogi,3,1,3b,31,8,0,go,GAL,111,H,bacs2,1,0,,0,1.0,1,0,0
1x8zaa76pikfxwotrhhxcogi,3,1,3b,92,1,1,go,GW,113,J,bacs2,1,1,0.597,1,0.0,1,1,1
1x8zaa76pikfxwotrhhxcogi,3,1,3b,93,2,1,go,GW,113,J,bacs2,1,0,,0,0.0,0,0,1
1x8zaa76pikfxwotrhhxcogi,3,1,3b,98,3,1,go,GW,113,J,bacs2,1,0,,0,0.0,0,0,1
1x8zaa76pikfxwotrhhxcogi,3,1,3b,104,4,1,go,GW,113,J,bacs2,1,1,0.792,1,0.0,1,1,1
1x8zaa76pikfxwotrhhxcogi,3,1,3b,105,5,1,go,GW,113,J,bacs2,1,1,0.619,1,1.0,0,1,1
1x8zaa76pikfxwotrhhxcogi,3,1,3b,110,6,1,go,GW,113,J,bacs2,1,1,0.774,1,1.0,0,1,1
1x8zaa76pikfxwotrhhxcogi,3,1,3b,115,7,1,go,GW,113,J,bacs2,1,1,0.431,1,0.0,1,1,1
1x8zaa76pikfxwotrhhxcogi,3,1,3b,117,8,1,go,GW,113,J,bacs2,1,1,0.764,1,0.0,1,1,1
1x8zaa76pikfxwotrhhxcogi,3,2,3a,121,1,0,no-go,NGAL,114,K,bacs2,0,1,0.612,0,0.0,0,1,1
1x8zaa76pikfxwotrhhxcogi,3,2,3a,126,2,0,no-go,NGAL,114,K,bacs2,0,0,,1,0.0,1,0,1
1x8zaa76pikfxwotrhhxcogi,3,2,3a,129,3,0,no-go,NGAL,114,K,bacs2,0,0,,1,0.0,1,0,1
1x8zaa76pikfxwotrhhxcogi,3,2,3a,134,4,0,no-go,NGAL,114,K,bacs2,0,0,,1,0.0,1,0,1
1x8zaa76pikfxwotrhhxcogi,3,2,3a,140,5,0,no-go,NGAL,114,K,bacs2,0,1,0.27,0,1.0,1,1,1
1x8zaa76pikfxwotrhhxcogi,3,2,3a,143,6,0,no-go,NGAL,114,K,bacs2,0,1,0.5429999999999999,0,0.0,0,1,1
1x8zaa76pikfxwotrhhxcogi,3,2,3a,147,7,0,no-go,NGAL,114,K,bacs2,0,1,0.599,0,1.0,1,1,1
1x8zaa76pikfxwotrhhxcogi,3,2,3a,152,8,0,no-go,NGAL,114,K,bacs2,0,0,,1,0.0,1,0,1
1x8zaa76pikfxwotrhhxcogi,3,2,3a,153,9,0,no-go,NGAL,114,K,bacs2,0,0,,1,0.0,1,0,1
1x8zaa76pikfxwotrhhxcogi,3,2,3a,160,10,0,no-go,NGAL,114,K,bacs2,0,1,0.718,0,0.0,0,1,1
1x8zaa76pikfxwotrhhxcogi,3,2,3a,162,11,0,no-go,NGAL,114,K,bacs2,0,0,,1,1.0,0,1,1
1x8zaa76pikfxwotrhhxcogi,3,2,3a,167,12,0,no-go,NGAL,114,K,bacs2,0,1,0.376,0,0.0,0,1,1
1x8zaa76pikfxwotrhhxcogi,3,2,3a,161,1,1,no-go,NGW,115,L,bacs2,0,0,,1,1.0,0,0,0
1x8zaa76pikfxwotrhhxcogi,3,2,3a,165,2,1,no-go,NGW,115,L,bacs2,0,0,,1,0.0,1,0,0
1x8zaa76pikfxwotrhhxcogi,3,2,3a,172,3,1,no-go,NGW,115,L,bacs2,0,1,0.6970000000000001,0,0.0,0,1,0
1x8zaa76pikfxwotrhhxcogi,3,2,3a,174,4,1,no-go,NGW,115,L,bacs2,0,1,0.511,0,0.0,0,1,0
1x8zaa76pikfxwotrhhxcogi,3,2,3a,177,5,1,no-go,NGW,115,L,bacs2,0,1,0.562,0,0.0,0,1,0
1x8zaa76pikfxwotrhhxcogi,3,2,3a,183,6,1,no-go,NGW,115,L,bacs2,0,1,0.5770000000000001,0,1.0,1,1,0
1x8zaa76pikfxwotrhhxcogi,3,2,3a,187,7,1,no-go,NGW,115,L,bacs2,0,1,0.441,0,0.0,0,1,0
1x8zaa76pikfxwotrhhxcogi,3,2,3a,192,8,1,no-go,NGW,115,L,bacs2,0,1,0.562,0,0.0,0,1,0
1x8zaa76pikfxwotrhhxcogi,3,2,3a,193,9,1,no-go,NGW,115,L,bacs2,0,1,0.545,0,0.0,0,1,0
1x8zaa76pikfxwotrhhxcogi,3,2,3a,199,10,1,no-go,NGW,115,L,bacs2,0,0,,1,0.0,1,0,0
1x8zaa76pikfxwotrhhxcogi,3,2,3a,201,11,1,no-go,NGW,115,L,bacs2,0,1,0.488,0,0.0,0,1,0
1x8zaa76pikfxwotrhhxcogi,3,2,3a,207,12,1,no-go,NGW,115,L,bacs2,0,0,,1,0.0,1,0,0
1x8zaa76pikfxwotrhhxcogi,3,2,3a,123,1,1,no-go,NGW,116,M,bacs2,0,0,,1,1.0,0,0,0
1x8zaa76pikfxwotrhhxcogi,3,2,3a,128,2,1,no-go,NGW,116,M,bacs2,0,0,,1,0.0,1,0,0
1x8zaa76pikfxwotrhhxcogi,3,2,3a,132,3,1,no-go,NGW,116,M,bacs2,0,1,0.336,0,0.0,0,1,0
1x8zaa76pikfxwotrhhxcogi,3,2,3a,135,4,1,no-go,NGW,116,M,bacs2,0,0,,1,0.0,1,0,0
1x8zaa76pikfxwotrhhxcogi,3,2,3a,139,5,1,no-go,NGW,116,M,bacs2,0,0,,1,0.0,1,0,0
1x8zaa76pikfxwotrhhxcogi,3,2,3a,142,6,1,no-go,NGW,116,M,bacs2,0,0,,1,0.0,1,0,0
1x8zaa76pikfxwotrhhxcogi,3,2,3a,148,7,1,no-go,NGW,116,M,bacs2,0,1,0.521,0,0.0,0,1,0
1x8zaa76pikfxwotrhhxcogi,3,2,3a,150,8,1,no-go,NGW,116,M,bacs2,0,0,,1,0.0,1,0,0
1x8zaa76pikfxwotrhhxcogi,3,2,3a,209,1,0,no-go,NGAL,117,N,bacs2,0,0,,1,1.0,0,0,1
1x8zaa76pikfxwotrhhxcogi,3,2,3a,214,2,0,no-go,NGAL,117,N,bacs2,0,0,,1,1.0,0,0,1
1x8zaa76pikfxwotrhhxcogi,3,2,3a,219,3,0,no-go,NGAL,117,N,bacs2,0,1,0.426,0,0.0,0,1,1
1x8zaa76pikfxwotrhhxcogi,3,2,3a,223,4,0,no-go,NGAL,117,N,bacs2,0,0,,1,0.0,1,0,1
1x8zaa76pikfxwotrhhxcogi,3,2,3a,227,5,0,no-go,NGAL,117,N,bacs2,0,0,,1,1.0,0,0,1
1x8zaa76pikfxwotrhhxcogi,3,2,3a,232,6,0,no-go,NGAL,117,N,bacs2,0,1,0.623,0,0.0,0,1,1
1x8zaa76pikfxwotrhhxcogi,3,2,3a,233,7,0,no-go,NGAL,117,N,bacs2,0,0,,1,1.0,0,0,1
1x8zaa76pikfxwotrhhxcogi,3,2,3a,239,8,0,no-go,NGAL,117,N,bacs2,0,1,0.7170000000000001,0,0.0,0,1,1
1x8zaa76pikfxwotrhhxcogi,3,1,3b,43,1,1,no-go,NGW,118,O,bacs2,0,1,0.535,0,0.0,0,1,0
1x8zaa76pikfxwotrhhxcogi,3,1,3b,47,2,1,no-go,NGW,118,O,bacs2,0,1,0.8540000000000001,0,0.0,0,1,0
1x8zaa76pikfxwotrhhxcogi,3,1,3b,51,3,1,no-go,NGW,118,O,bacs2,0,1,0.91,0,0.0,0,1,0
1x8zaa76pikfxwotrhhxcogi,3,1,3b,53,4,1,no-go,NGW,118,O,bacs2,0,1,0.6609999999999999,0,1.0,1,1,0
1x8zaa76pikfxwotrhhxcogi,3,1,3b,58,5,1,no-go,NGW,118,O,bacs2,0,1,0.7659999999999999,0,0.0,0,1,0
1x8zaa76pikfxwotrhhxcogi,3,1,3b,62,6,1,no-go,NGW,118,O,bacs2,0,0,,1,0.0,1,0,0
1x8zaa76pikfxwotrhhxcogi,3,1,3b,67,7,1,no-go,NGW,118,O,bacs2,0,1,0.42200000000000004,0,0.0,0,1,0
1x8zaa76pikfxwotrhhxcogi,3,1,3b,70,8,1,no-go,NGW,118,O,bacs2,0,1,0.7829999999999999,0,0.0,0,1,0
1x8zaa76pikfxwotrhhxcogi,3,1,3b,75,9,1,no-go,NGW,118,O,bacs2,0,1,0.446,0,0.0,0,1,0
1x8zaa76pikfxwotrhhxcogi,3,1,3b,77,10,1,no-go,NGW,118,O,bacs2,0,0,,1,1.0,0,0,0
1x8zaa76pikfxwotrhhxcogi,3,1,3b,83,11,1,no-go,NGW,118,O,bacs2,0,0,,1,0.0,1,0,0
1x8zaa76pikfxwotrhhxcogi,3,1,3b,86,12,1,no-go,NGW,118,O,bacs2,0,1,0.713,0,1.0,1,1,0
1x8zaa76pikfxwotrhhxcogi,3,2,3a,155,1,0,no-go,NGAL,119,P,bacs2,0,1,0.307,0,0.0,0,1,1
1x8zaa76pikfxwotrhhxcogi,3,2,3a,157,2,0,no-go,NGAL,119,P,bacs2,0,0,,1,0.0,1,0,1
1x8zaa76pikfxwotrhhxcogi,3,2,3a,164,3,0,no-go,NGAL,119,P,bacs2,0,0,,1,0.0,1,0,1
1x8zaa76pikfxwotrhhxcogi,3,2,3a,168,4,0,no-go,NGAL,119,P,bacs2,0,0,,1,0.0,1,0,1
1x8zaa76pikfxwotrhhxcogi,3,2,3a,171,5,0,no-go,NGAL,119,P,bacs2,0,1,0.18100000000000002,0,0.0,0,1,1
1x8zaa76pikfxwotrhhxcogi,3,2,3a,176,6,0,no-go,NGAL,119,P,bacs2,0,1,0.35100000000000003,0,0.0,0,1,1
1x8zaa76pikfxwotrhhxcogi,3,2,3a,180,7,0,no-go,NGAL,119,P,bacs2,0,0,,1,1.0,0,0,1
1x8zaa76pikfxwotrhhxcogi,3,2,3a,181,8,0,no-go,NGAL,119,P,bacs2,0,1,0.551,0,1.0,1,1,1
1x8zaa76pikfxwotrhhxcogi,3,2,3a,185,9,0,no-go,NGAL,119,P,bacs2,0,1,0.665,0,1.0,1,1,1
1x8zaa76pikfxwotrhhxcogi,3,2,3a,191,10,0,no-go,NGAL,119,P,bacs2,0,1,0.688,0,0.0,0,1,1
1x8zaa76pikfxwotrhhxcogi,3,1,3b,4,1,1,go,GW,120,Q,bacs2,1,1,0.873,1,1.0,0,1,1
1x8zaa76pikfxwotrhhxcogi,3,1,3b,6,2,1,go,GW,120,Q,bacs2,1,0,,0,0.0,0,0,1
1x8zaa76pikfxwotrhhxcogi,3,1,3b,10,3,1,go,GW,120,Q,bacs2,1,1,0.623,1,0.0,1,1,1
1x8zaa76pikfxwotrhhxcogi,3,1,3b,16,4,1,go,GW,120,Q,bacs2,1,1,0.8390000000000001,1,1.0,0,1,1
1x8zaa76pikfxwotrhhxcogi,3,1,3b,20,5,1,go,GW,120,Q,bacs2,1,0,,0,0.0,0,0,1
1x8zaa76pikfxwotrhhxcogi,3,1,3b,22,6,1,go,GW,120,Q,bacs2,1,0,,0,0.0,0,0,1
1x8zaa76pikfxwotrhhxcogi,3,1,3b,26,7,1,go,GW,120,Q,bacs2,1,0,,0,0.0,0,0,1
1x8zaa76pikfxwotrhhxcogi,3,1,3b,29,8,1,go,GW,120,Q,bacs2,1,1,0.523,1,1.0,0,1,1
1x8zaa76pikfxwotrhhxcogi,3,1,3b,35,9,1,go,GW,120,Q,bacs2,1,0,,0,0.0,0,0,1
1x8zaa76pikfxwotrhhxcogi,3,1,3b,38,10,1,go,GW,120,Q,bacs2,1,0,,0,0.0,0,0,1
1x8zaa76pikfxwotrhhxcogi,3,1,3b,42,11,1,go,GW,120,Q,bacs2,1,0,,0,0.0,0,0,1
1x8zaa76pikfxwotrhhxcogi,3,1,3b,45,12,1,go,GW,120,Q,bacs2,1,1,1.193,1,0.0,1,1,1
1x8zaa76pikfxwotrhhxcogi,3,2,3a,156,1,0,go,GAL,121,R,bacs2,1,1,0.514,1,0.0,1,1,0
1x8zaa76pikfxwotrhhxcogi,3,2,3a,158,2,0,go,GAL,121,R,bacs2,1,1,0.462,1,0.0,1,1,0
1x8zaa76pikfxwotrhhxcogi,3,2,3a,163,3,0,go,GAL,121,R,bacs2,1,1,0.222,1,0.0,1,1,0
1x8zaa76pikfxwotrhhxcogi,3,2,3a,166,4,0,go,GAL,121,R,bacs2,1,1,0.244,1,0.0,1,1,0
1x8zaa76pikfxwotrhhxcogi,3,2,3a,170,5,0,go,GAL,121,R,bacs2,1,0,,0,0.0,0,0,0
1x8zaa76pikfxwotrhhxcogi,3,2,3a,175,6,0,go,GAL,121,R,bacs2,1,0,,0,1.0,1,0,0
1x8zaa76pikfxwotrhhxcogi,3,2,3a,179,7,0,go,GAL,121,R,bacs2,1,1,0.614,1,0.0,1,1,0
1x8zaa76pikfxwotrhhxcogi,3,2,3a,182,8,0,go,GAL,121,R,bacs2,1,1,0.569,1,0.0,1,1,0
1x8zaa76pikfxwotrhhxcogi,3,2,3a,188,9,0,go,GAL,121,R,bacs2,1,1,0.506,1,0.0,1,1,0
1x8zaa76pikfxwotrhhxcogi,3,2,3a,190,10,0,go,GAL,121,R,bacs2,1,1,0.586,1,0.0,1,1,0
1x8zaa76pikfxwotrhhxcogi,3,2,3a,195,11,0,go,GAL,121,R,bacs2,1,1,0.48100000000000004,1,1.0,0,1,0
1x8zaa76pikfxwotrhhxcogi,3,2,3a,200,12,0,go,GAL,121,R,bacs2,1,1,0.39899999999999997,1,0.0,1,1,0
1x8zaa76pikfxwotrhhxcogi,3,2,3a,169,1,1,go,GW,122,S,bacs2,1,1,0.7509999999999999,1,0.0,1,1,1
1x8zaa76pikfxwotrhhxcogi,3,2,3a,173,2,1,go,GW,122,S,bacs2,1,1,0.9840000000000001,1,0.0,1,1,1
1x8zaa76pikfxwotrhhxcogi,3,2,3a,178,3,1,go,GW,122,S,bacs2,1,0,,0,0.0,0,0,1
1x8zaa76pikfxwotrhhxcogi,3,2,3a,184,4,1,go,GW,122,S,bacs2,1,1,0.521,1,1.0,0,1,1
1x8zaa76pikfxwotrhhxcogi,3,2,3a,186,5,1,go,GW,122,S,bacs2,1,1,0.815,1,0.0,1,1,1
1x8zaa76pikfxwotrhhxcogi,3,2,3a,189,6,1,go,GW,122,S,bacs2,1,1,0.456,1,0.0,1,1,1
1x8zaa76pikfxwotrhhxcogi,3,2,3a,196,7,1,go,GW,122,S,bacs2,1,1,0.41100000000000003,1,0.0,1,1,1
1x8zaa76pikfxwotrhhxcogi,3,2,3a,198,8,1,go,GW,122,S,bacs2,1,1,0.626,1,1.0,0,1,1
1x8zaa76pikfxwotrhhxcogi,3,2,3a,204,9,1,go,GW,122,S,bacs2,1,1,0.6579999999999999,1,0.0,1,1,1
1x8zaa76pikfxwotrhhxcogi,3,2,3a,206,10,1,go,GW,122,S,bacs2,1,1,0.428,1,1.0,0,1,1
1x8zaa76pikfxwotrhhxcogi,3,1,3b,2,1,1,no-go,NGW,123,T,bacs2,0,1,0.721,0,0.0,0,1,0
1x8zaa76pikfxwotrhhxcogi,3,1,3b,8,2,1,no-go,NGW,123,T,bacs2,0,0,,1,0.0,1,0,0
1x8zaa76pikfxwotrhhxcogi,3,1,3b,9,3,1,no-go,NGW,123,T,bacs2,0,0,,1,1.0,0,0,0
1x8zaa76pikfxwotrhhxcogi,3,1,3b,14,4,1,no-go,NGW,123,T,bacs2,0,0,,1,0.0,1,0,0
1x8zaa76pikfxwotrhhxcogi,3,1,3b,18,5,1,no-go,NGW,123,T,bacs2,0,1,0.9329999999999999,0,0.0,0,1,0
1x8zaa76pikfxwotrhhxcogi,3,1,3b,21,6,1,no-go,NGW,123,T,bacs2,0,1,0.701,0,0.0,0,1,0
1x8zaa76pikfxwotrhhxcogi,3,1,3b,27,7,1,no-go,NGW,123,T,bacs2,0,1,0.425,0,1.0,1,1,0
1x8zaa76pikfxwotrhhxcogi,3,1,3b,32,8,1,no-go,NGW,123,T,bacs2,0,0,,1,0.0,1,0,0
1x8zaa76pikfxwotrhhxcogi,3,2,3a,194,1,1,go,GW,124,U,bacs2,1,1,0.784,1,0.0,1,1,1
1x8zaa76pikfxwotrhhxcogi,3,2,3a,197,2,1,go,GW,124,U,bacs2,1,1,0.375,1,0.0,1,1,1
1x8zaa76pikfxwotrhhxcogi,3,2,3a,203,3,1,go,GW,124,U,bacs2,1,1,0.735,1,1.0,0,1,1
1x8zaa76pikfxwotrhhxcogi,3,2,3a,208,4,1,go,GW,124,U,bacs2,1,1,0.414,1,1.0,0,1,1
1x8zaa76pikfxwotrhhxcogi,3,2,3a,212,5,1,go,GW,124,U,bacs2,1,0,,0,0.0,0,0,1
1x8zaa76pikfxwotrhhxcogi,3,2,3a,216,6,1,go,GW,124,U,bacs2,1,1,0.593,1,0.0,1,1,1
1x8zaa76pikfxwotrhhxcogi,3,2,3a,220,7,1,go,GW,124,U,bacs2,1,1,0.409,1,1.0,0,1,1
1x8zaa76pikfxwotrhhxcogi,3,2,3a,222,8,1,go,GW,124,U,bacs2,1,1,0.826,1,0.0,1,1,1
1x8zaa76pikfxwotrhhxcogi,3,2,3a,226,9,1,go,GW,124,U,bacs2,1,0,,0,0.0,0,0,1
1x8zaa76pikfxwotrhhxcogi,3,2,3a,229,10,1,go,GW,124,U,bacs2,1,0,,0,0.0,0,0,1
1x8zaa76pikfxwotrhhxcogi,3,2,3a,235,11,1,go,GW,124,U,bacs2,1,0,,0,1.0,1,0,1
1x8zaa76pikfxwotrhhxcogi,3,2,3a,237,12,1,go,GW,124,U,bacs2,1,1,0.627,1,1.0,0,1,1
1x8zaa76pikfxwotrhhxcogi,3,2,3a,122,1,1,go,GW,125,V,bacs2,1,1,0.69,1,0.0,1,1,1
1x8zaa76pikfxwotrhhxcogi,3,2,3a,125,2,1,go,GW,125,V,bacs2,1,0,,0,0.0,0,0,1
1x8zaa76pikfxwotrhhxcogi,3,2,3a,130,3,1,go,GW,125,V,bacs2,1,1,0.379,1,0.0,1,1,1
1x8zaa76pikfxwotrhhxcogi,3,2,3a,133,4,1,go,GW,125,V,bacs2,1,1,0.5770000000000001,1,1.0,0,1,1
1x8zaa76pikfxwotrhhxcogi,3,2,3a,138,5,1,go,GW,125,V,bacs2,1,1,1.1059999999999999,1,0.0,1,1,1
1x8zaa76pikfxwotrhhxcogi,3,2,3a,141,6,1,go,GW,125,V,bacs2,1,1,0.615,1,0.0,1,1,1
1x8zaa76pikfxwotrhhxcogi,3,2,3a,146,7,1,go,GW,125,V,bacs2,1,1,0.7140000000000001,1,1.0,0,1,1
1x8zaa76pikfxwotrhhxcogi,3,2,3a,151,8,1,go,GW,125,V,bacs2,1,1,0.8440000000000001,1,0.0,1,1,1
1x8zaa76pikfxwotrhhxcogi,3,1,3b,84,1,0,go,GAL,126,W,bacs2,1,0,,0,0.0,0,0,0
1x8zaa76pikfxwotrhhxcogi,3,1,3b,88,2,0,go,GAL,126,W,bacs2,1,0,,0,1.0,1,0,0
1x8zaa76pikfxwotrhhxcogi,3,1,3b,90,3,0,go,GAL,126,W,bacs2,1,1,0.41,1,0.0,1,1,0
1x8zaa76pikfxwotrhhxcogi,3,1,3b,95,4,0,go,GAL,126,W,bacs2,1,0,,0,0.0,0,0,0
1x8zaa76pikfxwotrhhxcogi,3,1,3b,100,5,0,go,GAL,126,W,bacs2,1,0,,0,0.0,0,0,0
1x8zaa76pikfxwotrhhxcogi,3,1,3b,102,6,0,go,GAL,126,W,bacs2,1,0,,0,0.0,0,0,0
1x8zaa76pikfxwotrhhxcogi,3,1,3b,106,7,0,go,GAL,126,W,bacs2,1,0,,0,0.0,0,0,0
1x8zaa76pikfxwotrhhxcogi,3,1,3b,111,8,0,go,GAL,126,W,bacs2,1,1,0.899,1,0.0,1,1,0
1x8zaa76pikfxwotrhhxcogi,3,1,3b,116,9,0,go,GAL,126,W,bacs2,1,1,0.912,1,0.0,1,1,0
1x8zaa76pikfxwotrhhxcogi,3,1,3b,119,10,0,go,GAL,126,W,bacs2,1,0,,0,0.0,0,0,0
1x8zaa76pikfxwotrhhxcogi,3,1,3b,82,1,1,go,GW,127,X,bacs2,1,1,0.943,1,1.0,0,1,1
1x8zaa76pikfxwotrhhxcogi,3,1,3b,87,2,1,go,GW,127,X,bacs2,1,0,,0,0.0,0,0,1
1x8zaa76pikfxwotrhhxcogi,3,1,3b,91,3,1,go,GW,127,X,bacs2,1,0,,0,0.0,0,0,1
1x8zaa76pikfxwotrhhxcogi,3,1,3b,94,4,1,go,GW,127,X,bacs2,1,1,0.695,1,1.0,0,1,1
1x8zaa76pikfxwotrhhxcogi,3,1,3b,97,5,1,go,GW,127,X,bacs2,1,1,0.856,1,0.0,1,1,1
1x8zaa76pikfxwotrhhxcogi,3,1,3b,103,6,1,go,GW,127,X,bacs2,1,1,0.33299999999999996,1,0.0,1,1,1
1x8zaa76pikfxwotrhhxcogi,3,1,3b,107,7,1,go,GW,127,X,bacs2,1,1,0.408,1,0.0,1,1,1
1x8zaa76pikfxwotrhhxcogi,3,1,3b,112,8,1,go,GW,127,X,bacs2,1,1,0.522,1,0.0,1,1,1
1x8zaa76pikfxwotrhhxcogi,3,1,3b,113,9,1,go,GW,127,X,bacs2,1,1,0.52,1,0.0,1,1,1
1x8zaa76pikfxwotrhhxcogi,3,1,3b,118,10,1,go,GW,127,X,bacs2,1,1,0.594,1,0.0,1,1,1
1x8zaa76pikfxwotrhhxcogi,3,1,3b,1,1,1,no-go,NGW,128,Y,bacs2,0,1,0.28600000000000003,0,0.0,0,1,0
1x8zaa76pikfxwotrhhxcogi,3,1,3b,7,2,1,no-go,NGW,128,Y,bacs2,0,0,,1,1.0,0,0,0
1x8zaa76pikfxwotrhhxcogi,3,1,3b,12,3,1,no-go,NGW,128,Y,bacs2,0,1,1.0959999999999999,0,0.0,0,1,0
1x8zaa76pikfxwotrhhxcogi,3,1,3b,13,4,1,no-go,NGW,128,Y,bacs2,0,0,,1,0.0,1,0,0
1x8zaa76pikfxwotrhhxcogi,3,1,3b,17,5,1,no-go,NGW,128,Y,bacs2,0,0,,1,0.0,1,0,0
1x8zaa76pikfxwotrhhxcogi,3,1,3b,23,6,1,no-go,NGW,128,Y,bacs2,0,1,0.809,0,0.0,0,1,0
1x8zaa76pikfxwotrhhxcogi,3,1,3b,28,7,1,no-go,NGW,128,Y,bacs2,0,0,,1,1.0,0,0,0
1x8zaa76pikfxwotrhhxcogi,3,1,3b,30,8,1,no-go,NGW,128,Y,bacs2,0,1,0.8809999999999999,0,0.0,0,1,0
1x8zaa76pikfxwotrhhxcogi,3,1,3b,34,9,1,no-go,NGW,128,Y,bacs2,0,0,,1,0.0,1,0,0
1x8zaa76pikfxwotrhhxcogi,3,1,3b,37,10,1,no-go,NGW,128,Y,bacs2,0,0,,1,0.0,1,0,0
1x8zaa76pikfxwotrhhxcogi,3,1,3b,74,1,0,no-go,NGAL,129,Z,bacs2,0,0,,1,0.0,1,0,1
1x8zaa76pikfxwotrhhxcogi,3,1,3b,80,2,0,no-go,NGAL,129,Z,bacs2,0,1,0.5539999999999999,0,0.0,0,1,1
1x8zaa76pikfxwotrhhxcogi,3,1,3b,81,3,0,no-go,NGAL,129,Z,bacs2,0,0,,1,0.0,1,0,1
1x8zaa76pikfxwotrhhxcogi,3,1,3b,85,4,0,no-go,NGAL,129,Z,bacs2,0,1,0.598,0,0.0,0,1,1
1x8zaa76pikfxwotrhhxcogi,3,1,3b,89,5,0,no-go,NGAL,129,Z,bacs2,0,0,,1,1.0,0,0,1
1x8zaa76pikfxwotrhhxcogi,3,1,3b,96,6,0,no-go,NGAL,129,Z,bacs2,0,1,0.772,0,0.0,0,1,1
1x8zaa76pikfxwotrhhxcogi,3,1,3b,99,7,0,no-go,NGAL,129,Z,bacs2,0,1,1.295,0,0.0,0,1,1
1x8zaa76pikfxwotrhhxcogi,3,1,3b,101,8,0,no-go,NGAL,129,Z,bacs2,0,1,0.8420000000000001,0,0.0,0,1,1
1x8zaa76pikfxwotrhhxcogi,3,1,3b,108,9,0,no-go,NGAL,129,Z,bacs2,0,0,,1,0.0,1,0,1
1x8zaa76pikfxwotrhhxcogi,3,1,3b,109,10,0,no-go,NGAL,129,Z,bacs2,0,0,,1,0.0,1,0,1
1x8zaa76pikfxwotrhhxcogi,3,1,3b,114,11,0,no-go,NGAL,129,Z,bacs2,0,0,,1,0.0,1,0,1
1x8zaa76pikfxwotrhhxcogi,3,1,3b,120,12,0,no-go,NGAL,129,Z,bacs2,0,1,0.406,0,0.0,0,1,1
1ztbhfxllii1xhq9f1v62x26,3,1,3a,4,1,1,go,GW,130,A,bacs1,1,0,,0,0.0,0,0,1
1ztbhfxllii1xhq9f1v62x26,3,1,3a,7,2,1,go,GW,130,A,bacs1,1,1,0.6709999999999999,1,0.0,1,1,1
1ztbhfxllii1xhq9f1v62x26,3,1,3a,12,3,1,go,GW,130,A,bacs1,1,1,0.5820000000000001,1,0.0,1,1,1
1ztbhfxllii1xhq9f1v62x26,3,1,3a,16,4,1,go,GW,130,A,bacs1,1,1,0.529,1,0.0,1,1,1
1ztbhfxllii1xhq9f1v62x26,3,1,3a,17,5,1,go,GW,130,A,bacs1,1,1,0.5589999999999999,1,0.0,1,1,1
1ztbhfxllii1xhq9f1v62x26,3,1,3a,22,6,1,go,GW,130,A,bacs1,1,1,0.633,1,1.0,0,1,1
1ztbhfxllii1xhq9f1v62x26,3,1,3a,26,7,1,go,GW,130,A,bacs1,1,1,0.6970000000000001,1,1.0,0,1,1
1ztbhfxllii1xhq9f1v62x26,3,1,3a,30,8,1,go,GW,130,A,bacs1,1,1,0.725,1,0.0,1,1,1
1ztbhfxllii1xhq9f1v62x26,3,1,3a,91,1,0,no-go,NGAL,131,B,bacs1,0,0,,1,0.0,1,0,1
1ztbhfxllii1xhq9f1v62x26,3,1,3a,95,2,0,no-go,NGAL,131,B,bacs1,0,0,,1,1.0,0,0,1
1ztbhfxllii1xhq9f1v62x26,3,1,3a,99,3,0,no-go,NGAL,131,B,bacs1,0,0,,1,0.0,1,0,1
1ztbhfxllii1xhq9f1v62x26,3,1,3a,102,4,0,no-go,NGAL,131,B,bacs1,0,0,,1,0.0,1,1,1
1ztbhfxllii1xhq9f1v62x26,3,1,3a,106,5,0,no-go,NGAL,131,B,bacs1,0,0,,1,0.0,1,0,1
1ztbhfxllii1xhq9f1v62x26,3,1,3a,112,6,0,no-go,NGAL,131,B,bacs1,0,0,,1,0.0,1,0,1
1ztbhfxllii1xhq9f1v62x26,3,1,3a,116,7,0,no-go,NGAL,131,B,bacs1,0,0,,1,0.0,1,0,1
1ztbhfxllii1xhq9f1v62x26,3,1,3a,118,8,0,no-go,NGAL,131,B,bacs1,0,0,,1,0.0,1,0,1
1ztbhfxllii1xhq9f1v62x26,3,1,3a,2,1,0,no-go,NGAL,132,C,bacs1,0,0,,1,0.0,1,0,1
1ztbhfxllii1xhq9f1v62x26,3,1,3a,6,2,0,no-go,NGAL,132,C,bacs1,0,0,,1,0.0,1,0,1
1ztbhfxllii1xhq9f1v62x26,3,1,3a,10,3,0,no-go,NGAL,132,C,bacs1,0,0,,1,0.0,1,0,1
1ztbhfxllii1xhq9f1v62x26,3,1,3a,13,4,0,no-go,NGAL,132,C,bacs1,0,1,1.041,0,0.0,0,1,1
1ztbhfxllii1xhq9f1v62x26,3,1,3a,19,5,0,no-go,NGAL,132,C,bacs1,0,1,0.9490000000000001,0,0.0,0,1,1
1ztbhfxllii1xhq9f1v62x26,3,1,3a,23,6,0,no-go,NGAL,132,C,bacs1,0,1,0.833,0,0.0,0,1,1
1ztbhfxllii1xhq9f1v62x26,3,1,3a,25,7,0,no-go,NGAL,132,C,bacs1,0,0,,1,0.0,1,0,1
1ztbhfxllii1xhq9f1v62x26,3,1,3a,31,8,0,no-go,NGAL,132,C,bacs1,0,1,1.062,0,0.0,0,1,1
1ztbhfxllii1xhq9f1v62x26,3,1,3a,34,9,0,no-go,NGAL,132,C,bacs1,0,0,,1,1.0,0,0,1
1ztbhfxllii1xhq9f1v62x26,3,1,3a,38,10,0,no-go,NGAL,132,C,bacs1,0,0,,1,0.0,1,0,1
1ztbhfxllii1xhq9f1v62x26,3,1,3a,44,11,0,no-go,NGAL,132,C,bacs1,0,1,0.998,0,0.0,0,1,1
1ztbhfxllii1xhq9f1v62x26,3,1,3a,46,12,0,no-go,NGAL,132,C,bacs1,0,0,,1,0.0,1,0,1
1ztbhfxllii1xhq9f1v62x26,3,2,3b,153,1,0,no-go,NGAL,133,D,bacs1,0,0,,1,0.0,1,0,1
1ztbhfxllii1xhq9f1v62x26,3,2,3b,158,2,0,no-go,NGAL,133,D,bacs1,0,0,,1,1.0,0,0,1
1ztbhfxllii1xhq9f1v62x26,3,2,3b,162,3,0,no-go,NGAL,133,D,bacs1,0,1,0.782,0,0.0,0,1,1
1ztbhfxllii1xhq9f1v62x26,3,2,3b,165,4,0,no-go,NGAL,133,D,bacs1,0,1,0.9259999999999999,0,0.0,0,1,1
1ztbhfxllii1xhq9f1v62x26,3,2,3b,172,5,0,no-go,NGAL,133,D,bacs1,0,0,,1,1.0,0,0,1
1ztbhfxllii1xhq9f1v62x26,3,2,3b,174,6,0,no-go,NGAL,133,D,bacs1,0,1,1.062,0,0.0,0,1,1
1ztbhfxllii1xhq9f1v62x26,3,2,3b,177,7,0,no-go,NGAL,133,D,bacs1,0,1,0.899,0,0.0,0,1,1
1ztbhfxllii1xhq9f1v62x26,3,2,3b,181,8,0,no-go,NGAL,133,D,bacs1,0,0,,1,1.0,0,0,1
1ztbhfxllii1xhq9f1v62x26,3,2,3b,188,9,0,no-go,NGAL,133,D,bacs1,0,0,,1,0.0,1,0,1
1ztbhfxllii1xhq9f1v62x26,3,2,3b,189,10,0,no-go,NGAL,133,D,bacs1,0,0,,1,1.0,0,0,1
1ztbhfxllii1xhq9f1v62x26,3,1,3a,42,1,1,no-go,NGW,134,E,bacs1,0,0,,1,0.0,1,0,0
1ztbhfxllii1xhq9f1v62x26,3,1,3a,48,2,1,no-go,NGW,134,E,bacs1,0,0,,1,0.0,1,0,0
1ztbhfxllii1xhq9f1v62x26,3,1,3a,52,3,1,no-go,NGW,134,E,bacs1,0,0,,1,0.0,1,0,0
1ztbhfxllii1xhq9f1v62x26,3,1,3a,54,4,1,no-go,NGW,134,E,bacs1,0,0,,1,0.0,1,0,0
1ztbhfxllii1xhq9f1v62x26,3,1,3a,58,5,1,no-go,NGW,134,E,bacs1,0,0,,1,1.0,0,0,0
1ztbhfxllii1xhq9f1v62x26,3,1,3a,64,6,1,no-go,NGW,134,E,bacs1,0,0,,1,0.0,1,0,0
1ztbhfxllii1xhq9f1v62x26,3,1,3a,68,7,1,no-go,NGW,134,E,bacs1,0,0,,1,0.0,1,0,0
1ztbhfxllii1xhq9f1v62x26,3,1,3a,71,8,1,no-go,NGW,134,E,bacs1,0,0,,1,0.0,1,0,0
1ztbhfxllii1xhq9f1v62x26,3,1,3a,76,9,1,no-go,NGW,134,E,bacs1,0,0,,1,0.0,1,0,0
1ztbhfxllii1xhq9f1v62x26,3,1,3a,77,10,1,no-go,NGW,134,E,bacs1,0,0,,1,0.0,1,0,0
1ztbhfxllii1xhq9f1v62x26,3,1,3a,83,11,1,no-go,NGW,134,E,bacs1,0,0,,1,1.0,0,0,0
1ztbhfxllii1xhq9f1v62x26,3,1,3a,87,12,1,no-go,NGW,134,E,bacs1,0,0,,1,0.0,1,0,0
1ztbhfxllii1xhq9f1v62x26,3,1,3a,35,1,0,go,GAL,135,F,bacs1,1,0,,0,1.0,1,0,0
1ztbhfxllii1xhq9f1v62x26,3,1,3a,40,2,0,go,GAL,135,F,bacs1,1,0,,0,0.0,0,0,0
1ztbhfxllii1xhq9f1v62x26,3,1,3a,41,3,0,go,GAL,135,F,bacs1,1,1,0.726,1,1.0,0,1,0
1ztbhfxllii1xhq9f1v62x26,3,1,3a,45,4,0,go,GAL,135,F,bacs1,1,0,,0,0.0,0,0,0
1ztbhfxllii1xhq9f1v62x26,3,1,3a,49,5,0,go,GAL,135,F,bacs1,1,0,,0,0.0,0,0,0
1ztbhfxllii1xhq9f1v62x26,3,1,3a,56,6,0,go,GAL,135,F,bacs1,1,1,0.857,1,0.0,1,1,0
1ztbhfxllii1xhq9f1v62x26,3,1,3a,57,7,0,go,GAL,135,F,bacs1,1,1,1.0090000000000001,1,0.0,1,1,0
1ztbhfxllii1xhq9f1v62x26,3,1,3a,63,8,0,go,GAL,135,F,bacs1,1,1,0.889,1,1.0,0,1,0
1ztbhfxllii1xhq9f1v62x26,3,1,3a,65,9,0,go,GAL,135,F,bacs1,1,0,,0,0.0,0,0,0
1ztbhfxllii1xhq9f1v62x26,3,1,3a,70,10,0,go,GAL,135,F,bacs1,1,1,0.78,1,0.0,1,1,0
1ztbhfxllii1xhq9f1v62x26,3,1,3a,75,11,0,go,GAL,135,F,bacs1,1,1,0.778,1,0.0,1,1,0
1ztbhfxllii1xhq9f1v62x26,3,1,3a,79,12,0,go,GAL,135,F,bacs1,1,1,0.7909999999999999,1,0.0,1,1,0
1ztbhfxllii1xhq9f1v62x26,3,2,3b,124,1,1,no-go,NGW,136,G,bacs1,0,0,,1,1.0,0,0,0
1ztbhfxllii1xhq9f1v62x26,3,2,3b,128,2,1,no-go,NGW,136,G,bacs1,0,1,0.863,0,0.0,0,1,0
1ztbhfxllii1xhq9f1v62x26,3,2,3b,129,3,1,no-go,NGW,136,G,bacs1,0,1,0.63,0,0.0,0,2,0
1ztbhfxllii1xhq9f1v62x26,3,2,3b,135,4,1,no-go,NGW,136,G,bacs1,0,0,,1,0.0,1,0,0
1ztbhfxllii1xhq9f1v62x26,3,2,3b,140,5,1,no-go,NGW,136,G,bacs1,0,1,0.9570000000000001,0,1.0,1,1,0
1ztbhfxllii1xhq9f1v62x26,3,2,3b,142,6,1,no-go,NGW,136,G,bacs1,0,1,0.986,0,0.0,0,1,0
1ztbhfxllii1xhq9f1v62x26,3,2,3b,148,7,1,no-go,NGW,136,G,bacs1,0,0,,1,1.0,0,0,0
1ztbhfxllii1xhq9f1v62x26,3,2,3b,150,8,1,no-go,NGW,136,G,bacs1,0,0,,1,0.0,1,1,0
1ztbhfxllii1xhq9f1v62x26,3,2,3b,201,1,0,go,GAL,137,H,bacs1,1,0,,0,0.0,0,0,0
1ztbhfxllii1xhq9f1v62x26,3,2,3b,208,2,0,go,GAL,137,H,bacs1,1,1,0.6459999999999999,1,0.0,1,1,0
1ztbhfxllii1xhq9f1v62x26,3,2,3b,211,3,0,go,GAL,137,H,bacs1,1,1,0.732,1,1.0,0,1,0
1ztbhfxllii1xhq9f1v62x26,3,2,3b,213,4,0,go,GAL,137,H,bacs1,1,1,0.752,1,0.0,1,1,0
1ztbhfxllii1xhq9f1v62x26,3,2,3b,220,5,0,go,GAL,137,H,bacs1,1,1,0.861,1,0.0,1,1,0
1ztbhfxllii1xhq9f1v62x26,3,2,3b,222,6,0,go,GAL,137,H,bacs1,1,1,0.903,1,0.0,1,1,0
1ztbhfxllii1xhq9f1v62x26,3,2,3b,225,7,0,go,GAL,137,H,bacs1,1,1,0.7979999999999999,1,0.0,1,1,0
1ztbhfxllii1xhq9f1v62x26,3,2,3b,231,8,0,go,GAL,137,H,bacs1,1,1,0.802,1,0.0,1,1,0
1ztbhfxllii1xhq9f1v62x26,3,2,3b,234,9,0,go,GAL,137,H,bacs1,1,1,0.764,1,0.0,1,1,0
1ztbhfxllii1xhq9f1v62x26,3,2,3b,239,10,0,go,GAL,137,H,bacs1,1,1,0.7829999999999999,1,1.0,0,1,0
1ztbhfxllii1xhq9f1v62x26,3,2,3b,122,1,1,go,GW,138,I,bacs1,1,0,,0,0.0,0,0,1
1ztbhfxllii1xhq9f1v62x26,3,2,3b,127,2,1,go,GW,138,I,bacs1,1,0,,0,0.0,0,0,1
1ztbhfxllii1xhq9f1v62x26,3,2,3b,130,3,1,go,GW,138,I,bacs1,1,1,0.579,1,0.0,1,1,1
1ztbhfxllii1xhq9f1v62x26,3,2,3b,134,4,1,go,GW,138,I,bacs1,1,1,0.6829999999999999,1,0.0,1,1,1
1ztbhfxllii1xhq9f1v62x26,3,2,3b,139,5,1,go,GW,138,I,bacs1,1,1,0.611,1,0.0,1,1,1
1ztbhfxllii1xhq9f1v62x26,3,2,3b,141,6,1,go,GW,138,I,bacs1,1,1,0.789,1,0.0,1,1,1
1ztbhfxllii1xhq9f1v62x26,3,2,3b,147,7,1,go,GW,138,I,bacs1,1,1,0.708,1,1.0,0,1,1
1ztbhfxllii1xhq9f1v62x26,3,2,3b,151,8,1,go,GW,138,I,bacs1,1,0,,0,0.0,0,0,1
1ztbhfxllii1xhq9f1v62x26,3,2,3b,156,9,1,go,GW,138,I,bacs1,1,1,0.6890000000000001,1,0.0,1,1,1
1ztbhfxllii1xhq9f1v62x26,3,2,3b,159,10,1,go,GW,138,I,bacs1,1,1,0.731,1,0.0,1,1,1
1ztbhfxllii1xhq9f1v62x26,3,2,3b,161,11,1,go,GW,138,I,bacs1,1,1,0.787,1,0.0,1,1,1
1ztbhfxllii1xhq9f1v62x26,3,2,3b,166,12,1,go,GW,138,I,bacs1,1,1,0.767,1,0.0,1,1,1
1ztbhfxllii1xhq9f1v62x26,3,1,3a,81,1,1,no-go,NGW,139,J,bacs1,0,0,,1,0.0,1,0,0
1ztbhfxllii1xhq9f1v62x26,3,1,3a,88,2,1,no-go,NGW,139,J,bacs1,0,1,1.074,0,0.0,0,1,0
1ztbhfxllii1xhq9f1v62x26,3,1,3a,90,3,1,no-go,NGW,139,J,bacs1,0,0,,1,1.0,0,0,0
1ztbhfxllii1xhq9f1v62x26,3,1,3a,96,4,1,no-go,NGW,139,J,bacs1,0,1,0.995,0,0.0,0,1,0
1ztbhfxllii1xhq9f1v62x26,3,1,3a,97,5,1,no-go,NGW,139,J,bacs1,0,0,,1,0.0,1,0,0
1ztbhfxllii1xhq9f1v62x26,3,1,3a,101,6,1,no-go,NGW,139,J,bacs1,0,0,,1,1.0,0,0,0
1ztbhfxllii1xhq9f1v62x26,3,1,3a,108,7,1,no-go,NGW,139,J,bacs1,0,1,1.143,0,1.0,1,1,0
1ztbhfxllii1xhq9f1v62x26,3,1,3a,111,8,1,no-go,NGW,139,J,bacs1,0,1,0.71,0,0.0,0,1,0
1ztbhfxllii1xhq9f1v62x26,3,1,3a,115,9,1,no-go,NGW,139,J,bacs1,0,1,0.6459999999999999,0,0.0,0,1,0
1ztbhfxllii1xhq9f1v62x26,3,1,3a,119,10,1,no-go,NGW,139,J,bacs1,0,1,0.737,0,0.0,0,1,0
1ztbhfxllii1xhq9f1v62x26,3,2,3b,155,1,0,go,GAL,140,K,bacs1,1,1,0.685,1,0.0,1,1,0
1ztbhfxllii1xhq9f1v62x26,3,2,3b,157,2,0,go,GAL,140,K,bacs1,1,0,,0,0.0,0,0,0
1ztbhfxllii1xhq9f1v62x26,3,2,3b,163,3,0,go,GAL,140,K,bacs1,1,1,0.455,1,0.0,1,1,0
1ztbhfxllii1xhq9f1v62x26,3,2,3b,167,4,0,go,GAL,140,K,bacs1,1,1,0.943,1,0.0,1,1,0
1ztbhfxllii1xhq9f1v62x26,3,2,3b,171,5,0,go,GAL,140,K,bacs1,1,0,,0,0.0,0,0,0
1ztbhfxllii1xhq9f1v62x26,3,2,3b,175,6,0,go,GAL,140,K,bacs1,1,1,0.418,1,0.0,1,1,0
1ztbhfxllii1xhq9f1v62x26,3,2,3b,179,7,0,go,GAL,140,K,bacs1,1,1,0.733,1,0.0,1,1,0
1ztbhfxllii1xhq9f1v62x26,3,2,3b,182,8,0,go,GAL,140,K,bacs1,1,1,0.451,1,0.0,1,1,0
1ztbhfxllii1xhq9f1v62x26,3,2,3b,185,9,0,go,GAL,140,K,bacs1,1,1,0.722,1,0.0,1,1,0
1ztbhfxllii1xhq9f1v62x26,3,2,3b,191,10,0,go,GAL,140,K,bacs1,1,1,0.768,1,0.0,1,1,0
1ztbhfxllii1xhq9f1v62x26,3,2,3b,194,11,0,go,GAL,140,K,bacs1,1,1,0.6679999999999999,1,0.0,1,1,0
1ztbhfxllii1xhq9f1v62x26,3,2,3b,197,12,0,go,GAL,140,K,bacs1,1,1,0.716,1,0.0,1,1,0
1ztbhfxllii1xhq9f1v62x26,3,1,3a,3,1,0,go,GAL,141,L,bacs1,1,1,1.031,1,0.0,1,1,0
1ztbhfxllii1xhq9f1v62x26,3,1,3a,8,2,0,go,GAL,141,L,bacs1,1,1,0.914,1,1.0,0,1,0
1ztbhfxllii1xhq9f1v62x26,3,1,3a,11,3,0,go,GAL,141,L,bacs1,1,1,0.581,1,0.0,1,1,0
1ztbhfxllii1xhq9f1v62x26,3,1,3a,14,4,0,go,GAL,141,L,bacs1,1,1,1.001,1,0.0,1,1,0
1ztbhfxllii1xhq9f1v62x26,3,1,3a,20,5,0,go,GAL,141,L,bacs1,1,0,,0,0.0,0,0,0
1ztbhfxllii1xhq9f1v62x26,3,1,3a,24,6,0,go,GAL,141,L,bacs1,1,1,0.444,1,0.0,1,1,0
1ztbhfxllii1xhq9f1v62x26,3,1,3a,27,7,0,go,GAL,141,L,bacs1,1,0,,0,1.0,1,0,0
1ztbhfxllii1xhq9f1v62x26,3,1,3a,29,8,0,go,GAL,141,L,bacs1,1,1,1.0959999999999999,1,1.0,0,1,0
1ztbhfxllii1xhq9f1v62x26,3,1,3a,33,9,0,go,GAL,141,L,bacs1,1,1,1.139,1,0.0,1,1,0
1ztbhfxllii1xhq9f1v62x26,3,1,3a,39,10,0,go,GAL,141,L,bacs1,1,1,0.8,1,0.0,1,1,0
1ztbhfxllii1xhq9f1v62x26,3,2,3b,196,1,0,no-go,NGAL,142,M,bacs1,0,0,,1,0.0,1,0,1
1ztbhfxllii1xhq9f1v62x26,3,2,3b,200,2,0,no-go,NGAL,142,M,bacs1,0,0,,1,1.0,0,0,1
1ztbhfxllii1xhq9f1v62x26,3,2,3b,203,3,0,no-go,NGAL,142,M,bacs1,0,1,0.867,0,0.0,0,2,1
1ztbhfxllii1xhq9f1v62x26,3,2,3b,206,4,0,no-go,NGAL,142,M,bacs1,0,0,,1,0.0,1,0,1
1ztbhfxllii1xhq9f1v62x26,3,2,3b,210,5,0,no-go,NGAL,142,M,bacs1,0,1,0.943,0,1.0,1,1,1
1ztbhfxllii1xhq9f1v62x26,3,2,3b,214,6,0,no-go,NGAL,142,M,bacs1,0,1,0.74,0,0.0,0,1,1
1ztbhfxllii1xhq9f1v62x26,3,2,3b,218,7,0,no-go,NGAL,142,M,bacs1,0,0,,1,0.0,1,0,1
1ztbhfxllii1xhq9f1v62x26,3,2,3b,224,8,0,no-go,NGAL,142,M,bacs1,0,1,0.28800000000000003,0,0.0,0,1,1
1ztbhfxllii1xhq9f1v62x26,3,2,3b,228,9,0,no-go,NGAL,142,M,bacs1,0,0,,1,0.0,1,0,1
1ztbhfxllii1xhq9f1v62x26,3,2,3b,229,10,0,no-go,NGAL,142,M,bacs1,0,0,,1,1.0,0,0,1
1ztbhfxllii1xhq9f1v62x26,3,2,3b,236,11,0,no-go,NGAL,142,M,bacs1,0,0,,1,0.0,1,0,1
1ztbhfxllii1xhq9f1v62x26,3,2,3b,237,12,0,no-go,NGAL,142,M,bacs1,0,1,0.995,0,0.0,0,1,1
1ztbhfxllii1xhq9f1v62x26,3,2,3b,123,1,1,no-go,NGW,143,N,bacs1,0,0,,1,0.0,1,0,0
1ztbhfxllii1xhq9f1v62x26,3,2,3b,125,2,1,no-go,NGW,143,N,bacs1,0,0,,1,1.0,0,0,0
1ztbhfxllii1xhq9f1v62x26,3,2,3b,132,3,1,no-go,NGW,143,N,bacs1,0,1,0.7440000000000001,0,0.0,0,1,0
1ztbhfxllii1xhq9f1v62x26,3,2,3b,136,4,1,no-go,NGW,143,N,bacs1,0,1,0.977,0,0.0,0,1,0
1ztbhfxllii1xhq9f1v62x26,3,2,3b,138,5,1,no-go,NGW,143,N,bacs1,0,0,,1,1.0,0,0,0
1ztbhfxllii1xhq9f1v62x26,3,2,3b,144,6,1,no-go,NGW,143,N,bacs1,0,0,,1,0.0,1,0,0
1ztbhfxllii1xhq9f1v62x26,3,2,3b,146,7,1,no-go,NGW,143,N,bacs1,0,0,,1,0.0,1,0,0
1ztbhfxllii1xhq9f1v62x26,3,2,3b,152,8,1,no-go,NGW,143,N,bacs1,0,0,,1,0.0,1,0,0
1ztbhfxllii1xhq9f1v62x26,3,2,3b,154,9,1,no-go,NGW,143,N,bacs1,0,0,,1,0.0,1,0,0
1ztbhfxllii1xhq9f1v62x26,3,2,3b,160,10,1,no-go,NGW,143,N,bacs1,0,0,,1,0.0,1,0,0
1ztbhfxllii1xhq9f1v62x26,3,2,3b,121,1,0,go,GAL,144,O,bacs1,1,0,,0,0.0,0,0,0
1ztbhfxllii1xhq9f1v62x26,3,2,3b,126,2,0,go,GAL,144,O,bacs1,1,1,0.8170000000000001,1,0.0,1,1,0
1ztbhfxllii1xhq9f1v62x26,3,2,3b,131,3,0,go,GAL,144,O,bacs1,1,1,0.778,1,0.0,1,1,0
1ztbhfxllii1xhq9f1v62x26,3,2,3b,133,4,0,go,GAL,144,O,bacs1,1,1,0.7959999999999999,1,0.0,1,1,0
1ztbhfxllii1xhq9f1v62x26,3,2,3b,137,5,0,go,GAL,144,O,bacs1,1,1,0.6940000000000001,1,1.0,0,1,0
1ztbhfxllii1xhq9f1v62x26,3,2,3b,143,6,0,go,GAL,144,O,bacs1,1,1,0.852,1,1.0,0,1,0
1ztbhfxllii1xhq9f1v62x26,3,2,3b,145,7,0,go,GAL,144,O,bacs1,1,1,0.741,1,0.0,1,1,0
1ztbhfxllii1xhq9f1v62x26,3,2,3b,149,8,0,go,GAL,144,O,bacs1,1,1,0.843,1,0.0,1,1,0
1ztbhfxllii1xhq9f1v62x26,3,2,3b,202,1,1,go,GW,145,P,bacs1,1,1,0.9079999999999999,1,0.0,1,1,1
1ztbhfxllii1xhq9f1v62x26,3,2,3b,207,2,1,go,GW,145,P,bacs1,1,1,1.0090000000000001,1,0.0,1,1,1
1ztbhfxllii1xhq9f1v62x26,3,2,3b,212,3,1,go,GW,145,P,bacs1,1,1,0.62,1,0.0,1,2,1
1ztbhfxllii1xhq9f1v62x26,3,2,3b,215,4,1,go,GW,145,P,bacs1,1,1,0.62,1,0.0,1,1,1
1ztbhfxllii1xhq9f1v62x26,3,2,3b,219,5,1,go,GW,145,P,bacs1,1,1,0.691,1,0.0,1,1,1
1ztbhfxllii1xhq9f1v62x26,3,2,3b,221,6,1,go,GW,145,P,bacs1,1,1,0.698,1,0.0,1,1,1
1ztbhfxllii1xhq9f1v62x26,3,2,3b,227,7,1,go,GW,145,P,bacs1,1,1,0.73,1,0.0,1,1,1
1ztbhfxllii1xhq9f1v62x26,3,2,3b,232,8,1,go,GW,145,P,bacs1,1,1,0.742,1,0.0,1,1,1
1ztbhfxllii1xhq9f1v62x26,3,2,3b,235,9,1,go,GW,145,P,bacs1,1,1,0.795,1,0.0,1,1,1
1ztbhfxllii1xhq9f1v62x26,3,2,3b,238,10,1,go,GW,145,P,bacs1,1,1,0.664,1,0.0,1,1,1
1ztbhfxllii1xhq9f1v62x26,3,1,3a,1,1,1,no-go,NGW,146,Q,bacs1,0,1,0.5920000000000001,0,0.0,0,1,0
1ztbhfxllii1xhq9f1v62x26,3,1,3a,5,2,1,no-go,NGW,146,Q,bacs1,0,0,,1,0.0,1,0,0
1ztbhfxllii1xhq9f1v62x26,3,1,3a,9,3,1,no-go,NGW,146,Q,bacs1,0,0,,1,1.0,0,0,0
1ztbhfxllii1xhq9f1v62x26,3,1,3a,15,4,1,no-go,NGW,146,Q,bacs1,0,1,0.574,0,0.0,0,1,0
1ztbhfxllii1xhq9f1v62x26,3,1,3a,18,5,1,no-go,NGW,146,Q,bacs1,0,0,,1,0.0,1,0,0
1ztbhfxllii1xhq9f1v62x26,3,1,3a,21,6,1,no-go,NGW,146,Q,bacs1,0,0,,1,0.0,1,0,0
1ztbhfxllii1xhq9f1v62x26,3,1,3a,28,7,1,no-go,NGW,146,Q,bacs1,0,1,0.684,0,0.0,0,1,0
1ztbhfxllii1xhq9f1v62x26,3,1,3a,32,8,1,no-go,NGW,146,Q,bacs1,0,0,,1,0.0,1,0,0
1ztbhfxllii1xhq9f1v62x26,3,1,3a,73,1,1,go,GW,147,R,bacs1,1,0,,0,0.0,0,0,1
1ztbhfxllii1xhq9f1v62x26,3,1,3a,80,2,1,go,GW,147,R,bacs1,1,1,0.6970000000000001,1,0.0,1,1,1
1ztbhfxllii1xhq9f1v62x26,3,1,3a,84,3,1,go,GW,147,R,bacs1,1,1,0.9079999999999999,1,0.0,1,1,1
1ztbhfxllii1xhq9f1v62x26,3,1,3a,85,4,1,go,GW,147,R,bacs1,1,1,0.6729999999999999,1,0.0,1,1,1
1ztbhfxllii1xhq9f1v62x26,3,1,3a,89,5,1,go,GW,147,R,bacs1,1,1,0.7290000000000001,1,0.0,1,1,1
1ztbhfxllii1xhq9f1v62x26,3,1,3a,94,6,1,go,GW,147,R,bacs1,1,1,1.082,1,0.0,1,1,1
1ztbhfxllii1xhq9f1v62x26,3,1,3a,100,7,1,go,GW,147,R,bacs1,1,1,0.789,1,0.0,1,1,1
1ztbhfxllii1xhq9f1v62x26,3,1,3a,103,8,1,go,GW,147,R,bacs1,1,1,0.657,1,0.0,1,1,1
1ztbhfxllii1xhq9f1v62x26,3,1,3a,107,9,1,go,GW,147,R,bacs1,1,1,0.635,1,0.0,1,1,1
1ztbhfxllii1xhq9f1v62x26,3,1,3a,110,10,1,go,GW,147,R,bacs1,1,1,0.68,1,0.0,1,1,1
1ztbhfxllii1xhq9f1v62x26,3,1,3a,113,11,1,go,GW,147,R,bacs1,1,1,0.627,1,0.0,1,1,1
1ztbhfxllii1xhq9f1v62x26,3,1,3a,120,12,1,go,GW,147,R,bacs1,1,1,0.54,1,1.0,0,1,1
1ztbhfxllii1xhq9f1v62x26,3,2,3b,164,1,1,no-go,NGW,148,S,bacs1,0,0,,1,0.0,1,0,0
1ztbhfxllii1xhq9f1v62x26,3,2,3b,168,2,1,no-go,NGW,148,S,bacs1,0,0,,1,0.0,1,0,0
1ztbhfxllii1xhq9f1v62x26,3,2,3b,169,3,1,no-go,NGW,148,S,bacs1,0,0,,1,0.0,1,0,0
1ztbhfxllii1xhq9f1v62x26,3,2,3b,176,4,1,no-go,NGW,148,S,bacs1,0,0,,1,0.0,1,0,0
1ztbhfxllii1xhq9f1v62x26,3,2,3b,178,5,1,no-go,NGW,148,S,bacs1,0,0,,1,0.0,1,0,0
1ztbhfxllii1xhq9f1v62x26,3,2,3b,184,6,1,no-go,NGW,148,S,bacs1,0,0,,1,1.0,0,0,0
1ztbhfxllii1xhq9f1v62x26,3,2,3b,187,7,1,no-go,NGW,148,S,bacs1,0,0,,1,1.0,0,0,0
1ztbhfxllii1xhq9f1v62x26,3,2,3b,192,8,1,no-go,NGW,148,S,bacs1,0,1,1.2209999999999999,0,1.0,1,1,0
1ztbhfxllii1xhq9f1v62x26,3,2,3b,193,9,1,no-go,NGW,148,S,bacs1,0,1,0.7240000000000001,0,1.0,1,1,0
1ztbhfxllii1xhq9f1v62x26,3,2,3b,198,10,1,no-go,NGW,148,S,bacs1,0,1,0.987,0,0.0,0,1,0
1ztbhfxllii1xhq9f1v62x26,3,2,3b,204,11,1,no-go,NGW,148,S,bacs1,0,1,0.993,0,0.0,0,1,0
1ztbhfxllii1xhq9f1v62x26,3,2,3b,205,12,1,no-go,NGW,148,S,bacs1,0,0,,1,0.0,1,0,0
1ztbhfxllii1xhq9f1v62x26,3,1,3a,36,1,0,no-go,NGAL,149,T,bacs1,0,1,0.813,0,0.0,0,1,1
1ztbhfxllii1xhq9f1v62x26,3,1,3a,37,2,0,no-go,NGAL,149,T,bacs1,0,0,,1,0.0,1,0,1
1ztbhfxllii1xhq9f1v62x26,3,1,3a,43,3,0,no-go,NGAL,149,T,bacs1,0,1,0.825,0,0.0,0,1,1
1ztbhfxllii1xhq9f1v62x26,3,1,3a,47,4,0,no-go,NGAL,149,T,bacs1,0,0,,1,0.0,1,0,1
1ztbhfxllii1xhq9f1v62x26,3,1,3a,51,5,0,no-go,NGAL,149,T,bacs1,0,1,1.16,0,0.0,0,1,1
1ztbhfxllii1xhq9f1v62x26,3,1,3a,55,6,0,no-go,NGAL,149,T,bacs1,0,0,,1,0.0,1,0,1
1ztbhfxllii1xhq9f1v62x26,3,1,3a,60,7,0,no-go,NGAL,149,T,bacs1,0,0,,1,0.0,1,0,1
1ztbhfxllii1xhq9f1v62x26,3,1,3a,61,8,0,no-go,NGAL,149,T,bacs1,0,0,,1,0.0,1,0,1
1ztbhfxllii1xhq9f1v62x26,3,1,3a,66,9,0,no-go,NGAL,149,T,bacs1,0,0,,1,0.0,1,0,1
1ztbhfxllii1xhq9f1v62x26,3,1,3a,72,10,0,no-go,NGAL,149,T,bacs1,0,0,,1,0.0,1,0,1
1ztbhfxllii1xhq9f1v62x26,3,2,3b,170,1,0,no-go,NGAL,150,U,bacs1,0,0,,1,1.0,0,0,1
1ztbhfxllii1xhq9f1v62x26,3,2,3b,173,2,0,no-go,NGAL,150,U,bacs1,0,1,0.71,0,0.0,0,1,1
1ztbhfxllii1xhq9f1v62x26,3,2,3b,180,3,0,no-go,NGAL,150,U,bacs1,0,1,0.682,0,0.0,0,1,1
1ztbhfxllii1xhq9f1v62x26,3,2,3b,183,4,0,no-go,NGAL,150,U,bacs1,0,1,0.7929999999999999,0,1.0,1,1,1
1ztbhfxllii1xhq9f1v62x26,3,2,3b,186,5,0,no-go,NGAL,150,U,bacs1,0,1,0.67,0,0.0,0,1,1
1ztbhfxllii1xhq9f1v62x26,3,2,3b,190,6,0,no-go,NGAL,150,U,bacs1,0,0,,1,0.0,1,1,1
1ztbhfxllii1xhq9f1v62x26,3,2,3b,195,7,0,no-go,NGAL,150,U,bacs1,0,0,,1,0.0,1,0,1
1ztbhfxllii1xhq9f1v62x26,3,2,3b,199,8,0,no-go,NGAL,150,U,bacs1,0,1,0.9440000000000001,0,1.0,1,1,1
1ztbhfxllii1xhq9f1v62x26,3,1,3a,50,1,1,go,GW,151,V,bacs1,1,1,1.0390000000000001,1,1.0,0,1,1
1ztbhfxllii1xhq9f1v62x26,3,1,3a,53,2,1,go,GW,151,V,bacs1,1,1,1.262,1,0.0,1,1,1
1ztbhfxllii1xhq9f1v62x26,3,1,3a,59,3,1,go,GW,151,V,bacs1,1,1,0.763,1,0.0,1,1,1
1ztbhfxllii1xhq9f1v62x26,3,1,3a,62,4,1,go,GW,151,V,bacs1,1,1,0.937,1,1.0,0,1,1
1ztbhfxllii1xhq9f1v62x26,3,1,3a,67,5,1,go,GW,151,V,bacs1,1,1,0.95,1,0.0,1,1,1
1ztbhfxllii1xhq9f1v62x26,3,1,3a,69,6,1,go,GW,151,V,bacs1,1,1,0.715,1,0.0,1,1,1
1ztbhfxllii1xhq9f1v62x26,3,1,3a,74,7,1,go,GW,151,V,bacs1,1,0,,0,0.0,0,0,1
1ztbhfxllii1xhq9f1v62x26,3,1,3a,78,8,1,go,GW,151,V,bacs1,1,1,0.696,1,0.0,1,1,1
1ztbhfxllii1xhq9f1v62x26,3,1,3a,82,9,1,go,GW,151,V,bacs1,1,1,0.8220000000000001,1,1.0,0,1,1
1ztbhfxllii1xhq9f1v62x26,3,1,3a,86,10,1,go,GW,151,V,bacs1,1,1,0.9940000000000001,1,0.0,1,1,1
1ztbhfxllii1xhq9f1v62x26,3,2,3b,209,1,1,go,GW,154,Y,bacs1,1,0,,0,0.0,0,0,1
1ztbhfxllii1xhq9f1v62x26,3,2,3b,216,2,1,go,GW,154,Y,bacs1,1,1,0.958,1,0.0,1,1,1
1ztbhfxllii1xhq9f1v62x26,3,2,3b,217,3,1,go,GW,154,Y,bacs1,1,1,0.604,1,1.0,0,1,1
1ztbhfxllii1xhq9f1v62x26,3,2,3b,223,4,1,go,GW,154,Y,bacs1,1,1,1.253,1,0.0,1,1,1
1ztbhfxllii1xhq9f1v62x26,3,2,3b,226,5,1,go,GW,154,Y,bacs1,1,1,0.7020000000000001,1,0.0,1,1,1
1ztbhfxllii1xhq9f1v62x26,3,2,3b,230,6,1,go,GW,154,Y,bacs1,1,1,0.7879999999999999,1,1.0,0,1,1
1ztbhfxllii1xhq9f1v62x26,3,2,3b,233,7,1,go,GW,154,Y,bacs1,1,0,,0,1.0,1,0,1
1ztbhfxllii1xhq9f1v62x26,3,2,3b,240,8,1,go,GW,154,Y,bacs1,1,0,,0,1.0,1,1,1
1ztbhfxllii1xhq9f1v62x26,3,1,3a,92,1,0,go,GAL,155,Z,bacs1,1,1,1.25,1,0.0,1,1,0
1ztbhfxllii1xhq9f1v62x26,3,1,3a,93,2,0,go,GAL,155,Z,bacs1,1,0,,0,0.0,0,0,0
1ztbhfxllii1xhq9f1v62x26,3,1,3a,98,3,0,go,GAL,155,Z,bacs1,1,0,,0,0.0,0,0,0
1ztbhfxllii1xhq9f1v62x26,3,1,3a,104,4,0,go,GAL,155,Z,bacs1,1,1,0.703,1,0.0,1,1,0
1ztbhfxllii1xhq9f1v62x26,3,1,3a,105,5,0,go,GAL,155,Z,bacs1,1,1,0.5710000000000001,1,0.0,1,1,0
1ztbhfxllii1xhq9f1v62x26,3,1,3a,109,6,0,go,GAL,155,Z,bacs1,1,1,1.023,1,0.0,1,1,0
1ztbhfxllii1xhq9f1v62x26,3,1,3a,114,7,0,go,GAL,155,Z,bacs1,1,1,0.763,1,1.0,0,1,0
1ztbhfxllii1xhq9f1v62x26,3,1,3a,117,8,0,go,GAL,155,Z,bacs1,1,1,0.8190000000000001,1,0.0,1,1,0
2b5obc6ufsggq6sv58asdi6i,3,1,3b,75,1,0,no-go,NGAL,156,A,bacs1,0,0,,1,0.0,1,0,1
2b5obc6ufsggq6sv58asdi6i,3,1,3b,78,2,0,no-go,NGAL,156,A,bacs1,0,0,,1,1.0,0,0,1
2b5obc6ufsggq6sv58asdi6i,3,1,3b,82,3,0,no-go,NGAL,156,A,bacs1,0,0,,1,0.0,1,0,1
2b5obc6ufsggq6sv58asdi6i,3,1,3b,88,4,0,no-go,NGAL,156,A,bacs1,0,0,,1,1.0,0,0,1
2b5obc6ufsggq6sv58asdi6i,3,1,3b,92,5,0,no-go,NGAL,156,A,bacs1,0,1,0.664,0,0.0,0,1,1
2b5obc6ufsggq6sv58asdi6i,3,1,3b,94,6,0,no-go,NGAL,156,A,bacs1,0,1,0.69,0,0.0,0,1,1
2b5obc6ufsggq6sv58asdi6i,3,1,3b,98,7,0,no-go,NGAL,156,A,bacs1,0,0,,1,1.0,0,0,1
2b5obc6ufsggq6sv58asdi6i,3,1,3b,101,8,0,no-go,NGAL,156,A,bacs1,0,1,0.61,0,0.0,0,1,1
2b5obc6ufsggq6sv58asdi6i,3,1,3b,105,9,0,no-go,NGAL,156,A,bacs1,0,1,0.774,0,0.0,0,1,1
2b5obc6ufsggq6sv58asdi6i,3,1,3b,110,10,0,no-go,NGAL,156,A,bacs1,0,1,0.958,0,0.0,0,1,1
2b5obc6ufsggq6sv58asdi6i,3,1,3b,116,11,0,no-go,NGAL,156,A,bacs1,0,1,0.695,0,0.0,0,1,1
2b5obc6ufsggq6sv58asdi6i,3,1,3b,120,12,0,no-go,NGAL,156,A,bacs1,0,0,,1,1.0,0,0,1
2b5obc6ufsggq6sv58asdi6i,3,1,3b,4,1,1,no-go,NGW,157,B,bacs1,0,1,0.8370000000000001,0,0.0,0,1,0
2b5obc6ufsggq6sv58asdi6i,3,1,3b,8,2,1,no-go,NGW,157,B,bacs1,0,0,,1,1.0,0,0,0
2b5obc6ufsggq6sv58asdi6i,3,1,3b,9,3,1,no-go,NGW,157,B,bacs1,0,1,0.674,0,0.0,0,1,0
2b5obc6ufsggq6sv58asdi6i,3,1,3b,15,4,1,no-go,NGW,157,B,bacs1,0,1,0.428,0,0.0,0,1,0
2b5obc6ufsggq6sv58asdi6i,3,1,3b,17,5,1,no-go,NGW,157,B,bacs1,0,1,0.703,0,0.0,0,1,0
2b5obc6ufsggq6sv58asdi6i,3,1,3b,23,6,1,no-go,NGW,157,B,bacs1,0,1,0.7559999999999999,0,0.0,0,1,0
