subject,block,trial,exposure,valence,action,robot,rune,correct,choice,rt,accuracy,sham,outcome,total_keys
0fzu43pctwr7mmapsd9pbw3x,1,1,1,lose,no-go,NGAL,I,0,0,,1,0.0,-1,0
0fzu43pctwr7mmapsd9pbw3x,1,2,1,win,no-go,NGW,U,0,1,0.633,0,1.0,+10,1
0fzu43pctwr7mmapsd9pbw3x,1,3,1,win,go,GW,F,1,1,1.08,1,1.0,+1,1
0fzu43pctwr7mmapsd9pbw3x,1,4,1,win,go,GW,P,1,1,0.978,1,0.0,+10,1
0fzu43pctwr7mmapsd9pbw3x,1,5,2,win,no-go,NGW,U,0,1,0.833,0,0.0,+1,1
0fzu43pctwr7mmapsd9pbw3x,1,6,2,win,go,GW,P,1,1,0.658,1,1.0,+1,1
0fzu43pctwr7mmapsd9pbw3x,1,7,2,lose,no-go,NGAL,I,0,1,0.952,0,1.0,-1,1
0fzu43pctwr7mmapsd9pbw3x,1,8,2,win,go,GW,F,1,1,0.833,1,0.0,+10,1
0fzu43pctwr7mmapsd9pbw3x,1,9,3,win,no-go,NGW,U,0,0,,1,0.0,+10,0
0fzu43pctwr7mmapsd9pbw3x,1,10,3,win,go,GW,P,1,1,0.847,1,0.0,+10,1
0fzu43pctwr7mmapsd9pbw3x,1,11,3,win,go,GW,F,1,1,0.882,1,1.0,+1,1
0fzu43pctwr7mmapsd9pbw3x,1,12,3,lose,no-go,NGAL,I,0,1,0.954,0,0.0,-10,1
0fzu43pctwr7mmapsd9pbw3x,1,13,4,win,go,GW,P,1,1,1.105,1,0.0,+10,1
0fzu43pctwr7mmapsd9pbw3x,1,14,4,lose,no-go,NGAL,I,0,0,,1,1.0,-10,0
0fzu43pctwr7mmapsd9pbw3x,1,15,4,win,go,GW,F,1,1,0.791,1,0.0,+10,1
0fzu43pctwr7mmapsd9pbw3x,1,16,4,win,no-go,NGW,U,0,1,0.608,0,0.0,+1,1
0fzu43pctwr7mmapsd9pbw3x,1,17,5,win,go,GW,P,1,1,0.641,1,0.0,+10,1
0fzu43pctwr7mmapsd9pbw3x,1,18,5,lose,no-go,NGAL,I,0,0,,1,0.0,-1,0
0fzu43pctwr7mmapsd9pbw3x,1,19,5,win,no-go,NGW,U,0,1,0.677,0,0.0,+1,1
0fzu43pctwr7mmapsd9pbw3x,1,20,5,win,go,GW,F,1,0,,0,0.0,+1,0
0fzu43pctwr7mmapsd9pbw3x,1,21,6,win,go,GW,P,1,1,0.382,1,0.0,+10,1
0fzu43pctwr7mmapsd9pbw3x,1,22,6,win,no-go,NGW,U,0,0,,1,1.0,+1,0
0fzu43pctwr7mmapsd9pbw3x,1,23,6,lose,no-go,NGAL,I,0,0,,1,1.0,-10,0
0fzu43pctwr7mmapsd9pbw3x,1,24,6,win,go,GW,F,1,0,,0,1.0,+10,0
0fzu43pctwr7mmapsd9pbw3x,1,25,7,win,no-go,NGW,U,0,1,0.447,0,0.0,+1,1
0fzu43pctwr7mmapsd9pbw3x,1,26,7,win,go,GW,F,1,1,0.576,1,0.0,+10,1
0fzu43pctwr7mmapsd9pbw3x,1,27,7,win,go,GW,P,1,1,0.657,1,1.0,+1,1
0fzu43pctwr7mmapsd9pbw3x,1,28,7,lose,no-go,NGAL,I,0,1,1.169,0,0.0,-10,1
0fzu43pctwr7mmapsd9pbw3x,1,29,8,win,go,GW,P,1,1,0.4,1,0.0,+10,1
0fzu43pctwr7mmapsd9pbw3x,1,30,8,lose,no-go,NGAL,I,0,0,,1,0.0,-1,0
0fzu43pctwr7mmapsd9pbw3x,1,31,8,win,go,GW,F,1,1,0.829,1,0.0,+10,1
0fzu43pctwr7mmapsd9pbw3x,1,32,8,win,no-go,NGW,U,0,1,0.673,0,0.0,+1,1
0fzu43pctwr7mmapsd9pbw3x,1,33,1,win,go,GW,J,1,1,0.842,1,0.0,+10,1
0fzu43pctwr7mmapsd9pbw3x,1,34,9,lose,no-go,NGAL,I,0,1,0.833,0,0.0,-10,1
0fzu43pctwr7mmapsd9pbw3x,1,35,9,win,no-go,NGW,U,0,1,1.25,0,0.0,+1,1
0fzu43pctwr7mmapsd9pbw3x,1,36,9,win,go,GW,P,1,1,0.498,1,0.0,+10,1
0fzu43pctwr7mmapsd9pbw3x,1,37,10,win,no-go,NGW,U,0,0,,1,0.0,+10,0
0fzu43pctwr7mmapsd9pbw3x,1,38,2,win,go,GW,J,1,1,0.629,1,0.0,+10,1
0fzu43pctwr7mmapsd9pbw3x,1,39,10,win,go,GW,P,1,1,0.69,1,0.0,+10,1
0fzu43pctwr7mmapsd9pbw3x,1,40,10,lose,no-go,NGAL,I,0,0,,1,0.0,-1,0
0fzu43pctwr7mmapsd9pbw3x,1,41,3,win,go,GW,J,1,1,0.719,1,0.0,+10,1
0fzu43pctwr7mmapsd9pbw3x,1,42,1,lose,go,GAL,S,1,1,0.697,1,0.0,-1,1
0fzu43pctwr7mmapsd9pbw3x,1,43,1,lose,no-go,NGAL,H,0,1,1.258,0,0.0,-10,1
0fzu43pctwr7mmapsd9pbw3x,1,44,11,win,no-go,NGW,U,0,1,0.88,0,0.0,+1,1
0fzu43pctwr7mmapsd9pbw3x,1,45,2,lose,go,GAL,S,1,1,0.729,1,0.0,-1,1
0fzu43pctwr7mmapsd9pbw3x,1,46,12,win,no-go,NGW,U,0,0,,1,0.0,+10,0
0fzu43pctwr7mmapsd9pbw3x,1,47,4,win,go,GW,J,1,1,0.806,1,1.0,+1,1
0fzu43pctwr7mmapsd9pbw3x,1,48,2,lose,no-go,NGAL,H,0,0,,1,0.0,-1,0
0fzu43pctwr7mmapsd9pbw3x,1,49,5,win,go,GW,J,1,0,,0,0.0,+1,0
0fzu43pctwr7mmapsd9pbw3x,1,50,3,lose,no-go,NGAL,H,0,0,,1,0.0,-1,1
0fzu43pctwr7mmapsd9pbw3x,1,51,3,lose,go,GAL,S,1,0,,0,0.0,-10,0
0fzu43pctwr7mmapsd9pbw3x,1,52,1,win,no-go,NGW,Q,0,1,0.606,0,0.0,+1,1
0fzu43pctwr7mmapsd9pbw3x,1,53,2,win,no-go,NGW,Q,0,0,,1,0.0,+10,0
0fzu43pctwr7mmapsd9pbw3x,1,54,6,win,go,GW,J,1,1,0.919,1,0.0,+10,1
0fzu43pctwr7mmapsd9pbw3x,1,55,4,lose,go,GAL,S,1,1,1.183,1,0.0,-1,1
0fzu43pctwr7mmapsd9pbw3x,1,56,4,lose,no-go,NGAL,H,0,0,,1,0.0,-1,1
0fzu43pctwr7mmapsd9pbw3x,1,57,7,win,go,GW,J,1,1,1.046,1,0.0,+10,1
0fzu43pctwr7mmapsd9pbw3x,1,58,5,lose,go,GAL,S,1,1,1.258,1,0.0,-1,1
0fzu43pctwr7mmapsd9pbw3x,1,59,5,lose,no-go,NGAL,H,0,0,,1,0.0,-1,1
0fzu43pctwr7mmapsd9pbw3x,1,60,3,win,no-go,NGW,Q,0,0,,1,1.0,+1,0
0fzu43pctwr7mmapsd9pbw3x,1,61,6,lose,no-go,NGAL,H,0,1,1.154,0,0.0,-10,1
0fzu43pctwr7mmapsd9pbw3x,1,62,8,win,go,GW,J,1,1,1.29,1,1.0,+1,1
0fzu43pctwr7mmapsd9pbw3x,1,63,6,lose,go,GAL,S,1,0,,0,0.0,-10,0
0fzu43pctwr7mmapsd9pbw3x,1,64,4,win,no-go,NGW,Q,0,0,,1,0.0,+10,0
0fzu43pctwr7mmapsd9pbw3x,1,65,7,lose,go,GAL,S,1,1,0.388,1,0.0,-1,1
0fzu43pctwr7mmapsd9pbw3x,1,66,5,win,no-go,NGW,Q,0,0,,1,1.0,+1,0
0fzu43pctwr7mmapsd9pbw3x,1,67,9,win,go,GW,J,1,0,,0,0.0,+1,0
0fzu43pctwr7mmapsd9pbw3x,1,68,7,lose,no-go,NGAL,H,0,1,1.059,0,1.0,-1,1
0fzu43pctwr7mmapsd9pbw3x,1,69,6,win,no-go,NGW,Q,0,1,0.922,0,0.0,+1,1
0fzu43pctwr7mmapsd9pbw3x,1,70,8,lose,no-go,NGAL,H,0,1,1.017,0,0.0,-10,1
0fzu43pctwr7mmapsd9pbw3x,1,71,10,win,go,GW,J,1,1,1.034,1,0.0,+10,1
0fzu43pctwr7mmapsd9pbw3x,1,72,8,lose,go,GAL,S,1,1,0.624,1,0.0,-1,1
0fzu43pctwr7mmapsd9pbw3x,1,73,1,lose,go,GAL,G,1,1,0.946,1,0.0,-1,1
0fzu43pctwr7mmapsd9pbw3x,1,74,11,win,go,GW,J,1,1,1.081,1,0.0,+10,1
0fzu43pctwr7mmapsd9pbw3x,1,75,7,win,no-go,NGW,Q,0,1,0.602,0,0.0,+1,1
0fzu43pctwr7mmapsd9pbw3x,1,76,9,lose,no-go,NGAL,H,0,1,0.657,0,0.0,-10,1
0fzu43pctwr7mmapsd9pbw3x,1,77,8,win,no-go,NGW,Q,0,1,0.696,0,1.0,+10,1
0fzu43pctwr7mmapsd9pbw3x,1,78,10,lose,no-go,NGAL,H,0,1,0.706,0,0.0,-10,1
0fzu43pctwr7mmapsd9pbw3x,1,79,12,win,go,GW,J,1,1,0.56,1,0.0,+10,1
0fzu43pctwr7mmapsd9pbw3x,1,80,2,lose,go,GAL,G,1,1,1.234,1,0.0,-1,1
0fzu43pctwr7mmapsd9pbw3x,1,81,1,lose,go,GAL,L,1,1,0.673,1,0.0,-1,1
0fzu43pctwr7mmapsd9pbw3x,1,82,11,lose,no-go,NGAL,H,0,1,0.657,0,0.0,-10,1
0fzu43pctwr7mmapsd9pbw3x,1,83,9,win,no-go,NGW,Q,0,1,0.818,0,0.0,+1,1
0fzu43pctwr7mmapsd9pbw3x,1,84,3,lose,go,GAL,G,1,0,,0,0.0,-10,0
0fzu43pctwr7mmapsd9pbw3x,1,85,4,lose,go,GAL,G,1,1,1.296,1,0.0,-1,1
0fzu43pctwr7mmapsd9pbw3x,1,86,2,lose,go,GAL,L,1,1,0.489,1,1.0,-10,1
0fzu43pctwr7mmapsd9pbw3x,1,87,12,lose,no-go,NGAL,H,0,1,0.505,0,0.0,-10,1
0fzu43pctwr7mmapsd9pbw3x,1,88,10,win,no-go,NGW,Q,0,1,0.594,0,0.0,+1,1
0fzu43pctwr7mmapsd9pbw3x,1,89,1,win,no-go,NGW,V,0,1,0.729,0,0.0,+1,1
0fzu43pctwr7mmapsd9pbw3x,1,90,5,lose,go,GAL,G,1,1,0.649,1,1.0,-10,1
0fzu43pctwr7mmapsd9pbw3x,1,91,3,lose,go,GAL,L,1,1,0.737,1,0.0,-1,1
0fzu43pctwr7mmapsd9pbw3x,1,92,1,lose,no-go,NGAL,C,0,0,,1,1.0,-10,0
0fzu43pctwr7mmapsd9pbw3x,1,93,4,lose,go,GAL,L,1,0,,0,0.0,-10,1
0fzu43pctwr7mmapsd9pbw3x,1,94,2,lose,no-go,NGAL,C,0,1,0.468,0,1.0,-1,1
0fzu43pctwr7mmapsd9pbw3x,1,95,6,lose,go,GAL,G,1,0,,0,0.0,-10,0
0fzu43pctwr7mmapsd9pbw3x,1,96,2,win,no-go,NGW,V,0,1,0.543,0,0.0,+1,1
0fzu43pctwr7mmapsd9pbw3x,1,97,5,lose,go,GAL,L,1,1,0.505,1,0.0,-1,1
0fzu43pctwr7mmapsd9pbw3x,1,98,3,win,no-go,NGW,V,0,1,0.601,0,0.0,+1,1
0fzu43pctwr7mmapsd9pbw3x,1,99,3,lose,no-go,NGAL,C,0,1,0.584,0,0.0,-10,1
0fzu43pctwr7mmapsd9pbw3x,1,100,7,lose,go,GAL,G,1,1,0.426,1,0.0,-1,1
0fzu43pctwr7mmapsd9pbw3x,1,101,4,lose,no-go,NGAL,C,0,1,0.944,0,0.0,-10,1
0fzu43pctwr7mmapsd9pbw3x,1,102,6,lose,go,GAL,L,1,1,1.298,1,0.0,-1,1
0fzu43pctwr7mmapsd9pbw3x,1,103,4,win,no-go,NGW,V,0,0,,1,0.0,+10,0
0fzu43pctwr7mmapsd9pbw3x,1,104,8,lose,go,GAL,G,1,0,,0,0.0,-10,0
0fzu43pctwr7mmapsd9pbw3x,1,105,7,lose,go,GAL,L,1,1,1.155,1,1.0,-10,1
0fzu43pctwr7mmapsd9pbw3x,1,106,5,lose,no-go,NGAL,C,0,1,1.25,0,0.0,-10,1
0fzu43pctwr7mmapsd9pbw3x,1,107,5,win,no-go,NGW,V,0,0,,1,0.0,+10,0
0fzu43pctwr7mmapsd9pbw3x,1,108,9,lose,go,GAL,G,1,1,1.182,1,0.0,-1,1
0fzu43pctwr7mmapsd9pbw3x,1,109,10,lose,go,GAL,G,1,1,0.488,1,0.0,-1,1
0fzu43pctwr7mmapsd9pbw3x,1,110,6,win,no-go,NGW,V,0,0,,1,1.0,+1,0
0fzu43pctwr7mmapsd9pbw3x,1,111,6,lose,no-go,NGAL,C,0,1,0.686,0,1.0,-1,1
0fzu43pctwr7mmapsd9pbw3x,1,112,8,lose,go,GAL,L,1,1,0.586,1,1.0,-10,1
0fzu43pctwr7mmapsd9pbw3x,1,113,7,lose,no-go,NGAL,C,0,1,0.505,0,1.0,-1,1
0fzu43pctwr7mmapsd9pbw3x,1,114,11,lose,go,GAL,G,1,1,0.497,1,1.0,-10,1
0fzu43pctwr7mmapsd9pbw3x,1,115,7,win,no-go,NGW,V,0,1,0.553,0,0.0,+1,1
0fzu43pctwr7mmapsd9pbw3x,1,116,9,lose,go,GAL,L,1,0,,0,0.0,-10,1
0fzu43pctwr7mmapsd9pbw3x,1,117,10,lose,go,GAL,L,1,1,0.574,1,0.0,-1,1
0fzu43pctwr7mmapsd9pbw3x,1,118,8,win,no-go,NGW,V,0,0,,1,0.0,+10,0
0fzu43pctwr7mmapsd9pbw3x,1,119,8,lose,no-go,NGAL,C,0,1,0.855,0,0.0,-10,1
0fzu43pctwr7mmapsd9pbw3x,1,120,12,lose,go,GAL,G,1,1,1.016,1,0.0,-1,1
0fzu43pctwr7mmapsd9pbw3x,2,121,1,lose,no-go,NGAL,M,0,1,1.019,0,0.0,-10,1
0fzu43pctwr7mmapsd9pbw3x,2,122,1,lose,no-go,NGAL,X,0,1,0.873,0,0.0,-10,1
0fzu43pctwr7mmapsd9pbw3x,2,123,1,win,no-go,NGW,Y,0,1,0.77,0,0.0,+1,1
0fzu43pctwr7mmapsd9pbw3x,2,124,1,win,go,GW,W,1,0,,0,0.0,+1,1
0fzu43pctwr7mmapsd9pbw3x,2,125,2,win,no-go,NGW,Y,0,0,,1,1.0,+1,0
0fzu43pctwr7mmapsd9pbw3x,2,126,2,lose,no-go,NGAL,M,0,0,,1,1.0,-10,0
0fzu43pctwr7mmapsd9pbw3x,2,127,2,win,go,GW,W,1,0,,0,0.0,+1,0
0fzu43pctwr7mmapsd9pbw3x,2,128,2,lose,no-go,NGAL,X,0,0,,1,0.0,-1,0
0fzu43pctwr7mmapsd9pbw3x,2,129,3,win,no-go,NGW,Y,0,0,,1,1.0,+1,0
0fzu43pctwr7mmapsd9pbw3x,2,130,3,lose,no-go,NGAL,X,0,1,0.76,0,0.0,-10,1
0fzu43pctwr7mmapsd9pbw3x,2,131,3,lose,no-go,NGAL,M,0,1,0.505,0,0.0,-10,1
0fzu43pctwr7mmapsd9pbw3x,2,132,3,win,go,GW,W,1,1,0.705,1,0.0,+10,1
0fzu43pctwr7mmapsd9pbw3x,2,133,4,lose,no-go,NGAL,X,0,1,0.513,0,0.0,-10,1
0fzu43pctwr7mmapsd9pbw3x,2,134,4,win,no-go,NGW,Y,0,1,0.472,0,1.0,+10,1
0fzu43pctwr7mmapsd9pbw3x,2,135,4,win,go,GW,W,1,1,0.537,1,1.0,+1,1
0fzu43pctwr7mmapsd9pbw3x,2,136,4,lose,no-go,NGAL,M,0,0,,1,0.0,-1,0
0fzu43pctwr7mmapsd9pbw3x,2,137,5,lose,no-go,NGAL,M,0,1,0.559,0,0.0,-10,1
0fzu43pctwr7mmapsd9pbw3x,2,138,5,win,no-go,NGW,Y,0,1,0.608,0,0.0,+1,1
0fzu43pctwr7mmapsd9pbw3x,2,139,5,lose,no-go,NGAL,X,0,0,,1,0.0,-1,0
0fzu43pctwr7mmapsd9pbw3x,2,140,5,win,go,GW,W,1,0,,0,0.0,+1,0
0fzu43pctwr7mmapsd9pbw3x,2,141,6,lose,no-go,NGAL,M,0,0,,1,0.0,-1,0
0fzu43pctwr7mmapsd9pbw3x,2,142,6,win,no-go,NGW,Y,0,1,0.849,0,0.0,+1,1
0fzu43pctwr7mmapsd9pbw3x,2,143,6,win,go,GW,W,1,0,,0,0.0,+1,0
0fzu43pctwr7mmapsd9pbw3x,2,144,6,lose,no-go,NGAL,X,0,1,0.863,0,0.0,-10,1
0fzu43pctwr7mmapsd9pbw3x,2,145,7,lose,no-go,NGAL,M,0,0,,1,0.0,-1,0
0fzu43pctwr7mmapsd9pbw3x,2,146,7,lose,no-go,NGAL,X,0,1,0.536,0,1.0,-1,1
0fzu43pctwr7mmapsd9pbw3x,2,147,7,win,go,GW,W,1,1,0.601,1,0.0,+10,1
0fzu43pctwr7mmapsd9pbw3x,2,148,7,win,no-go,NGW,Y,0,0,,1,0.0,+10,0
0fzu43pctwr7mmapsd9pbw3x,2,149,8,win,no-go,NGW,Y,0,0,,1,0.0,+10,0
0fzu43pctwr7mmapsd9pbw3x,2,150,8,win,go,GW,W,1,0,,0,0.0,+1,0
0fzu43pctwr7mmapsd9pbw3x,2,151,8,lose,no-go,NGAL,X,0,1,1.005,0,0.0,-10,1
0fzu43pctwr7mmapsd9pbw3x,2,152,8,lose,no-go,NGAL,M,0,0,,1,0.0,-1,0
0fzu43pctwr7mmapsd9pbw3x,2,153,9,lose,no-go,NGAL,M,0,0,,1,0.0,-1,0
0fzu43pctwr7mmapsd9pbw3x,2,154,9,win,go,GW,W,1,1,0.458,1,0.0,+10,1
0fzu43pctwr7mmapsd9pbw3x,2,155,1,lose,go,GAL,T,1,1,0.698,1,0.0,-1,1
0fzu43pctwr7mmapsd9pbw3x,2,156,9,win,no-go,NGW,Y,0,0,,1,1.0,+1,0
0fzu43pctwr7mmapsd9pbw3x,2,157,10,win,go,GW,W,1,1,0.431,1,0.0,+10,1
0fzu43pctwr7mmapsd9pbw3x,2,158,10,win,no-go,NGW,Y,0,1,0.641,0,0.0,+1,1
0fzu43pctwr7mmapsd9pbw3x,2,159,10,lose,no-go,NGAL,M,0,0,,1,0.0,-1,0
0fzu43pctwr7mmapsd9pbw3x,2,160,2,lose,go,GAL,T,1,1,0.559,1,0.0,-1,1
0fzu43pctwr7mmapsd9pbw3x,2,161,3,lose,go,GAL,T,1,1,0.577,1,1.0,-10,1
0fzu43pctwr7mmapsd9pbw3x,2,162,11,lose,no-go,NGAL,M,0,0,,1,1.0,-10,0
0fzu43pctwr7mmapsd9pbw3x,2,163,1,win,go,GW,B,1,1,0.71,1,0.0,+10,1
0fzu43pctwr7mmapsd9pbw3x,2,164,1,win,no-go,NGW,E,0,1,0.665,0,0.0,+1,1
0fzu43pctwr7mmapsd9pbw3x,2,165,2,win,go,GW,B,1,1,0.529,1,0.0,+10,1
0fzu43pctwr7mmapsd9pbw3x,2,166,12,lose,no-go,NGAL,M,0,0,,1,0.0,-1,0
0fzu43pctwr7mmapsd9pbw3x,2,167,2,win,no-go,NGW,E,0,0,,1,0.0,+10,0
0fzu43pctwr7mmapsd9pbw3x,2,168,4,lose,go,GAL,T,1,1,0.652,1,0.0,-1,1
0fzu43pctwr7mmapsd9pbw3x,2,169,5,lose,go,GAL,T,1,1,0.658,1,1.0,-10,1
0fzu43pctwr7mmapsd9pbw3x,2,170,1,lose,no-go,NGAL,R,0,1,0.568,0,1.0,-1,1
0fzu43pctwr7mmapsd9pbw3x,2,171,3,win,no-go,NGW,E,0,1,0.826,0,0.0,+1,1
0fzu43pctwr7mmapsd9pbw3x,2,172,3,win,go,GW,B,1,1,0.489,1,1.0,+1,1
0fzu43pctwr7mmapsd9pbw3x,2,173,4,win,no-go,NGW,E,0,1,0.937,0,0.0,+1,1
0fzu43pctwr7mmapsd9pbw3x,2,174,6,lose,go,GAL,T,1,1,0.81,1,0.0,-1,1
0fzu43pctwr7mmapsd9pbw3x,2,175,4,win,go,GW,B,1,1,0.457,1,0.0,+10,1
0fzu43pctwr7mmapsd9pbw3x,2,176,2,lose,no-go,NGAL,R,0,0,,1,0.0,-1,1
0fzu43pctwr7mmapsd9pbw3x,2,177,3,lose,no-go,NGAL,R,0,1,0.709,0,0.0,-10,1
0fzu43pctwr7mmapsd9pbw3x,2,178,7,lose,go,GAL,T,1,1,0.842,1,0.0,-1,1
0fzu43pctwr7mmapsd9pbw3x,2,179,5,win,go,GW,B,1,1,0.561,1,0.0,+10,1
0fzu43pctwr7mmapsd9pbw3x,2,180,5,win,no-go,NGW,E,0,1,0.562,0,0.0,+1,1
0fzu43pctwr7mmapsd9pbw3x,2,181,8,lose,go,GAL,T,1,1,0.537,1,1.0,-10,1
0fzu43pctwr7mmapsd9pbw3x,2,182,6,win,no-go,NGW,E,0,0,,1,1.0,+1,0
0fzu43pctwr7mmapsd9pbw3x,2,183,6,win,go,GW,B,1,1,0.534,1,1.0,+1,1
0fzu43pctwr7mmapsd9pbw3x,2,184,4,lose,no-go,NGAL,R,0,0,,1,1.0,-10,0
0fzu43pctwr7mmapsd9pbw3x,2,185,9,lose,go,GAL,T,1,1,0.639,1,0.0,-1,1
0fzu43pctwr7mmapsd9pbw3x,2,186,7,win,go,GW,B,1,1,0.576,1,0.0,+10,1
0fzu43pctwr7mmapsd9pbw3x,2,187,7,win,no-go,NGW,E,0,1,0.833,0,0.0,+1,1
0fzu43pctwr7mmapsd9pbw3x,2,188,5,lose,no-go,NGAL,R,0,0,,1,0.0,-1,0
0fzu43pctwr7mmapsd9pbw3x,2,189,8,win,no-go,NGW,E,0,0,,1,0.0,+10,0
0fzu43pctwr7mmapsd9pbw3x,2,190,10,lose,go,GAL,T,1,1,0.675,1,0.0,-1,1
0fzu43pctwr7mmapsd9pbw3x,2,191,6,lose,no-go,NGAL,R,0,0,,1,0.0,-1,0
0fzu43pctwr7mmapsd9pbw3x,2,192,8,win,go,GW,B,1,1,0.567,1,0.0,+10,1
0fzu43pctwr7mmapsd9pbw3x,2,193,7,lose,no-go,NGAL,R,0,0,,1,0.0,-1,0
0fzu43pctwr7mmapsd9pbw3x,2,194,1,win,go,GW,N,1,1,0.83,1,0.0,+10,1
0fzu43pctwr7mmapsd9pbw3x,2,195,9,win,no-go,NGW,E,0,0,,1,0.0,+10,0
0fzu43pctwr7mmapsd9pbw3x,2,196,1,lose,go,GAL,Z,1,1,1.008,1,0.0,-1,1
0fzu43pctwr7mmapsd9pbw3x,2,197,2,win,go,GW,N,1,1,1.088,1,0.0,+10,1
0fzu43pctwr7mmapsd9pbw3x,2,198,10,win,no-go,NGW,E,0,0,,1,0.0,+10,0
0fzu43pctwr7mmapsd9pbw3x,2,199,8,lose,no-go,NGAL,R,0,0,,1,0.0,-1,0
0fzu43pctwr7mmapsd9pbw3x,2,200,2,lose,go,GAL,Z,1,1,1.162,1,0.0,-1,1
0fzu43pctwr7mmapsd9pbw3x,2,201,3,lose,go,GAL,Z,1,1,0.625,1,0.0,-1,1
0fzu43pctwr7mmapsd9pbw3x,2,202,9,lose,no-go,NGAL,R,0,0,,1,0.0,-1,0
0fzu43pctwr7mmapsd9pbw3x,2,203,11,win,no-go,NGW,E,0,0,,1,0.0,+10,0
0fzu43pctwr7mmapsd9pbw3x,2,204,3,win,go,GW,N,1,1,0.883,1,0.0,+10,1
0fzu43pctwr7mmapsd9pbw3x,2,205,10,lose,no-go,NGAL,R,0,0,,1,0.0,-1,0
0fzu43pctwr7mmapsd9pbw3x,2,206,4,win,go,GW,N,1,1,0.909,1,0.0,+10,1
0fzu43pctwr7mmapsd9pbw3x,2,207,12,win,no-go,NGW,E,0,0,,1,0.0,+10,0
0fzu43pctwr7mmapsd9pbw3x,2,208,4,lose,go,GAL,Z,1,0,,0,0.0,-10,0
0fzu43pctwr7mmapsd9pbw3x,2,209,1,lose,go,GAL,D,1,1,0.811,1,0.0,-1,1
0fzu43pctwr7mmapsd9pbw3x,2,210,1,win,no-go,NGW,K,0,1,0.855,0,0.0,+1,1
0fzu43pctwr7mmapsd9pbw3x,2,211,5,lose,go,GAL,Z,1,1,0.914,1,0.0,-1,1
0fzu43pctwr7mmapsd9pbw3x,2,212,5,win,go,GW,N,1,1,0.618,1,0.0,+10,1
0fzu43pctwr7mmapsd9pbw3x,2,213,6,win,go,GW,N,1,1,0.409,1,0.0,+10,1
0fzu43pctwr7mmapsd9pbw3x,2,214,6,lose,go,GAL,Z,1,1,0.889,1,1.0,-10,1
0fzu43pctwr7mmapsd9pbw3x,2,215,2,win,no-go,NGW,K,0,0,,1,0.0,+10,0
0fzu43pctwr7mmapsd9pbw3x,2,216,2,lose,go,GAL,D,1,1,0.517,1,1.0,-10,1
0fzu43pctwr7mmapsd9pbw3x,2,217,3,win,no-go,NGW,K,0,0,,1,1.0,+1,0
0fzu43pctwr7mmapsd9pbw3x,2,218,7,lose,go,GAL,Z,1,1,0.583,1,0.0,-1,1
0fzu43pctwr7mmapsd9pbw3x,2,219,7,win,go,GW,N,1,1,0.417,1,0.0,+10,1
0fzu43pctwr7mmapsd9pbw3x,2,220,3,lose,go,GAL,D,1,1,0.889,1,1.0,-10,1
0fzu43pctwr7mmapsd9pbw3x,2,221,8,lose,go,GAL,Z,1,1,0.592,1,0.0,-1,1
0fzu43pctwr7mmapsd9pbw3x,2,222,4,lose,go,GAL,D,1,1,0.401,1,0.0,-1,1
0fzu43pctwr7mmapsd9pbw3x,2,223,4,win,no-go,NGW,K,0,0,,1,0.0,+10,0
0fzu43pctwr7mmapsd9pbw3x,2,224,8,win,go,GW,N,1,1,0.854,1,1.0,+1,1
0fzu43pctwr7mmapsd9pbw3x,2,225,5,lose,go,GAL,D,1,1,0.635,1,0.0,-1,1
0fzu43pctwr7mmapsd9pbw3x,2,226,9,win,go,GW,N,1,1,0.464,1,0.0,+10,1
0fzu43pctwr7mmapsd9pbw3x,2,227,9,lose,go,GAL,Z,1,1,0.512,1,0.0,-1,1
0fzu43pctwr7mmapsd9pbw3x,2,228,5,win,no-go,NGW,K,0,0,,1,0.0,+10,0
0fzu43pctwr7mmapsd9pbw3x,2,229,6,lose,go,GAL,D,1,1,0.654,1,0.0,-1,1
0fzu43pctwr7mmapsd9pbw3x,2,230,10,win,go,GW,N,1,1,0.713,1,0.0,+10,1
0fzu43pctwr7mmapsd9pbw3x,2,231,6,win,no-go,NGW,K,0,0,,1,0.0,+10,0
0fzu43pctwr7mmapsd9pbw3x,2,232,10,lose,go,GAL,Z,1,1,0.718,1,0.0,-1,1
0fzu43pctwr7mmapsd9pbw3x,2,233,7,win,no-go,NGW,K,0,0,,1,0.0,+10,0
0fzu43pctwr7mmapsd9pbw3x,2,234,7,lose,go,GAL,D,1,1,0.861,1,0.0,-1,1
0fzu43pctwr7mmapsd9pbw3x,2,235,11,win,go,GW,N,1,1,0.816,1,0.0,+10,1
0fzu43pctwr7mmapsd9pbw3x,2,236,11,lose,go,GAL,Z,1,1,0.777,1,0.0,-1,1
0fzu43pctwr7mmapsd9pbw3x,2,237,8,lose,go,GAL,D,1,1,0.682,1,0.0,-1,1
0fzu43pctwr7mmapsd9pbw3x,2,238,12,lose,go,GAL,Z,1,1,0.769,1,1.0,-10,1
0fzu43pctwr7mmapsd9pbw3x,2,239,8,win,no-go,NGW,K,0,0,,1,0.0,+10,0
0fzu43pctwr7mmapsd9pbw3x,2,240,12,win,go,GW,N,1,1,0.887,1,0.0,+10,1
0obh87gmu74vw7kvzovmjdcy,1,1,1,lose,no-go,NGAL,L,0,1,1.093,0,0.0,-10,1
0obh87gmu74vw7kvzovmjdcy,1,2,1,lose,no-go,NGAL,Z,0,1,0.969,0,0.0,-10,1
0obh87gmu74vw7kvzovmjdcy,1,3,1,win,go,GW,T,1,0,,0,0.0,+1,0
0obh87gmu74vw7kvzovmjdcy,1,4,1,win,no-go,NGW,K,0,0,,1,0.0,+10,0
0obh87gmu74vw7kvzovmjdcy,1,5,2,lose,no-go,NGAL,L,0,1,0.844,0,0.0,-10,1
0obh87gmu74vw7kvzovmjdcy,1,6,2,lose,no-go,NGAL,Z,0,1,1.002,0,1.0,-1,1
0obh87gmu74vw7kvzovmjdcy,1,7,2,win,no-go,NGW,K,0,0,,1,0.0,+10,0
0obh87gmu74vw7kvzovmjdcy,1,8,2,win,go,GW,T,1,0,,0,0.0,+1,0
0obh87gmu74vw7kvzovmjdcy,1,9,3,win,go,GW,T,1,0,,0,0.0,+1,0
0obh87gmu74vw7kvzovmjdcy,1,10,3,win,no-go,NGW,K,0,0,,1,0.0,+10,0
0obh87gmu74vw7kvzovmjdcy,1,11,3,lose,no-go,NGAL,Z,0,1,0.311,0,1.0,-1,1
0obh87gmu74vw7kvzovmjdcy,1,12,3,lose,no-go,NGAL,L,0,1,0.538,0,1.0,-1,1
0obh87gmu74vw7kvzovmjdcy,1,13,4,lose,no-go,NGAL,L,0,1,0.321,0,0.0,-10,1
0obh87gmu74vw7kvzovmjdcy,1,14,4,lose,no-go,NGAL,Z,0,1,0.33,0,1.0,-1,1
0obh87gmu74vw7kvzovmjdcy,1,15,4,win,no-go,NGW,K,0,0,,1,0.0,+10,0
0obh87gmu74vw7kvzovmjdcy,1,16,4,win,go,GW,T,1,0,,0,0.0,+1,0
0obh87gmu74vw7kvzovmjdcy,1,17,5,lose,no-go,NGAL,Z,0,1,0.372,0,0.0,-10,1
0obh87gmu74vw7kvzovmjdcy,1,18,5,win,go,GW,T,1,0,,0,0.0,+1,0
0obh87gmu74vw7kvzovmjdcy,1,19,5,lose,no-go,NGAL,L,0,1,0.311,0,0.0,-10,1
0obh87gmu74vw7kvzovmjdcy,1,20,5,win,no-go,NGW,K,0,0,,1,0.0,+10,0
0obh87gmu74vw7kvzovmjdcy,1,21,6,lose,no-go,NGAL,L,0,1,0.243,0,1.0,-1,1
0obh87gmu74vw7kvzovmjdcy,1,22,6,win,go,GW,T,1,0,,0,0.0,+1,0
0obh87gmu74vw7kvzovmjdcy,1,23,6,win,no-go,NGW,K,0,0,,1,0.0,+10,0
0obh87gmu74vw7kvzovmjdcy,1,24,6,lose,no-go,NGAL,Z,0,1,0.251,0,1.0,-1,1
0obh87gmu74vw7kvzovmjdcy,1,25,7,lose,no-go,NGAL,L,0,1,0.656,0,1.0,-1,1
0obh87gmu74vw7kvzovmjdcy,1,26,7,win,go,GW,T,1,0,,0,0.0,+1,0
0obh87gmu74vw7kvzovmjdcy,1,27,7,win,no-go,NGW,K,0,0,,1,0.0,+10,0
0obh87gmu74vw7kvzovmjdcy,1,28,7,lose,no-go,NGAL,Z,0,1,0.437,0,0.0,-10,1
0obh87gmu74vw7kvzovmjdcy,1,29,8,win,go,GW,T,1,0,,0,0.0,+1,0
0obh87gmu74vw7kvzovmjdcy,1,30,8,win,no-go,NGW,K,0,1,0.519,0,1.0,+10,1
0obh87gmu74vw7kvzovmjdcy,1,31,8,lose,no-go,NGAL,L,0,1,0.676,0,1.0,-1,1
0obh87gmu74vw7kvzovmjdcy,1,32,8,lose,no-go,NGAL,Z,0,1,0.797,0,0.0,-10,1
0obh87gmu74vw7kvzovmjdcy,1,33,1,lose,go,GAL,Q,1,1,0.431,1,0.0,-1,1
0obh87gmu74vw7kvzovmjdcy,1,34,9,win,go,GW,T,1,0,,0,0.0,+1,0
0obh87gmu74vw7kvzovmjdcy,1,35,9,lose,no-go,NGAL,Z,0,1,0.379,0,0.0,-10,1
0obh87gmu74vw7kvzovmjdcy,1,36,9,win,no-go,NGW,K,0,0,,1,1.0,+1,0
0obh87gmu74vw7kvzovmjdcy,1,37,10,win,go,GW,T,1,0,,0,0.0,+1,0
0obh87gmu74vw7kvzovmjdcy,1,38,10,lose,no-go,NGAL,Z,0,1,0.352,0,0.0,-10,1
0obh87gmu74vw7kvzovmjdcy,1,39,10,win,no-go,NGW,K,0,0,,1,0.0,+10,0
0obh87gmu74vw7kvzovmjdcy,1,40,2,lose,go,GAL,Q,1,1,0.482,1,1.0,-10,1
0obh87gmu74vw7kvzovmjdcy,1,41,11,lose,no-go,NGAL,Z,0,1,0.849,0,0.0,-10,1
0obh87gmu74vw7kvzovmjdcy,1,42,3,lose,go,GAL,Q,1,1,0.382,1,0.0,-1,1
0obh87gmu74vw7kvzovmjdcy,1,43,1,win,no-go,NGW,E,0,0,,1,0.0,+10,0
0obh87gmu74vw7kvzovmjdcy,1,44,1,win,go,GW,W,1,0,,0,0.0,+1,0
0obh87gmu74vw7kvzovmjdcy,1,45,2,win,go,GW,W,1,0,,0,0.0,+1,0
0obh87gmu74vw7kvzovmjdcy,1,46,2,win,no-go,NGW,E,0,0,,1,1.0,+1,0
0obh87gmu74vw7kvzovmjdcy,1,47,12,lose,no-go,NGAL,Z,0,1,0.349,0,1.0,-1,1
0obh87gmu74vw7kvzovmjdcy,1,48,4,lose,go,GAL,Q,1,1,0.418,1,0.0,-1,1
0obh87gmu74vw7kvzovmjdcy,1,49,3,win,go,GW,W,1,0,,0,0.0,+1,0
0obh87gmu74vw7kvzovmjdcy,1,50,3,win,no-go,NGW,E,0,0,,1,0.0,+10,0
0obh87gmu74vw7kvzovmjdcy,1,51,5,lose,go,GAL,Q,1,1,0.744,1,1.0,-10,1
0obh87gmu74vw7kvzovmjdcy,1,52,1,lose,no-go,NGAL,J,0,1,0.574,0,1.0,-1,1
0obh87gmu74vw7kvzovmjdcy,1,53,4,win,no-go,NGW,E,0,0,,1,0.0,+10,0
0obh87gmu74vw7kvzovmjdcy,1,54,4,win,go,GW,W,1,0,,0,0.0,+1,0
0obh87gmu74vw7kvzovmjdcy,1,55,6,lose,go,GAL,Q,1,1,0.221,1,0.0,-1,1
0obh87gmu74vw7kvzovmjdcy,1,56,2,lose,no-go,NGAL,J,0,1,0.785,0,1.0,-1,1
0obh87gmu74vw7kvzovmjdcy,1,57,3,lose,no-go,NGAL,J,0,1,0.38,0,0.0,-10,1
0obh87gmu74vw7kvzovmjdcy,1,58,5,win,no-go,NGW,E,0,0,,1,0.0,+10,0
0obh87gmu74vw7kvzovmjdcy,1,59,7,lose,go,GAL,Q,1,1,0.213,1,1.0,-10,1
0obh87gmu74vw7kvzovmjdcy,1,60,5,win,go,GW,W,1,0,,0,0.0,+1,0
0obh87gmu74vw7kvzovmjdcy,1,61,6,win,go,GW,W,1,0,,0,1.0,+10,0
0obh87gmu74vw7kvzovmjdcy,1,62,8,lose,go,GAL,Q,1,1,0.457,1,0.0,-1,1
0obh87gmu74vw7kvzovmjdcy,1,63,6,win,no-go,NGW,E,0,0,,1,0.0,+10,0
0obh87gmu74vw7kvzovmjdcy,1,64,4,lose,no-go,NGAL,J,0,1,0.506,0,0.0,-10,1
0obh87gmu74vw7kvzovmjdcy,1,65,7,win,go,GW,W,1,0,,0,1.0,+10,0
0obh87gmu74vw7kvzovmjdcy,1,66,7,win,no-go,NGW,E,0,0,,1,0.0,+10,0
0obh87gmu74vw7kvzovmjdcy,1,67,9,lose,go,GAL,Q,1,1,0.373,1,0.0,-1,1
0obh87gmu74vw7kvzovmjdcy,1,68,5,lose,no-go,NGAL,J,0,1,0.782,0,0.0,-10,1
0obh87gmu74vw7kvzovmjdcy,1,69,8,win,no-go,NGW,E,0,0,,1,0.0,+10,0
0obh87gmu74vw7kvzovmjdcy,1,70,6,lose,no-go,NGAL,J,0,1,0.307,0,0.0,-10,1
0obh87gmu74vw7kvzovmjdcy,1,71,10,lose,go,GAL,Q,1,1,0.266,1,0.0,-1,1
0obh87gmu74vw7kvzovmjdcy,1,72,8,win,go,GW,W,1,0,,0,0.0,+1,0
0obh87gmu74vw7kvzovmjdcy,1,73,1,lose,go,GAL,X,1,1,0.323,1,0.0,-1,1
0obh87gmu74vw7kvzovmjdcy,1,74,7,lose,no-go,NGAL,J,0,1,0.268,0,1.0,-1,1
0obh87gmu74vw7kvzovmjdcy,1,75,1,win,go,GW,V,1,0,,0,0.0,+1,0
0obh87gmu74vw7kvzovmjdcy,1,76,9,win,no-go,NGW,E,0,0,,1,0.0,+10,0
0obh87gmu74vw7kvzovmjdcy,1,77,2,win,go,GW,V,1,0,,0,0.0,+1,0
0obh87gmu74vw7kvzovmjdcy,1,78,2,lose,go,GAL,X,1,1,0.181,1,0.0,-1,1
0obh87gmu74vw7kvzovmjdcy,1,79,10,win,no-go,NGW,E,0,0,,1,0.0,+10,0
0obh87gmu74vw7kvzovmjdcy,1,80,8,lose,no-go,NGAL,J,0,1,0.327,0,0.0,-10,1
0obh87gmu74vw7kvzovmjdcy,1,81,11,win,no-go,NGW,E,0,0,,1,0.0,+10,0
0obh87gmu74vw7kvzovmjdcy,1,82,3,win,go,GW,V,1,0,,0,0.0,+1,0
0obh87gmu74vw7kvzovmjdcy,1,83,9,lose,no-go,NGAL,J,0,1,0.208,0,0.0,-10,1
0obh87gmu74vw7kvzovmjdcy,1,84,3,lose,go,GAL,X,1,1,0.574,1,1.0,-10,1
0obh87gmu74vw7kvzovmjdcy,1,85,12,win,no-go,NGW,E,0,0,,1,0.0,+10,0
0obh87gmu74vw7kvzovmjdcy,1,86,10,lose,no-go,NGAL,J,0,0,,1,1.0,-10,0
0obh87gmu74vw7kvzovmjdcy,1,87,4,lose,go,GAL,X,1,0,,0,1.0,-1,0
0obh87gmu74vw7kvzovmjdcy,1,88,4,win,go,GW,V,1,0,,0,0.0,+1,0
0obh87gmu74vw7kvzovmjdcy,1,89,5,win,go,GW,V,1,0,,0,0.0,+1,0
0obh87gmu74vw7kvzovmjdcy,1,90,5,lose,go,GAL,X,1,0,,0,0.0,-10,0
0obh87gmu74vw7kvzovmjdcy,1,91,1,win,no-go,NGW,U,0,0,,1,1.0,+1,0
0obh87gmu74vw7kvzovmjdcy,1,92,1,lose,go,GAL,M,1,0,,0,1.0,-1,0
0obh87gmu74vw7kvzovmjdcy,1,93,6,lose,go,GAL,X,1,0,,0,1.0,-1,0
0obh87gmu74vw7kvzovmjdcy,1,94,2,lose,go,GAL,M,1,0,,0,0.0,-10,0
0obh87gmu74vw7kvzovmjdcy,1,95,6,win,go,GW,V,1,0,,0,0.0,+1,0
0obh87gmu74vw7kvzovmjdcy,1,96,2,win,no-go,NGW,U,0,0,,1,0.0,+10,0
0obh87gmu74vw7kvzovmjdcy,1,97,3,win,no-go,NGW,U,0,0,,1,0.0,+10,0
0obh87gmu74vw7kvzovmjdcy,1,98,7,win,go,GW,V,1,0,,0,0.0,+1,0
0obh87gmu74vw7kvzovmjdcy,1,99,7,lose,go,GAL,X,1,0,,0,0.0,-10,0
0obh87gmu74vw7kvzovmjdcy,1,100,3,lose,go,GAL,M,1,0,,0,0.0,-10,0
0obh87gmu74vw7kvzovmjdcy,1,101,8,lose,go,GAL,X,1,0,,0,1.0,-1,0
0obh87gmu74vw7kvzovmjdcy,1,102,8,win,go,GW,V,1,0,,0,0.0,+1,0
0obh87gmu74vw7kvzovmjdcy,1,103,4,lose,go,GAL,M,1,0,,0,0.0,-10,0
0obh87gmu74vw7kvzovmjdcy,1,104,4,win,no-go,NGW,U,0,0,,1,0.0,+10,0
0obh87gmu74vw7kvzovmjdcy,1,105,9,win,go,GW,V,1,0,,0,0.0,+1,0
0obh87gmu74vw7kvzovmjdcy,1,106,5,win,no-go,NGW,U,0,0,,1,0.0,+10,0
0obh87gmu74vw7kvzovmjdcy,1,107,9,lose,go,GAL,X,1,0,,0,0.0,-10,0
0obh87gmu74vw7kvzovmjdcy,1,108,5,lose,go,GAL,M,1,0,,0,0.0,-10,0
0obh87gmu74vw7kvzovmjdcy,1,109,10,lose,go,GAL,X,1,0,,0,0.0,-10,0
0obh87gmu74vw7kvzovmjdcy,1,110,6,lose,go,GAL,M,1,0,,0,0.0,-10,0
0obh87gmu74vw7kvzovmjdcy,1,111,10,win,go,GW,V,1,0,,0,0.0,+1,0
0obh87gmu74vw7kvzovmjdcy,1,112,6,win,no-go,NGW,U,0,0,,1,0.0,+10,0
0obh87gmu74vw7kvzovmjdcy,1,113,7,lose,go,GAL,M,1,0,,0,0.0,-10,0
0obh87gmu74vw7kvzovmjdcy,1,114,11,win,go,GW,V,1,0,,0,0.0,+1,0
0obh87gmu74vw7kvzovmjdcy,1,115,7,win,no-go,NGW,U,0,0,,1,0.0,+10,0
0obh87gmu74vw7kvzovmjdcy,1,116,11,lose,go,GAL,X,1,0,,0,1.0,-1,0
0obh87gmu74vw7kvzovmjdcy,1,117,12,lose,go,GAL,X,1,0,,0,0.0,-10,0
0obh87gmu74vw7kvzovmjdcy,1,118,8,lose,go,GAL,M,1,0,,0,0.0,-10,0
0obh87gmu74vw7kvzovmjdcy,1,119,8,win,no-go,NGW,U,0,0,,1,0.0,+10,0
0obh87gmu74vw7kvzovmjdcy,1,120,12,win,go,GW,V,1,0,,0,0.0,+1,0
0obh87gmu74vw7kvzovmjdcy,2,121,1,win,go,GW,Y,1,0,,0,0.0,+1,0
0obh87gmu74vw7kvzovmjdcy,2,122,1,win,go,GW,B,1,0,,0,0.0,+1,0
0obh87gmu74vw7kvzovmjdcy,2,123,1,lose,no-go,NGAL,D,0,1,0.369,0,0.0,-10,1
0obh87gmu74vw7kvzovmjdcy,2,124,1,win,no-go,NGW,N,0,0,,1,1.0,+1,0
0obh87gmu74vw7kvzovmjdcy,2,125,2,win,go,GW,Y,1,0,,0,1.0,+10,0
0obh87gmu74vw7kvzovmjdcy,2,126,2,lose,no-go,NGAL,D,0,1,0.257,0,0.0,-10,1
0obh87gmu74vw7kvzovmjdcy,2,127,2,win,go,GW,B,1,0,,0,0.0,+1,0
0obh87gmu74vw7kvzovmjdcy,2,128,2,win,no-go,NGW,N,0,0,,1,0.0,+10,0
0obh87gmu74vw7kvzovmjdcy,2,129,3,win,go,GW,B,1,0,,0,0.0,+1,0
0obh87gmu74vw7kvzovmjdcy,2,130,3,win,no-go,NGW,N,0,0,,1,0.0,+10,0
0obh87gmu74vw7kvzovmjdcy,2,131,3,lose,no-go,NGAL,D,0,1,0.449,0,1.0,-1,1
0obh87gmu74vw7kvzovmjdcy,2,132,3,win,go,GW,Y,1,0,,0,0.0,+1,0
0obh87gmu74vw7kvzovmjdcy,2,133,4,win,go,GW,B,1,0,,0,0.0,+1,0
0obh87gmu74vw7kvzovmjdcy,2,134,4,win,go,GW,Y,1,0,,0,0.0,+1,0
0obh87gmu74vw7kvzovmjdcy,2,135,4,win,no-go,NGW,N,0,0,,1,0.0,+10,0
0obh87gmu74vw7kvzovmjdcy,2,136,4,lose,no-go,NGAL,D,0,1,0.395,0,1.0,-1,1
0obh87gmu74vw7kvzovmjdcy,2,137,5,win,go,GW,B,1,0,,0,0.0,+1,0
0obh87gmu74vw7kvzovmjdcy,2,138,5,win,no-go,NGW,N,0,0,,1,0.0,+10,0
0obh87gmu74vw7kvzovmjdcy,2,139,5,lose,no-go,NGAL,D,0,1,0.586,0,0.0,-10,1
0obh87gmu74vw7kvzovmjdcy,2,140,5,win,go,GW,Y,1,0,,0,1.0,+10,0
0obh87gmu74vw7kvzovmjdcy,2,141,6,win,go,GW,B,1,0,,0,1.0,+10,0
0obh87gmu74vw7kvzovmjdcy,2,142,6,lose,no-go,NGAL,D,0,1,0.373,0,0.0,-10,1
0obh87gmu74vw7kvzovmjdcy,2,143,6,win,no-go,NGW,N,0,0,,1,0.0,+10,0
0obh87gmu74vw7kvzovmjdcy,2,144,6,win,go,GW,Y,1,0,,0,1.0,+10,0
0obh87gmu74vw7kvzovmjdcy,2,145,7,win,no-go,NGW,N,0,0,,1,0.0,+10,0
0obh87gmu74vw7kvzovmjdcy,2,146,7,win,go,GW,Y,1,0,,0,0.0,+1,0
0obh87gmu74vw7kvzovmjdcy,2,147,7,lose,no-go,NGAL,D,0,1,0.373,0,0.0,-10,1
0obh87gmu74vw7kvzovmjdcy,2,148,7,win,go,GW,B,1,0,,0,0.0,+1,0
0obh87gmu74vw7kvzovmjdcy,2,149,8,lose,no-go,NGAL,D,0,1,0.161,0,0.0,-10,1
0obh87gmu74vw7kvzovmjdcy,2,150,8,win,no-go,NGW,N,0,0,,1,1.0,+1,0
0obh87gmu74vw7kvzovmjdcy,2,151,8,win,go,GW,Y,1,0,,0,0.0,+1,0
0obh87gmu74vw7kvzovmjdcy,2,152,8,win,go,GW,B,1,0,,0,0.0,+1,0
0obh87gmu74vw7kvzovmjdcy,2,153,9,win,go,GW,B,1,0,,0,0.0,+1,0
0obh87gmu74vw7kvzovmjdcy,2,154,1,win,go,GW,R,1,0,,0,0.0,+1,0
0obh87gmu74vw7kvzovmjdcy,2,155,9,win,no-go,NGW,N,0,0,,1,0.0,+10,0
0obh87gmu74vw7kvzovmjdcy,2,156,9,lose,no-go,NGAL,D,0,1,0.432,0,0.0,-10,1
0obh87gmu74vw7kvzovmjdcy,2,157,10,win,go,GW,B,1,0,,0,0.0,+1,0
0obh87gmu74vw7kvzovmjdcy,2,158,10,win,no-go,NGW,N,0,0,,1,1.0,+1,0
0obh87gmu74vw7kvzovmjdcy,2,159,2,win,go,GW,R,1,0,,0,0.0,+1,0
0obh87gmu74vw7kvzovmjdcy,2,160,10,lose,no-go,NGAL,D,0,1,0.545,0,0.0,-10,1
0obh87gmu74vw7kvzovmjdcy,2,161,3,win,go,GW,R,1,0,,0,0.0,+1,0
0obh87gmu74vw7kvzovmjdcy,2,162,11,win,no-go,NGW,N,0,0,,1,0.0,+10,0
0obh87gmu74vw7kvzovmjdcy,2,163,1,lose,no-go,NGAL,G,0,1,0.308,0,0.0,-10,1
0obh87gmu74vw7kvzovmjdcy,2,164,1,lose,go,GAL,H,1,1,0.388,1,0.0,-1,1
0obh87gmu74vw7kvzovmjdcy,2,165,2,lose,no-go,NGAL,G,0,1,0.486,0,0.0,-10,1
0obh87gmu74vw7kvzovmjdcy,2,166,4,win,go,GW,R,1,0,,0,0.0,+1,0
0obh87gmu74vw7kvzovmjdcy,2,167,2,lose,go,GAL,H,1,1,0.321,1,0.0,-1,1
0obh87gmu74vw7kvzovmjdcy,2,168,12,win,no-go,NGW,N,0,0,,1,0.0,+10,0
0obh87gmu74vw7kvzovmjdcy,2,169,3,lose,no-go,NGAL,G,0,1,0.27,0,0.0,-10,1
0obh87gmu74vw7kvzovmjdcy,2,170,5,win,go,GW,R,1,0,,0,0.0,+1,0
0obh87gmu74vw7kvzovmjdcy,2,171,3,lose,go,GAL,H,1,1,0.285,1,0.0,-1,1
0obh87gmu74vw7kvzovmjdcy,2,172,1,win,no-go,NGW,P,0,0,,1,0.0,+10,0
0obh87gmu74vw7kvzovmjdcy,2,173,4,lose,go,GAL,H,1,1,0.744,1,0.0,-1,1
0obh87gmu74vw7kvzovmjdcy,2,174,4,lose,no-go,NGAL,G,0,1,0.336,0,0.0,-10,1
0obh87gmu74vw7kvzovmjdcy,2,175,2,win,no-go,NGW,P,0,0,,1,1.0,+1,0
0obh87gmu74vw7kvzovmjdcy,2,176,6,win,go,GW,R,1,0,,0,1.0,+10,0
0obh87gmu74vw7kvzovmjdcy,2,177,5,lose,no-go,NGAL,G,0,1,0.403,0,1.0,-1,1
0obh87gmu74vw7kvzovmjdcy,2,178,5,lose,go,GAL,H,1,1,0.343,1,0.0,-1,1
0obh87gmu74vw7kvzovmjdcy,2,179,7,win,go,GW,R,1,0,,0,0.0,+1,0
0obh87gmu74vw7kvzovmjdcy,2,180,3,win,no-go,NGW,P,0,0,,1,1.0,+1,0
0obh87gmu74vw7kvzovmjdcy,2,181,6,lose,go,GAL,H,1,0,,0,0.0,-10,0
0obh87gmu74vw7kvzovmjdcy,2,182,8,win,go,GW,R,1,0,,0,0.0,+1,1
0obh87gmu74vw7kvzovmjdcy,2,183,4,win,no-go,NGW,P,0,0,,1,0.0,+10,0
0obh87gmu74vw7kvzovmjdcy,2,184,6,lose,no-go,NGAL,G,0,1,0.358,0,0.0,-10,1
0obh87gmu74vw7kvzovmjdcy,2,185,7,lose,go,GAL,H,1,1,0.518,1,0.0,-1,1
0obh87gmu74vw7kvzovmjdcy,2,186,5,win,no-go,NGW,P,0,0,,1,1.0,+1,1
0obh87gmu74vw7kvzovmjdcy,2,187,7,lose,no-go,NGAL,G,0,1,0.418,0,0.0,-10,1
0obh87gmu74vw7kvzovmjdcy,2,188,9,win,go,GW,R,1,0,,0,0.0,+1,0
0obh87gmu74vw7kvzovmjdcy,2,189,8,lose,go,GAL,H,1,1,1.162,1,1.0,-10,1
0obh87gmu74vw7kvzovmjdcy,2,190,6,win,no-go,NGW,P,0,0,,1,0.0,+10,0
0obh87gmu74vw7kvzovmjdcy,2,191,8,lose,no-go,NGAL,G,0,1,0.504,0,0.0,-10,1
0obh87gmu74vw7kvzovmjdcy,2,192,10,win,go,GW,R,1,0,,0,0.0,+1,0
0obh87gmu74vw7kvzovmjdcy,2,193,9,lose,no-go,NGAL,G,0,1,0.358,0,0.0,-10,1
0obh87gmu74vw7kvzovmjdcy,2,194,11,win,go,GW,R,1,0,,0,0.0,+1,0
0obh87gmu74vw7kvzovmjdcy,2,195,7,win,no-go,NGW,P,0,0,,1,0.0,+10,0
0obh87gmu74vw7kvzovmjdcy,2,196,1,lose,go,GAL,C,1,1,0.278,1,0.0,-1,1
0obh87gmu74vw7kvzovmjdcy,2,197,8,win,no-go,NGW,P,0,0,,1,0.0,+10,0
0obh87gmu74vw7kvzovmjdcy,2,198,10,lose,no-go,NGAL,G,0,1,0.556,0,1.0,-1,1
0obh87gmu74vw7kvzovmjdcy,2,199,12,win,go,GW,R,1,0,,0,0.0,+1,0
0obh87gmu74vw7kvzovmjdcy,2,200,2,lose,go,GAL,C,1,0,,0,0.0,-10,1
0obh87gmu74vw7kvzovmjdcy,2,201,11,lose,no-go,NGAL,G,0,0,,1,0.0,-1,0
0obh87gmu74vw7kvzovmjdcy,2,202,9,win,no-go,NGW,P,0,0,,1,0.0,+10,1
0obh87gmu74vw7kvzovmjdcy,2,203,1,lose,go,GAL,I,1,1,0.104,1,0.0,-1,1
0obh87gmu74vw7kvzovmjdcy,2,204,3,lose,go,GAL,C,1,1,0.428,1,0.0,-1,1
0obh87gmu74vw7kvzovmjdcy,2,205,2,lose,go,GAL,I,1,1,0.262,1,1.0,-10,1
0obh87gmu74vw7kvzovmjdcy,2,206,12,lose,no-go,NGAL,G,0,1,0.272,0,0.0,-10,1
0obh87gmu74vw7kvzovmjdcy,2,207,10,win,no-go,NGW,P,0,0,,1,0.0,+10,0
0obh87gmu74vw7kvzovmjdcy,2,208,4,lose,go,GAL,C,1,1,0.24,1,0.0,-1,1
0obh87gmu74vw7kvzovmjdcy,2,209,1,win,no-go,NGW,F,0,0,,1,0.0,+10,0
0obh87gmu74vw7kvzovmjdcy,2,210,1,lose,no-go,NGAL,S,0,1,0.193,0,0.0,-10,1
0obh87gmu74vw7kvzovmjdcy,2,211,5,lose,go,GAL,C,1,1,0.302,1,1.0,-10,1
0obh87gmu74vw7kvzovmjdcy,2,212,3,lose,go,GAL,I,1,1,0.65,1,1.0,-10,1
0obh87gmu74vw7kvzovmjdcy,2,213,4,lose,go,GAL,I,1,1,0.306,1,0.0,-1,1
0obh87gmu74vw7kvzovmjdcy,2,214,6,lose,go,GAL,C,1,1,0.266,1,1.0,-10,1
0obh87gmu74vw7kvzovmjdcy,2,215,2,lose,no-go,NGAL,S,0,1,0.275,0,0.0,-10,1
0obh87gmu74vw7kvzovmjdcy,2,216,2,win,no-go,NGW,F,0,1,0.187,0,0.0,+1,1
0obh87gmu74vw7kvzovmjdcy,2,217,7,lose,go,GAL,C,1,1,0.473,1,1.0,-10,1
0obh87gmu74vw7kvzovmjdcy,2,218,3,win,no-go,NGW,F,0,0,,1,0.0,+10,0
0obh87gmu74vw7kvzovmjdcy,2,219,3,lose,no-go,NGAL,S,0,1,0.202,0,0.0,-10,1
0obh87gmu74vw7kvzovmjdcy,2,220,5,lose,go,GAL,I,1,1,0.222,1,0.0,-1,1
0obh87gmu74vw7kvzovmjdcy,2,221,4,lose,no-go,NGAL,S,0,1,0.611,0,0.0,-10,1
0obh87gmu74vw7kvzovmjdcy,2,222,4,win,no-go,NGW,F,0,1,0.132,0,0.0,+1,1
0obh87gmu74vw7kvzovmjdcy,2,223,6,lose,go,GAL,I,1,1,0.391,1,0.0,-1,1
0obh87gmu74vw7kvzovmjdcy,2,224,8,lose,go,GAL,C,1,1,0.557,1,0.0,-1,1
0obh87gmu74vw7kvzovmjdcy,2,225,7,lose,go,GAL,I,1,1,0.433,1,0.0,-1,1
0obh87gmu74vw7kvzovmjdcy,2,226,9,lose,go,GAL,C,1,1,0.232,1,0.0,-1,1
0obh87gmu74vw7kvzovmjdcy,2,227,5,lose,no-go,NGAL,S,0,1,0.458,0,1.0,-1,1
0obh87gmu74vw7kvzovmjdcy,2,228,5,win,no-go,NGW,F,0,0,,1,0.0,+10,0
0obh87gmu74vw7kvzovmjdcy,2,229,8,lose,go,GAL,I,1,1,0.214,1,0.0,-1,1
0obh87gmu74vw7kvzovmjdcy,2,230,6,win,no-go,NGW,F,0,0,,1,0.0,+10,0
0obh87gmu74vw7kvzovmjdcy,2,231,10,lose,go,GAL,C,1,1,0.199,1,0.0,-1,1
0obh87gmu74vw7kvzovmjdcy,2,232,6,lose,no-go,NGAL,S,0,1,0.314,0,0.0,-10,1
0obh87gmu74vw7kvzovmjdcy,2,233,7,lose,no-go,NGAL,S,0,1,0.265,0,0.0,-10,1
0obh87gmu74vw7kvzovmjdcy,2,234,9,lose,go,GAL,I,1,1,0.278,1,0.0,-1,1
0obh87gmu74vw7kvzovmjdcy,2,235,11,lose,go,GAL,C,1,1,0.237,1,1.0,-10,1
0obh87gmu74vw7kvzovmjdcy,2,236,7,win,no-go,NGW,F,0,0,,1,0.0,+10,0
0obh87gmu74vw7kvzovmjdcy,2,237,10,lose,go,GAL,I,1,1,0.226,1,1.0,-10,1
0obh87gmu74vw7kvzovmjdcy,2,238,12,lose,go,GAL,C,1,1,0.293,1,0.0,-1,1
0obh87gmu74vw7kvzovmjdcy,2,239,8,win,no-go,NGW,F,0,0,,1,0.0,+10,0
0obh87gmu74vw7kvzovmjdcy,2,240,8,lose,no-go,NGAL,S,0,1,0.245,0,1.0,-1,1
3e176pvunzaij3pmacb2ss9e,1,1,1,win,go,GW,X,1,0,,0,1.0,+10,1
3e176pvunzaij3pmacb2ss9e,1,2,1,win,no-go,NGW,G,0,1,0.589,0,0.0,+1,1
3e176pvunzaij3pmacb2ss9e,1,3,1,lose,no-go,NGAL,U,0,0,,1,0.0,-1,0
3e176pvunzaij3pmacb2ss9e,1,4,1,lose,no-go,NGAL,M,0,0,,1,0.0,-1,0
3e176pvunzaij3pmacb2ss9e,1,5,2,win,no-go,NGW,G,0,1,0.43,0,0.0,+1,1
3e176pvunzaij3pmacb2ss9e,1,6,2,lose,no-go,NGAL,U,0,1,0.872,0,0.0,-10,1
3e176pvunzaij3pmacb2ss9e,1,7,2,lose,no-go,NGAL,M,0,0,,1,0.0,-1,0
3e176pvunzaij3pmacb2ss9e,1,8,2,win,go,GW,X,1,1,0.405,1,0.0,+10,1
3e176pvunzaij3pmacb2ss9e,1,9,3,lose,no-go,NGAL,M,0,0,,1,0.0,-1,0
3e176pvunzaij3pmacb2ss9e,1,10,3,win,no-go,NGW,G,0,1,0.387,0,0.0,+1,1
3e176pvunzaij3pmacb2ss9e,1,11,3,lose,no-go,NGAL,U,0,0,,1,0.0,-1,0
3e176pvunzaij3pmacb2ss9e,1,12,3,win,go,GW,X,1,1,0.443,1,0.0,+10,1
3e176pvunzaij3pmacb2ss9e,1,13,4,win,no-go,NGW,G,0,1,0.36,0,1.0,+10,1
3e176pvunzaij3pmacb2ss9e,1,14,4,win,go,GW,X,1,1,0.415,1,0.0,+10,1
3e176pvunzaij3pmacb2ss9e,1,15,4,lose,no-go,NGAL,M,0,0,,1,0.0,-1,0
3e176pvunzaij3pmacb2ss9e,1,16,4,lose,no-go,NGAL,U,0,1,0.37,0,0.0,-10,1
3e176pvunzaij3pmacb2ss9e,1,17,5,win,go,GW,X,1,1,0.2,1,0.0,+10,1
3e176pvunzaij3pmacb2ss9e,1,18,5,lose,no-go,NGAL,U,0,0,,1,0.0,-1,0
3e176pvunzaij3pmacb2ss9e,1,19,5,lose,no-go,NGAL,M,0,0,,1,0.0,-1,0
3e176pvunzaij3pmacb2ss9e,1,20,5,win,no-go,NGW,G,0,1,0.281,0,0.0,+1,1
3e176pvunzaij3pmacb2ss9e,1,21,6,lose,no-go,NGAL,M,0,0,,1,0.0,-1,0
3e176pvunzaij3pmacb2ss9e,1,22,6,lose,no-go,NGAL,U,0,0,,1,0.0,-1,0
3e176pvunzaij3pmacb2ss9e,1,23,6,win,go,GW,X,1,1,0.383,1,0.0,+10,1
3e176pvunzaij3pmacb2ss9e,1,24,6,win,no-go,NGW,G,0,1,0.663,0,1.0,+10,1
3e176pvunzaij3pmacb2ss9e,1,25,7,lose,no-go,NGAL,U,0,0,,1,0.0,-1,0
3e176pvunzaij3pmacb2ss9e,1,26,7,win,go,GW,X,1,1,0.381,1,0.0,+10,1
3e176pvunzaij3pmacb2ss9e,1,27,7,win,no-go,NGW,G,0,1,0.423,0,0.0,+1,1
3e176pvunzaij3pmacb2ss9e,1,28,7,lose,no-go,NGAL,M,0,0,,1,1.0,-10,0
3e176pvunzaij3pmacb2ss9e,1,29,8,win,go,GW,X,1,1,0.253,1,0.0,+10,1
3e176pvunzaij3pmacb2ss9e,1,30,8,win,no-go,NGW,G,0,1,0.472,0,1.0,+10,1
3e176pvunzaij3pmacb2ss9e,1,31,8,lose,no-go,NGAL,U,0,0,,1,0.0,-1,0
3e176pvunzaij3pmacb2ss9e,1,32,8,lose,no-go,NGAL,M,0,1,0.205,0,0.0,-10,1
3e176pvunzaij3pmacb2ss9e,1,33,9,win,no-go,NGW,G,0,1,0.399,0,0.0,+1,1
3e176pvunzaij3pmacb2ss9e,1,34,1,lose,go,GAL,B,1,0,,0,0.0,-10,0
3e176pvunzaij3pmacb2ss9e,1,35,9,lose,no-go,NGAL,M,0,1,0.566,0,0.0,-10,1
3e176pvunzaij3pmacb2ss9e,1,36,9,win,go,GW,X,1,1,0.36,1,0.0,+10,1
3e176pvunzaij3pmacb2ss9e,1,37,10,win,no-go,NGW,G,0,1,0.356,0,1.0,+10,1
3e176pvunzaij3pmacb2ss9e,1,38,10,win,go,GW,X,1,1,0.365,1,1.0,+1,1
3e176pvunzaij3pmacb2ss9e,1,39,10,lose,no-go,NGAL,M,0,0,,1,0.0,-1,0
3e176pvunzaij3pmacb2ss9e,1,40,2,lose,go,GAL,B,1,0,,0,0.0,-10,0
3e176pvunzaij3pmacb2ss9e,1,41,3,lose,go,GAL,B,1,1,0.514,1,1.0,-10,1
3e176pvunzaij3pmacb2ss9e,1,42,1,win,go,GW,L,1,1,0.359,1,0.0,+10,1
3e176pvunzaij3pmacb2ss9e,1,43,1,win,no-go,NGW,J,0,1,0.457,0,0.0,+1,1
3e176pvunzaij3pmacb2ss9e,1,44,11,lose,no-go,NGAL,M,0,1,0.487,0,0.0,-10,2
3e176pvunzaij3pmacb2ss9e,1,45,12,lose,no-go,NGAL,M,0,1,0.25,0,0.0,-10,1
3e176pvunzaij3pmacb2ss9e,1,46,4,lose,go,GAL,B,1,0,,0,1.0,-1,0
3e176pvunzaij3pmacb2ss9e,1,47,2,win,no-go,NGW,J,0,1,0.171,0,0.0,+1,1
3e176pvunzaij3pmacb2ss9e,1,48,2,win,go,GW,L,1,1,0.785,1,0.0,+10,1
3e176pvunzaij3pmacb2ss9e,1,49,3,win,no-go,NGW,J,0,1,0.463,0,0.0,+1,1
3e176pvunzaij3pmacb2ss9e,1,50,5,lose,go,GAL,B,1,0,,0,1.0,-1,0
3e176pvunzaij3pmacb2ss9e,1,51,1,lose,no-go,NGAL,I,0,1,0.631,0,0.0,-10,2
3e176pvunzaij3pmacb2ss9e,1,52,3,win,go,GW,L,1,1,0.289,1,1.0,+1,1
3e176pvunzaij3pmacb2ss9e,1,53,2,lose,no-go,NGAL,I,0,1,0.297,0,0.0,-10,1
3e176pvunzaij3pmacb2ss9e,1,54,6,lose,go,GAL,B,1,0,,0,1.0,-1,0
3e176pvunzaij3pmacb2ss9e,1,55,4,win,no-go,NGW,J,0,1,0.215,0,0.0,+1,1
3e176pvunzaij3pmacb2ss9e,1,56,4,win,go,GW,L,1,1,0.367,1,0.0,+10,1
3e176pvunzaij3pmacb2ss9e,1,57,3,lose,no-go,NGAL,I,0,0,,1,1.0,-10,0
3e176pvunzaij3pmacb2ss9e,1,58,5,win,no-go,NGW,J,0,1,0.35,0,0.0,+1,1
3e176pvunzaij3pmacb2ss9e,1,59,5,win,go,GW,L,1,1,0.4,1,0.0,+10,1
3e176pvunzaij3pmacb2ss9e,1,60,7,lose,go,GAL,B,1,0,,0,1.0,-1,0
3e176pvunzaij3pmacb2ss9e,1,61,8,lose,go,GAL,B,1,0,,0,0.0,-10,0
3e176pvunzaij3pmacb2ss9e,1,62,6,win,go,GW,L,1,1,0.883,1,0.0,+10,2
3e176pvunzaij3pmacb2ss9e,1,63,6,win,no-go,NGW,J,0,1,0.401,0,0.0,+1,1
3e176pvunzaij3pmacb2ss9e,1,64,4,lose,no-go,NGAL,I,0,1,0.112,0,0.0,-10,1
3e176pvunzaij3pmacb2ss9e,1,65,7,win,go,GW,L,1,1,0.469,1,0.0,+10,1
3e176pvunzaij3pmacb2ss9e,1,66,7,win,no-go,NGW,J,0,1,0.345,0,0.0,+1,1
3e176pvunzaij3pmacb2ss9e,1,67,9,lose,go,GAL,B,1,0,,0,0.0,-10,0
3e176pvunzaij3pmacb2ss9e,1,68,5,lose,no-go,NGAL,I,0,0,,1,0.0,-1,0
3e176pvunzaij3pmacb2ss9e,1,69,10,lose,go,GAL,B,1,0,,0,0.0,-10,0
3e176pvunzaij3pmacb2ss9e,1,70,6,lose,no-go,NGAL,I,0,1,0.36,0,0.0,-10,1
3e176pvunzaij3pmacb2ss9e,1,71,8,win,no-go,NGW,J,0,1,0.351,0,1.0,+10,1
3e176pvunzaij3pmacb2ss9e,1,72,8,win,go,GW,L,1,1,0.402,1,0.0,+10,1
3e176pvunzaij3pmacb2ss9e,1,73,7,lose,no-go,NGAL,I,0,0,,1,0.0,-1,0
3e176pvunzaij3pmacb2ss9e,1,74,1,win,go,GW,Z,1,1,0.34,1,0.0,+10,1
3e176pvunzaij3pmacb2ss9e,1,75,9,win,no-go,NGW,J,0,1,0.345,0,1.0,+10,1
3e176pvunzaij3pmacb2ss9e,1,76,1,lose,go,GAL,F,1,1,0.28,1,0.0,-1,1
3e176pvunzaij3pmacb2ss9e,1,77,2,lose,go,GAL,F,1,1,0.68,1,0.0,-1,1
3e176pvunzaij3pmacb2ss9e,1,78,10,win,no-go,NGW,J,0,1,0.777,0,1.0,+10,2
3e176pvunzaij3pmacb2ss9e,1,79,8,lose,no-go,NGAL,I,0,0,,1,0.0,-1,0
3e176pvunzaij3pmacb2ss9e,1,80,2,win,go,GW,Z,1,1,0.317,1,0.0,+10,1
3e176pvunzaij3pmacb2ss9e,1,81,9,lose,no-go,NGAL,I,0,0,,1,0.0,-1,0
3e176pvunzaij3pmacb2ss9e,1,82,3,win,go,GW,Z,1,1,0.188,1,0.0,+10,1
3e176pvunzaij3pmacb2ss9e,1,83,3,lose,go,GAL,F,1,0,,0,0.0,-10,0
3e176pvunzaij3pmacb2ss9e,1,84,11,win,no-go,NGW,J,0,1,0.261,0,0.0,+1,1
3e176pvunzaij3pmacb2ss9e,1,85,4,win,go,GW,Z,1,1,0.259,1,0.0,+10,1
3e176pvunzaij3pmacb2ss9e,1,86,10,lose,no-go,NGAL,I,0,0,,1,0.0,-1,0
3e176pvunzaij3pmacb2ss9e,1,87,12,win,no-go,NGW,J,0,1,0.186,0,0.0,+1,1
3e176pvunzaij3pmacb2ss9e,1,88,4,lose,go,GAL,F,1,1,1.033,1,0.0,-1,1
3e176pvunzaij3pmacb2ss9e,1,89,1,lose,go,GAL,K,1,1,0.871,1,1.0,-10,1
3e176pvunzaij3pmacb2ss9e,1,90,5,win,go,GW,Z,1,1,0.281,1,1.0,+1,2
3e176pvunzaij3pmacb2ss9e,1,91,1,win,no-go,NGW,V,0,1,0.415,0,0.0,+1,1
3e176pvunzaij3pmacb2ss9e,1,92,5,lose,go,GAL,F,1,1,0.232,1,0.0,-1,1
3e176pvunzaij3pmacb2ss9e,1,93,2,win,no-go,NGW,V,0,1,0.392,0,0.0,+1,1
3e176pvunzaij3pmacb2ss9e,1,94,2,lose,go,GAL,K,1,1,0.753,1,1.0,-10,1
3e176pvunzaij3pmacb2ss9e,1,95,6,win,go,GW,Z,1,1,0.489,1,1.0,+1,1
3e176pvunzaij3pmacb2ss9e,1,96,6,lose,go,GAL,F,1,0,,0,0.0,-10,0
3e176pvunzaij3pmacb2ss9e,1,97,3,lose,go,GAL,K,1,1,0.775,1,0.0,-1,1
3e176pvunzaij3pmacb2ss9e,1,98,3,win,no-go,NGW,V,0,1,0.328,0,0.0,+1,1
3e176pvunzaij3pmacb2ss9e,1,99,7,win,go,GW,Z,1,1,0.288,1,0.0,+10,1
3e176pvunzaij3pmacb2ss9e,1,100,7,lose,go,GAL,F,1,0,,0,1.0,-1,0
3e176pvunzaij3pmacb2ss9e,1,101,4,win,no-go,NGW,V,0,1,0.374,0,0.0,+1,1
3e176pvunzaij3pmacb2ss9e,1,102,8,lose,go,GAL,F,1,0,,0,0.0,-10,0
3e176pvunzaij3pmacb2ss9e,1,103,4,lose,go,GAL,K,1,1,0.498,1,0.0,-1,1
3e176pvunzaij3pmacb2ss9e,1,104,8,win,go,GW,Z,1,1,0.385,1,0.0,+10,1
3e176pvunzaij3pmacb2ss9e,1,105,5,lose,go,GAL,K,1,0,,0,1.0,-1,0
3e176pvunzaij3pmacb2ss9e,1,106,5,win,no-go,NGW,V,0,1,0.316,0,0.0,+1,1
3e176pvunzaij3pmacb2ss9e,1,107,9,lose,go,GAL,F,1,0,,0,0.0,-10,0
3e176pvunzaij3pmacb2ss9e,1,108,9,win,go,GW,Z,1,1,0.287,1,0.0,+10,1
3e176pvunzaij3pmacb2ss9e,1,109,10,lose,go,GAL,F,1,0,,0,1.0,-1,0
3e176pvunzaij3pmacb2ss9e,1,110,10,win,go,GW,Z,1,1,0.412,1,0.0,+10,1
3e176pvunzaij3pmacb2ss9e,1,111,6,win,no-go,NGW,V,0,1,0.561,0,0.0,+1,1
3e176pvunzaij3pmacb2ss9e,1,112,6,lose,go,GAL,K,1,1,0.758,1,0.0,-1,1
3e176pvunzaij3pmacb2ss9e,1,113,11,lose,go,GAL,F,1,0,,0,0.0,-10,0
3e176pvunzaij3pmacb2ss9e,1,114,11,win,go,GW,Z,1,1,0.366,1,0.0,+10,1
3e176pvunzaij3pmacb2ss9e,1,115,7,lose,go,GAL,K,1,1,0.502,1,1.0,-10,1
3e176pvunzaij3pmacb2ss9e,1,116,7,win,no-go,NGW,V,0,1,0.135,0,1.0,+10,3
3e176pvunzaij3pmacb2ss9e,1,117,8,win,no-go,NGW,V,0,1,0.168,0,0.0,+1,3
3e176pvunzaij3pmacb2ss9e,1,118,12,lose,go,GAL,F,1,1,0.353,1,1.0,-10,4
3e176pvunzaij3pmacb2ss9e,1,119,12,win,go,GW,Z,1,1,0.144,1,1.0,+1,4
3e176pvunzaij3pmacb2ss9e,1,120,8,lose,go,GAL,K,1,1,0.105,1,1.0,-10,3
3e176pvunzaij3pmacb2ss9e,2,121,1,win,go,GW,Q,1,1,0.311,1,0.0,+10,2
3e176pvunzaij3pmacb2ss9e,2,122,1,win,go,GW,H,1,1,0.384,1,0.0,+10,2
3e176pvunzaij3pmacb2ss9e,2,123,1,win,no-go,NGW,W,0,1,0.144,0,0.0,+1,2
3e176pvunzaij3pmacb2ss9e,2,124,1,lose,no-go,NGAL,Y,0,0,,1,0.0,-1,2
3e176pvunzaij3pmacb2ss9e,2,125,2,win,go,GW,H,1,1,0.045,1,0.0,+10,1
3e176pvunzaij3pmacb2ss9e,2,126,2,win,go,GW,Q,1,1,0.081,1,0.0,+10,2
3e176pvunzaij3pmacb2ss9e,2,127,2,lose,no-go,NGAL,Y,0,1,0.026,0,0.0,-10,2
3e176pvunzaij3pmacb2ss9e,2,128,2,win,no-go,NGW,W,0,1,0.233,0,0.0,+1,2
3e176pvunzaij3pmacb2ss9e,2,129,3,lose,no-go,NGAL,Y,0,1,0.376,0,0.0,-10,1
3e176pvunzaij3pmacb2ss9e,2,130,3,win,go,GW,H,1,1,0.176,1,0.0,+10,2
3e176pvunzaij3pmacb2ss9e,2,131,3,win,go,GW,Q,1,1,0.317,1,0.0,+10,2
3e176pvunzaij3pmacb2ss9e,2,132,3,win,no-go,NGW,W,0,1,0.273,0,0.0,+1,3
3e176pvunzaij3pmacb2ss9e,2,133,4,win,go,GW,Q,1,1,0.266,1,0.0,+10,3
3e176pvunzaij3pmacb2ss9e,2,134,4,win,no-go,NGW,W,0,1,0.145,0,0.0,+1,2
3e176pvunzaij3pmacb2ss9e,2,135,4,win,go,GW,H,1,1,0.521,1,0.0,+10,1
3e176pvunzaij3pmacb2ss9e,2,136,4,lose,no-go,NGAL,Y,0,0,,1,0.0,-1,0
3e176pvunzaij3pmacb2ss9e,2,137,5,win,go,GW,H,1,1,0.356,1,0.0,+10,2
3e176pvunzaij3pmacb2ss9e,2,138,5,lose,no-go,NGAL,Y,0,0,,1,0.0,-1,0
3e176pvunzaij3pmacb2ss9e,2,139,5,win,no-go,NGW,W,0,1,0.294,0,0.0,+1,1
3e176pvunzaij3pmacb2ss9e,2,140,5,win,go,GW,Q,1,1,0.37,1,0.0,+10,3
3e176pvunzaij3pmacb2ss9e,2,141,6,win,no-go,NGW,W,0,1,0.305,0,0.0,+1,2
3e176pvunzaij3pmacb2ss9e,2,142,6,win,go,GW,H,1,1,0.473,1,0.0,+10,1
3e176pvunzaij3pmacb2ss9e,2,143,6,lose,no-go,NGAL,Y,0,1,0.449,0,0.0,-10,1
3e176pvunzaij3pmacb2ss9e,2,144,6,win,go,GW,Q,1,1,0.32,1,0.0,+10,1
3e176pvunzaij3pmacb2ss9e,2,145,7,win,go,GW,Q,1,1,0.385,1,0.0,+10,1
3e176pvunzaij3pmacb2ss9e,2,146,7,lose,no-go,NGAL,Y,0,0,,1,0.0,-1,0
3e176pvunzaij3pmacb2ss9e,2,147,7,win,no-go,NGW,W,0,1,0.326,0,0.0,+1,1
3e176pvunzaij3pmacb2ss9e,2,148,7,win,go,GW,H,1,1,0.393,1,0.0,+10,1
3e176pvunzaij3pmacb2ss9e,2,149,8,win,no-go,NGW,W,0,1,0.296,0,1.0,+10,1
3e176pvunzaij3pmacb2ss9e,2,150,8,win,go,GW,Q,1,1,0.289,1,0.0,+10,2
3e176pvunzaij3pmacb2ss9e,2,151,8,lose,no-go,NGAL,Y,0,0,,1,0.0,-1,0
3e176pvunzaij3pmacb2ss9e,2,152,8,win,go,GW,H,1,1,0.422,1,0.0,+10,2
3e176pvunzaij3pmacb2ss9e,2,153,1,win,go,GW,T,1,1,0.263,1,0.0,+10,2
3e176pvunzaij3pmacb2ss9e,2,154,9,win,no-go,NGW,W,0,1,0.258,0,0.0,+1,2
3e176pvunzaij3pmacb2ss9e,2,155,9,win,go,GW,H,1,1,0.321,1,0.0,+10,2
3e176pvunzaij3pmacb2ss9e,2,156,9,lose,no-go,NGAL,Y,0,0,,1,0.0,-1,0
3e176pvunzaij3pmacb2ss9e,2,157,10,win,go,GW,H,1,1,0.279,1,0.0,+10,3
3e176pvunzaij3pmacb2ss9e,2,158,2,win,go,GW,T,1,1,0.273,1,0.0,+10,1
3e176pvunzaij3pmacb2ss9e,2,159,10,win,no-go,NGW,W,0,1,0.297,0,0.0,+1,1
3e176pvunzaij3pmacb2ss9e,2,160,10,lose,no-go,NGAL,Y,0,0,,1,0.0,-1,0
3e176pvunzaij3pmacb2ss9e,2,161,1,lose,go,GAL,S,1,1,1.133,1,0.0,-1,1
3e176pvunzaij3pmacb2ss9e,2,162,11,win,no-go,NGW,W,0,1,0.288,0,0.0,+1,1
3e176pvunzaij3pmacb2ss9e,2,163,1,lose,no-go,NGAL,E,0,0,,1,0.0,-1,0
3e176pvunzaij3pmacb2ss9e,2,164,3,win,go,GW,T,1,1,0.438,1,0.0,+10,1
3e176pvunzaij3pmacb2ss9e,2,165,2,lose,go,GAL,S,1,0,,0,0.0,-10,2
3e176pvunzaij3pmacb2ss9e,2,166,4,win,go,GW,T,1,1,0.181,1,0.0,+10,2
3e176pvunzaij3pmacb2ss9e,2,167,2,lose,no-go,NGAL,E,0,0,,1,1.0,-10,0
3e176pvunzaij3pmacb2ss9e,2,168,12,win,no-go,NGW,W,0,1,0.282,0,0.0,+1,4
3e176pvunzaij3pmacb2ss9e,2,169,3,lose,go,GAL,S,1,0,,0,0.0,-10,0
3e176pvunzaij3pmacb2ss9e,2,170,5,win,go,GW,T,1,1,0.389,1,1.0,+1,3
3e176pvunzaij3pmacb2ss9e,2,171,3,lose,no-go,NGAL,E,0,1,0.208,0,0.0,-10,1
3e176pvunzaij3pmacb2ss9e,2,172,1,win,no-go,NGW,D,0,1,0.36,0,0.0,+1,1
3e176pvunzaij3pmacb2ss9e,2,173,4,lose,no-go,NGAL,E,0,0,,1,0.0,-1,0
3e176pvunzaij3pmacb2ss9e,2,174,4,lose,go,GAL,S,1,0,,0,0.0,-10,0
3e176pvunzaij3pmacb2ss9e,2,175,2,win,no-go,NGW,D,0,1,0.354,0,1.0,+10,2
3e176pvunzaij3pmacb2ss9e,2,176,6,win,go,GW,T,1,1,0.384,1,0.0,+10,1
3e176pvunzaij3pmacb2ss9e,2,177,5,lose,go,GAL,S,1,0,,0,0.0,-10,1
3e176pvunzaij3pmacb2ss9e,2,178,7,win,go,GW,T,1,1,0.339,1,0.0,+10,1
3e176pvunzaij3pmacb2ss9e,2,179,3,win,no-go,NGW,D,0,1,0.432,0,0.0,+1,1
3e176pvunzaij3pmacb2ss9e,2,180,5,lose,no-go,NGAL,E,0,0,,1,0.0,-1,0
3e176pvunzaij3pmacb2ss9e,2,181,4,win,no-go,NGW,D,0,1,0.371,0,0.0,+1,1
3e176pvunzaij3pmacb2ss9e,2,182,6,lose,go,GAL,S,1,1,0.329,1,0.0,-1,1
3e176pvunzaij3pmacb2ss9e,2,183,6,lose,no-go,NGAL,E,0,0,,1,0.0,-1,0
3e176pvunzaij3pmacb2ss9e,2,184,8,win,go,GW,T,1,1,0.334,1,0.0,+10,1
3e176pvunzaij3pmacb2ss9e,2,185,7,lose,no-go,NGAL,E,0,0,,1,0.0,-1,0
3e176pvunzaij3pmacb2ss9e,2,186,5,win,no-go,NGW,D,0,1,0.315,0,0.0,+1,1
3e176pvunzaij3pmacb2ss9e,2,187,9,win,go,GW,T,1,1,0.402,1,0.0,+10,1
3e176pvunzaij3pmacb2ss9e,2,188,7,lose,go,GAL,S,1,1,0.496,1,0.0,-1,1
3e176pvunzaij3pmacb2ss9e,2,189,8,lose,go,GAL,S,1,1,0.376,1,0.0,-1,1
3e176pvunzaij3pmacb2ss9e,2,190,10,win,go,GW,T,1,1,0.257,1,0.0,+10,1
3e176pvunzaij3pmacb2ss9e,2,191,6,win,no-go,NGW,D,0,1,0.327,0,0.0,+1,1
3e176pvunzaij3pmacb2ss9e,2,192,8,lose,no-go,NGAL,E,0,0,,1,0.0,-1,0
3e176pvunzaij3pmacb2ss9e,2,193,11,win,go,GW,T,1,1,0.557,1,1.0,+1,1
3e176pvunzaij3pmacb2ss9e,2,194,1,lose,go,GAL,R,1,0,,0,0.0,-10,0
3e176pvunzaij3pmacb2ss9e,2,195,7,win,no-go,NGW,D,0,1,0.206,0,0.0,+1,1
3e176pvunzaij3pmacb2ss9e,2,196,9,lose,no-go,NGAL,E,0,0,,1,0.0,-1,0
3e176pvunzaij3pmacb2ss9e,2,197,8,win,no-go,NGW,D,0,1,0.412,0,0.0,+1,1
3e176pvunzaij3pmacb2ss9e,2,198,2,lose,go,GAL,R,1,1,0.535,1,0.0,-1,1
3e176pvunzaij3pmacb2ss9e,2,199,10,lose,no-go,NGAL,E,0,0,,1,0.0,-1,0
3e176pvunzaij3pmacb2ss9e,2,200,12,win,go,GW,T,1,1,0.647,1,1.0,+1,1
3e176pvunzaij3pmacb2ss9e,2,201,3,lose,go,GAL,R,1,1,0.401,1,1.0,-10,1
3e176pvunzaij3pmacb2ss9e,2,202,9,win,no-go,NGW,D,0,1,0.36,0,0.0,+1,1
3e176pvunzaij3pmacb2ss9e,2,203,11,lose,no-go,NGAL,E,0,0,,1,0.0,-1,0
3e176pvunzaij3pmacb2ss9e,2,204,1,lose,go,GAL,C,1,0,,0,0.0,-10,0
3e176pvunzaij3pmacb2ss9e,2,205,2,lose,go,GAL,C,1,1,0.561,1,0.0,-1,1
3e176pvunzaij3pmacb2ss9e,2,206,12,lose,no-go,NGAL,E,0,1,0.026,0,0.0,-10,1
3e176pvunzaij3pmacb2ss9e,2,207,10,win,no-go,NGW,D,0,1,0.08,0,0.0,+1,1
3e176pvunzaij3pmacb2ss9e,2,208,4,lose,go,GAL,R,1,1,0.329,1,0.0,-1,1
3e176pvunzaij3pmacb2ss9e,2,209,3,lose,go,GAL,C,1,0,,0,0.0,-10,0
3e176pvunzaij3pmacb2ss9e,2,210,1,win,no-go,NGW,P,0,1,0.376,0,1.0,+10,1
3e176pvunzaij3pmacb2ss9e,2,211,1,lose,no-go,NGAL,N,0,0,,1,0.0,-1,0
3e176pvunzaij3pmacb2ss9e,2,212,5,lose,go,GAL,R,1,0,,0,1.0,-1,0
3e176pvunzaij3pmacb2ss9e,2,213,4,lose,go,GAL,C,1,1,0.547,1,0.0,-1,1
3e176pvunzaij3pmacb2ss9e,2,214,2,lose,no-go,NGAL,N,0,0,,1,0.0,-1,0
3e176pvunzaij3pmacb2ss9e,2,215,2,win,no-go,NGW,P,0,1,0.261,0,0.0,+1,1
3e176pvunzaij3pmacb2ss9e,2,216,6,lose,go,GAL,R,1,0,,0,0.0,-10,0
3e176pvunzaij3pmacb2ss9e,2,217,5,lose,go,GAL,C,1,1,0.67,1,0.0,-1,1
3e176pvunzaij3pmacb2ss9e,2,218,3,win,no-go,NGW,P,0,1,0.376,0,0.0,+1,1
3e176pvunzaij3pmacb2ss9e,2,219,7,lose,go,GAL,R,1,1,0.441,1,0.0,-1,2
3e176pvunzaij3pmacb2ss9e,2,220,3,lose,no-go,NGAL,N,0,0,,1,1.0,-10,0
3e176pvunzaij3pmacb2ss9e,2,221,4,lose,no-go,NGAL,N,0,1,0.43,0,0.0,-10,2
3e176pvunzaij3pmacb2ss9e,2,222,6,lose,go,GAL,C,1,1,0.287,1,0.0,-1,1
3e176pvunzaij3pmacb2ss9e,2,223,4,win,no-go,NGW,P,0,1,0.329,0,0.0,+1,1
3e176pvunzaij3pmacb2ss9e,2,224,8,lose,go,GAL,R,1,1,0.456,1,1.0,-10,1
3e176pvunzaij3pmacb2ss9e,2,225,5,lose,no-go,NGAL,N,0,1,0.439,0,0.0,-10,1
3e176pvunzaij3pmacb2ss9e,2,226,9,lose,go,GAL,R,1,1,0.301,1,0.0,-1,1
3e176pvunzaij3pmacb2ss9e,2,227,5,win,no-go,NGW,P,0,1,0.423,0,0.0,+1,1
3e176pvunzaij3pmacb2ss9e,2,228,7,lose,go,GAL,C,1,0,,0,0.0,-10,1
3e176pvunzaij3pmacb2ss9e,2,229,10,lose,go,GAL,R,1,1,0.253,1,0.0,-1,1
3e176pvunzaij3pmacb2ss9e,2,230,8,lose,go,GAL,C,1,1,0.304,1,0.0,-1,1
3e176pvunzaij3pmacb2ss9e,2,231,6,win,no-go,NGW,P,0,1,0.497,0,0.0,+1,1
3e176pvunzaij3pmacb2ss9e,2,232,6,lose,no-go,NGAL,N,0,1,0.257,0,0.0,-10,1
3e176pvunzaij3pmacb2ss9e,2,233,7,lose,no-go,NGAL,N,0,1,0.568,0,0.0,-10,1
3e176pvunzaij3pmacb2ss9e,2,234,9,lose,go,GAL,C,1,1,0.489,1,1.0,-10,1
3e176pvunzaij3pmacb2ss9e,2,235,11,lose,go,GAL,R,1,1,0.406,1,0.0,-1,1
3e176pvunzaij3pmacb2ss9e,2,236,7,win,no-go,NGW,P,0,1,0.378,0,0.0,+1,1
3e176pvunzaij3pmacb2ss9e,2,237,12,lose,go,GAL,R,1,1,0.318,1,0.0,-1,1
3e176pvunzaij3pmacb2ss9e,2,238,8,lose,no-go,NGAL,N,0,1,0.681,0,0.0,-10,1
3e176pvunzaij3pmacb2ss9e,2,239,10,lose,go,GAL,C,1,1,1.016,1,0.0,-1,1
3e176pvunzaij3pmacb2ss9e,2,240,8,win,no-go,NGW,P,0,0,,1,0.0,+10,0
3lc4f12zsskji9fvmi9dwxo5,1,1,1,win,no-go,NGW,S,0,1,0.486,0,0.0,+1,1
3lc4f12zsskji9fvmi9dwxo5,1,2,1,lose,no-go,NGAL,K,0,1,0.804,0,0.0,-10,1
3lc4f12zsskji9fvmi9dwxo5,1,3,1,win,go,GW,U,1,1,0.596,1,0.0,+10,1
3lc4f12zsskji9fvmi9dwxo5,1,4,1,lose,no-go,NGAL,C,0,1,0.837,0,1.0,-1,1
3lc4f12zsskji9fvmi9dwxo5,1,5,2,lose,no-go,NGAL,C,0,1,0.881,0,1.0,-1,1
3lc4f12zsskji9fvmi9dwxo5,1,6,2,lose,no-go,NGAL,K,0,0,,1,0.0,-1,0
3lc4f12zsskji9fvmi9dwxo5,1,7,2,win,go,GW,U,1,0,,0,0.0,+1,1
3lc4f12zsskji9fvmi9dwxo5,1,8,2,win,no-go,NGW,S,0,1,1.21,0,1.0,+10,1
3lc4f12zsskji9fvmi9dwxo5,1,9,3,lose,no-go,NGAL,C,0,1,1.218,0,0.0,-10,1
3lc4f12zsskji9fvmi9dwxo5,1,10,3,win,no-go,NGW,S,0,1,1.068,0,0.0,+1,1
3lc4f12zsskji9fvmi9dwxo5,1,11,3,win,go,GW,U,1,0,,0,0.0,+1,1
3lc4f12zsskji9fvmi9dwxo5,1,12,3,lose,no-go,NGAL,K,0,1,1.259,0,0.0,-10,1
3lc4f12zsskji9fvmi9dwxo5,1,13,4,lose,no-go,NGAL,C,0,1,1.113,0,1.0,-1,1
3lc4f12zsskji9fvmi9dwxo5,1,14,4,lose,no-go,NGAL,K,0,0,,1,1.0,-10,0
3lc4f12zsskji9fvmi9dwxo5,1,15,4,win,no-go,NGW,S,0,1,0.988,0,0.0,+1,1
3lc4f12zsskji9fvmi9dwxo5,1,16,4,win,go,GW,U,1,0,,0,0.0,+1,0
3lc4f12zsskji9fvmi9dwxo5,1,17,5,win,go,GW,U,1,1,0.86,1,0.0,+10,1
3lc4f12zsskji9fvmi9dwxo5,1,18,5,win,no-go,NGW,S,0,1,0.993,0,0.0,+1,1
3lc4f12zsskji9fvmi9dwxo5,1,19,5,lose,no-go,NGAL,C,0,1,1.181,0,0.0,-10,1
3lc4f12zsskji9fvmi9dwxo5,1,20,5,lose,no-go,NGAL,K,0,0,,1,0.0,-1,0
3lc4f12zsskji9fvmi9dwxo5,1,21,6,win,go,GW,U,1,1,1.284,1,0.0,+10,1
3lc4f12zsskji9fvmi9dwxo5,1,22,6,lose,no-go,NGAL,C,0,1,1.25,0,0.0,-10,1
3lc4f12zsskji9fvmi9dwxo5,1,23,6,lose,no-go,NGAL,K,0,0,,1,1.0,-10,0
3lc4f12zsskji9fvmi9dwxo5,1,24,6,win,no-go,NGW,S,0,1,0.982,0,0.0,+1,1
3lc4f12zsskji9fvmi9dwxo5,1,25,7,lose,no-go,NGAL,C,0,0,,1,0.0,-1,0
3lc4f12zsskji9fvmi9dwxo5,1,26,7,lose,no-go,NGAL,K,0,0,,1,0.0,-1,0
3lc4f12zsskji9fvmi9dwxo5,1,27,7,win,go,GW,U,1,1,1.028,1,0.0,+10,1
3lc4f12zsskji9fvmi9dwxo5,1,28,7,win,no-go,NGW,S,0,1,0.929,0,0.0,+1,1
3lc4f12zsskji9fvmi9dwxo5,1,29,8,lose,no-go,NGAL,K,0,0,,1,0.0,-1,0
3lc4f12zsskji9fvmi9dwxo5,1,30,8,win,no-go,NGW,S,0,1,1.087,0,1.0,+10,1
3lc4f12zsskji9fvmi9dwxo5,1,31,8,win,go,GW,U,1,1,1.047,1,0.0,+10,1
3lc4f12zsskji9fvmi9dwxo5,1,32,8,lose,no-go,NGAL,C,0,0,,1,0.0,-1,0
3lc4f12zsskji9fvmi9dwxo5,1,33,9,win,no-go,NGW,S,0,1,0.898,0,0.0,+1,1
3lc4f12zsskji9fvmi9dwxo5,1,34,9,lose,no-go,NGAL,K,0,0,,1,0.0,-1,0
3lc4f12zsskji9fvmi9dwxo5,1,35,1,lose,go,GAL,L,1,1,1.079,1,0.0,-1,1
3lc4f12zsskji9fvmi9dwxo5,1,36,9,win,go,GW,U,1,0,,0,0.0,+1,1
3lc4f12zsskji9fvmi9dwxo5,1,37,10,lose,no-go,NGAL,K,0,0,,1,0.0,-1,0
3lc4f12zsskji9fvmi9dwxo5,1,38,10,win,go,GW,U,1,1,0.865,1,1.0,+1,1
3lc4f12zsskji9fvmi9dwxo5,1,39,10,win,no-go,NGW,S,0,0,,1,0.0,+10,0
3lc4f12zsskji9fvmi9dwxo5,1,40,2,lose,go,GAL,L,1,1,1.254,1,0.0,-1,1
3lc4f12zsskji9fvmi9dwxo5,1,41,11,lose,no-go,NGAL,K,0,0,,1,0.0,-1,0
3lc4f12zsskji9fvmi9dwxo5,1,42,1,win,no-go,NGW,Q,0,1,0.821,0,0.0,+1,1
3lc4f12zsskji9fvmi9dwxo5,1,43,1,win,go,GW,Y,1,1,0.809,1,0.0,+10,1
3lc4f12zsskji9fvmi9dwxo5,1,44,3,lose,go,GAL,L,1,0,,0,1.0,-1,0
3lc4f12zsskji9fvmi9dwxo5,1,45,4,lose,go,GAL,L,1,0,,0,0.0,-10,0
3lc4f12zsskji9fvmi9dwxo5,1,46,2,win,go,GW,Y,1,0,,0,0.0,+1,1
3lc4f12zsskji9fvmi9dwxo5,1,47,12,lose,no-go,NGAL,K,0,0,,1,1.0,-10,0
3lc4f12zsskji9fvmi9dwxo5,1,48,2,win,no-go,NGW,Q,0,1,1.147,0,1.0,+10,1
3lc4f12zsskji9fvmi9dwxo5,1,49,1,lose,no-go,NGAL,I,0,0,,1,0.0,-1,0
3lc4f12zsskji9fvmi9dwxo5,1,50,3,win,go,GW,Y,1,1,1.181,1,0.0,+10,1
3lc4f12zsskji9fvmi9dwxo5,1,51,5,lose,go,GAL,L,1,0,,0,0.0,-10,0
3lc4f12zsskji9fvmi9dwxo5,1,52,3,win,no-go,NGW,Q,0,0,,1,0.0,+10,0
3lc4f12zsskji9fvmi9dwxo5,1,53,2,lose,no-go,NGAL,I,0,0,,1,0.0,-1,1
3lc4f12zsskji9fvmi9dwxo5,1,54,4,win,no-go,NGW,Q,0,0,,1,0.0,+10,1
3lc4f12zsskji9fvmi9dwxo5,1,55,6,lose,go,GAL,L,1,0,,0,1.0,-1,0
3lc4f12zsskji9fvmi9dwxo5,1,56,4,win,go,GW,Y,1,0,,0,0.0,+1,0
3lc4f12zsskji9fvmi9dwxo5,1,57,3,lose,no-go,NGAL,I,0,0,,1,1.0,-10,0
3lc4f12zsskji9fvmi9dwxo5,1,58,7,lose,go,GAL,L,1,1,1.16,1,0.0,-1,1
3lc4f12zsskji9fvmi9dwxo5,1,59,5,win,go,GW,Y,1,1,1.178,1,1.0,+1,1
3lc4f12zsskji9fvmi9dwxo5,1,60,5,win,no-go,NGW,Q,0,1,1.19,0,0.0,+1,1
3lc4f12zsskji9fvmi9dwxo5,1,61,6,win,no-go,NGW,Q,0,0,,1,0.0,+10,0
3lc4f12zsskji9fvmi9dwxo5,1,62,8,lose,go,GAL,L,1,0,,0,0.0,-10,1
3lc4f12zsskji9fvmi9dwxo5,1,63,6,win,go,GW,Y,1,0,,0,1.0,+10,0
3lc4f12zsskji9fvmi9dwxo5,1,64,4,lose,no-go,NGAL,I,0,0,,1,0.0,-1,0
3lc4f12zsskji9fvmi9dwxo5,1,65,5,lose,no-go,NGAL,I,0,1,1.176,0,0.0,-10,1
3lc4f12zsskji9fvmi9dwxo5,1,66,7,win,go,GW,Y,1,0,,0,0.0,+1,0
3lc4f12zsskji9fvmi9dwxo5,1,67,9,lose,go,GAL,L,1,0,,0,0.0,-10,1
3lc4f12zsskji9fvmi9dwxo5,1,68,7,win,no-go,NGW,Q,0,1,1.093,0,0.0,+1,1
3lc4f12zsskji9fvmi9dwxo5,1,69,8,win,no-go,NGW,Q,0,0,,1,0.0,+10,0
3lc4f12zsskji9fvmi9dwxo5,1,70,8,win,go,GW,Y,1,1,1.088,1,0.0,+10,1
3lc4f12zsskji9fvmi9dwxo5,1,71,10,lose,go,GAL,L,1,0,,0,0.0,-10,0
3lc4f12zsskji9fvmi9dwxo5,1,72,6,lose,no-go,NGAL,I,0,1,0.982,0,0.0,-10,1
3lc4f12zsskji9fvmi9dwxo5,1,73,1,win,go,GW,E,1,1,0.818,1,0.0,+10,1
3lc4f12zsskji9fvmi9dwxo5,1,74,9,win,no-go,NGW,Q,0,1,1.032,0,0.0,+1,1
3lc4f12zsskji9fvmi9dwxo5,1,75,1,lose,go,GAL,D,1,0,,0,0.0,-10,0
3lc4f12zsskji9fvmi9dwxo5,1,76,7,lose,no-go,NGAL,I,0,0,,1,0.0,-1,0
3lc4f12zsskji9fvmi9dwxo5,1,77,2,win,go,GW,E,1,1,1.232,1,0.0,+10,1
3lc4f12zsskji9fvmi9dwxo5,1,78,2,lose,go,GAL,D,1,0,,0,0.0,-10,0
3lc4f12zsskji9fvmi9dwxo5,1,79,8,lose,no-go,NGAL,I,0,1,0.731,0,0.0,-10,1
3lc4f12zsskji9fvmi9dwxo5,1,80,10,win,no-go,NGW,Q,0,1,1.165,0,0.0,+1,1
3lc4f12zsskji9fvmi9dwxo5,1,81,9,lose,no-go,NGAL,I,0,0,,1,0.0,-1,0
3lc4f12zsskji9fvmi9dwxo5,1,82,3,win,go,GW,E,1,1,1.081,1,0.0,+10,1
3lc4f12zsskji9fvmi9dwxo5,1,83,11,win,no-go,NGW,Q,0,1,1.254,0,0.0,+1,1
3lc4f12zsskji9fvmi9dwxo5,1,84,3,lose,go,GAL,D,1,0,,0,0.0,-10,0
3lc4f12zsskji9fvmi9dwxo5,1,85,4,win,go,GW,E,1,1,1.276,1,0.0,+10,1
3lc4f12zsskji9fvmi9dwxo5,1,86,4,lose,go,GAL,D,1,1,1.146,1,1.0,-10,1
3lc4f12zsskji9fvmi9dwxo5,1,87,10,lose,no-go,NGAL,I,0,0,,1,0.0,-1,0
3lc4f12zsskji9fvmi9dwxo5,1,88,12,win,no-go,NGW,Q,0,1,1.119,0,0.0,+1,1
3lc4f12zsskji9fvmi9dwxo5,1,89,1,lose,go,GAL,B,1,1,0.904,1,0.0,-1,1
3lc4f12zsskji9fvmi9dwxo5,1,90,5,win,go,GW,E,1,1,1.073,1,0.0,+10,1
3lc4f12zsskji9fvmi9dwxo5,1,91,5,lose,go,GAL,D,1,0,,0,1.0,-1,0
3lc4f12zsskji9fvmi9dwxo5,1,92,1,win,no-go,NGW,J,0,1,1.043,0,1.0,+10,1
3lc4f12zsskji9fvmi9dwxo5,1,93,6,win,go,GW,E,1,1,1.167,1,0.0,+10,1
3lc4f12zsskji9fvmi9dwxo5,1,94,6,lose,go,GAL,D,1,0,,0,0.0,-10,0
3lc4f12zsskji9fvmi9dwxo5,1,95,2,win,no-go,NGW,J,0,1,1.298,0,0.0,+1,1
3lc4f12zsskji9fvmi9dwxo5,1,96,2,lose,go,GAL,B,1,0,,0,0.0,-10,1
3lc4f12zsskji9fvmi9dwxo5,1,97,7,lose,go,GAL,D,1,1,0.97,1,0.0,-1,1
3lc4f12zsskji9fvmi9dwxo5,1,98,3,win,no-go,NGW,J,0,1,1.258,0,0.0,+1,1
3lc4f12zsskji9fvmi9dwxo5,1,99,3,lose,go,GAL,B,1,0,,0,0.0,-10,1
3lc4f12zsskji9fvmi9dwxo5,1,100,7,win,go,GW,E,1,1,1.149,1,0.0,+10,1
3lc4f12zsskji9fvmi9dwxo5,1,101,8,win,go,GW,E,1,1,0.683,1,0.0,+10,1
3lc4f12zsskji9fvmi9dwxo5,1,102,4,win,no-go,NGW,J,0,1,0.846,0,1.0,+10,1
3lc4f12zsskji9fvmi9dwxo5,1,103,4,lose,go,GAL,B,1,1,1.151,1,1.0,-10,1
3lc4f12zsskji9fvmi9dwxo5,1,104,8,lose,go,GAL,D,1,1,0.835,1,0.0,-1,1
3lc4f12zsskji9fvmi9dwxo5,1,105,5,lose,go,GAL,B,1,1,1.225,1,0.0,-1,1
3lc4f12zsskji9fvmi9dwxo5,1,106,9,win,go,GW,E,1,1,1.123,1,0.0,+10,1
3lc4f12zsskji9fvmi9dwxo5,1,107,9,lose,go,GAL,D,1,0,,0,0.0,-10,1
3lc4f12zsskji9fvmi9dwxo5,1,108,5,win,no-go,NGW,J,0,1,1.119,0,0.0,+1,1
3lc4f12zsskji9fvmi9dwxo5,1,109,10,lose,go,GAL,D,1,0,,0,0.0,-10,0
3lc4f12zsskji9fvmi9dwxo5,1,110,10,win,go,GW,E,1,1,0.891,1,0.0,+10,1
3lc4f12zsskji9fvmi9dwxo5,1,111,6,lose,go,GAL,B,1,1,1.275,1,0.0,-1,1
3lc4f12zsskji9fvmi9dwxo5,1,112,6,win,no-go,NGW,J,0,0,,1,1.0,+1,0
3lc4f12zsskji9fvmi9dwxo5,1,113,7,win,no-go,NGW,J,0,1,1.033,0,0.0,+1,1
3lc4f12zsskji9fvmi9dwxo5,1,114,7,lose,go,GAL,B,1,1,1.016,1,1.0,-10,1
3lc4f12zsskji9fvmi9dwxo5,1,115,11,lose,go,GAL,D,1,0,,0,0.0,-10,0
3lc4f12zsskji9fvmi9dwxo5,1,116,11,win,go,GW,E,1,1,1.119,1,0.0,+10,1
3lc4f12zsskji9fvmi9dwxo5,1,117,8,lose,go,GAL,B,1,1,1.189,1,0.0,-1,1
3lc4f12zsskji9fvmi9dwxo5,1,118,12,lose,go,GAL,D,1,0,,0,0.0,-10,0
3lc4f12zsskji9fvmi9dwxo5,1,119,8,win,no-go,NGW,J,0,1,0.857,0,1.0,+10,1
3lc4f12zsskji9fvmi9dwxo5,1,120,12,win,go,GW,E,1,1,1.026,1,0.0,+10,1
3lc4f12zsskji9fvmi9dwxo5,2,121,1,win,go,GW,W,1,1,0.586,1,0.0,+10,1
3lc4f12zsskji9fvmi9dwxo5,2,122,1,lose,no-go,NGAL,Z,0,1,0.71,0,0.0,-10,1
3lc4f12zsskji9fvmi9dwxo5,2,123,1,win,go,GW,P,1,1,0.727,1,0.0,+10,1
3lc4f12zsskji9fvmi9dwxo5,2,124,1,win,no-go,NGW,M,0,1,0.844,0,0.0,+1,1
3lc4f12zsskji9fvmi9dwxo5,2,125,2,win,no-go,NGW,M,0,1,0.927,0,0.0,+1,1
3lc4f12zsskji9fvmi9dwxo5,2,126,2,lose,no-go,NGAL,Z,0,0,,1,0.0,-1,0
3lc4f12zsskji9fvmi9dwxo5,2,127,2,win,go,GW,P,1,1,0.826,1,0.0,+10,1
3lc4f12zsskji9fvmi9dwxo5,2,128,2,win,go,GW,W,1,1,1.07,1,0.0,+10,1
3lc4f12zsskji9fvmi9dwxo5,2,129,3,win,no-go,NGW,M,0,0,,1,0.0,+10,0
3lc4f12zsskji9fvmi9dwxo5,2,130,3,win,go,GW,P,1,1,1.146,1,0.0,+10,1
3lc4f12zsskji9fvmi9dwxo5,2,131,3,win,go,GW,W,1,1,1.179,1,0.0,+10,1
3lc4f12zsskji9fvmi9dwxo5,2,132,3,lose,no-go,NGAL,Z,0,0,,1,0.0,-1,0
3lc4f12zsskji9fvmi9dwxo5,2,133,4,lose,no-go,NGAL,Z,0,0,,1,0.0,-1,0
3lc4f12zsskji9fvmi9dwxo5,2,134,4,win,go,GW,W,1,1,0.921,1,0.0,+10,1
3lc4f12zsskji9fvmi9dwxo5,2,135,4,win,no-go,NGW,M,0,0,,1,0.0,+10,0
3lc4f12zsskji9fvmi9dwxo5,2,136,4,win,go,GW,P,1,1,1.171,1,0.0,+10,1
3lc4f12zsskji9fvmi9dwxo5,2,137,5,win,go,GW,W,1,1,1.052,1,0.0,+10,1
3lc4f12zsskji9fvmi9dwxo5,2,138,5,win,no-go,NGW,M,0,0,,1,0.0,+10,0
3lc4f12zsskji9fvmi9dwxo5,2,139,5,lose,no-go,NGAL,Z,0,0,,1,0.0,-1,0
3lc4f12zsskji9fvmi9dwxo5,2,140,5,win,go,GW,P,1,1,1.058,1,0.0,+10,1
3lc4f12zsskji9fvmi9dwxo5,2,141,6,lose,no-go,NGAL,Z,0,0,,1,1.0,-10,0
3lc4f12zsskji9fvmi9dwxo5,2,142,6,win,go,GW,W,1,1,1.032,1,1.0,+1,1
3lc4f12zsskji9fvmi9dwxo5,2,143,6,win,no-go,NGW,M,0,0,,1,0.0,+10,1
3lc4f12zsskji9fvmi9dwxo5,2,144,6,win,go,GW,P,1,0,,0,0.0,+1,0
3lc4f12zsskji9fvmi9dwxo5,2,145,7,lose,no-go,NGAL,Z,0,1,0.999,0,0.0,-10,1
3lc4f12zsskji9fvmi9dwxo5,2,146,7,win,go,GW,W,1,0,,0,1.0,+10,0
3lc4f12zsskji9fvmi9dwxo5,2,147,7,win,go,GW,P,1,1,0.868,1,0.0,+10,1
3lc4f12zsskji9fvmi9dwxo5,2,148,7,win,no-go,NGW,M,0,0,,1,0.0,+10,0
3lc4f12zsskji9fvmi9dwxo5,2,149,8,win,no-go,NGW,M,0,0,,1,0.0,+10,0
3lc4f12zsskji9fvmi9dwxo5,2,150,8,win,go,GW,W,1,0,,0,0.0,+1,0
3lc4f12zsskji9fvmi9dwxo5,2,151,8,lose,no-go,NGAL,Z,0,0,,1,0.0,-1,0
3lc4f12zsskji9fvmi9dwxo5,2,152,8,win,go,GW,P,1,1,1.253,1,0.0,+10,1
3lc4f12zsskji9fvmi9dwxo5,2,153,1,win,go,GW,V,1,0,,0,0.0,+1,1
3lc4f12zsskji9fvmi9dwxo5,2,154,9,lose,no-go,NGAL,Z,0,0,,1,1.0,-10,0
3lc4f12zsskji9fvmi9dwxo5,2,155,9,win,go,GW,P,1,1,1.233,1,0.0,+10,1
3lc4f12zsskji9fvmi9dwxo5,2,156,9,win,no-go,NGW,M,0,0,,1,1.0,+1,0
3lc4f12zsskji9fvmi9dwxo5,2,157,10,lose,no-go,NGAL,Z,0,0,,1,0.0,-1,0
3lc4f12zsskji9fvmi9dwxo5,2,158,2,win,go,GW,V,1,0,,0,0.0,+1,1
3lc4f12zsskji9fvmi9dwxo5,2,159,10,win,go,GW,P,1,0,,0,1.0,+10,1
3lc4f12zsskji9fvmi9dwxo5,2,160,10,win,no-go,NGW,M,0,0,,1,0.0,+10,1
3lc4f12zsskji9fvmi9dwxo5,2,161,3,win,go,GW,V,1,1,1.248,1,0.0,+10,1
3lc4f12zsskji9fvmi9dwxo5,2,162,1,lose,go,GAL,R,1,1,1.053,1,0.0,-1,1
3lc4f12zsskji9fvmi9dwxo5,2,163,11,win,no-go,NGW,M,0,1,1.143,0,0.0,+1,1
3lc4f12zsskji9fvmi9dwxo5,2,164,1,lose,no-go,NGAL,X,0,1,0.86,0,0.0,-10,1
3lc4f12zsskji9fvmi9dwxo5,2,165,2,lose,no-go,NGAL,X,0,0,,1,0.0,-1,0
3lc4f12zsskji9fvmi9dwxo5,2,166,12,win,no-go,NGW,M,0,1,1.141,0,1.0,+10,1
3lc4f12zsskji9fvmi9dwxo5,2,167,4,win,go,GW,V,1,0,,0,1.0,+10,1
3lc4f12zsskji9fvmi9dwxo5,2,168,2,lose,go,GAL,R,1,1,1.252,1,1.0,-10,1
3lc4f12zsskji9fvmi9dwxo5,2,169,5,win,go,GW,V,1,1,1.041,1,1.0,+1,1
3lc4f12zsskji9fvmi9dwxo5,2,170,3,lose,go,GAL,R,1,0,,0,0.0,-10,1
3lc4f12zsskji9fvmi9dwxo5,2,171,3,lose,no-go,NGAL,X,0,0,,1,0.0,-1,0
3lc4f12zsskji9fvmi9dwxo5,2,172,1,win,no-go,NGW,F,0,1,0.657,0,1.0,+10,1
3lc4f12zsskji9fvmi9dwxo5,2,173,4,lose,go,GAL,R,1,0,,0,0.0,-10,0
3lc4f12zsskji9fvmi9dwxo5,2,174,4,lose,no-go,NGAL,X,0,1,1.056,0,0.0,-10,1
3lc4f12zsskji9fvmi9dwxo5,2,175,6,win,go,GW,V,1,0,,0,0.0,+1,1
3lc4f12zsskji9fvmi9dwxo5,2,176,2,win,no-go,NGW,F,0,1,1.264,0,0.0,+1,1
3lc4f12zsskji9fvmi9dwxo5,2,177,3,win,no-go,NGW,F,0,0,,1,0.0,+10,0
3lc4f12zsskji9fvmi9dwxo5,2,178,7,win,go,GW,V,1,1,0.908,1,0.0,+10,1
3lc4f12zsskji9fvmi9dwxo5,2,179,5,lose,go,GAL,R,1,1,0.47,1,1.0,-10,1
3lc4f12zsskji9fvmi9dwxo5,2,180,5,lose,no-go,NGAL,X,0,1,0.712,0,0.0,-10,1
3lc4f12zsskji9fvmi9dwxo5,2,181,6,lose,go,GAL,R,1,0,,0,0.0,-10,1
3lc4f12zsskji9fvmi9dwxo5,2,182,6,lose,no-go,NGAL,X,0,0,,1,1.0,-10,0
3lc4f12zsskji9fvmi9dwxo5,2,183,4,win,no-go,NGW,F,0,1,1.134,0,0.0,+1,1
3lc4f12zsskji9fvmi9dwxo5,2,184,8,win,go,GW,V,1,1,0.894,1,0.0,+10,1
3lc4f12zsskji9fvmi9dwxo5,2,185,7,lose,go,GAL,R,1,1,1.191,1,0.0,-1,1
3lc4f12zsskji9fvmi9dwxo5,2,186,5,win,no-go,NGW,F,0,1,0.995,0,0.0,+1,1
3lc4f12zsskji9fvmi9dwxo5,2,187,9,win,go,GW,V,1,1,1.284,1,0.0,+10,1
3lc4f12zsskji9fvmi9dwxo5,2,188,7,lose,no-go,NGAL,X,0,1,1.051,0,0.0,-10,1
3lc4f12zsskji9fvmi9dwxo5,2,189,8,lose,go,GAL,R,1,1,0.902,1,0.0,-1,1
3lc4f12zsskji9fvmi9dwxo5,2,190,6,win,no-go,NGW,F,0,0,,1,0.0,+10,0
3lc4f12zsskji9fvmi9dwxo5,2,191,10,win,go,GW,V,1,1,1.016,1,0.0,+10,1
3lc4f12zsskji9fvmi9dwxo5,2,192,8,lose,no-go,NGAL,X,0,0,,1,0.0,-1,0
3lc4f12zsskji9fvmi9dwxo5,2,193,11,win,go,GW,V,1,1,0.997,1,0.0,+10,1
3lc4f12zsskji9fvmi9dwxo5,2,194,1,lose,go,GAL,T,1,1,0.955,1,0.0,-1,1
3lc4f12zsskji9fvmi9dwxo5,2,195,7,win,no-go,NGW,F,0,0,,1,0.0,+10,0
3lc4f12zsskji9fvmi9dwxo5,2,196,9,lose,no-go,NGAL,X,0,0,,1,0.0,-1,0
3lc4f12zsskji9fvmi9dwxo5,2,197,8,win,no-go,NGW,F,0,0,,1,1.0,+1,0
3lc4f12zsskji9fvmi9dwxo5,2,198,12,win,go,GW,V,1,1,1.09,1,0.0,+10,1
3lc4f12zsskji9fvmi9dwxo5,2,199,2,lose,go,GAL,T,1,1,0.977,1,0.0,-1,1
3lc4f12zsskji9fvmi9dwxo5,2,200,10,lose,no-go,NGAL,X,0,0,,1,0.0,-1,0
3lc4f12zsskji9fvmi9dwxo5,2,201,9,win,no-go,NGW,F,0,0,,1,1.0,+1,0
3lc4f12zsskji9fvmi9dwxo5,2,202,1,lose,go,GAL,H,1,1,0.869,1,1.0,-10,1
3lc4f12zsskji9fvmi9dwxo5,2,203,3,lose,go,GAL,T,1,1,1.121,1,0.0,-1,1
3lc4f12zsskji9fvmi9dwxo5,2,204,11,lose,no-go,NGAL,X,0,0,,1,0.0,-1,0
3lc4f12zsskji9fvmi9dwxo5,2,205,4,lose,go,GAL,T,1,0,,0,0.0,-10,1
3lc4f12zsskji9fvmi9dwxo5,2,206,2,lose,go,GAL,H,1,1,0.92,1,0.0,-1,1
3lc4f12zsskji9fvmi9dwxo5,2,207,10,win,no-go,NGW,F,0,0,,1,0.0,+10,0
3lc4f12zsskji9fvmi9dwxo5,2,208,12,lose,no-go,NGAL,X,0,1,0.976,0,1.0,-1,1
3lc4f12zsskji9fvmi9dwxo5,2,209,1,lose,no-go,NGAL,G,0,1,0.827,0,0.0,-10,1
3lc4f12zsskji9fvmi9dwxo5,2,210,1,win,no-go,NGW,N,0,1,1.069,0,0.0,+1,1
3lc4f12zsskji9fvmi9dwxo5,2,211,3,lose,go,GAL,H,1,0,,0,1.0,-1,0
3lc4f12zsskji9fvmi9dwxo5,2,212,5,lose,go,GAL,T,1,1,0.851,1,0.0,-1,1
3lc4f12zsskji9fvmi9dwxo5,2,213,6,lose,go,GAL,T,1,1,0.908,1,0.0,-1,1
3lc4f12zsskji9fvmi9dwxo5,2,214,2,lose,no-go,NGAL,G,0,0,,1,0.0,-1,0
3lc4f12zsskji9fvmi9dwxo5,2,215,2,win,no-go,NGW,N,0,1,1.062,0,0.0,+1,1
3lc4f12zsskji9fvmi9dwxo5,2,216,4,lose,go,GAL,H,1,1,0.969,1,0.0,-1,1
3lc4f12zsskji9fvmi9dwxo5,2,217,7,lose,go,GAL,T,1,1,0.903,1,0.0,-1,1
3lc4f12zsskji9fvmi9dwxo5,2,218,3,lose,no-go,NGAL,G,0,0,,1,0.0,-1,0
3lc4f12zsskji9fvmi9dwxo5,2,219,3,win,no-go,NGW,N,0,0,,1,0.0,+10,0
3lc4f12zsskji9fvmi9dwxo5,2,220,5,lose,go,GAL,H,1,1,1.03,1,0.0,-1,1
3lc4f12zsskji9fvmi9dwxo5,2,221,4,lose,no-go,NGAL,G,0,0,,1,0.0,-1,0
3lc4f12zsskji9fvmi9dwxo5,2,222,6,lose,go,GAL,H,1,1,0.937,1,0.0,-1,1
3lc4f12zsskji9fvmi9dwxo5,2,223,4,win,no-go,NGW,N,0,0,,1,0.0,+10,0
3lc4f12zsskji9fvmi9dwxo5,2,224,8,lose,go,GAL,T,1,1,0.649,1,0.0,-1,1
3lc4f12zsskji9fvmi9dwxo5,2,225,5,win,no-go,NGW,N,0,0,,1,0.0,+10,0
3lc4f12zsskji9fvmi9dwxo5,2,226,7,lose,go,GAL,H,1,1,0.891,1,0.0,-1,1
3lc4f12zsskji9fvmi9dwxo5,2,227,5,lose,no-go,NGAL,G,0,0,,1,0.0,-1,0
3lc4f12zsskji9fvmi9dwxo5,2,228,9,lose,go,GAL,T,1,1,0.602,1,1.0,-10,1
3lc4f12zsskji9fvmi9dwxo5,2,229,6,win,no-go,NGW,N,0,0,,1,0.0,+10,0
3lc4f12zsskji9fvmi9dwxo5,2,230,10,lose,go,GAL,T,1,0,,0,0.0,-10,0
3lc4f12zsskji9fvmi9dwxo5,2,231,6,lose,no-go,NGAL,G,0,0,,1,0.0,-1,1
3lc4f12zsskji9fvmi9dwxo5,2,232,8,lose,go,GAL,H,1,0,,0,0.0,-10,0
3lc4f12zsskji9fvmi9dwxo5,2,233,9,lose,go,GAL,H,1,1,0.521,1,0.0,-1,1
3lc4f12zsskji9fvmi9dwxo5,2,234,7,win,no-go,NGW,N,0,0,,1,1.0,+1,0
3lc4f12zsskji9fvmi9dwxo5,2,235,11,lose,go,GAL,T,1,0,,0,0.0,-10,0
3lc4f12zsskji9fvmi9dwxo5,2,236,7,lose,no-go,NGAL,G,0,1,1.041,0,1.0,-1,1
3lc4f12zsskji9fvmi9dwxo5,2,237,8,lose,no-go,NGAL,G,0,1,0.452,0,0.0,-10,1
3lc4f12zsskji9fvmi9dwxo5,2,238,10,lose,go,GAL,H,1,0,,0,0.0,-10,1
3lc4f12zsskji9fvmi9dwxo5,2,239,8,win,no-go,NGW,N,0,0,,1,0.0,+10,0
3lc4f12zsskji9fvmi9dwxo5,2,240,12,lose,go,GAL,T,1,1,0.783,1,1.0,-10,1
61g3fxc057my2n1aiwvvntof,1,1,1,lose,no-go,NGAL,R,0,1,0.836,0,0.0,-10,1
61g3fxc057my2n1aiwvvntof,1,2,1,win,no-go,NGW,L,0,1,0.859,0,1.0,+10,1
61g3fxc057my2n1aiwvvntof,1,3,1,win,go,GW,V,1,1,0.986,1,0.0,+10,1
61g3fxc057my2n1aiwvvntof,1,4,1,win,go,GW,J,1,1,0.922,1,0.0,+10,1
61g3fxc057my2n1aiwvvntof,1,5,2,win,go,GW,V,1,1,0.995,1,0.0,+10,1
61g3fxc057my2n1aiwvvntof,1,6,2,lose,no-go,NGAL,R,0,0,,1,0.0,-1,0
61g3fxc057my2n1aiwvvntof,1,7,2,win,go,GW,J,1,1,0.771,1,0.0,+10,1
61g3fxc057my2n1aiwvvntof,1,8,2,win,no-go,NGW,L,0,1,0.792,0,0.0,+1,1
61g3fxc057my2n1aiwvvntof,1,9,3,win,no-go,NGW,L,0,1,0.896,0,0.0,+1,1
61g3fxc057my2n1aiwvvntof,1,10,3,win,go,GW,V,1,1,0.709,1,1.0,+1,1
61g3fxc057my2n1aiwvvntof,1,11,3,win,go,GW,J,1,1,1.11,1,0.0,+10,1
61g3fxc057my2n1aiwvvntof,1,12,3,lose,no-go,NGAL,R,0,0,,1,1.0,-10,1
61g3fxc057my2n1aiwvvntof,1,13,4,win,go,GW,J,1,1,0.705,1,0.0,+10,1
61g3fxc057my2n1aiwvvntof,1,14,4,lose,no-go,NGAL,R,0,0,,1,0.0,-1,0
61g3fxc057my2n1aiwvvntof,1,15,4,win,go,GW,V,1,1,0.493,1,0.0,+10,1
61g3fxc057my2n1aiwvvntof,1,16,4,win,no-go,NGW,L,0,1,1.049,0,0.0,+1,1
61g3fxc057my2n1aiwvvntof,1,17,5,lose,no-go,NGAL,R,0,0,,1,0.0,-1,0
61g3fxc057my2n1aiwvvntof,1,18,5,win,go,GW,V,1,1,0.774,1,0.0,+10,1
61g3fxc057my2n1aiwvvntof,1,19,5,win,go,GW,J,1,1,0.705,1,0.0,+10,1
61g3fxc057my2n1aiwvvntof,1,20,5,win,no-go,NGW,L,0,1,0.67,0,0.0,+1,1
61g3fxc057my2n1aiwvvntof,1,21,6,win,go,GW,V,1,1,0.803,1,0.0,+10,1
61g3fxc057my2n1aiwvvntof,1,22,6,lose,no-go,NGAL,R,0,0,,1,1.0,-10,0
61g3fxc057my2n1aiwvvntof,1,23,6,win,no-go,NGW,L,0,1,0.577,0,0.0,+1,1
61g3fxc057my2n1aiwvvntof,1,24,6,win,go,GW,J,1,1,0.645,1,0.0,+10,1
61g3fxc057my2n1aiwvvntof,1,25,7,win,no-go,NGW,L,0,0,,1,1.0,+1,0
61g3fxc057my2n1aiwvvntof,1,26,7,win,go,GW,J,1,1,0.606,1,1.0,+1,1
61g3fxc057my2n1aiwvvntof,1,27,7,win,go,GW,V,1,1,0.603,1,0.0,+10,1
61g3fxc057my2n1aiwvvntof,1,28,7,lose,no-go,NGAL,R,0,0,,1,0.0,-1,0
61g3fxc057my2n1aiwvvntof,1,29,8,win,no-go,NGW,L,0,1,0.775,0,0.0,+1,1
61g3fxc057my2n1aiwvvntof,1,30,8,win,go,GW,V,1,1,0.543,1,0.0,+10,1
61g3fxc057my2n1aiwvvntof,1,31,8,lose,no-go,NGAL,R,0,0,,1,0.0,-1,0
61g3fxc057my2n1aiwvvntof,1,32,8,win,go,GW,J,1,1,0.617,1,0.0,+10,1
61g3fxc057my2n1aiwvvntof,1,33,1,win,go,GW,W,1,1,0.759,1,0.0,+10,1
61g3fxc057my2n1aiwvvntof,1,34,9,lose,no-go,NGAL,R,0,0,,1,0.0,-1,0
61g3fxc057my2n1aiwvvntof,1,35,9,win,no-go,NGW,L,0,0,,1,0.0,+10,0
61g3fxc057my2n1aiwvvntof,1,36,9,win,go,GW,V,1,1,0.686,1,0.0,+10,1
61g3fxc057my2n1aiwvvntof,1,37,10,win,go,GW,V,1,1,0.701,1,1.0,+1,1
61g3fxc057my2n1aiwvvntof,1,38,10,win,no-go,NGW,L,0,0,,1,0.0,+10,0
61g3fxc057my2n1aiwvvntof,1,39,2,win,go,GW,W,1,1,0.677,1,1.0,+1,1
61g3fxc057my2n1aiwvvntof,1,40,10,lose,no-go,NGAL,R,0,0,,1,0.0,-1,0
61g3fxc057my2n1aiwvvntof,1,41,1,lose,go,GAL,S,1,0,,0,0.0,-10,0
61g3fxc057my2n1aiwvvntof,1,42,3,win,go,GW,W,1,1,0.788,1,0.0,+10,1
61g3fxc057my2n1aiwvvntof,1,43,11,win,no-go,NGW,L,0,0,,1,0.0,+10,0
61g3fxc057my2n1aiwvvntof,1,44,1,lose,no-go,NGAL,B,0,1,0.859,0,0.0,-10,1
61g3fxc057my2n1aiwvvntof,1,45,2,lose,go,GAL,S,1,1,0.801,1,0.0,-1,1
61g3fxc057my2n1aiwvvntof,1,46,12,win,no-go,NGW,L,0,0,,1,0.0,+10,0
61g3fxc057my2n1aiwvvntof,1,47,4,win,go,GW,W,1,1,0.673,1,0.0,+10,1
61g3fxc057my2n1aiwvvntof,1,48,2,lose,no-go,NGAL,B,0,1,1.217,0,0.0,-10,1
61g3fxc057my2n1aiwvvntof,1,49,3,lose,go,GAL,S,1,1,0.769,1,0.0,-1,1
61g3fxc057my2n1aiwvvntof,1,50,1,win,no-go,NGW,E,0,1,0.771,0,0.0,+1,1
61g3fxc057my2n1aiwvvntof,1,51,3,lose,no-go,NGAL,B,0,0,,1,0.0,-1,0
61g3fxc057my2n1aiwvvntof,1,52,5,win,go,GW,W,1,1,0.767,1,0.0,+10,1
61g3fxc057my2n1aiwvvntof,1,53,6,win,go,GW,W,1,1,0.737,1,0.0,+10,1
61g3fxc057my2n1aiwvvntof,1,54,4,lose,go,GAL,S,1,0,,0,0.0,-10,0
61g3fxc057my2n1aiwvvntof,1,55,4,lose,no-go,NGAL,B,0,1,0.577,0,0.0,-10,1
61g3fxc057my2n1aiwvvntof,1,56,2,win,no-go,NGW,E,0,1,0.731,0,0.0,+1,1
61g3fxc057my2n1aiwvvntof,1,57,7,win,go,GW,W,1,1,0.834,1,1.0,+1,1
61g3fxc057my2n1aiwvvntof,1,58,5,lose,go,GAL,S,1,1,0.67,1,0.0,-1,1
61g3fxc057my2n1aiwvvntof,1,59,3,win,no-go,NGW,E,0,1,0.672,0,1.0,+10,1
61g3fxc057my2n1aiwvvntof,1,60,5,lose,no-go,NGAL,B,0,0,,1,0.0,-1,0
61g3fxc057my2n1aiwvvntof,1,61,4,win,no-go,NGW,E,0,1,0.612,0,0.0,+1,1
61g3fxc057my2n1aiwvvntof,1,62,8,win,go,GW,W,1,1,0.674,1,0.0,+10,1
61g3fxc057my2n1aiwvvntof,1,63,6,lose,no-go,NGAL,B,0,1,0.858,0,0.0,-10,1
61g3fxc057my2n1aiwvvntof,1,64,6,lose,go,GAL,S,1,1,0.58,1,1.0,-10,1
61g3fxc057my2n1aiwvvntof,1,65,9,win,go,GW,W,1,1,0.605,1,0.0,+10,1
61g3fxc057my2n1aiwvvntof,1,66,7,lose,no-go,NGAL,B,0,0,,1,0.0,-1,0
61g3fxc057my2n1aiwvvntof,1,67,7,lose,go,GAL,S,1,0,,0,0.0,-10,0
61g3fxc057my2n1aiwvvntof,1,68,5,win,no-go,NGW,E,0,1,0.781,0,0.0,+1,1
61g3fxc057my2n1aiwvvntof,1,69,8,lose,no-go,NGAL,B,0,0,,1,0.0,-1,0
61g3fxc057my2n1aiwvvntof,1,70,8,lose,go,GAL,S,1,1,0.513,1,0.0,-1,1
61g3fxc057my2n1aiwvvntof,1,71,6,win,no-go,NGW,E,0,1,1.156,0,0.0,+1,1
61g3fxc057my2n1aiwvvntof,1,72,10,win,go,GW,W,1,1,0.573,1,0.0,+10,1
61g3fxc057my2n1aiwvvntof,1,73,11,win,go,GW,W,1,1,0.515,1,0.0,+10,1
61g3fxc057my2n1aiwvvntof,1,74,1,lose,go,GAL,G,1,0,,0,0.0,-10,0
61g3fxc057my2n1aiwvvntof,1,75,9,lose,no-go,NGAL,B,0,0,,1,1.0,-10,0
61g3fxc057my2n1aiwvvntof,1,76,7,win,no-go,NGW,E,0,1,0.49,0,0.0,+1,1
61g3fxc057my2n1aiwvvntof,1,77,10,lose,no-go,NGAL,B,0,1,0.791,0,0.0,-10,1
61g3fxc057my2n1aiwvvntof,1,78,8,win,no-go,NGW,E,0,1,0.803,0,0.0,+1,1
61g3fxc057my2n1aiwvvntof,1,79,2,lose,go,GAL,G,1,1,0.766,1,1.0,-10,1
61g3fxc057my2n1aiwvvntof,1,80,12,win,go,GW,W,1,1,0.773,1,1.0,+1,1
61g3fxc057my2n1aiwvvntof,1,81,11,lose,no-go,NGAL,B,0,0,,1,0.0,-1,0
61g3fxc057my2n1aiwvvntof,1,82,3,lose,go,GAL,G,1,1,0.681,1,1.0,-10,1
61g3fxc057my2n1aiwvvntof,1,83,9,win,no-go,NGW,E,0,1,0.89,0,0.0,+1,1
61g3fxc057my2n1aiwvvntof,1,84,1,lose,go,GAL,H,1,1,0.895,1,1.0,-10,1
61g3fxc057my2n1aiwvvntof,1,85,4,lose,go,GAL,G,1,1,0.738,1,0.0,-1,1
61g3fxc057my2n1aiwvvntof,1,86,12,lose,no-go,NGAL,B,0,0,,1,0.0,-1,0
61g3fxc057my2n1aiwvvntof,1,87,10,win,no-go,NGW,E,0,0,,1,0.0,+10,0
61g3fxc057my2n1aiwvvntof,1,88,2,lose,go,GAL,H,1,1,0.749,1,0.0,-1,1
61g3fxc057my2n1aiwvvntof,1,89,1,lose,no-go,NGAL,D,0,0,,1,0.0,-1,0
61g3fxc057my2n1aiwvvntof,1,90,3,lose,go,GAL,H,1,0,,0,0.0,-10,0
61g3fxc057my2n1aiwvvntof,1,91,5,lose,go,GAL,G,1,0,,0,0.0,-10,0
61g3fxc057my2n1aiwvvntof,1,92,1,win,no-go,NGW,Y,0,1,0.567,0,0.0,+1,1
61g3fxc057my2n1aiwvvntof,1,93,2,win,no-go,NGW,Y,0,0,,1,0.0,+10,0
61g3fxc057my2n1aiwvvntof,1,94,6,lose,go,GAL,G,1,1,0.939,1,0.0,-1,1
61g3fxc057my2n1aiwvvntof,1,95,4,lose,go,GAL,H,1,0,,0,0.0,-10,0
61g3fxc057my2n1aiwvvntof,1,96,2,lose,no-go,NGAL,D,0,0,,1,0.0,-1,0
61g3fxc057my2n1aiwvvntof,1,97,3,win,no-go,NGW,Y,0,1,0.622,0,0.0,+1,1
61g3fxc057my2n1aiwvvntof,1,98,3,lose,no-go,NGAL,D,0,1,0.89,0,0.0,-10,1
61g3fxc057my2n1aiwvvntof,1,99,7,lose,go,GAL,G,1,0,,0,0.0,-10,0
61g3fxc057my2n1aiwvvntof,1,100,5,lose,go,GAL,H,1,1,0.774,1,1.0,-10,1
61g3fxc057my2n1aiwvvntof,1,101,6,lose,go,GAL,H,1,0,,0,0.0,-10,0
61g3fxc057my2n1aiwvvntof,1,102,8,lose,go,GAL,G,1,1,0.714,1,0.0,-1,1
61g3fxc057my2n1aiwvvntof,1,103,4,win,no-go,NGW,Y,0,1,0.706,0,0.0,+1,1
61g3fxc057my2n1aiwvvntof,1,104,4,lose,no-go,NGAL,D,0,0,,1,0.0,-1,0
61g3fxc057my2n1aiwvvntof,1,105,7,lose,go,GAL,H,1,0,,0,0.0,-10,0
61g3fxc057my2n1aiwvvntof,1,106,5,lose,no-go,NGAL,D,0,0,,1,1.0,-10,0
61g3fxc057my2n1aiwvvntof,1,107,9,lose,go,GAL,G,1,0,,0,0.0,-10,0
61g3fxc057my2n1aiwvvntof,1,108,5,win,no-go,NGW,Y,0,1,0.382,0,0.0,+1,1
61g3fxc057my2n1aiwvvntof,1,109,10,lose,go,GAL,G,1,1,0.672,1,0.0,-1,1
61g3fxc057my2n1aiwvvntof,1,110,8,lose,go,GAL,H,1,1,0.545,1,1.0,-10,1
61g3fxc057my2n1aiwvvntof,1,111,6,win,no-go,NGW,Y,0,0,,1,0.0,+10,0
61g3fxc057my2n1aiwvvntof,1,112,6,lose,no-go,NGAL,D,0,1,0.818,0,0.0,-10,1
61g3fxc057my2n1aiwvvntof,1,113,7,win,no-go,NGW,Y,0,0,,1,0.0,+10,0
61g3fxc057my2n1aiwvvntof,1,114,11,lose,go,GAL,G,1,0,,0,0.0,-10,0
61g3fxc057my2n1aiwvvntof,1,115,9,lose,go,GAL,H,1,0,,0,0.0,-10,0
61g3fxc057my2n1aiwvvntof,1,116,7,lose,no-go,NGAL,D,0,0,,1,0.0,-1,0
61g3fxc057my2n1aiwvvntof,1,117,12,lose,go,GAL,G,1,0,,0,0.0,-10,0
61g3fxc057my2n1aiwvvntof,1,118,8,lose,no-go,NGAL,D,0,0,,1,0.0,-1,0
61g3fxc057my2n1aiwvvntof,1,119,8,win,no-go,NGW,Y,0,0,,1,0.0,+10,0
61g3fxc057my2n1aiwvvntof,1,120,10,lose,go,GAL,H,1,1,1.014,1,0.0,-1,1
61g3fxc057my2n1aiwvvntof,2,121,1,win,go,GW,Q,1,1,0.95,1,0.0,+10,1
61g3fxc057my2n1aiwvvntof,2,122,1,lose,no-go,NGAL,F,0,1,0.801,0,0.0,-10,1
61g3fxc057my2n1aiwvvntof,2,123,1,lose,no-go,NGAL,I,0,1,1.013,0,0.0,-10,1
61g3fxc057my2n1aiwvvntof,2,124,1,win,no-go,NGW,U,0,1,1.025,0,1.0,+10,1
61g3fxc057my2n1aiwvvntof,2,125,2,win,go,GW,Q,1,1,0.674,1,0.0,+10,1
61g3fxc057my2n1aiwvvntof,2,126,2,win,no-go,NGW,U,0,1,0.382,0,1.0,+10,1
61g3fxc057my2n1aiwvvntof,2,127,2,lose,no-go,NGAL,F,0,0,,1,1.0,-10,0
61g3fxc057my2n1aiwvvntof,2,128,2,lose,no-go,NGAL,I,0,0,,1,0.0,-1,0
61g3fxc057my2n1aiwvvntof,2,129,3,win,no-go,NGW,U,0,1,0.78,0,1.0,+10,1
61g3fxc057my2n1aiwvvntof,2,130,3,lose,no-go,NGAL,F,0,0,,1,0.0,-1,0
61g3fxc057my2n1aiwvvntof,2,131,3,lose,no-go,NGAL,I,0,0,,1,0.0,-1,0
61g3fxc057my2n1aiwvvntof,2,132,3,win,go,GW,Q,1,1,0.506,1,0.0,+10,1
61g3fxc057my2n1aiwvvntof,2,133,4,win,go,GW,Q,1,1,0.513,1,0.0,+10,1
61g3fxc057my2n1aiwvvntof,2,134,4,lose,no-go,NGAL,F,0,1,0.835,0,0.0,-10,1
61g3fxc057my2n1aiwvvntof,2,135,4,lose,no-go,NGAL,I,0,0,,1,0.0,-1,0
61g3fxc057my2n1aiwvvntof,2,136,4,win,no-go,NGW,U,0,1,0.449,0,0.0,+1,1
61g3fxc057my2n1aiwvvntof,2,137,5,win,no-go,NGW,U,0,1,0.481,0,0.0,+1,1
61g3fxc057my2n1aiwvvntof,2,138,5,lose,no-go,NGAL,I,0,0,,1,1.0,-10,0
61g3fxc057my2n1aiwvvntof,2,139,5,win,go,GW,Q,1,1,0.523,1,0.0,+10,1
61g3fxc057my2n1aiwvvntof,2,140,5,lose,no-go,NGAL,F,0,1,0.803,0,1.0,-1,1
61g3fxc057my2n1aiwvvntof,2,141,6,win,no-go,NGW,U,0,1,0.916,0,0.0,+1,1
61g3fxc057my2n1aiwvvntof,2,142,6,lose,no-go,NGAL,I,0,0,,1,0.0,-1,0
61g3fxc057my2n1aiwvvntof,2,143,6,lose,no-go,NGAL,F,0,1,0.745,0,1.0,-1,1
61g3fxc057my2n1aiwvvntof,2,144,6,win,go,GW,Q,1,1,0.448,1,1.0,+1,1
61g3fxc057my2n1aiwvvntof,2,145,7,win,no-go,NGW,U,0,1,0.702,0,0.0,+1,1
61g3fxc057my2n1aiwvvntof,2,146,7,lose,no-go,NGAL,I,0,0,,1,0.0,-1,0
61g3fxc057my2n1aiwvvntof,2,147,7,win,go,GW,Q,1,1,0.478,1,0.0,+10,1
61g3fxc057my2n1aiwvvntof,2,148,7,lose,no-go,NGAL,F,0,1,0.859,0,0.0,-10,1
61g3fxc057my2n1aiwvvntof,2,149,8,win,no-go,NGW,U,0,1,0.712,0,0.0,+1,1
61g3fxc057my2n1aiwvvntof,2,150,8,lose,no-go,NGAL,F,0,1,0.695,0,1.0,-1,1
61g3fxc057my2n1aiwvvntof,2,151,8,win,go,GW,Q,1,1,0.8,1,0.0,+10,1
61g3fxc057my2n1aiwvvntof,2,152,8,lose,no-go,NGAL,I,0,1,0.8,0,0.0,-10,1
61g3fxc057my2n1aiwvvntof,2,153,9,win,no-go,NGW,U,0,0,,1,0.0,+10,0
61g3fxc057my2n1aiwvvntof,2,154,1,lose,go,GAL,T,1,1,0.876,1,0.0,-1,1
61g3fxc057my2n1aiwvvntof,2,155,9,lose,no-go,NGAL,I,0,0,,1,1.0,-10,0
61g3fxc057my2n1aiwvvntof,2,156,9,win,go,GW,Q,1,1,0.495,1,1.0,+1,1
61g3fxc057my2n1aiwvvntof,2,157,2,lose,go,GAL,T,1,1,0.636,1,0.0,-1,1
61g3fxc057my2n1aiwvvntof,2,158,10,win,no-go,NGW,U,0,1,0.931,0,1.0,+10,1
61g3fxc057my2n1aiwvvntof,2,159,10,win,go,GW,Q,1,1,0.601,1,0.0,+10,1
61g3fxc057my2n1aiwvvntof,2,160,10,lose,no-go,NGAL,I,0,1,0.802,0,0.0,-10,1
61g3fxc057my2n1aiwvvntof,2,161,1,win,no-go,NGW,X,0,1,0.864,0,1.0,+10,1
61g3fxc057my2n1aiwvvntof,2,162,11,lose,no-go,NGAL,I,0,0,,1,0.0,-1,0
61g3fxc057my2n1aiwvvntof,2,163,3,lose,go,GAL,T,1,1,0.646,1,1.0,-10,1
61g3fxc057my2n1aiwvvntof,2,164,1,win,go,GW,M,1,1,0.701,1,0.0,+10,1
61g3fxc057my2n1aiwvvntof,2,165,2,win,no-go,NGW,X,0,1,0.704,0,0.0,+1,1
61g3fxc057my2n1aiwvvntof,2,166,12,lose,no-go,NGAL,I,0,0,,1,0.0,-1,0
61g3fxc057my2n1aiwvvntof,2,167,4,lose,go,GAL,T,1,0,,0,0.0,-10,0
61g3fxc057my2n1aiwvvntof,2,168,2,win,go,GW,M,1,1,0.683,1,0.0,+10,1
61g3fxc057my2n1aiwvvntof,2,169,1,lose,no-go,NGAL,P,0,0,,1,0.0,-1,1
61g3fxc057my2n1aiwvvntof,2,170,3,win,go,GW,M,1,1,0.706,1,1.0,+1,1
61g3fxc057my2n1aiwvvntof,2,171,3,win,no-go,NGW,X,0,1,0.801,0,0.0,+1,1
61g3fxc057my2n1aiwvvntof,2,172,5,lose,go,GAL,T,1,0,,0,0.0,-10,0
61g3fxc057my2n1aiwvvntof,2,173,4,win,go,GW,M,1,1,0.865,1,0.0,+10,1
61g3fxc057my2n1aiwvvntof,2,174,6,lose,go,GAL,T,1,1,1.146,1,1.0,-10,1
61g3fxc057my2n1aiwvvntof,2,175,4,win,no-go,NGW,X,0,1,0.832,0,0.0,+1,1
61g3fxc057my2n1aiwvvntof,2,176,2,lose,no-go,NGAL,P,0,0,,1,0.0,-1,0
61g3fxc057my2n1aiwvvntof,2,177,5,win,no-go,NGW,X,0,1,0.676,0,0.0,+1,1
61g3fxc057my2n1aiwvvntof,2,178,5,win,go,GW,M,1,1,0.866,1,1.0,+1,1
61g3fxc057my2n1aiwvvntof,2,179,7,lose,go,GAL,T,1,1,0.895,1,0.0,-1,1
61g3fxc057my2n1aiwvvntof,2,180,3,lose,no-go,NGAL,P,0,0,,1,0.0,-1,0
61g3fxc057my2n1aiwvvntof,2,181,6,win,no-go,NGW,X,0,1,0.87,0,1.0,+10,1
61g3fxc057my2n1aiwvvntof,2,182,4,lose,no-go,NGAL,P,0,1,0.918,0,1.0,-1,1
61g3fxc057my2n1aiwvvntof,2,183,6,win,go,GW,M,1,1,0.866,1,1.0,+1,1
61g3fxc057my2n1aiwvvntof,2,184,8,lose,go,GAL,T,1,0,,0,0.0,-10,0
61g3fxc057my2n1aiwvvntof,2,185,7,win,go,GW,M,1,1,0.539,1,0.0,+10,1
61g3fxc057my2n1aiwvvntof,2,186,7,win,no-go,NGW,X,0,1,0.708,0,0.0,+1,1
61g3fxc057my2n1aiwvvntof,2,187,5,lose,no-go,NGAL,P,0,1,0.796,0,0.0,-10,1
61g3fxc057my2n1aiwvvntof,2,188,9,lose,go,GAL,T,1,1,1.06,1,0.0,-1,1
61g3fxc057my2n1aiwvvntof,2,189,10,lose,go,GAL,T,1,0,,0,0.0,-10,0
61g3fxc057my2n1aiwvvntof,2,190,8,win,go,GW,M,1,1,0.766,1,1.0,+1,1
61g3fxc057my2n1aiwvvntof,2,191,8,win,no-go,NGW,X,0,0,,1,0.0,+10,0
61g3fxc057my2n1aiwvvntof,2,192,6,lose,no-go,NGAL,P,0,1,0.776,0,0.0,-10,1
61g3fxc057my2n1aiwvvntof,2,193,1,win,go,GW,C,1,1,0.735,1,0.0,+10,1
61g3fxc057my2n1aiwvvntof,2,194,7,lose,no-go,NGAL,P,0,1,1.12,0,0.0,-10,1
61g3fxc057my2n1aiwvvntof,2,195,1,lose,go,GAL,Z,1,1,0.731,1,0.0,-1,1
61g3fxc057my2n1aiwvvntof,2,196,9,win,no-go,NGW,X,0,0,,1,0.0,+10,0
61g3fxc057my2n1aiwvvntof,2,197,10,win,no-go,NGW,X,0,0,,1,0.0,+10,0
61g3fxc057my2n1aiwvvntof,2,198,2,win,go,GW,C,1,1,0.623,1,0.0,+10,1
61g3fxc057my2n1aiwvvntof,2,199,8,lose,no-go,NGAL,P,0,0,,1,0.0,-1,0
61g3fxc057my2n1aiwvvntof,2,200,2,lose,go,GAL,Z,1,1,0.843,1,0.0,-1,1
61g3fxc057my2n1aiwvvntof,2,201,11,win,no-go,NGW,X,0,1,0.86,0,1.0,+10,1
61g3fxc057my2n1aiwvvntof,2,202,9,lose,no-go,NGAL,P,0,0,,1,0.0,-1,0
61g3fxc057my2n1aiwvvntof,2,203,3,lose,go,GAL,Z,1,1,0.837,1,0.0,-1,1
61g3fxc057my2n1aiwvvntof,2,204,3,win,go,GW,C,1,1,0.61,1,0.0,+10,1
61g3fxc057my2n1aiwvvntof,2,205,4,win,go,GW,C,1,1,0.667,1,0.0,+10,1
61g3fxc057my2n1aiwvvntof,2,206,4,lose,go,GAL,Z,1,1,0.768,1,0.0,-1,1
61g3fxc057my2n1aiwvvntof,2,207,10,lose,no-go,NGAL,P,0,0,,1,1.0,-10,0
61g3fxc057my2n1aiwvvntof,2,208,12,win,no-go,NGW,X,0,1,0.775,0,1.0,+10,1
61g3fxc057my2n1aiwvvntof,2,209,1,lose,go,GAL,K,1,0,,0,0.0,-10,0
61g3fxc057my2n1aiwvvntof,2,210,5,win,go,GW,C,1,1,0.557,1,0.0,+10,1
61g3fxc057my2n1aiwvvntof,2,211,1,win,no-go,NGW,N,0,1,0.705,0,0.0,+1,1
61g3fxc057my2n1aiwvvntof,2,212,5,lose,go,GAL,Z,1,1,0.723,1,0.0,-1,1
61g3fxc057my2n1aiwvvntof,2,213,6,lose,go,GAL,Z,1,1,0.61,1,1.0,-10,1
61g3fxc057my2n1aiwvvntof,2,214,2,win,no-go,NGW,N,0,0,,1,1.0,+1,0
61g3fxc057my2n1aiwvvntof,2,215,6,win,go,GW,C,1,1,0.783,1,0.0,+10,1
61g3fxc057my2n1aiwvvntof,2,216,2,lose,go,GAL,K,1,1,0.83,1,0.0,-1,1
61g3fxc057my2n1aiwvvntof,2,217,7,win,go,GW,C,1,1,0.729,1,0.0,+10,1
61g3fxc057my2n1aiwvvntof,2,218,7,lose,go,GAL,Z,1,1,0.931,1,0.0,-1,1
61g3fxc057my2n1aiwvvntof,2,219,3,lose,go,GAL,K,1,1,0.705,1,0.0,-1,1
61g3fxc057my2n1aiwvvntof,2,220,3,win,no-go,NGW,N,0,1,0.67,0,0.0,+1,1
61g3fxc057my2n1aiwvvntof,2,221,8,win,go,GW,C,1,1,0.803,1,0.0,+10,1
61g3fxc057my2n1aiwvvntof,2,222,8,lose,go,GAL,Z,1,1,0.826,1,0.0,-1,1
61g3fxc057my2n1aiwvvntof,2,223,4,lose,go,GAL,K,1,1,0.898,1,0.0,-1,1
61g3fxc057my2n1aiwvvntof,2,224,4,win,no-go,NGW,N,0,1,0.832,0,1.0,+10,1
61g3fxc057my2n1aiwvvntof,2,225,9,win,go,GW,C,1,1,0.642,1,0.0,+10,1
61g3fxc057my2n1aiwvvntof,2,226,5,lose,go,GAL,K,1,1,0.984,1,1.0,-10,1
61g3fxc057my2n1aiwvvntof,2,227,9,lose,go,GAL,Z,1,1,0.836,1,0.0,-1,1
61g3fxc057my2n1aiwvvntof,2,228,5,win,no-go,NGW,N,0,1,0.955,0,0.0,+1,1
61g3fxc057my2n1aiwvvntof,2,229,6,lose,go,GAL,K,1,0,,0,0.0,-10,0
61g3fxc057my2n1aiwvvntof,2,230,10,win,go,GW,C,1,1,0.554,1,1.0,+1,1
61g3fxc057my2n1aiwvvntof,2,231,6,win,no-go,NGW,N,0,0,,1,0.0,+10,0
61g3fxc057my2n1aiwvvntof,2,232,10,lose,go,GAL,Z,1,1,0.766,1,0.0,-1,1
61g3fxc057my2n1aiwvvntof,2,233,7,lose,go,GAL,K,1,0,,0,0.0,-10,0
61g3fxc057my2n1aiwvvntof,2,234,11,lose,go,GAL,Z,1,1,0.621,1,0.0,-1,1
61g3fxc057my2n1aiwvvntof,2,235,11,win,go,GW,C,1,1,0.5,1,0.0,+10,1
61g3fxc057my2n1aiwvvntof,2,236,7,win,no-go,NGW,N,0,1,0.643,0,1.0,+10,1
61g3fxc057my2n1aiwvvntof,2,237,8,win,no-go,NGW,N,0,0,,1,0.0,+10,0
61g3fxc057my2n1aiwvvntof,2,238,12,lose,go,GAL,Z,1,1,0.584,1,0.0,-1,1
61g3fxc057my2n1aiwvvntof,2,239,12,win,go,GW,C,1,1,0.701,1,1.0,+1,1
61g3fxc057my2n1aiwvvntof,2,240,8,lose,go,GAL,K,1,1,0.793,1,0.0,-1,1
636jfh1r2f6ajx45tgucip2h,1,1,1,lose,no-go,NGAL,I,0,1,0.743,0,1.0,-1,1
636jfh1r2f6ajx45tgucip2h,1,2,1,win,go,GW,B,1,1,0.921,1,0.0,+10,1
636jfh1r2f6ajx45tgucip2h,1,3,1,win,go,GW,J,1,0,,0,0.0,+1,0
636jfh1r2f6ajx45tgucip2h,1,4,1,win,no-go,NGW,N,0,1,0.835,0,0.0,+1,1
636jfh1r2f6ajx45tgucip2h,1,5,2,win,no-go,NGW,N,0,1,1.09,0,0.0,+1,1
636jfh1r2f6ajx45tgucip2h,1,6,2,win,go,GW,B,1,1,1.006,1,0.0,+10,1
636jfh1r2f6ajx45tgucip2h,1,7,2,win,go,GW,J,1,0,,0,0.0,+1,0
636jfh1r2f6ajx45tgucip2h,1,8,2,lose,no-go,NGAL,I,0,1,0.858,0,0.0,-10,1
636jfh1r2f6ajx45tgucip2h,1,9,3,win,no-go,NGW,N,0,1,1.17,0,0.0,+1,1
636jfh1r2f6ajx45tgucip2h,1,10,3,win,go,GW,B,1,1,0.974,1,0.0,+10,1
636jfh1r2f6ajx45tgucip2h,1,11,3,win,go,GW,J,1,0,,0,0.0,+1,0
636jfh1r2f6ajx45tgucip2h,1,12,3,lose,no-go,NGAL,I,0,1,1.288,0,0.0,-10,1
636jfh1r2f6ajx45tgucip2h,1,13,4,win,go,GW,J,1,1,1.049,1,0.0,+10,1
636jfh1r2f6ajx45tgucip2h,1,14,4,win,no-go,NGW,N,0,0,,1,1.0,+1,0
636jfh1r2f6ajx45tgucip2h,1,15,4,win,go,GW,B,1,1,0.867,1,0.0,+10,1
636jfh1r2f6ajx45tgucip2h,1,16,4,lose,no-go,NGAL,I,0,0,,1,0.0,-1,1
636jfh1r2f6ajx45tgucip2h,1,17,5,win,no-go,NGW,N,0,0,,1,0.0,+10,1
636jfh1r2f6ajx45tgucip2h,1,18,5,lose,no-go,NGAL,I,0,0,,1,0.0,-1,0
636jfh1r2f6ajx45tgucip2h,1,19,5,win,go,GW,B,1,1,0.6,1,1.0,+1,1
636jfh1r2f6ajx45tgucip2h,1,20,5,win,go,GW,J,1,1,1.145,1,0.0,+10,1
636jfh1r2f6ajx45tgucip2h,1,21,6,win,no-go,NGW,N,0,1,0.952,0,1.0,+10,1
636jfh1r2f6ajx45tgucip2h,1,22,6,win,go,GW,J,1,0,,0,1.0,+10,0
636jfh1r2f6ajx45tgucip2h,1,23,6,lose,no-go,NGAL,I,0,0,,1,0.0,-1,1
636jfh1r2f6ajx45tgucip2h,1,24,6,win,go,GW,B,1,1,1.064,1,1.0,+1,1
636jfh1r2f6ajx45tgucip2h,1,25,7,win,go,GW,B,1,0,,0,0.0,+1,0
636jfh1r2f6ajx45tgucip2h,1,26,7,win,no-go,NGW,N,0,1,0.716,0,0.0,+1,1
636jfh1r2f6ajx45tgucip2h,1,27,7,lose,no-go,NGAL,I,0,0,,1,1.0,-10,0
636jfh1r2f6ajx45tgucip2h,1,28,7,win,go,GW,J,1,1,0.854,1,0.0,+10,1
636jfh1r2f6ajx45tgucip2h,1,29,8,win,go,GW,J,1,1,0.951,1,1.0,+1,1
636jfh1r2f6ajx45tgucip2h,1,30,8,lose,no-go,NGAL,I,0,1,0.828,0,0.0,-10,1
636jfh1r2f6ajx45tgucip2h,1,31,8,win,no-go,NGW,N,0,1,0.695,0,0.0,+1,1
636jfh1r2f6ajx45tgucip2h,1,32,8,win,go,GW,B,1,1,0.614,1,0.0,+10,1
636jfh1r2f6ajx45tgucip2h,1,33,9,lose,no-go,NGAL,I,0,0,,1,0.0,-1,0
636jfh1r2f6ajx45tgucip2h,1,34,9,win,go,GW,J,1,1,0.854,1,0.0,+10,1
636jfh1r2f6ajx45tgucip2h,1,35,9,win,no-go,NGW,N,0,0,,1,0.0,+10,0
636jfh1r2f6ajx45tgucip2h,1,36,1,win,go,GW,P,1,1,1.037,1,0.0,+10,1
636jfh1r2f6ajx45tgucip2h,1,37,10,lose,no-go,NGAL,I,0,1,1.217,0,0.0,-10,1
636jfh1r2f6ajx45tgucip2h,1,38,10,win,go,GW,J,1,1,0.968,1,1.0,+1,1
636jfh1r2f6ajx45tgucip2h,1,39,2,win,go,GW,P,1,1,1.061,1,0.0,+10,1
636jfh1r2f6ajx45tgucip2h,1,40,10,win,no-go,NGW,N,0,1,0.784,0,0.0,+1,1
636jfh1r2f6ajx45tgucip2h,1,41,1,lose,no-go,NGAL,K,0,1,1.191,0,0.0,-10,1
636jfh1r2f6ajx45tgucip2h,1,42,1,lose,go,GAL,Y,1,1,0.928,1,1.0,-10,1
636jfh1r2f6ajx45tgucip2h,1,43,11,win,no-go,NGW,N,0,1,0.936,0,0.0,+1,1
636jfh1r2f6ajx45tgucip2h,1,44,3,win,go,GW,P,1,1,0.982,1,0.0,+10,1
636jfh1r2f6ajx45tgucip2h,1,45,12,win,no-go,NGW,N,0,1,0.822,0,0.0,+1,1
636jfh1r2f6ajx45tgucip2h,1,46,2,lose,no-go,NGAL,K,0,0,,1,0.0,-1,0
636jfh1r2f6ajx45tgucip2h,1,47,2,lose,go,GAL,Y,1,0,,0,0.0,-10,0
636jfh1r2f6ajx45tgucip2h,1,48,4,win,go,GW,P,1,1,0.669,1,0.0,+10,1
636jfh1r2f6ajx45tgucip2h,1,49,3,lose,go,GAL,Y,1,1,1.203,1,0.0,-1,1
636jfh1r2f6ajx45tgucip2h,1,50,3,lose,no-go,NGAL,K,0,0,,1,0.0,-1,1
636jfh1r2f6ajx45tgucip2h,1,51,5,win,go,GW,P,1,1,0.826,1,0.0,+10,1
636jfh1r2f6ajx45tgucip2h,1,52,1,win,no-go,NGW,H,0,0,,1,0.0,+10,0
636jfh1r2f6ajx45tgucip2h,1,53,2,win,no-go,NGW,H,0,0,,1,0.0,+10,0
636jfh1r2f6ajx45tgucip2h,1,54,6,win,go,GW,P,1,1,0.704,1,0.0,+10,1
636jfh1r2f6ajx45tgucip2h,1,55,4,lose,go,GAL,Y,1,0,,0,1.0,-1,0
636jfh1r2f6ajx45tgucip2h,1,56,4,lose,no-go,NGAL,K,0,1,0.84,0,0.0,-10,1
636jfh1r2f6ajx45tgucip2h,1,57,5,lose,go,GAL,Y,1,0,,0,0.0,-10,0
636jfh1r2f6ajx45tgucip2h,1,58,5,lose,no-go,NGAL,K,0,0,,1,1.0,-10,0
636jfh1r2f6ajx45tgucip2h,1,59,3,win,no-go,NGW,H,0,1,0.807,0,1.0,+10,1
636jfh1r2f6ajx45tgucip2h,1,60,7,win,go,GW,P,1,1,0.738,1,0.0,+10,1
636jfh1r2f6ajx45tgucip2h,1,61,4,win,no-go,NGW,H,0,1,0.577,0,0.0,+1,1
636jfh1r2f6ajx45tgucip2h,1,62,6,lose,no-go,NGAL,K,0,1,0.894,0,0.0,-10,1
636jfh1r2f6ajx45tgucip2h,1,63,8,win,go,GW,P,1,1,0.608,1,0.0,+10,1
636jfh1r2f6ajx45tgucip2h,1,64,6,lose,go,GAL,Y,1,0,,0,0.0,-10,0
636jfh1r2f6ajx45tgucip2h,1,65,5,win,no-go,NGW,H,0,1,0.547,0,0.0,+1,1
636jfh1r2f6ajx45tgucip2h,1,66,7,lose,no-go,NGAL,K,0,0,,1,0.0,-1,0
636jfh1r2f6ajx45tgucip2h,1,67,7,lose,go,GAL,Y,1,0,,0,0.0,-10,1
636jfh1r2f6ajx45tgucip2h,1,68,9,win,go,GW,P,1,1,0.778,1,0.0,+10,1
636jfh1r2f6ajx45tgucip2h,1,69,8,lose,go,GAL,Y,1,1,0.926,1,0.0,-1,1
636jfh1r2f6ajx45tgucip2h,1,70,10,win,go,GW,P,1,1,0.631,1,0.0,+10,1
636jfh1r2f6ajx45tgucip2h,1,71,6,win,no-go,NGW,H,0,1,0.961,0,0.0,+1,1
636jfh1r2f6ajx45tgucip2h,1,72,8,lose,no-go,NGAL,K,0,1,1.041,0,0.0,-10,1
636jfh1r2f6ajx45tgucip2h,1,73,1,lose,go,GAL,F,1,1,0.998,1,0.0,-1,1
636jfh1r2f6ajx45tgucip2h,1,74,7,win,no-go,NGW,H,0,1,0.753,0,0.0,+1,1
636jfh1r2f6ajx45tgucip2h,1,75,11,win,go,GW,P,1,1,0.448,1,0.0,+10,1
636jfh1r2f6ajx45tgucip2h,1,76,9,lose,no-go,NGAL,K,0,1,0.823,0,0.0,-10,1
636jfh1r2f6ajx45tgucip2h,1,77,8,win,no-go,NGW,H,0,1,0.738,0,0.0,+1,1
636jfh1r2f6ajx45tgucip2h,1,78,12,win,go,GW,P,1,1,0.671,1,0.0,+10,1
636jfh1r2f6ajx45tgucip2h,1,79,2,lose,go,GAL,F,1,0,,0,1.0,-1,0
636jfh1r2f6ajx45tgucip2h,1,80,10,lose,no-go,NGAL,K,0,0,,1,1.0,-10,0
636jfh1r2f6ajx45tgucip2h,1,81,11,lose,no-go,NGAL,K,0,1,1.176,0,0.0,-10,1
636jfh1r2f6ajx45tgucip2h,1,82,3,lose,go,GAL,F,1,1,0.73,1,0.0,-1,1
636jfh1r2f6ajx45tgucip2h,1,83,1,lose,go,GAL,L,1,1,0.838,1,0.0,-1,1
636jfh1r2f6ajx45tgucip2h,1,84,9,win,no-go,NGW,H,0,0,,1,0.0,+10,0
636jfh1r2f6ajx45tgucip2h,1,85,10,win,no-go,NGW,H,0,0,,1,0.0,+10,0
636jfh1r2f6ajx45tgucip2h,1,86,4,lose,go,GAL,F,1,1,0.92,1,1.0,-10,1
636jfh1r2f6ajx45tgucip2h,1,87,2,lose,go,GAL,L,1,0,,0,0.0,-10,0
636jfh1r2f6ajx45tgucip2h,1,88,12,lose,no-go,NGAL,K,0,1,0.766,0,0.0,-10,1
636jfh1r2f6ajx45tgucip2h,1,89,5,lose,go,GAL,F,1,0,,0,0.0,-10,0
636jfh1r2f6ajx45tgucip2h,1,90,1,lose,no-go,NGAL,C,0,1,0.597,0,0.0,-10,1
636jfh1r2f6ajx45tgucip2h,1,91,1,win,no-go,NGW,W,0,1,0.607,0,0.0,+1,1
636jfh1r2f6ajx45tgucip2h,1,92,3,lose,go,GAL,L,1,1,0.698,1,1.0,-10,1
636jfh1r2f6ajx45tgucip2h,1,93,4,lose,go,GAL,L,1,0,,0,1.0,-1,0
636jfh1r2f6ajx45tgucip2h,1,94,2,lose,no-go,NGAL,C,0,1,0.688,0,0.0,-10,1
636jfh1r2f6ajx45tgucip2h,1,95,2,win,no-go,NGW,W,0,1,0.802,0,0.0,+1,1
636jfh1r2f6ajx45tgucip2h,1,96,6,lose,go,GAL,F,1,0,,0,1.0,-1,0
636jfh1r2f6ajx45tgucip2h,1,97,3,win,no-go,NGW,W,0,1,0.908,0,0.0,+1,1
636jfh1r2f6ajx45tgucip2h,1,98,7,lose,go,GAL,F,1,1,0.674,1,1.0,-10,1
636jfh1r2f6ajx45tgucip2h,1,99,5,lose,go,GAL,L,1,0,,0,0.0,-10,0
636jfh1r2f6ajx45tgucip2h,1,100,3,lose,no-go,NGAL,C,0,1,0.596,0,0.0,-10,1
636jfh1r2f6ajx45tgucip2h,1,101,6,lose,go,GAL,L,1,1,0.774,1,0.0,-1,1
636jfh1r2f6ajx45tgucip2h,1,102,8,lose,go,GAL,F,1,1,0.671,1,0.0,-1,1
636jfh1r2f6ajx45tgucip2h,1,103,4,win,no-go,NGW,W,0,0,,1,1.0,+1,0
636jfh1r2f6ajx45tgucip2h,1,104,4,lose,no-go,NGAL,C,0,1,1.076,0,0.0,-10,1
636jfh1r2f6ajx45tgucip2h,1,105,7,lose,go,GAL,L,1,1,0.825,1,0.0,-1,1
636jfh1r2f6ajx45tgucip2h,1,106,5,win,no-go,NGW,W,0,0,,1,0.0,+10,0
636jfh1r2f6ajx45tgucip2h,1,107,5,lose,no-go,NGAL,C,0,0,,1,0.0,-1,0
636jfh1r2f6ajx45tgucip2h,1,108,9,lose,go,GAL,F,1,1,0.919,1,0.0,-1,1
636jfh1r2f6ajx45tgucip2h,1,109,8,lose,go,GAL,L,1,1,1.013,1,1.0,-10,1
636jfh1r2f6ajx45tgucip2h,1,110,10,lose,go,GAL,F,1,0,,0,0.0,-10,0
636jfh1r2f6ajx45tgucip2h,1,111,6,win,no-go,NGW,W,0,0,,1,0.0,+10,0
636jfh1r2f6ajx45tgucip2h,1,112,6,lose,no-go,NGAL,C,0,0,,1,0.0,-1,0
636jfh1r2f6ajx45tgucip2h,1,113,7,lose,no-go,NGAL,C,0,0,,1,0.0,-1,0
636jfh1r2f6ajx45tgucip2h,1,114,11,lose,go,GAL,F,1,1,1.107,1,0.0,-1,1
636jfh1r2f6ajx45tgucip2h,1,115,7,win,no-go,NGW,W,0,0,,1,1.0,+1,0
636jfh1r2f6ajx45tgucip2h,1,116,9,lose,go,GAL,L,1,1,0.881,1,0.0,-1,1
636jfh1r2f6ajx45tgucip2h,1,117,12,lose,go,GAL,F,1,1,1.003,1,0.0,-1,1
636jfh1r2f6ajx45tgucip2h,1,118,10,lose,go,GAL,L,1,1,0.839,1,0.0,-1,1
636jfh1r2f6ajx45tgucip2h,1,119,8,lose,no-go,NGAL,C,0,1,0.624,0,0.0,-10,1
636jfh1r2f6ajx45tgucip2h,1,120,8,win,no-go,NGW,W,0,0,,1,0.0,+10,0
636jfh1r2f6ajx45tgucip2h,2,121,1,lose,no-go,NGAL,R,0,1,0.952,0,1.0,-1,1
636jfh1r2f6ajx45tgucip2h,2,122,1,win,go,GW,D,1,0,,0,0.0,+1,0
636jfh1r2f6ajx45tgucip2h,2,123,1,win,no-go,NGW,M,0,0,,1,1.0,+1,0
636jfh1r2f6ajx45tgucip2h,2,124,1,lose,no-go,NGAL,Q,0,1,1.186,0,0.0,-10,1
636jfh1r2f6ajx45tgucip2h,2,125,2,lose,no-go,NGAL,Q,0,0,,1,0.0,-1,0
636jfh1r2f6ajx45tgucip2h,2,126,2,lose,no-go,NGAL,R,0,1,0.77,0,0.0,-10,1
636jfh1r2f6ajx45tgucip2h,2,127,2,win,go,GW,D,1,1,0.906,1,0.0,+10,1
636jfh1r2f6ajx45tgucip2h,2,128,2,win,no-go,NGW,M,0,1,0.449,0,1.0,+10,1
636jfh1r2f6ajx45tgucip2h,2,129,3,win,go,GW,D,1,1,0.606,1,0.0,+10,1
636jfh1r2f6ajx45tgucip2h,2,130,3,lose,no-go,NGAL,R,0,0,,1,0.0,-1,0
636jfh1r2f6ajx45tgucip2h,2,131,3,win,no-go,NGW,M,0,1,0.574,0,0.0,+1,1
636jfh1r2f6ajx45tgucip2h,2,132,3,lose,no-go,NGAL,Q,0,1,0.964,0,0.0,-10,1
636jfh1r2f6ajx45tgucip2h,2,133,4,win,no-go,NGW,M,0,1,0.679,0,0.0,+1,1
636jfh1r2f6ajx45tgucip2h,2,134,4,lose,no-go,NGAL,Q,0,0,,1,0.0,-1,0
636jfh1r2f6ajx45tgucip2h,2,135,4,win,go,GW,D,1,1,0.62,1,0.0,+10,1
636jfh1r2f6ajx45tgucip2h,2,136,4,lose,no-go,NGAL,R,0,1,0.848,0,0.0,-10,1
636jfh1r2f6ajx45tgucip2h,2,137,5,win,go,GW,D,1,1,0.608,1,0.0,+10,1
636jfh1r2f6ajx45tgucip2h,2,138,5,win,no-go,NGW,M,0,1,0.682,0,0.0,+1,1
636jfh1r2f6ajx45tgucip2h,2,139,5,lose,no-go,NGAL,R,0,1,0.782,0,0.0,-10,1
636jfh1r2f6ajx45tgucip2h,2,140,5,lose,no-go,NGAL,Q,0,1,0.839,0,0.0,-10,1
636jfh1r2f6ajx45tgucip2h,2,141,6,win,go,GW,D,1,1,0.655,1,0.0,+10,1
636jfh1r2f6ajx45tgucip2h,2,142,6,lose,no-go,NGAL,Q,0,0,,1,0.0,-1,0
636jfh1r2f6ajx45tgucip2h,2,143,6,lose,no-go,NGAL,R,0,0,,1,0.0,-1,0
636jfh1r2f6ajx45tgucip2h,2,144,6,win,no-go,NGW,M,0,0,,1,0.0,+10,0
636jfh1r2f6ajx45tgucip2h,2,145,7,win,go,GW,D,1,1,0.694,1,0.0,+10,1
636jfh1r2f6ajx45tgucip2h,2,146,7,win,no-go,NGW,M,0,1,0.796,0,0.0,+1,1
636jfh1r2f6ajx45tgucip2h,2,147,7,lose,no-go,NGAL,Q,0,0,,1,0.0,-1,0
636jfh1r2f6ajx45tgucip2h,2,148,7,lose,no-go,NGAL,R,0,0,,1,0.0,-1,0
636jfh1r2f6ajx45tgucip2h,2,149,8,win,go,GW,D,1,1,0.767,1,0.0,+10,1
636jfh1r2f6ajx45tgucip2h,2,150,8,lose,no-go,NGAL,R,0,0,,1,0.0,-1,0
636jfh1r2f6ajx45tgucip2h,2,151,8,win,no-go,NGW,M,0,0,,1,0.0,+10,0
636jfh1r2f6ajx45tgucip2h,2,152,8,lose,no-go,NGAL,Q,0,0,,1,0.0,-1,0
636jfh1r2f6ajx45tgucip2h,2,153,9,lose,no-go,NGAL,R,0,0,,1,1.0,-10,0
636jfh1r2f6ajx45tgucip2h,2,154,9,win,no-go,NGW,M,0,0,,1,0.0,+10,0
636jfh1r2f6ajx45tgucip2h,2,155,9,win,go,GW,D,1,1,0.714,1,0.0,+10,1
636jfh1r2f6ajx45tgucip2h,2,156,1,lose,go,GAL,V,1,0,,0,1.0,-1,0
636jfh1r2f6ajx45tgucip2h,2,157,2,lose,go,GAL,V,1,0,,0,0.0,-10,0
636jfh1r2f6ajx45tgucip2h,2,158,10,win,no-go,NGW,M,0,0,,1,1.0,+1,0
636jfh1r2f6ajx45tgucip2h,2,159,10,win,go,GW,D,1,1,0.65,1,0.0,+10,1
636jfh1r2f6ajx45tgucip2h,2,160,10,lose,no-go,NGAL,R,0,0,,1,0.0,-1,0
636jfh1r2f6ajx45tgucip2h,2,161,11,lose,no-go,NGAL,R,0,0,,1,0.0,-1,0
636jfh1r2f6ajx45tgucip2h,2,162,1,win,go,GW,E,1,1,0.648,1,0.0,+10,1
636jfh1r2f6ajx45tgucip2h,2,163,1,win,no-go,NGW,T,0,1,0.639,0,0.0,+1,1
636jfh1r2f6ajx45tgucip2h,2,164,3,lose,go,GAL,V,1,0,,0,0.0,-10,0
636jfh1r2f6ajx45tgucip2h,2,165,4,lose,go,GAL,V,1,1,0.477,1,0.0,-1,1
636jfh1r2f6ajx45tgucip2h,2,166,2,win,go,GW,E,1,0,,0,0.0,+1,0
636jfh1r2f6ajx45tgucip2h,2,167,12,lose,no-go,NGAL,R,0,1,0.724,0,0.0,-10,1
636jfh1r2f6ajx45tgucip2h,2,168,2,win,no-go,NGW,T,0,1,1.288,0,0.0,+1,1
636jfh1r2f6ajx45tgucip2h,2,169,3,win,go,GW,E,1,1,0.519,1,0.0,+10,1
636jfh1r2f6ajx45tgucip2h,2,170,3,win,no-go,NGW,T,0,0,,1,0.0,+10,0
636jfh1r2f6ajx45tgucip2h,2,171,5,lose,go,GAL,V,1,1,0.774,1,1.0,-10,1
636jfh1r2f6ajx45tgucip2h,2,172,1,lose,no-go,NGAL,U,0,1,0.768,0,0.0,-10,1
636jfh1r2f6ajx45tgucip2h,2,173,2,lose,no-go,NGAL,U,0,0,,1,1.0,-10,0
636jfh1r2f6ajx45tgucip2h,2,174,4,win,no-go,NGW,T,0,1,1.02,0,0.0,+1,1
636jfh1r2f6ajx45tgucip2h,2,175,4,win,go,GW,E,1,0,,0,0.0,+1,0
636jfh1r2f6ajx45tgucip2h,2,176,6,lose,go,GAL,V,1,1,0.937,1,0.0,-1,1
636jfh1r2f6ajx45tgucip2h,2,177,5,win,no-go,NGW,T,0,1,1.069,0,0.0,+1,1
636jfh1r2f6ajx45tgucip2h,2,178,3,lose,no-go,NGAL,U,0,0,,1,0.0,-1,0
636jfh1r2f6ajx45tgucip2h,2,179,7,lose,go,GAL,V,1,0,,0,0.0,-10,0
636jfh1r2f6ajx45tgucip2h,2,180,5,win,go,GW,E,1,0,,0,0.0,+1,0
636jfh1r2f6ajx45tgucip2h,2,181,6,win,go,GW,E,1,1,0.845,1,0.0,+10,1
636jfh1r2f6ajx45tgucip2h,2,182,8,lose,go,GAL,V,1,1,0.719,1,1.0,-10,1
636jfh1r2f6ajx45tgucip2h,2,183,6,win,no-go,NGW,T,0,0,,1,0.0,+10,0
636jfh1r2f6ajx45tgucip2h,2,184,4,lose,no-go,NGAL,U,0,1,0.711,0,0.0,-10,1
636jfh1r2f6ajx45tgucip2h,2,185,5,lose,no-go,NGAL,U,0,0,,1,0.0,-1,0
636jfh1r2f6ajx45tgucip2h,2,186,7,win,no-go,NGW,T,0,1,0.779,0,0.0,+1,1
636jfh1r2f6ajx45tgucip2h,2,187,9,lose,go,GAL,V,1,0,,0,0.0,-10,0
636jfh1r2f6ajx45tgucip2h,2,188,7,win,go,GW,E,1,1,1.043,1,0.0,+10,1
636jfh1r2f6ajx45tgucip2h,2,189,10,lose,go,GAL,V,1,1,0.721,1,0.0,-1,1
636jfh1r2f6ajx45tgucip2h,2,190,8,win,go,GW,E,1,1,0.833,1,0.0,+10,1
636jfh1r2f6ajx45tgucip2h,2,191,6,lose,no-go,NGAL,U,0,1,0.77,0,0.0,-10,1
636jfh1r2f6ajx45tgucip2h,2,192,8,win,no-go,NGW,T,0,1,0.719,0,0.0,+1,1
636jfh1r2f6ajx45tgucip2h,2,193,9,win,no-go,NGW,T,0,0,,1,0.0,+10,0
636jfh1r2f6ajx45tgucip2h,2,194,1,win,go,GW,G,1,1,0.698,1,0.0,+10,1
636jfh1r2f6ajx45tgucip2h,2,195,7,lose,no-go,NGAL,U,0,1,0.898,0,1.0,-1,1
636jfh1r2f6ajx45tgucip2h,2,196,1,lose,go,GAL,X,1,1,0.72,1,0.0,-1,1
636jfh1r2f6ajx45tgucip2h,2,197,2,win,go,GW,G,1,1,0.841,1,0.0,+10,1
636jfh1r2f6ajx45tgucip2h,2,198,10,win,no-go,NGW,T,0,0,,1,1.0,+1,0
636jfh1r2f6ajx45tgucip2h,2,199,8,lose,no-go,NGAL,U,0,1,0.657,0,1.0,-1,1
636jfh1r2f6ajx45tgucip2h,2,200,2,lose,go,GAL,X,1,1,0.679,1,1.0,-10,1
636jfh1r2f6ajx45tgucip2h,2,201,3,win,go,GW,G,1,1,0.528,1,0.0,+10,1
636jfh1r2f6ajx45tgucip2h,2,202,3,lose,go,GAL,X,1,0,,0,0.0,-10,0
636jfh1r2f6ajx45tgucip2h,2,203,9,lose,no-go,NGAL,U,0,1,0.706,0,0.0,-10,1
636jfh1r2f6ajx45tgucip2h,2,204,11,win,no-go,NGW,T,0,0,,1,0.0,+10,0
636jfh1r2f6ajx45tgucip2h,2,205,4,lose,go,GAL,X,1,1,0.66,1,1.0,-10,1
636jfh1r2f6ajx45tgucip2h,2,206,12,win,no-go,NGW,T,0,1,0.688,0,0.0,+1,1
636jfh1r2f6ajx45tgucip2h,2,207,4,win,go,GW,G,1,1,0.601,1,1.0,+1,1
636jfh1r2f6ajx45tgucip2h,2,208,10,lose,no-go,NGAL,U,0,1,0.823,0,1.0,-1,1
636jfh1r2f6ajx45tgucip2h,2,209,1,win,no-go,NGW,Z,0,1,0.947,0,0.0,+1,1
636jfh1r2f6ajx45tgucip2h,2,210,5,win,go,GW,G,1,0,,0,0.0,+1,0
636jfh1r2f6ajx45tgucip2h,2,211,1,lose,go,GAL,S,1,1,0.564,1,0.0,-1,1
636jfh1r2f6ajx45tgucip2h,2,212,5,lose,go,GAL,X,1,1,0.671,1,0.0,-1,1
636jfh1r2f6ajx45tgucip2h,2,213,2,win,no-go,NGW,Z,0,1,0.711,0,0.0,+1,1
636jfh1r2f6ajx45tgucip2h,2,214,6,win,go,GW,G,1,1,1.192,1,1.0,+1,1
636jfh1r2f6ajx45tgucip2h,2,215,2,lose,go,GAL,S,1,1,0.752,1,0.0,-1,1
636jfh1r2f6ajx45tgucip2h,2,216,6,lose,go,GAL,X,1,1,0.528,1,0.0,-1,1
636jfh1r2f6ajx45tgucip2h,2,217,7,win,go,GW,G,1,0,,0,0.0,+1,0
636jfh1r2f6ajx45tgucip2h,2,218,3,win,no-go,NGW,Z,0,0,,1,0.0,+10,0
636jfh1r2f6ajx45tgucip2h,2,219,7,lose,go,GAL,X,1,1,0.637,1,0.0,-1,1
636jfh1r2f6ajx45tgucip2h,2,220,3,lose,go,GAL,S,1,1,0.711,1,0.0,-1,1
636jfh1r2f6ajx45tgucip2h,2,221,8,win,go,GW,G,1,0,,0,0.0,+1,0
636jfh1r2f6ajx45tgucip2h,2,222,4,lose,go,GAL,S,1,1,0.612,1,1.0,-10,1
636jfh1r2f6ajx45tgucip2h,2,223,4,win,no-go,NGW,Z,0,0,,1,0.0,+10,0
636jfh1r2f6ajx45tgucip2h,2,224,8,lose,go,GAL,X,1,1,0.613,1,0.0,-1,1
636jfh1r2f6ajx45tgucip2h,2,225,9,lose,go,GAL,X,1,1,0.713,1,0.0,-1,1
636jfh1r2f6ajx45tgucip2h,2,226,5,lose,go,GAL,S,1,1,0.693,1,1.0,-10,1
636jfh1r2f6ajx45tgucip2h,2,227,9,win,go,GW,G,1,0,,0,0.0,+1,0
636jfh1r2f6ajx45tgucip2h,2,228,5,win,no-go,NGW,Z,0,1,0.623,0,0.0,+1,1
636jfh1r2f6ajx45tgucip2h,2,229,6,lose,go,GAL,S,1,1,0.633,1,0.0,-1,1
636jfh1r2f6ajx45tgucip2h,2,230,10,lose,go,GAL,X,1,1,0.648,1,0.0,-1,1
636jfh1r2f6ajx45tgucip2h,2,231,10,win,go,GW,G,1,0,,0,0.0,+1,0
636jfh1r2f6ajx45tgucip2h,2,232,6,win,no-go,NGW,Z,0,1,0.469,0,0.0,+1,1
636jfh1r2f6ajx45tgucip2h,2,233,11,win,go,GW,G,1,0,,0,0.0,+1,0
636jfh1r2f6ajx45tgucip2h,2,234,11,lose,go,GAL,X,1,1,0.696,1,0.0,-1,1
636jfh1r2f6ajx45tgucip2h,2,235,7,lose,go,GAL,S,1,1,0.641,1,1.0,-10,1
636jfh1r2f6ajx45tgucip2h,2,236,7,win,no-go,NGW,Z,0,1,0.526,0,0.0,+1,1
636jfh1r2f6ajx45tgucip2h,2,237,8,lose,go,GAL,S,1,1,0.758,1,1.0,-10,1
636jfh1r2f6ajx45tgucip2h,2,238,12,win,go,GW,G,1,0,,0,0.0,+1,0
636jfh1r2f6ajx45tgucip2h,2,239,8,win,no-go,NGW,Z,0,1,0.537,0,1.0,+10,1
636jfh1r2f6ajx45tgucip2h,2,240,12,lose,go,GAL,X,1,1,0.666,1,0.0,-1,1
699x8md0mzliqgb2epwh87q1,1,1,1,win,go,GW,X,1,1,0.298,1,0.0,+10,1
699x8md0mzliqgb2epwh87q1,1,2,1,win,go,GW,N,1,1,0.422,1,0.0,+10,1
699x8md0mzliqgb2epwh87q1,1,3,1,win,no-go,NGW,V,0,1,0.263,0,0.0,+1,1
699x8md0mzliqgb2epwh87q1,1,4,1,lose,no-go,NGAL,D,0,1,0.464,0,0.0,-10,1
699x8md0mzliqgb2epwh87q1,1,5,2,win,no-go,NGW,V,0,1,0.299,0,0.0,+1,1
699x8md0mzliqgb2epwh87q1,1,6,2,win,go,GW,X,1,1,0.388,1,0.0,+10,1
699x8md0mzliqgb2epwh87q1,1,7,2,lose,no-go,NGAL,D,0,0,,1,1.0,-10,0
699x8md0mzliqgb2epwh87q1,1,8,2,win,go,GW,N,1,1,0.261,1,0.0,+10,1
699x8md0mzliqgb2epwh87q1,1,9,3,win,go,GW,X,1,1,0.402,1,0.0,+10,1
699x8md0mzliqgb2epwh87q1,1,10,3,lose,no-go,NGAL,D,0,1,0.414,0,0.0,-10,1
699x8md0mzliqgb2epwh87q1,1,11,3,win,no-go,NGW,V,0,1,0.313,0,0.0,+1,1
699x8md0mzliqgb2epwh87q1,1,12,3,win,go,GW,N,1,1,0.337,1,0.0,+10,1
699x8md0mzliqgb2epwh87q1,1,13,4,win,no-go,NGW,V,0,1,0.254,0,0.0,+1,1
699x8md0mzliqgb2epwh87q1,1,14,4,win,go,GW,X,1,1,0.762,1,0.0,+10,1
699x8md0mzliqgb2epwh87q1,1,15,4,lose,no-go,NGAL,D,0,0,,1,0.0,-1,0
699x8md0mzliqgb2epwh87q1,1,16,4,win,go,GW,N,1,1,0.285,1,0.0,+10,1
699x8md0mzliqgb2epwh87q1,1,17,5,win,go,GW,X,1,1,0.383,1,0.0,+10,1
699x8md0mzliqgb2epwh87q1,1,18,5,win,no-go,NGW,V,0,1,0.253,0,1.0,+10,1
699x8md0mzliqgb2epwh87q1,1,19,5,lose,no-go,NGAL,D,0,1,0.805,0,0.0,-10,1
699x8md0mzliqgb2epwh87q1,1,20,5,win,go,GW,N,1,1,0.284,1,0.0,+10,1
699x8md0mzliqgb2epwh87q1,1,21,6,win,go,GW,X,1,1,0.382,1,0.0,+10,1
699x8md0mzliqgb2epwh87q1,1,22,6,win,go,GW,N,1,1,0.28,1,0.0,+10,1
699x8md0mzliqgb2epwh87q1,1,23,6,lose,no-go,NGAL,D,0,0,,1,0.0,-1,0
699x8md0mzliqgb2epwh87q1,1,24,6,win,no-go,NGW,V,0,1,0.19,0,1.0,+10,1
699x8md0mzliqgb2epwh87q1,1,25,7,win,no-go,NGW,V,0,1,0.247,0,0.0,+1,1
699x8md0mzliqgb2epwh87q1,1,26,7,win,go,GW,X,1,1,0.433,1,1.0,+1,1
699x8md0mzliqgb2epwh87q1,1,27,7,lose,no-go,NGAL,D,0,1,0.743,0,0.0,-10,1
699x8md0mzliqgb2epwh87q1,1,28,7,win,go,GW,N,1,1,0.317,1,0.0,+10,1
699x8md0mzliqgb2epwh87q1,1,29,8,win,no-go,NGW,V,0,0,,1,0.0,+10,0
699x8md0mzliqgb2epwh87q1,1,30,8,win,go,GW,X,1,1,0.314,1,0.0,+10,1
699x8md0mzliqgb2epwh87q1,1,31,8,lose,no-go,NGAL,D,0,0,,1,0.0,-1,0
699x8md0mzliqgb2epwh87q1,1,32,8,win,go,GW,N,1,1,0.38,1,0.0,+10,1
699x8md0mzliqgb2epwh87q1,1,33,9,lose,no-go,NGAL,D,0,0,,1,1.0,-10,0
699x8md0mzliqgb2epwh87q1,1,34,9,win,go,GW,X,1,1,0.373,1,0.0,+10,2
699x8md0mzliqgb2epwh87q1,1,35,9,win,no-go,NGW,V,0,0,,1,0.0,+10,0
699x8md0mzliqgb2epwh87q1,1,36,1,win,go,GW,I,1,1,0.889,1,0.0,+10,1
699x8md0mzliqgb2epwh87q1,1,37,10,lose,no-go,NGAL,D,0,1,0.874,0,1.0,-1,1
699x8md0mzliqgb2epwh87q1,1,38,10,win,no-go,NGW,V,0,1,0.319,0,0.0,+1,1
699x8md0mzliqgb2epwh87q1,1,39,2,win,go,GW,I,1,1,0.221,1,1.0,+1,1
699x8md0mzliqgb2epwh87q1,1,40,10,win,go,GW,X,1,1,0.367,1,0.0,+10,1
699x8md0mzliqgb2epwh87q1,1,41,1,lose,no-go,NGAL,B,0,1,0.733,0,1.0,-1,1
699x8md0mzliqgb2epwh87q1,1,42,1,lose,go,GAL,K,1,1,0.683,1,0.0,-1,1
699x8md0mzliqgb2epwh87q1,1,43,3,win,go,GW,I,1,1,0.448,1,1.0,+1,1
699x8md0mzliqgb2epwh87q1,1,44,11,win,no-go,NGW,V,0,1,0.434,0,1.0,+10,1
699x8md0mzliqgb2epwh87q1,1,45,2,lose,go,GAL,K,1,0,,0,0.0,-10,1
699x8md0mzliqgb2epwh87q1,1,46,2,lose,no-go,NGAL,B,0,0,,1,0.0,-1,0
