subject,block,trial,exposure,valence,action,robot,rune,rune_set,correct,choice,rt,accuracy,sham,outcome,total_keys
0hjvmiavfa7a1a1ft8xz2bnj,1,1,1,win,go,GW,L,bacs1,1,1,1.034,1,0.0,+10,1
0hjvmiavfa7a1a1ft8xz2bnj,1,2,1,win,go,GW,A,bacs1,1,0,,0,1.0,+10,0
0hjvmiavfa7a1a1ft8xz2bnj,1,3,1,lose,no-go,NGAL,C,bacs1,0,1,0.722,0,0.0,-10,1
0hjvmiavfa7a1a1ft8xz2bnj,1,4,1,win,no-go,NGW,Q,bacs1,0,1,0.832,0,0.0,+1,1
0hjvmiavfa7a1a1ft8xz2bnj,1,5,2,win,go,GW,A,bacs1,1,0,,0,0.0,+1,0
0hjvmiavfa7a1a1ft8xz2bnj,1,6,2,lose,no-go,NGAL,C,bacs1,0,0,,1,0.0,-1,0
0hjvmiavfa7a1a1ft8xz2bnj,1,7,2,win,no-go,NGW,Q,bacs1,0,1,0.905,0,0.0,+1,1
0hjvmiavfa7a1a1ft8xz2bnj,1,8,2,win,go,GW,L,bacs1,1,1,0.596,1,0.0,+10,1
0hjvmiavfa7a1a1ft8xz2bnj,1,9,3,win,go,GW,A,bacs1,1,1,0.464,1,0.0,+10,1
0hjvmiavfa7a1a1ft8xz2bnj,1,10,3,win,go,GW,L,bacs1,1,1,0.389,1,0.0,+10,1
0hjvmiavfa7a1a1ft8xz2bnj,1,11,3,lose,no-go,NGAL,C,bacs1,0,0,,1,0.0,-1,0
0hjvmiavfa7a1a1ft8xz2bnj,1,12,3,win,no-go,NGW,Q,bacs1,0,0,,1,0.0,+10,0
0hjvmiavfa7a1a1ft8xz2bnj,1,13,4,win,go,GW,A,bacs1,1,1,0.398,1,1.0,+1,1
0hjvmiavfa7a1a1ft8xz2bnj,1,14,4,win,no-go,NGW,Q,bacs1,0,1,0.868,0,1.0,+10,1
0hjvmiavfa7a1a1ft8xz2bnj,1,15,4,win,go,GW,L,bacs1,1,1,0.494,1,0.0,+10,1
0hjvmiavfa7a1a1ft8xz2bnj,1,16,4,lose,no-go,NGAL,C,bacs1,0,0,,1,1.0,-10,0
0hjvmiavfa7a1a1ft8xz2bnj,1,17,5,lose,no-go,NGAL,C,bacs1,0,1,0.482,0,0.0,-10,1
0hjvmiavfa7a1a1ft8xz2bnj,1,18,5,win,go,GW,L,bacs1,1,1,0.307,1,0.0,+10,1
0hjvmiavfa7a1a1ft8xz2bnj,1,19,5,win,no-go,NGW,Q,bacs1,0,1,0.491,0,1.0,+10,1
0hjvmiavfa7a1a1ft8xz2bnj,1,20,5,win,go,GW,A,bacs1,1,0,,0,1.0,+10,0
0hjvmiavfa7a1a1ft8xz2bnj,1,21,6,lose,no-go,NGAL,C,bacs1,0,1,0.602,0,0.0,-10,1
0hjvmiavfa7a1a1ft8xz2bnj,1,22,6,win,no-go,NGW,Q,bacs1,0,1,0.675,0,1.0,+10,1
0hjvmiavfa7a1a1ft8xz2bnj,1,23,6,win,go,GW,A,bacs1,1,1,0.648,1,0.0,+10,2
0hjvmiavfa7a1a1ft8xz2bnj,1,24,6,win,go,GW,L,bacs1,1,1,0.746,1,0.0,+10,1
0hjvmiavfa7a1a1ft8xz2bnj,1,25,7,win,no-go,NGW,Q,bacs1,0,1,0.857,0,1.0,+10,1
0hjvmiavfa7a1a1ft8xz2bnj,1,26,7,win,go,GW,A,bacs1,1,0,,0,0.0,+1,0
0hjvmiavfa7a1a1ft8xz2bnj,1,27,7,lose,no-go,NGAL,C,bacs1,0,1,1.14,0,0.0,-10,1
0hjvmiavfa7a1a1ft8xz2bnj,1,28,7,win,go,GW,L,bacs1,1,1,1.143,1,0.0,+10,1
0hjvmiavfa7a1a1ft8xz2bnj,1,29,8,win,go,GW,A,bacs1,1,0,,0,0.0,+1,0
0hjvmiavfa7a1a1ft8xz2bnj,1,30,8,win,no-go,NGW,Q,bacs1,0,1,0.336,0,0.0,+1,1
0hjvmiavfa7a1a1ft8xz2bnj,1,31,8,win,go,GW,L,bacs1,1,1,0.984,1,0.0,+10,1
0hjvmiavfa7a1a1ft8xz2bnj,1,32,8,lose,no-go,NGAL,C,bacs1,0,0,,1,0.0,-1,1
0hjvmiavfa7a1a1ft8xz2bnj,1,33,9,lose,no-go,NGAL,C,bacs1,0,0,,1,0.0,-1,0
0hjvmiavfa7a1a1ft8xz2bnj,1,34,9,win,go,GW,A,bacs1,1,1,0.948,1,0.0,+10,1
0hjvmiavfa7a1a1ft8xz2bnj,1,35,9,win,no-go,NGW,Q,bacs1,0,1,0.445,0,0.0,+1,1
0hjvmiavfa7a1a1ft8xz2bnj,1,36,1,win,go,GW,F,bacs1,1,1,0.567,1,0.0,+10,1
0hjvmiavfa7a1a1ft8xz2bnj,1,37,2,win,go,GW,F,bacs1,1,1,0.544,1,0.0,+10,1
0hjvmiavfa7a1a1ft8xz2bnj,1,38,10,lose,no-go,NGAL,C,bacs1,0,1,0.755,0,1.0,-1,1
0hjvmiavfa7a1a1ft8xz2bnj,1,39,10,win,no-go,NGW,Q,bacs1,0,1,1.062,0,0.0,+1,1
0hjvmiavfa7a1a1ft8xz2bnj,1,40,10,win,go,GW,A,bacs1,1,0,,0,0.0,+1,0
0hjvmiavfa7a1a1ft8xz2bnj,1,41,11,win,no-go,NGW,Q,bacs1,0,1,0.45,0,0.0,+1,1
0hjvmiavfa7a1a1ft8xz2bnj,1,42,1,lose,go,GAL,T,bacs1,1,1,0.968,1,1.0,-10,1
0hjvmiavfa7a1a1ft8xz2bnj,1,43,1,lose,no-go,NGAL,E,bacs1,0,0,,1,1.0,-10,0
0hjvmiavfa7a1a1ft8xz2bnj,1,44,3,win,go,GW,F,bacs1,1,1,0.645,1,1.0,+1,1
0hjvmiavfa7a1a1ft8xz2bnj,1,45,12,win,no-go,NGW,Q,bacs1,0,1,0.85,0,0.0,+1,1
0hjvmiavfa7a1a1ft8xz2bnj,1,46,2,lose,go,GAL,T,bacs1,1,0,,0,0.0,-10,0
0hjvmiavfa7a1a1ft8xz2bnj,1,47,4,win,go,GW,F,bacs1,1,1,0.406,1,0.0,+10,1
0hjvmiavfa7a1a1ft8xz2bnj,1,48,2,lose,no-go,NGAL,E,bacs1,0,1,0.794,0,0.0,-10,2
0hjvmiavfa7a1a1ft8xz2bnj,1,49,3,lose,go,GAL,T,bacs1,1,1,0.538,1,0.0,-1,1
0hjvmiavfa7a1a1ft8xz2bnj,1,50,1,win,no-go,NGW,V,bacs1,0,0,,1,0.0,+10,1
0hjvmiavfa7a1a1ft8xz2bnj,1,51,3,lose,no-go,NGAL,E,bacs1,0,1,1.098,0,0.0,-10,1
0hjvmiavfa7a1a1ft8xz2bnj,1,52,5,win,go,GW,F,bacs1,1,1,0.751,1,0.0,+10,1
0hjvmiavfa7a1a1ft8xz2bnj,1,53,2,win,no-go,NGW,V,bacs1,0,1,0.538,0,0.0,+1,1
0hjvmiavfa7a1a1ft8xz2bnj,1,54,4,lose,go,GAL,T,bacs1,1,1,0.873,1,0.0,-1,1
0hjvmiavfa7a1a1ft8xz2bnj,1,55,6,win,go,GW,F,bacs1,1,1,0.419,1,0.0,+10,1
0hjvmiavfa7a1a1ft8xz2bnj,1,56,4,lose,no-go,NGAL,E,bacs1,0,1,0.777,0,0.0,-10,1
0hjvmiavfa7a1a1ft8xz2bnj,1,57,3,win,no-go,NGW,V,bacs1,0,1,0.418,0,0.0,+1,1
0hjvmiavfa7a1a1ft8xz2bnj,1,58,5,lose,go,GAL,T,bacs1,1,1,0.423,1,0.0,-1,1
0hjvmiavfa7a1a1ft8xz2bnj,1,59,5,lose,no-go,NGAL,E,bacs1,0,1,1.034,0,0.0,-10,1
0hjvmiavfa7a1a1ft8xz2bnj,1,60,7,win,go,GW,F,bacs1,1,1,0.751,1,0.0,+10,1
0hjvmiavfa7a1a1ft8xz2bnj,1,61,6,lose,go,GAL,T,bacs1,1,1,0.906,1,0.0,-1,1
0hjvmiavfa7a1a1ft8xz2bnj,1,62,8,win,go,GW,F,bacs1,1,1,0.748,1,0.0,+10,1
0hjvmiavfa7a1a1ft8xz2bnj,1,63,6,lose,no-go,NGAL,E,bacs1,0,1,0.807,0,0.0,-10,1
0hjvmiavfa7a1a1ft8xz2bnj,1,64,4,win,no-go,NGW,V,bacs1,0,1,0.879,0,0.0,+1,1
0hjvmiavfa7a1a1ft8xz2bnj,1,65,7,lose,no-go,NGAL,E,bacs1,0,0,,1,0.0,-1,0
0hjvmiavfa7a1a1ft8xz2bnj,1,66,5,win,no-go,NGW,V,bacs1,0,1,0.498,0,0.0,+1,1
0hjvmiavfa7a1a1ft8xz2bnj,1,67,9,win,go,GW,F,bacs1,1,1,0.559,1,0.0,+10,1
0hjvmiavfa7a1a1ft8xz2bnj,1,68,7,lose,go,GAL,T,bacs1,1,0,,0,0.0,-10,0
0hjvmiavfa7a1a1ft8xz2bnj,1,69,8,lose,go,GAL,T,bacs1,1,1,0.461,1,0.0,-1,1
0hjvmiavfa7a1a1ft8xz2bnj,1,70,10,win,go,GW,F,bacs1,1,1,0.928,1,0.0,+10,1
0hjvmiavfa7a1a1ft8xz2bnj,1,71,6,win,no-go,NGW,V,bacs1,0,1,0.606,0,0.0,+1,1
0hjvmiavfa7a1a1ft8xz2bnj,1,72,8,lose,no-go,NGAL,E,bacs1,0,1,1.233,0,1.0,-1,1
0hjvmiavfa7a1a1ft8xz2bnj,1,73,7,win,no-go,NGW,V,bacs1,0,1,0.64,0,0.0,+1,1
0hjvmiavfa7a1a1ft8xz2bnj,1,74,9,lose,no-go,NGAL,E,bacs1,0,1,0.81,0,0.0,-10,1
0hjvmiavfa7a1a1ft8xz2bnj,1,75,11,win,go,GW,F,bacs1,1,1,0.548,1,0.0,+10,1
0hjvmiavfa7a1a1ft8xz2bnj,1,76,1,lose,go,GAL,R,bacs1,1,0,,0,0.0,-10,1
0hjvmiavfa7a1a1ft8xz2bnj,1,77,2,lose,go,GAL,R,bacs1,1,0,,0,0.0,-10,1
0hjvmiavfa7a1a1ft8xz2bnj,1,78,12,win,go,GW,F,bacs1,1,1,0.409,1,0.0,+10,1
0hjvmiavfa7a1a1ft8xz2bnj,1,79,10,lose,no-go,NGAL,E,bacs1,0,0,,1,0.0,-1,0
0hjvmiavfa7a1a1ft8xz2bnj,1,80,8,win,no-go,NGW,V,bacs1,0,1,0.515,0,0.0,+1,1
0hjvmiavfa7a1a1ft8xz2bnj,1,81,9,win,no-go,NGW,V,bacs1,0,1,0.844,0,0.0,+1,2
0hjvmiavfa7a1a1ft8xz2bnj,1,82,3,lose,go,GAL,R,bacs1,1,0,,0,0.0,-10,0
0hjvmiavfa7a1a1ft8xz2bnj,1,83,11,lose,no-go,NGAL,E,bacs1,0,1,0.726,0,1.0,-1,1
0hjvmiavfa7a1a1ft8xz2bnj,1,84,1,lose,go,GAL,J,bacs1,1,1,0.586,1,0.0,-1,1
0hjvmiavfa7a1a1ft8xz2bnj,1,85,4,lose,go,GAL,R,bacs1,1,0,,0,0.0,-10,0
0hjvmiavfa7a1a1ft8xz2bnj,1,86,2,lose,go,GAL,J,bacs1,1,1,0.488,1,1.0,-10,1
0hjvmiavfa7a1a1ft8xz2bnj,1,87,10,win,no-go,NGW,V,bacs1,0,1,0.973,0,1.0,+10,1
0hjvmiavfa7a1a1ft8xz2bnj,1,88,12,lose,no-go,NGAL,E,bacs1,0,1,0.598,0,0.0,-10,1
0hjvmiavfa7a1a1ft8xz2bnj,1,89,5,lose,go,GAL,R,bacs1,1,0,,0,1.0,-1,0
0hjvmiavfa7a1a1ft8xz2bnj,1,90,3,lose,go,GAL,J,bacs1,1,0,,0,0.0,-10,1
0hjvmiavfa7a1a1ft8xz2bnj,1,91,1,lose,no-go,NGAL,Z,bacs1,0,1,0.362,0,0.0,-10,1
0hjvmiavfa7a1a1ft8xz2bnj,1,92,1,win,no-go,NGW,B,bacs1,0,1,0.547,0,0.0,+1,1
0hjvmiavfa7a1a1ft8xz2bnj,1,93,2,lose,no-go,NGAL,Z,bacs1,0,0,,1,1.0,-10,0
0hjvmiavfa7a1a1ft8xz2bnj,1,94,6,lose,go,GAL,R,bacs1,1,1,0.126,1,1.0,-10,2
0hjvmiavfa7a1a1ft8xz2bnj,1,95,4,lose,go,GAL,J,bacs1,1,0,,0,0.0,-10,1
0hjvmiavfa7a1a1ft8xz2bnj,1,96,2,win,no-go,NGW,B,bacs1,0,1,1.16,0,1.0,+10,1
0hjvmiavfa7a1a1ft8xz2bnj,1,97,5,lose,go,GAL,J,bacs1,1,0,,0,0.0,-10,0
0hjvmiavfa7a1a1ft8xz2bnj,1,98,7,lose,go,GAL,R,bacs1,1,0,,0,0.0,-10,0
0hjvmiavfa7a1a1ft8xz2bnj,1,99,3,win,no-go,NGW,B,bacs1,0,1,1.102,0,0.0,+1,1
0hjvmiavfa7a1a1ft8xz2bnj,1,100,3,lose,no-go,NGAL,Z,bacs1,0,1,0.677,0,0.0,-10,1
0hjvmiavfa7a1a1ft8xz2bnj,1,101,4,win,no-go,NGW,B,bacs1,0,1,0.277,0,0.0,+1,1
0hjvmiavfa7a1a1ft8xz2bnj,1,102,6,lose,go,GAL,J,bacs1,1,1,0.577,1,0.0,-1,1
0hjvmiavfa7a1a1ft8xz2bnj,1,103,8,lose,go,GAL,R,bacs1,1,1,0.363,1,1.0,-10,1
0hjvmiavfa7a1a1ft8xz2bnj,1,104,4,lose,no-go,NGAL,Z,bacs1,0,1,0.396,0,0.0,-10,1
0hjvmiavfa7a1a1ft8xz2bnj,1,105,9,lose,go,GAL,R,bacs1,1,1,0.954,1,0.0,-1,1
0hjvmiavfa7a1a1ft8xz2bnj,1,106,7,lose,go,GAL,J,bacs1,1,0,,0,0.0,-10,0
0hjvmiavfa7a1a1ft8xz2bnj,1,107,5,win,no-go,NGW,B,bacs1,0,1,0.22,0,0.0,+1,2
0hjvmiavfa7a1a1ft8xz2bnj,1,108,5,lose,no-go,NGAL,Z,bacs1,0,1,0.347,0,1.0,-1,1
0hjvmiavfa7a1a1ft8xz2bnj,1,109,10,lose,go,GAL,R,bacs1,1,1,0.411,1,1.0,-10,1
0hjvmiavfa7a1a1ft8xz2bnj,1,110,6,lose,no-go,NGAL,Z,bacs1,0,1,0.4,0,0.0,-10,1
0hjvmiavfa7a1a1ft8xz2bnj,1,111,8,lose,go,GAL,J,bacs1,1,1,0.346,1,0.0,-1,1
0hjvmiavfa7a1a1ft8xz2bnj,1,112,6,win,no-go,NGW,B,bacs1,0,0,,1,1.0,+1,1
0hjvmiavfa7a1a1ft8xz2bnj,1,113,11,lose,go,GAL,R,bacs1,1,1,0.504,1,1.0,-10,1
0hjvmiavfa7a1a1ft8xz2bnj,1,114,9,lose,go,GAL,J,bacs1,1,0,,0,0.0,-10,1
0hjvmiavfa7a1a1ft8xz2bnj,1,115,7,win,no-go,NGW,B,bacs1,0,0,,1,0.0,+10,0
0hjvmiavfa7a1a1ft8xz2bnj,1,116,7,lose,no-go,NGAL,Z,bacs1,0,1,0.256,0,0.0,-10,1
0hjvmiavfa7a1a1ft8xz2bnj,1,117,8,win,no-go,NGW,B,bacs1,0,0,,1,0.0,+10,1
0hjvmiavfa7a1a1ft8xz2bnj,1,118,8,lose,no-go,NGAL,Z,bacs1,0,1,1.18,0,0.0,-10,1
0hjvmiavfa7a1a1ft8xz2bnj,1,119,10,lose,go,GAL,J,bacs1,1,1,1.22,1,0.0,-1,1
0hjvmiavfa7a1a1ft8xz2bnj,1,120,12,lose,go,GAL,R,bacs1,1,0,,0,1.0,-1,1
0hjvmiavfa7a1a1ft8xz2bnj,2,121,1,win,no-go,NGW,O,bacs1,0,1,0.479,0,0.0,+1,1
0hjvmiavfa7a1a1ft8xz2bnj,2,122,1,lose,no-go,NGAL,N,bacs1,0,1,0.038,0,0.0,-10,1
0hjvmiavfa7a1a1ft8xz2bnj,2,123,1,win,go,GW,I,bacs1,1,1,0.501,1,0.0,+10,1
0hjvmiavfa7a1a1ft8xz2bnj,2,124,1,lose,no-go,NGAL,G,bacs1,0,1,0.836,0,1.0,-1,1
0hjvmiavfa7a1a1ft8xz2bnj,2,125,2,lose,no-go,NGAL,G,bacs1,0,0,,1,0.0,-1,0
0hjvmiavfa7a1a1ft8xz2bnj,2,126,2,win,no-go,NGW,O,bacs1,0,1,0.67,0,0.0,+1,1
0hjvmiavfa7a1a1ft8xz2bnj,2,127,2,lose,no-go,NGAL,N,bacs1,0,0,,1,0.0,-1,0
0hjvmiavfa7a1a1ft8xz2bnj,2,128,2,win,go,GW,I,bacs1,1,1,0.596,1,0.0,+10,1
0hjvmiavfa7a1a1ft8xz2bnj,2,129,3,win,no-go,NGW,O,bacs1,0,1,0.655,0,1.0,+10,1
0hjvmiavfa7a1a1ft8xz2bnj,2,130,3,lose,no-go,NGAL,G,bacs1,0,1,0.978,0,0.0,-10,1
0hjvmiavfa7a1a1ft8xz2bnj,2,131,3,lose,no-go,NGAL,N,bacs1,0,0,,1,0.0,-1,0
0hjvmiavfa7a1a1ft8xz2bnj,2,132,3,win,go,GW,I,bacs1,1,1,0.309,1,1.0,+1,1
0hjvmiavfa7a1a1ft8xz2bnj,2,133,4,win,go,GW,I,bacs1,1,1,1.03,1,1.0,+1,1
0hjvmiavfa7a1a1ft8xz2bnj,2,134,4,lose,no-go,NGAL,N,bacs1,0,1,1.029,0,0.0,-10,1
0hjvmiavfa7a1a1ft8xz2bnj,2,135,4,win,no-go,NGW,O,bacs1,0,1,1.101,0,0.0,+1,1
0hjvmiavfa7a1a1ft8xz2bnj,2,136,4,lose,no-go,NGAL,G,bacs1,0,0,,1,0.0,-1,0
0hjvmiavfa7a1a1ft8xz2bnj,2,137,5,lose,no-go,NGAL,N,bacs1,0,1,0.002,0,0.0,-10,1
0hjvmiavfa7a1a1ft8xz2bnj,2,138,5,win,go,GW,I,bacs1,1,0,,0,0.0,+1,0
0hjvmiavfa7a1a1ft8xz2bnj,2,139,5,win,no-go,NGW,O,bacs1,0,0,,1,0.0,+10,2
0hjvmiavfa7a1a1ft8xz2bnj,2,140,5,lose,no-go,NGAL,G,bacs1,0,1,0.547,0,1.0,-1,2
0hjvmiavfa7a1a1ft8xz2bnj,2,141,6,win,no-go,NGW,O,bacs1,0,1,0.127,0,1.0,+10,1
0hjvmiavfa7a1a1ft8xz2bnj,2,142,6,lose,no-go,NGAL,G,bacs1,0,1,0.342,0,1.0,-1,1
0hjvmiavfa7a1a1ft8xz2bnj,2,143,6,win,go,GW,I,bacs1,1,1,0.575,1,0.0,+10,1
0hjvmiavfa7a1a1ft8xz2bnj,2,144,6,lose,no-go,NGAL,N,bacs1,0,1,0.889,0,0.0,-10,1
0hjvmiavfa7a1a1ft8xz2bnj,2,145,7,win,go,GW,I,bacs1,1,1,0.35,1,0.0,+10,1
0hjvmiavfa7a1a1ft8xz2bnj,2,146,7,lose,no-go,NGAL,N,bacs1,0,1,0.636,0,0.0,-10,1
0hjvmiavfa7a1a1ft8xz2bnj,2,147,7,win,no-go,NGW,O,bacs1,0,1,0.507,0,0.0,+1,1
0hjvmiavfa7a1a1ft8xz2bnj,2,148,7,lose,no-go,NGAL,G,bacs1,0,1,0.474,0,0.0,-10,1
0hjvmiavfa7a1a1ft8xz2bnj,2,149,8,win,no-go,NGW,O,bacs1,0,0,,1,0.0,+10,1
0hjvmiavfa7a1a1ft8xz2bnj,2,150,8,lose,no-go,NGAL,G,bacs1,0,0,,1,0.0,-1,1
0hjvmiavfa7a1a1ft8xz2bnj,2,151,8,win,go,GW,I,bacs1,1,1,0.138,1,1.0,+1,2
0hjvmiavfa7a1a1ft8xz2bnj,2,152,8,lose,no-go,NGAL,N,bacs1,0,1,0.364,0,0.0,-10,1
0hjvmiavfa7a1a1ft8xz2bnj,2,153,9,win,go,GW,I,bacs1,1,1,0.698,1,0.0,+10,1
0hjvmiavfa7a1a1ft8xz2bnj,2,154,9,lose,no-go,NGAL,N,bacs1,0,1,1.183,0,1.0,-1,1
0hjvmiavfa7a1a1ft8xz2bnj,2,155,9,win,no-go,NGW,O,bacs1,0,0,,1,1.0,+1,0
0hjvmiavfa7a1a1ft8xz2bnj,2,156,1,lose,go,GAL,D,bacs1,1,1,0.102,1,0.0,-1,1
0hjvmiavfa7a1a1ft8xz2bnj,2,157,10,lose,no-go,NGAL,N,bacs1,0,0,,1,0.0,-1,1
0hjvmiavfa7a1a1ft8xz2bnj,2,158,2,lose,go,GAL,D,bacs1,1,1,0.955,1,0.0,-1,1
0hjvmiavfa7a1a1ft8xz2bnj,2,159,10,win,no-go,NGW,O,bacs1,0,0,,1,0.0,+10,1
0hjvmiavfa7a1a1ft8xz2bnj,2,160,10,win,go,GW,I,bacs1,1,1,0.814,1,0.0,+10,1
0hjvmiavfa7a1a1ft8xz2bnj,2,161,1,win,no-go,NGW,K,bacs1,0,1,0.604,0,0.0,+1,1
0hjvmiavfa7a1a1ft8xz2bnj,2,162,1,win,go,GW,S,bacs1,1,0,,0,0.0,+1,1
0hjvmiavfa7a1a1ft8xz2bnj,2,163,3,lose,go,GAL,D,bacs1,1,0,,0,0.0,-10,0
0hjvmiavfa7a1a1ft8xz2bnj,2,164,11,lose,no-go,NGAL,N,bacs1,0,1,0.976,0,0.0,-10,1
0hjvmiavfa7a1a1ft8xz2bnj,2,165,12,lose,no-go,NGAL,N,bacs1,0,1,1.21,0,0.0,-10,1
0hjvmiavfa7a1a1ft8xz2bnj,2,166,4,lose,go,GAL,D,bacs1,1,0,,0,1.0,-1,0
0hjvmiavfa7a1a1ft8xz2bnj,2,167,2,win,no-go,NGW,K,bacs1,0,0,,1,0.0,+10,1
0hjvmiavfa7a1a1ft8xz2bnj,2,168,2,win,go,GW,S,bacs1,1,1,1.139,1,0.0,+10,1
0hjvmiavfa7a1a1ft8xz2bnj,2,169,3,win,no-go,NGW,K,bacs1,0,0,,1,0.0,+10,0
0hjvmiavfa7a1a1ft8xz2bnj,2,170,5,lose,go,GAL,D,bacs1,1,1,0.857,1,0.0,-1,1
0hjvmiavfa7a1a1ft8xz2bnj,2,171,1,lose,no-go,NGAL,U,bacs1,0,1,0.696,0,1.0,-1,1
0hjvmiavfa7a1a1ft8xz2bnj,2,172,3,win,go,GW,S,bacs1,1,1,1.249,1,0.0,+10,1
0hjvmiavfa7a1a1ft8xz2bnj,2,173,2,lose,no-go,NGAL,U,bacs1,0,0,,1,0.0,-1,0
0hjvmiavfa7a1a1ft8xz2bnj,2,174,4,win,go,GW,S,bacs1,1,1,0.901,1,1.0,+1,1
0hjvmiavfa7a1a1ft8xz2bnj,2,175,6,lose,go,GAL,D,bacs1,1,1,1.216,1,0.0,-1,1
0hjvmiavfa7a1a1ft8xz2bnj,2,176,4,win,no-go,NGW,K,bacs1,0,1,1.004,0,0.0,+1,1
0hjvmiavfa7a1a1ft8xz2bnj,2,177,3,lose,no-go,NGAL,U,bacs1,0,1,0.848,0,0.0,-10,1
0hjvmiavfa7a1a1ft8xz2bnj,2,178,7,lose,go,GAL,D,bacs1,1,1,1.176,1,1.0,-10,1
0hjvmiavfa7a1a1ft8xz2bnj,2,179,5,win,go,GW,S,bacs1,1,0,,0,0.0,+1,0
0hjvmiavfa7a1a1ft8xz2bnj,2,180,5,win,no-go,NGW,K,bacs1,0,0,,1,0.0,+10,0
0hjvmiavfa7a1a1ft8xz2bnj,2,181,4,lose,no-go,NGAL,U,bacs1,0,1,0.367,0,0.0,-10,1
0hjvmiavfa7a1a1ft8xz2bnj,2,182,8,lose,go,GAL,D,bacs1,1,1,0.463,1,1.0,-10,1
0hjvmiavfa7a1a1ft8xz2bnj,2,183,6,win,no-go,NGW,K,bacs1,0,0,,1,0.0,+10,0
0hjvmiavfa7a1a1ft8xz2bnj,2,184,6,win,go,GW,S,bacs1,1,0,,0,0.0,+1,0
0hjvmiavfa7a1a1ft8xz2bnj,2,185,7,win,no-go,NGW,K,bacs1,0,0,,1,0.0,+10,1
0hjvmiavfa7a1a1ft8xz2bnj,2,186,5,lose,no-go,NGAL,U,bacs1,0,1,0.999,0,1.0,-1,1
0hjvmiavfa7a1a1ft8xz2bnj,2,187,7,win,go,GW,S,bacs1,1,1,0.617,1,1.0,+1,1
0hjvmiavfa7a1a1ft8xz2bnj,2,188,9,lose,go,GAL,D,bacs1,1,0,,0,0.0,-10,0
0hjvmiavfa7a1a1ft8xz2bnj,2,189,6,lose,no-go,NGAL,U,bacs1,0,1,0.761,0,0.0,-10,1
0hjvmiavfa7a1a1ft8xz2bnj,2,190,8,win,no-go,NGW,K,bacs1,0,1,1.149,0,0.0,+1,1
0hjvmiavfa7a1a1ft8xz2bnj,2,191,10,lose,go,GAL,D,bacs1,1,1,0.557,1,0.0,-1,1
0hjvmiavfa7a1a1ft8xz2bnj,2,192,8,win,go,GW,S,bacs1,1,0,,0,0.0,+1,0
0hjvmiavfa7a1a1ft8xz2bnj,2,193,1,win,go,GW,M,bacs1,1,1,0.291,1,0.0,+10,1
0hjvmiavfa7a1a1ft8xz2bnj,2,194,1,lose,go,GAL,P,bacs1,1,0,,0,0.0,-10,0
0hjvmiavfa7a1a1ft8xz2bnj,2,195,9,win,no-go,NGW,K,bacs1,0,1,0.704,0,0.0,+1,1
0hjvmiavfa7a1a1ft8xz2bnj,2,196,7,lose,no-go,NGAL,U,bacs1,0,0,,1,0.0,-1,0
0hjvmiavfa7a1a1ft8xz2bnj,2,197,2,lose,go,GAL,P,bacs1,1,0,,0,1.0,-1,0
0hjvmiavfa7a1a1ft8xz2bnj,2,198,10,win,no-go,NGW,K,bacs1,0,1,1.021,0,0.0,+1,1
0hjvmiavfa7a1a1ft8xz2bnj,2,199,8,lose,no-go,NGAL,U,bacs1,0,0,,1,1.0,-10,1
0hjvmiavfa7a1a1ft8xz2bnj,2,200,2,win,go,GW,M,bacs1,1,1,0.813,1,0.0,+10,1
0hjvmiavfa7a1a1ft8xz2bnj,2,201,3,lose,go,GAL,P,bacs1,1,1,0.592,1,0.0,-1,1
0hjvmiavfa7a1a1ft8xz2bnj,2,202,3,win,go,GW,M,bacs1,1,0,,0,0.0,+1,1
0hjvmiavfa7a1a1ft8xz2bnj,2,203,9,lose,no-go,NGAL,U,bacs1,0,0,,1,1.0,-10,1
0hjvmiavfa7a1a1ft8xz2bnj,2,204,11,win,no-go,NGW,K,bacs1,0,1,0.212,0,0.0,+1,2
0hjvmiavfa7a1a1ft8xz2bnj,2,205,10,lose,no-go,NGAL,U,bacs1,0,1,0.733,0,0.0,-10,1
0hjvmiavfa7a1a1ft8xz2bnj,2,206,4,lose,go,GAL,P,bacs1,1,1,0.528,1,0.0,-1,1
0hjvmiavfa7a1a1ft8xz2bnj,2,207,12,win,no-go,NGW,K,bacs1,0,1,0.86,0,0.0,+1,1
0hjvmiavfa7a1a1ft8xz2bnj,2,208,4,win,go,GW,M,bacs1,1,1,1.071,1,1.0,+1,1
0hjvmiavfa7a1a1ft8xz2bnj,2,209,1,win,no-go,NGW,Y,bacs1,0,1,0.62,0,0.0,+1,1
0hjvmiavfa7a1a1ft8xz2bnj,2,210,5,win,go,GW,M,bacs1,1,0,,0,0.0,+1,1
0hjvmiavfa7a1a1ft8xz2bnj,2,211,1,lose,go,GAL,H,bacs1,1,1,0.024,1,0.0,-1,1
0hjvmiavfa7a1a1ft8xz2bnj,2,212,5,lose,go,GAL,P,bacs1,1,1,1.135,1,0.0,-1,1
0hjvmiavfa7a1a1ft8xz2bnj,2,213,2,win,no-go,NGW,Y,bacs1,0,0,,1,0.0,+10,1
0hjvmiavfa7a1a1ft8xz2bnj,2,214,6,lose,go,GAL,P,bacs1,1,1,0.959,1,0.0,-1,1
0hjvmiavfa7a1a1ft8xz2bnj,2,215,2,lose,go,GAL,H,bacs1,1,0,,0,0.0,-10,0
0hjvmiavfa7a1a1ft8xz2bnj,2,216,6,win,go,GW,M,bacs1,1,1,1.191,1,0.0,+10,1
0hjvmiavfa7a1a1ft8xz2bnj,2,217,3,win,no-go,NGW,Y,bacs1,0,0,,1,1.0,+1,1
0hjvmiavfa7a1a1ft8xz2bnj,2,218,3,lose,go,GAL,H,bacs1,1,0,,0,0.0,-10,0
0hjvmiavfa7a1a1ft8xz2bnj,2,219,7,win,go,GW,M,bacs1,1,1,0.463,1,0.0,+10,1
0hjvmiavfa7a1a1ft8xz2bnj,2,220,7,lose,go,GAL,P,bacs1,1,0,,0,1.0,-1,1
0hjvmiavfa7a1a1ft8xz2bnj,2,221,4,lose,go,GAL,H,bacs1,1,0,,0,0.0,-10,0
0hjvmiavfa7a1a1ft8xz2bnj,2,222,8,win,go,GW,M,bacs1,1,0,,0,1.0,+10,1
0hjvmiavfa7a1a1ft8xz2bnj,2,223,4,win,no-go,NGW,Y,bacs1,0,0,,1,0.0,+10,0
0hjvmiavfa7a1a1ft8xz2bnj,2,224,8,lose,go,GAL,P,bacs1,1,1,0.343,1,0.0,-1,1
0hjvmiavfa7a1a1ft8xz2bnj,2,225,5,win,no-go,NGW,Y,bacs1,0,0,,1,0.0,+10,0
0hjvmiavfa7a1a1ft8xz2bnj,2,226,9,lose,go,GAL,P,bacs1,1,1,0.961,1,0.0,-1,1
0hjvmiavfa7a1a1ft8xz2bnj,2,227,5,lose,go,GAL,H,bacs1,1,0,,0,0.0,-10,1
0hjvmiavfa7a1a1ft8xz2bnj,2,228,9,win,go,GW,M,bacs1,1,1,0.147,1,0.0,+10,1
0hjvmiavfa7a1a1ft8xz2bnj,2,229,10,win,go,GW,M,bacs1,1,1,0.337,1,0.0,+10,1
0hjvmiavfa7a1a1ft8xz2bnj,2,230,6,lose,go,GAL,H,bacs1,1,1,0.373,1,0.0,-1,1
0hjvmiavfa7a1a1ft8xz2bnj,2,231,6,win,no-go,NGW,Y,bacs1,0,1,0.57,0,0.0,+1,1
0hjvmiavfa7a1a1ft8xz2bnj,2,232,10,lose,go,GAL,P,bacs1,1,1,0.659,1,1.0,-10,1
0hjvmiavfa7a1a1ft8xz2bnj,2,233,7,lose,go,GAL,H,bacs1,1,0,,0,1.0,-1,0
0hjvmiavfa7a1a1ft8xz2bnj,2,234,11,win,go,GW,M,bacs1,1,1,0.377,1,0.0,+10,1
0hjvmiavfa7a1a1ft8xz2bnj,2,235,11,lose,go,GAL,P,bacs1,1,0,,0,0.0,-10,0
0hjvmiavfa7a1a1ft8xz2bnj,2,236,7,win,no-go,NGW,Y,bacs1,0,1,0.385,0,0.0,+1,1
0hjvmiavfa7a1a1ft8xz2bnj,2,237,8,lose,go,GAL,H,bacs1,1,1,0.787,1,0.0,-1,1
0hjvmiavfa7a1a1ft8xz2bnj,2,238,8,win,no-go,NGW,Y,bacs1,0,1,0.747,0,0.0,+1,1
0hjvmiavfa7a1a1ft8xz2bnj,2,239,12,win,go,GW,M,bacs1,1,1,0.816,1,0.0,+10,1
0hjvmiavfa7a1a1ft8xz2bnj,2,240,12,lose,go,GAL,P,bacs1,1,1,1.135,1,0.0,-1,1
121hxl93e8gfzl0pp8urplao,1,1,1,win,no-go,NGW,N,bacs1,0,1,0.526,0,0.0,+1,1
121hxl93e8gfzl0pp8urplao,1,2,1,lose,no-go,NGAL,I,bacs1,0,0,,1,0.0,-1,0
121hxl93e8gfzl0pp8urplao,1,3,1,win,go,GW,O,bacs1,1,1,0.656,1,0.0,+10,1
121hxl93e8gfzl0pp8urplao,1,4,1,win,go,GW,G,bacs1,1,1,0.512,1,0.0,+10,1
121hxl93e8gfzl0pp8urplao,1,5,2,win,go,GW,G,bacs1,1,1,0.425,1,0.0,+10,1
121hxl93e8gfzl0pp8urplao,1,6,2,win,no-go,NGW,N,bacs1,0,1,0.558,0,0.0,+1,1
121hxl93e8gfzl0pp8urplao,1,7,2,win,go,GW,O,bacs1,1,1,0.512,1,0.0,+10,1
121hxl93e8gfzl0pp8urplao,1,8,2,lose,no-go,NGAL,I,bacs1,0,1,0.795,0,0.0,-10,1
121hxl93e8gfzl0pp8urplao,1,9,3,win,no-go,NGW,N,bacs1,0,1,0.529,0,0.0,+1,1
121hxl93e8gfzl0pp8urplao,1,10,3,win,go,GW,G,bacs1,1,1,0.624,1,0.0,+10,1
121hxl93e8gfzl0pp8urplao,1,11,3,lose,no-go,NGAL,I,bacs1,0,0,,1,1.0,-10,0
121hxl93e8gfzl0pp8urplao,1,12,3,win,go,GW,O,bacs1,1,1,0.546,1,0.0,+10,1
121hxl93e8gfzl0pp8urplao,1,13,4,win,go,GW,O,bacs1,1,1,0.647,1,0.0,+10,1
121hxl93e8gfzl0pp8urplao,1,14,4,win,go,GW,G,bacs1,1,1,0.748,1,0.0,+10,1
121hxl93e8gfzl0pp8urplao,1,15,4,win,no-go,NGW,N,bacs1,0,0,,1,0.0,+10,0
121hxl93e8gfzl0pp8urplao,1,16,4,lose,no-go,NGAL,I,bacs1,0,1,0.923,0,0.0,-10,1
121hxl93e8gfzl0pp8urplao,1,17,5,win,go,GW,O,bacs1,1,1,0.533,1,0.0,+10,1
121hxl93e8gfzl0pp8urplao,1,18,5,lose,no-go,NGAL,I,bacs1,0,0,,1,0.0,-1,0
121hxl93e8gfzl0pp8urplao,1,19,5,win,go,GW,G,bacs1,1,1,0.533,1,0.0,+10,1
121hxl93e8gfzl0pp8urplao,1,20,5,win,no-go,NGW,N,bacs1,0,0,,1,1.0,+1,0
121hxl93e8gfzl0pp8urplao,1,21,6,win,go,GW,O,bacs1,1,1,0.508,1,0.0,+10,1
121hxl93e8gfzl0pp8urplao,1,22,6,lose,no-go,NGAL,I,bacs1,0,0,,1,1.0,-10,0
121hxl93e8gfzl0pp8urplao,1,23,6,win,go,GW,G,bacs1,1,1,0.523,1,0.0,+10,2
121hxl93e8gfzl0pp8urplao,1,24,6,win,no-go,NGW,N,bacs1,0,1,0.939,0,0.0,+1,1
121hxl93e8gfzl0pp8urplao,1,25,7,win,go,GW,G,bacs1,1,1,0.579,1,0.0,+10,1
121hxl93e8gfzl0pp8urplao,1,26,7,lose,no-go,NGAL,I,bacs1,0,1,0.604,0,0.0,-10,1
121hxl93e8gfzl0pp8urplao,1,27,7,win,go,GW,O,bacs1,1,1,0.442,1,0.0,+10,1
121hxl93e8gfzl0pp8urplao,1,28,7,win,no-go,NGW,N,bacs1,0,0,,1,0.0,+10,0
121hxl93e8gfzl0pp8urplao,1,29,8,win,go,GW,O,bacs1,1,1,0.465,1,0.0,+10,1
121hxl93e8gfzl0pp8urplao,1,30,8,lose,no-go,NGAL,I,bacs1,0,1,0.679,0,0.0,-10,1
121hxl93e8gfzl0pp8urplao,1,31,8,win,go,GW,G,bacs1,1,1,0.47,1,0.0,+10,1
121hxl93e8gfzl0pp8urplao,1,32,8,win,no-go,NGW,N,bacs1,0,0,,1,0.0,+10,0
121hxl93e8gfzl0pp8urplao,1,33,9,win,go,GW,O,bacs1,1,1,0.464,1,1.0,+1,1
121hxl93e8gfzl0pp8urplao,1,34,9,lose,no-go,NGAL,I,bacs1,0,0,,1,0.0,-1,0
121hxl93e8gfzl0pp8urplao,1,35,9,win,no-go,NGW,N,bacs1,0,0,,1,0.0,+10,1
121hxl93e8gfzl0pp8urplao,1,36,1,win,go,GW,D,bacs1,1,1,0.9,1,0.0,+10,1
121hxl93e8gfzl0pp8urplao,1,37,10,win,go,GW,O,bacs1,1,1,0.457,1,1.0,+1,1
121hxl93e8gfzl0pp8urplao,1,38,2,win,go,GW,D,bacs1,1,1,0.802,1,0.0,+10,1
121hxl93e8gfzl0pp8urplao,1,39,10,win,no-go,NGW,N,bacs1,0,1,0.783,0,0.0,+1,1
121hxl93e8gfzl0pp8urplao,1,40,10,lose,no-go,NGAL,I,bacs1,0,0,,1,0.0,-1,0
121hxl93e8gfzl0pp8urplao,1,41,1,lose,no-go,NGAL,S,bacs1,0,0,,1,0.0,-1,0
121hxl93e8gfzl0pp8urplao,1,42,11,win,no-go,NGW,N,bacs1,0,1,0.94,0,0.0,+1,1
121hxl93e8gfzl0pp8urplao,1,43,3,win,go,GW,D,bacs1,1,1,0.633,1,0.0,+10,1
121hxl93e8gfzl0pp8urplao,1,44,1,lose,go,GAL,K,bacs1,1,0,,0,0.0,-10,0
121hxl93e8gfzl0pp8urplao,1,45,2,lose,no-go,NGAL,S,bacs1,0,1,0.698,0,0.0,-10,1
121hxl93e8gfzl0pp8urplao,1,46,4,win,go,GW,D,bacs1,1,1,1.052,1,1.0,+1,1
121hxl93e8gfzl0pp8urplao,1,47,12,win,no-go,NGW,N,bacs1,0,0,,1,0.0,+10,0
121hxl93e8gfzl0pp8urplao,1,48,2,lose,go,GAL,K,bacs1,1,0,,0,0.0,-10,0
121hxl93e8gfzl0pp8urplao,1,49,5,win,go,GW,D,bacs1,1,1,0.907,1,0.0,+10,1
121hxl93e8gfzl0pp8urplao,1,50,3,lose,go,GAL,K,bacs1,1,0,,0,0.0,-10,0
121hxl93e8gfzl0pp8urplao,1,51,1,win,no-go,NGW,U,bacs1,0,1,0.697,0,1.0,+10,1
121hxl93e8gfzl0pp8urplao,1,52,3,lose,no-go,NGAL,S,bacs1,0,1,1.075,0,0.0,-10,1
121hxl93e8gfzl0pp8urplao,1,53,6,win,go,GW,D,bacs1,1,1,0.649,1,1.0,+1,1
121hxl93e8gfzl0pp8urplao,1,54,4,lose,no-go,NGAL,S,bacs1,0,1,1.098,0,0.0,-10,1
121hxl93e8gfzl0pp8urplao,1,55,4,lose,go,GAL,K,bacs1,1,0,,0,1.0,-1,0
121hxl93e8gfzl0pp8urplao,1,56,2,win,no-go,NGW,U,bacs1,0,1,0.713,0,1.0,+10,1
121hxl93e8gfzl0pp8urplao,1,57,5,lose,go,GAL,K,bacs1,1,0,,0,0.0,-10,0
121hxl93e8gfzl0pp8urplao,1,58,5,lose,no-go,NGAL,S,bacs1,0,0,,1,0.0,-1,0
121hxl93e8gfzl0pp8urplao,1,59,3,win,no-go,NGW,U,bacs1,0,1,0.61,0,1.0,+10,1
121hxl93e8gfzl0pp8urplao,1,60,7,win,go,GW,D,bacs1,1,1,0.559,1,0.0,+10,1
121hxl93e8gfzl0pp8urplao,1,61,4,win,no-go,NGW,U,bacs1,0,1,0.724,0,0.0,+1,1
121hxl93e8gfzl0pp8urplao,1,62,6,lose,no-go,NGAL,S,bacs1,0,0,,1,1.0,-10,0
121hxl93e8gfzl0pp8urplao,1,63,8,win,go,GW,D,bacs1,1,1,0.679,1,0.0,+10,1
121hxl93e8gfzl0pp8urplao,1,64,6,lose,go,GAL,K,bacs1,1,0,,0,0.0,-10,0
121hxl93e8gfzl0pp8urplao,1,65,9,win,go,GW,D,bacs1,1,1,0.685,1,1.0,+1,1
121hxl93e8gfzl0pp8urplao,1,66,7,lose,no-go,NGAL,S,bacs1,0,0,,1,0.0,-1,0
121hxl93e8gfzl0pp8urplao,1,67,5,win,no-go,NGW,U,bacs1,0,1,0.679,0,0.0,+1,1
121hxl93e8gfzl0pp8urplao,1,68,7,lose,go,GAL,K,bacs1,1,1,0.713,1,0.0,-1,1
121hxl93e8gfzl0pp8urplao,1,69,6,win,no-go,NGW,U,bacs1,0,1,0.613,0,0.0,+1,1
121hxl93e8gfzl0pp8urplao,1,70,8,lose,no-go,NGAL,S,bacs1,0,0,,1,0.0,-1,0
121hxl93e8gfzl0pp8urplao,1,71,8,lose,go,GAL,K,bacs1,1,1,0.704,1,0.0,-1,1
121hxl93e8gfzl0pp8urplao,1,72,10,win,go,GW,D,bacs1,1,1,0.614,1,0.0,+10,1
121hxl93e8gfzl0pp8urplao,1,73,9,lose,no-go,NGAL,S,bacs1,0,0,,1,0.0,-1,0
121hxl93e8gfzl0pp8urplao,1,74,11,win,go,GW,D,bacs1,1,1,0.706,1,1.0,+1,1
121hxl93e8gfzl0pp8urplao,1,75,7,win,no-go,NGW,U,bacs1,0,0,,1,0.0,+10,0
121hxl93e8gfzl0pp8urplao,1,76,1,lose,go,GAL,M,bacs1,1,1,1.152,1,0.0,-1,1
121hxl93e8gfzl0pp8urplao,1,77,10,lose,no-go,NGAL,S,bacs1,0,0,,1,0.0,-1,0
121hxl93e8gfzl0pp8urplao,1,78,8,win,no-go,NGW,U,bacs1,0,0,,1,1.0,+1,0
121hxl93e8gfzl0pp8urplao,1,79,12,win,go,GW,D,bacs1,1,0,,0,0.0,+1,0
121hxl93e8gfzl0pp8urplao,1,80,2,lose,go,GAL,M,bacs1,1,1,0.934,1,0.0,-1,1
121hxl93e8gfzl0pp8urplao,1,81,1,lose,go,GAL,P,bacs1,1,0,,0,1.0,-1,0
121hxl93e8gfzl0pp8urplao,1,82,3,lose,go,GAL,M,bacs1,1,1,0.869,1,0.0,-1,1
121hxl93e8gfzl0pp8urplao,1,83,9,win,no-go,NGW,U,bacs1,0,1,0.818,0,0.0,+1,1
121hxl93e8gfzl0pp8urplao,1,84,11,lose,no-go,NGAL,S,bacs1,0,0,,1,0.0,-1,0
121hxl93e8gfzl0pp8urplao,1,85,10,win,no-go,NGW,U,bacs1,0,1,0.78,0,1.0,+10,1
121hxl93e8gfzl0pp8urplao,1,86,4,lose,go,GAL,M,bacs1,1,1,0.782,1,0.0,-1,1
121hxl93e8gfzl0pp8urplao,1,87,12,lose,no-go,NGAL,S,bacs1,0,0,,1,0.0,-1,0
121hxl93e8gfzl0pp8urplao,1,88,2,lose,go,GAL,P,bacs1,1,0,,0,0.0,-10,0
121hxl93e8gfzl0pp8urplao,1,89,5,lose,go,GAL,M,bacs1,1,1,0.698,1,0.0,-1,1
121hxl93e8gfzl0pp8urplao,1,90,3,lose,go,GAL,P,bacs1,1,1,1.16,1,1.0,-10,1
121hxl93e8gfzl0pp8urplao,1,91,1,win,no-go,NGW,Y,bacs1,0,1,0.691,0,0.0,+1,1
121hxl93e8gfzl0pp8urplao,1,92,1,lose,no-go,NGAL,H,bacs1,0,0,,1,0.0,-1,0
121hxl93e8gfzl0pp8urplao,1,93,2,win,no-go,NGW,Y,bacs1,0,1,0.837,0,0.0,+1,1
121hxl93e8gfzl0pp8urplao,1,94,2,lose,no-go,NGAL,H,bacs1,0,0,,1,0.0,-1,0
121hxl93e8gfzl0pp8urplao,1,95,4,lose,go,GAL,P,bacs1,1,0,,0,0.0,-10,0
121hxl93e8gfzl0pp8urplao,1,96,6,lose,go,GAL,M,bacs1,1,1,0.596,1,0.0,-1,1
121hxl93e8gfzl0pp8urplao,1,97,3,lose,no-go,NGAL,H,bacs1,0,0,,1,0.0,-1,0
121hxl93e8gfzl0pp8urplao,1,98,3,win,no-go,NGW,Y,bacs1,0,1,0.777,0,1.0,+10,1
121hxl93e8gfzl0pp8urplao,1,99,7,lose,go,GAL,M,bacs1,1,1,0.628,1,0.0,-1,1
121hxl93e8gfzl0pp8urplao,1,100,5,lose,go,GAL,P,bacs1,1,1,0.998,1,1.0,-10,1
121hxl93e8gfzl0pp8urplao,1,101,8,lose,go,GAL,M,bacs1,1,1,0.548,1,0.0,-1,1
121hxl93e8gfzl0pp8urplao,1,102,4,lose,no-go,NGAL,H,bacs1,0,0,,1,0.0,-1,0
121hxl93e8gfzl0pp8urplao,1,103,6,lose,go,GAL,P,bacs1,1,0,,0,0.0,-10,0
121hxl93e8gfzl0pp8urplao,1,104,4,win,no-go,NGW,Y,bacs1,0,1,0.714,0,0.0,+1,1
121hxl93e8gfzl0pp8urplao,1,105,5,win,no-go,NGW,Y,bacs1,0,0,,1,0.0,+10,0
121hxl93e8gfzl0pp8urplao,1,106,9,lose,go,GAL,M,bacs1,1,1,0.769,1,0.0,-1,1
121hxl93e8gfzl0pp8urplao,1,107,5,lose,no-go,NGAL,H,bacs1,0,0,,1,0.0,-1,0
121hxl93e8gfzl0pp8urplao,1,108,7,lose,go,GAL,P,bacs1,1,1,1.082,1,0.0,-1,1
121hxl93e8gfzl0pp8urplao,1,109,6,win,no-go,NGW,Y,bacs1,0,0,,1,0.0,+10,0
121hxl93e8gfzl0pp8urplao,1,110,6,lose,no-go,NGAL,H,bacs1,0,0,,1,0.0,-1,0
121hxl93e8gfzl0pp8urplao,1,111,8,lose,go,GAL,P,bacs1,1,0,,0,0.0,-10,0
121hxl93e8gfzl0pp8urplao,1,112,10,lose,go,GAL,M,bacs1,1,1,0.547,1,0.0,-1,1
121hxl93e8gfzl0pp8urplao,1,113,7,win,no-go,NGW,Y,bacs1,0,0,,1,0.0,+10,0
121hxl93e8gfzl0pp8urplao,1,114,7,lose,no-go,NGAL,H,bacs1,0,0,,1,0.0,-1,0
121hxl93e8gfzl0pp8urplao,1,115,11,lose,go,GAL,M,bacs1,1,1,0.571,1,0.0,-1,1
121hxl93e8gfzl0pp8urplao,1,116,9,lose,go,GAL,P,bacs1,1,0,,0,0.0,-10,0
121hxl93e8gfzl0pp8urplao,1,117,8,lose,no-go,NGAL,H,bacs1,0,0,,1,0.0,-1,0
121hxl93e8gfzl0pp8urplao,1,118,8,win,no-go,NGW,Y,bacs1,0,0,,1,1.0,+1,0
121hxl93e8gfzl0pp8urplao,1,119,12,lose,go,GAL,M,bacs1,1,1,0.56,1,0.0,-1,1
121hxl93e8gfzl0pp8urplao,1,120,10,lose,go,GAL,P,bacs1,1,1,0.892,1,1.0,-10,1
121hxl93e8gfzl0pp8urplao,2,121,1,lose,no-go,NGAL,B,bacs1,0,1,0.897,0,0.0,-10,1
121hxl93e8gfzl0pp8urplao,2,122,1,win,go,GW,J,bacs1,1,1,0.581,1,0.0,+10,1
121hxl93e8gfzl0pp8urplao,2,123,1,lose,no-go,NGAL,Z,bacs1,0,1,0.713,0,1.0,-1,1
121hxl93e8gfzl0pp8urplao,2,124,1,win,no-go,NGW,R,bacs1,0,1,0.68,0,0.0,+1,1
121hxl93e8gfzl0pp8urplao,2,125,2,lose,no-go,NGAL,B,bacs1,0,0,,1,0.0,-1,0
121hxl93e8gfzl0pp8urplao,2,126,2,win,no-go,NGW,R,bacs1,0,1,1.209,0,0.0,+1,1
121hxl93e8gfzl0pp8urplao,2,127,2,win,go,GW,J,bacs1,1,1,0.457,1,0.0,+10,1
121hxl93e8gfzl0pp8urplao,2,128,2,lose,no-go,NGAL,Z,bacs1,0,1,0.959,0,0.0,-10,1
121hxl93e8gfzl0pp8urplao,2,129,3,lose,no-go,NGAL,B,bacs1,0,0,,1,0.0,-1,0
121hxl93e8gfzl0pp8urplao,2,130,3,win,no-go,NGW,R,bacs1,0,0,,1,0.0,+10,0
121hxl93e8gfzl0pp8urplao,2,131,3,win,go,GW,J,bacs1,1,1,0.472,1,0.0,+10,1
121hxl93e8gfzl0pp8urplao,2,132,3,lose,no-go,NGAL,Z,bacs1,0,0,,1,1.0,-10,0
121hxl93e8gfzl0pp8urplao,2,133,4,lose,no-go,NGAL,Z,bacs1,0,1,1.251,0,0.0,-10,1
121hxl93e8gfzl0pp8urplao,2,134,4,lose,no-go,NGAL,B,bacs1,0,1,0.636,0,1.0,-1,1
121hxl93e8gfzl0pp8urplao,2,135,4,win,no-go,NGW,R,bacs1,0,0,,1,0.0,+10,0
121hxl93e8gfzl0pp8urplao,2,136,4,win,go,GW,J,bacs1,1,1,0.523,1,1.0,+1,1
121hxl93e8gfzl0pp8urplao,2,137,5,lose,no-go,NGAL,Z,bacs1,0,0,,1,0.0,-1,0
121hxl93e8gfzl0pp8urplao,2,138,5,win,no-go,NGW,R,bacs1,0,0,,1,0.0,+10,0
121hxl93e8gfzl0pp8urplao,2,139,5,lose,no-go,NGAL,B,bacs1,0,0,,1,0.0,-1,0
121hxl93e8gfzl0pp8urplao,2,140,5,win,go,GW,J,bacs1,1,1,1.284,1,0.0,+10,1
121hxl93e8gfzl0pp8urplao,2,141,6,win,go,GW,J,bacs1,1,1,0.972,1,0.0,+10,1
121hxl93e8gfzl0pp8urplao,2,142,6,lose,no-go,NGAL,B,bacs1,0,0,,1,1.0,-10,0
121hxl93e8gfzl0pp8urplao,2,143,6,win,no-go,NGW,R,bacs1,0,0,,1,0.0,+10,0
121hxl93e8gfzl0pp8urplao,2,144,6,lose,no-go,NGAL,Z,bacs1,0,0,,1,0.0,-1,0
121hxl93e8gfzl0pp8urplao,2,145,7,win,go,GW,J,bacs1,1,1,0.742,1,0.0,+10,1
121hxl93e8gfzl0pp8urplao,2,146,7,lose,no-go,NGAL,Z,bacs1,0,0,,1,0.0,-1,0
121hxl93e8gfzl0pp8urplao,2,147,7,lose,no-go,NGAL,B,bacs1,0,0,,1,0.0,-1,0
121hxl93e8gfzl0pp8urplao,2,148,7,win,no-go,NGW,R,bacs1,0,0,,1,0.0,+10,0
121hxl93e8gfzl0pp8urplao,2,149,8,lose,no-go,NGAL,B,bacs1,0,0,,1,0.0,-1,0
121hxl93e8gfzl0pp8urplao,2,150,8,win,no-go,NGW,R,bacs1,0,0,,1,0.0,+10,0
121hxl93e8gfzl0pp8urplao,2,151,8,win,go,GW,J,bacs1,1,1,0.469,1,0.0,+10,1
121hxl93e8gfzl0pp8urplao,2,152,8,lose,no-go,NGAL,Z,bacs1,0,0,,1,0.0,-1,0
121hxl93e8gfzl0pp8urplao,2,153,9,lose,no-go,NGAL,B,bacs1,0,0,,1,0.0,-1,0
121hxl93e8gfzl0pp8urplao,2,154,9,win,go,GW,J,bacs1,1,1,1.255,1,0.0,+10,1
121hxl93e8gfzl0pp8urplao,2,155,9,win,no-go,NGW,R,bacs1,0,0,,1,0.0,+10,0
121hxl93e8gfzl0pp8urplao,2,156,1,lose,go,GAL,V,bacs1,1,1,1.156,1,0.0,-1,1
121hxl93e8gfzl0pp8urplao,2,157,10,win,no-go,NGW,R,bacs1,0,0,,1,0.0,+10,0
121hxl93e8gfzl0pp8urplao,2,158,10,win,go,GW,J,bacs1,1,1,0.745,1,0.0,+10,1
121hxl93e8gfzl0pp8urplao,2,159,10,lose,no-go,NGAL,B,bacs1,0,0,,1,1.0,-10,0
121hxl93e8gfzl0pp8urplao,2,160,2,lose,go,GAL,V,bacs1,1,1,0.774,1,0.0,-1,1
121hxl93e8gfzl0pp8urplao,2,161,3,lose,go,GAL,V,bacs1,1,1,0.749,1,0.0,-1,1
121hxl93e8gfzl0pp8urplao,2,162,11,lose,no-go,NGAL,B,bacs1,0,1,0.847,0,0.0,-10,1
121hxl93e8gfzl0pp8urplao,2,163,1,win,no-go,NGW,E,bacs1,0,1,1.008,0,1.0,+10,1
121hxl93e8gfzl0pp8urplao,2,164,1,win,go,GW,T,bacs1,1,1,0.849,1,0.0,+10,1
121hxl93e8gfzl0pp8urplao,2,165,2,win,no-go,NGW,E,bacs1,0,1,0.576,0,0.0,+1,1
121hxl93e8gfzl0pp8urplao,2,166,2,win,go,GW,T,bacs1,1,1,0.795,1,0.0,+10,1
121hxl93e8gfzl0pp8urplao,2,167,12,lose,no-go,NGAL,B,bacs1,0,0,,1,0.0,-1,0
121hxl93e8gfzl0pp8urplao,2,168,4,lose,go,GAL,V,bacs1,1,1,1.158,1,1.0,-10,1
121hxl93e8gfzl0pp8urplao,2,169,3,win,no-go,NGW,E,bacs1,0,1,0.502,0,1.0,+10,1
121hxl93e8gfzl0pp8urplao,2,170,3,win,go,GW,T,bacs1,1,0,,0,0.0,+1,0
121hxl93e8gfzl0pp8urplao,2,171,5,lose,go,GAL,V,bacs1,1,0,,0,1.0,-1,0
121hxl93e8gfzl0pp8urplao,2,172,1,lose,no-go,NGAL,F,bacs1,0,0,,1,0.0,-1,0
121hxl93e8gfzl0pp8urplao,2,173,6,lose,go,GAL,V,bacs1,1,1,1.056,1,0.0,-1,1
121hxl93e8gfzl0pp8urplao,2,174,2,lose,no-go,NGAL,F,bacs1,0,0,,1,1.0,-10,0
121hxl93e8gfzl0pp8urplao,2,175,4,win,go,GW,T,bacs1,1,1,0.705,1,0.0,+10,1
121hxl93e8gfzl0pp8urplao,2,176,4,win,no-go,NGW,E,bacs1,0,1,0.589,0,0.0,+1,1
121hxl93e8gfzl0pp8urplao,2,177,7,lose,go,GAL,V,bacs1,1,1,0.733,1,0.0,-1,1
121hxl93e8gfzl0pp8urplao,2,178,5,win,go,GW,T,bacs1,1,1,0.772,1,0.0,+10,1
121hxl93e8gfzl0pp8urplao,2,179,5,win,no-go,NGW,E,bacs1,0,1,0.794,0,0.0,+1,1
121hxl93e8gfzl0pp8urplao,2,180,3,lose,no-go,NGAL,F,bacs1,0,1,0.951,0,0.0,-10,1
121hxl93e8gfzl0pp8urplao,2,181,6,win,no-go,NGW,E,bacs1,0,1,0.76,0,0.0,+1,1
121hxl93e8gfzl0pp8urplao,2,182,6,win,go,GW,T,bacs1,1,1,0.638,1,0.0,+10,1
121hxl93e8gfzl0pp8urplao,2,183,4,lose,no-go,NGAL,F,bacs1,0,0,,1,1.0,-10,0
121hxl93e8gfzl0pp8urplao,2,184,8,lose,go,GAL,V,bacs1,1,1,1.023,1,0.0,-1,1
121hxl93e8gfzl0pp8urplao,2,185,5,lose,no-go,NGAL,F,bacs1,0,0,,1,0.0,-1,0
121hxl93e8gfzl0pp8urplao,2,186,7,win,no-go,NGW,E,bacs1,0,1,0.871,0,0.0,+1,1
121hxl93e8gfzl0pp8urplao,2,187,7,win,go,GW,T,bacs1,1,1,0.602,1,1.0,+1,1
121hxl93e8gfzl0pp8urplao,2,188,9,lose,go,GAL,V,bacs1,1,1,0.605,1,1.0,-10,1
121hxl93e8gfzl0pp8urplao,2,189,8,win,go,GW,T,bacs1,1,1,0.534,1,0.0,+10,1
121hxl93e8gfzl0pp8urplao,2,190,8,win,no-go,NGW,E,bacs1,0,0,,1,0.0,+10,0
121hxl93e8gfzl0pp8urplao,2,191,6,lose,no-go,NGAL,F,bacs1,0,0,,1,0.0,-1,0
121hxl93e8gfzl0pp8urplao,2,192,10,lose,go,GAL,V,bacs1,1,1,0.667,1,0.0,-1,1
121hxl93e8gfzl0pp8urplao,2,193,1,win,go,GW,A,bacs1,1,1,0.67,1,0.0,+10,1
121hxl93e8gfzl0pp8urplao,2,194,1,lose,go,GAL,C,bacs1,1,0,,0,0.0,-10,0
121hxl93e8gfzl0pp8urplao,2,195,7,lose,no-go,NGAL,F,bacs1,0,0,,1,0.0,-1,0
121hxl93e8gfzl0pp8urplao,2,196,9,win,no-go,NGW,E,bacs1,0,0,,1,0.0,+10,0
121hxl93e8gfzl0pp8urplao,2,197,2,win,go,GW,A,bacs1,1,1,0.583,1,0.0,+10,1
121hxl93e8gfzl0pp8urplao,2,198,10,win,no-go,NGW,E,bacs1,0,0,,1,0.0,+10,0
121hxl93e8gfzl0pp8urplao,2,199,2,lose,go,GAL,C,bacs1,1,0,,0,0.0,-10,0
121hxl93e8gfzl0pp8urplao,2,200,8,lose,no-go,NGAL,F,bacs1,0,0,,1,1.0,-10,0
121hxl93e8gfzl0pp8urplao,2,201,3,win,go,GW,A,bacs1,1,1,0.454,1,0.0,+10,1
121hxl93e8gfzl0pp8urplao,2,202,9,lose,no-go,NGAL,F,bacs1,0,0,,1,0.0,-1,0
121hxl93e8gfzl0pp8urplao,2,203,3,lose,go,GAL,C,bacs1,1,1,0.724,1,1.0,-10,1
121hxl93e8gfzl0pp8urplao,2,204,11,win,no-go,NGW,E,bacs1,0,0,,1,0.0,+10,0
121hxl93e8gfzl0pp8urplao,2,205,4,lose,go,GAL,C,bacs1,1,1,0.734,1,0.0,-1,1
121hxl93e8gfzl0pp8urplao,2,206,4,win,go,GW,A,bacs1,1,1,0.534,1,0.0,+10,1
121hxl93e8gfzl0pp8urplao,2,207,10,lose,no-go,NGAL,F,bacs1,0,0,,1,0.0,-1,0
121hxl93e8gfzl0pp8urplao,2,208,12,win,no-go,NGW,E,bacs1,0,1,0.706,0,0.0,+1,1
121hxl93e8gfzl0pp8urplao,2,209,1,win,no-go,NGW,Q,bacs1,0,1,0.892,0,0.0,+1,1
121hxl93e8gfzl0pp8urplao,2,210,5,lose,go,GAL,C,bacs1,1,1,0.625,1,0.0,-1,1
121hxl93e8gfzl0pp8urplao,2,211,1,lose,go,GAL,L,bacs1,1,0,,0,0.0,-10,0
121hxl93e8gfzl0pp8urplao,2,212,5,win,go,GW,A,bacs1,1,1,0.544,1,0.0,+10,1
121hxl93e8gfzl0pp8urplao,2,213,6,lose,go,GAL,C,bacs1,1,1,0.726,1,1.0,-10,1
121hxl93e8gfzl0pp8urplao,2,214,6,win,go,GW,A,bacs1,1,1,0.522,1,1.0,+1,1
121hxl93e8gfzl0pp8urplao,2,215,2,lose,go,GAL,L,bacs1,1,0,,0,0.0,-10,0
121hxl93e8gfzl0pp8urplao,2,216,2,win,no-go,NGW,Q,bacs1,0,0,,1,0.0,+10,0
121hxl93e8gfzl0pp8urplao,2,217,7,win,go,GW,A,bacs1,1,1,0.724,1,1.0,+1,1
121hxl93e8gfzl0pp8urplao,2,218,3,win,no-go,NGW,Q,bacs1,0,1,0.602,0,0.0,+1,1
121hxl93e8gfzl0pp8urplao,2,219,7,lose,go,GAL,C,bacs1,1,1,0.659,1,0.0,-1,1
121hxl93e8gfzl0pp8urplao,2,220,3,lose,go,GAL,L,bacs1,1,0,,0,0.0,-10,0
121hxl93e8gfzl0pp8urplao,2,221,4,lose,go,GAL,L,bacs1,1,1,0.656,1,1.0,-10,1
121hxl93e8gfzl0pp8urplao,2,222,8,lose,go,GAL,C,bacs1,1,1,0.536,1,0.0,-1,1
121hxl93e8gfzl0pp8urplao,2,223,4,win,no-go,NGW,Q,bacs1,0,1,0.682,0,1.0,+10,1
121hxl93e8gfzl0pp8urplao,2,224,8,win,go,GW,A,bacs1,1,1,0.647,1,1.0,+1,1
121hxl93e8gfzl0pp8urplao,2,225,9,lose,go,GAL,C,bacs1,1,1,0.625,1,0.0,-1,1
121hxl93e8gfzl0pp8urplao,2,226,9,win,go,GW,A,bacs1,1,0,,0,0.0,+1,0
121hxl93e8gfzl0pp8urplao,2,227,5,win,no-go,NGW,Q,bacs1,0,1,0.595,0,0.0,+1,1
121hxl93e8gfzl0pp8urplao,2,228,5,lose,go,GAL,L,bacs1,1,1,0.816,1,0.0,-1,1
121hxl93e8gfzl0pp8urplao,2,229,6,lose,go,GAL,L,bacs1,1,1,1.051,1,0.0,-1,1
121hxl93e8gfzl0pp8urplao,2,230,6,win,no-go,NGW,Q,bacs1,0,0,,1,0.0,+10,0
121hxl93e8gfzl0pp8urplao,2,231,10,lose,go,GAL,C,bacs1,1,1,0.557,1,0.0,-1,1
121hxl93e8gfzl0pp8urplao,2,232,10,win,go,GW,A,bacs1,1,0,,0,0.0,+1,0
121hxl93e8gfzl0pp8urplao,2,233,11,win,go,GW,A,bacs1,1,1,0.503,1,0.0,+10,1
121hxl93e8gfzl0pp8urplao,2,234,7,win,no-go,NGW,Q,bacs1,0,0,,1,0.0,+10,0
121hxl93e8gfzl0pp8urplao,2,235,7,lose,go,GAL,L,bacs1,1,1,0.738,1,1.0,-10,1
121hxl93e8gfzl0pp8urplao,2,236,11,lose,go,GAL,C,bacs1,1,1,0.612,1,0.0,-1,1
121hxl93e8gfzl0pp8urplao,2,237,8,lose,go,GAL,L,bacs1,1,1,0.749,1,0.0,-1,1
121hxl93e8gfzl0pp8urplao,2,238,12,lose,go,GAL,C,bacs1,1,1,0.59,1,1.0,-10,1
121hxl93e8gfzl0pp8urplao,2,239,8,win,no-go,NGW,Q,bacs1,0,1,0.927,0,1.0,+10,1
121hxl93e8gfzl0pp8urplao,2,240,12,win,go,GW,A,bacs1,1,1,0.817,1,0.0,+10,1
21du2t6p93afcagmlp1dxfbe,1,1,1,win,no-go,NGW,X,elianto,0,1,0.739,0,0.0,+1,1
21du2t6p93afcagmlp1dxfbe,1,2,1,win,go,GW,F,elianto,1,0,,0,0.0,+1,0
21du2t6p93afcagmlp1dxfbe,1,3,1,lose,no-go,NGAL,Q,elianto,0,1,0.804,0,1.0,-1,1
21du2t6p93afcagmlp1dxfbe,1,4,1,lose,no-go,NGAL,N,elianto,0,1,0.689,0,0.0,-10,1
21du2t6p93afcagmlp1dxfbe,1,5,2,lose,no-go,NGAL,N,elianto,0,1,0.7,0,0.0,-10,1
21du2t6p93afcagmlp1dxfbe,1,6,2,lose,no-go,NGAL,Q,elianto,0,0,,1,0.0,-1,0
21du2t6p93afcagmlp1dxfbe,1,7,2,win,go,GW,F,elianto,1,1,0.582,1,1.0,+1,1
21du2t6p93afcagmlp1dxfbe,1,8,2,win,no-go,NGW,X,elianto,0,0,,1,1.0,+1,0
21du2t6p93afcagmlp1dxfbe,1,9,3,win,no-go,NGW,X,elianto,0,1,0.424,0,0.0,+1,1
21du2t6p93afcagmlp1dxfbe,1,10,3,lose,no-go,NGAL,N,elianto,0,0,,1,0.0,-1,0
21du2t6p93afcagmlp1dxfbe,1,11,3,win,go,GW,F,elianto,1,1,0.552,1,0.0,+10,1
21du2t6p93afcagmlp1dxfbe,1,12,3,lose,no-go,NGAL,Q,elianto,0,0,,1,0.0,-1,0
21du2t6p93afcagmlp1dxfbe,1,13,4,win,no-go,NGW,X,elianto,0,1,0.5,0,0.0,+1,1
21du2t6p93afcagmlp1dxfbe,1,14,4,win,go,GW,F,elianto,1,1,0.765,1,0.0,+10,1
21du2t6p93afcagmlp1dxfbe,1,15,4,lose,no-go,NGAL,N,elianto,0,0,,1,0.0,-1,0
21du2t6p93afcagmlp1dxfbe,1,16,4,lose,no-go,NGAL,Q,elianto,0,1,0.801,0,1.0,-1,1
21du2t6p93afcagmlp1dxfbe,1,17,5,win,go,GW,F,elianto,1,1,0.766,1,0.0,+10,1
21du2t6p93afcagmlp1dxfbe,1,18,5,lose,no-go,NGAL,N,elianto,0,0,,1,0.0,-1,0
21du2t6p93afcagmlp1dxfbe,1,19,5,lose,no-go,NGAL,Q,elianto,0,0,,1,0.0,-1,0
21du2t6p93afcagmlp1dxfbe,1,20,5,win,no-go,NGW,X,elianto,0,0,,1,0.0,+10,0
21du2t6p93afcagmlp1dxfbe,1,21,6,lose,no-go,NGAL,N,elianto,0,0,,1,0.0,-1,0
21du2t6p93afcagmlp1dxfbe,1,22,6,win,go,GW,F,elianto,1,1,0.772,1,0.0,+10,1
21du2t6p93afcagmlp1dxfbe,1,23,6,lose,no-go,NGAL,Q,elianto,0,0,,1,0.0,-1,0
21du2t6p93afcagmlp1dxfbe,1,24,6,win,no-go,NGW,X,elianto,0,1,0.574,0,0.0,+1,1
21du2t6p93afcagmlp1dxfbe,1,25,7,lose,no-go,NGAL,N,elianto,0,0,,1,0.0,-1,0
21du2t6p93afcagmlp1dxfbe,1,26,7,lose,no-go,NGAL,Q,elianto,0,0,,1,1.0,-10,1
21du2t6p93afcagmlp1dxfbe,1,27,7,win,go,GW,F,elianto,1,1,0.773,1,0.0,+10,1
21du2t6p93afcagmlp1dxfbe,1,28,7,win,no-go,NGW,X,elianto,0,1,0.621,0,0.0,+1,1
21du2t6p93afcagmlp1dxfbe,1,29,8,win,go,GW,F,elianto,1,1,0.627,1,0.0,+10,1
21du2t6p93afcagmlp1dxfbe,1,30,8,lose,no-go,NGAL,N,elianto,0,0,,1,0.0,-1,0
21du2t6p93afcagmlp1dxfbe,1,31,8,win,no-go,NGW,X,elianto,0,1,1.214,0,0.0,+1,1
21du2t6p93afcagmlp1dxfbe,1,32,8,lose,no-go,NGAL,Q,elianto,0,1,0.911,0,0.0,-10,1
21du2t6p93afcagmlp1dxfbe,1,33,1,lose,go,GAL,T,elianto,1,0,,0,0.0,-10,0
21du2t6p93afcagmlp1dxfbe,1,34,9,win,no-go,NGW,X,elianto,0,1,0.532,0,0.0,+1,1
21du2t6p93afcagmlp1dxfbe,1,35,9,lose,no-go,NGAL,Q,elianto,0,0,,1,0.0,-1,0
21du2t6p93afcagmlp1dxfbe,1,36,9,win,go,GW,F,elianto,1,0,,0,1.0,+10,0
21du2t6p93afcagmlp1dxfbe,1,37,10,win,go,GW,F,elianto,1,0,,0,0.0,+1,0
21du2t6p93afcagmlp1dxfbe,1,38,10,win,no-go,NGW,X,elianto,0,0,,1,0.0,+10,0
21du2t6p93afcagmlp1dxfbe,1,39,2,lose,go,GAL,T,elianto,1,0,,0,0.0,-10,0
21du2t6p93afcagmlp1dxfbe,1,40,10,lose,no-go,NGAL,Q,elianto,0,0,,1,0.0,-1,0
21du2t6p93afcagmlp1dxfbe,1,41,11,lose,no-go,NGAL,Q,elianto,0,1,1.223,0,0.0,-10,1
21du2t6p93afcagmlp1dxfbe,1,42,1,win,go,GW,C,elianto,1,0,,0,0.0,+1,0
21du2t6p93afcagmlp1dxfbe,1,43,1,win,no-go,NGW,B,elianto,0,1,0.815,0,0.0,+1,1
21du2t6p93afcagmlp1dxfbe,1,44,3,lose,go,GAL,T,elianto,1,0,,0,0.0,-10,0
21du2t6p93afcagmlp1dxfbe,1,45,2,win,no-go,NGW,B,elianto,0,1,0.714,0,0.0,+1,1
21du2t6p93afcagmlp1dxfbe,1,46,2,win,go,GW,C,elianto,1,0,,0,0.0,+1,0
21du2t6p93afcagmlp1dxfbe,1,47,4,lose,go,GAL,T,elianto,1,1,1.05,1,1.0,-10,1
21du2t6p93afcagmlp1dxfbe,1,48,12,lose,no-go,NGAL,Q,elianto,0,0,,1,1.0,-10,0
21du2t6p93afcagmlp1dxfbe,1,49,5,lose,go,GAL,T,elianto,1,1,0.57,1,0.0,-1,1
21du2t6p93afcagmlp1dxfbe,1,50,1,lose,no-go,NGAL,Z,elianto,0,0,,1,0.0,-1,0
21du2t6p93afcagmlp1dxfbe,1,51,3,win,go,GW,C,elianto,1,1,1.124,1,0.0,+10,1
21du2t6p93afcagmlp1dxfbe,1,52,3,win,no-go,NGW,B,elianto,0,1,0.779,0,0.0,+1,1
21du2t6p93afcagmlp1dxfbe,1,53,4,win,no-go,NGW,B,elianto,0,0,,1,0.0,+10,0
21du2t6p93afcagmlp1dxfbe,1,54,6,lose,go,GAL,T,elianto,1,1,0.83,1,1.0,-10,1
21du2t6p93afcagmlp1dxfbe,1,55,4,win,go,GW,C,elianto,1,1,0.875,1,0.0,+10,1
21du2t6p93afcagmlp1dxfbe,1,56,2,lose,no-go,NGAL,Z,elianto,0,0,,1,0.0,-1,0
21du2t6p93afcagmlp1dxfbe,1,57,5,win,no-go,NGW,B,elianto,0,0,,1,0.0,+10,0
21du2t6p93afcagmlp1dxfbe,1,58,3,lose,no-go,NGAL,Z,elianto,0,1,1.064,0,1.0,-1,1
21du2t6p93afcagmlp1dxfbe,1,59,5,win,go,GW,C,elianto,1,1,1.098,1,0.0,+10,1
21du2t6p93afcagmlp1dxfbe,1,60,7,lose,go,GAL,T,elianto,1,0,,0,0.0,-10,0
21du2t6p93afcagmlp1dxfbe,1,61,6,win,no-go,NGW,B,elianto,0,1,0.682,0,0.0,+1,1
21du2t6p93afcagmlp1dxfbe,1,62,6,win,go,GW,C,elianto,1,1,0.842,1,1.0,+1,1
21du2t6p93afcagmlp1dxfbe,1,63,4,lose,no-go,NGAL,Z,elianto,0,0,,1,1.0,-10,0
21du2t6p93afcagmlp1dxfbe,1,64,8,lose,go,GAL,T,elianto,1,1,1.098,1,1.0,-10,1
21du2t6p93afcagmlp1dxfbe,1,65,7,win,go,GW,C,elianto,1,1,0.779,1,0.0,+10,1
21du2t6p93afcagmlp1dxfbe,1,66,5,lose,no-go,NGAL,Z,elianto,0,0,,1,0.0,-1,0
21du2t6p93afcagmlp1dxfbe,1,67,9,lose,go,GAL,T,elianto,1,0,,0,0.0,-10,0
21du2t6p93afcagmlp1dxfbe,1,68,7,win,no-go,NGW,B,elianto,0,1,1.148,0,0.0,+1,1
21du2t6p93afcagmlp1dxfbe,1,69,10,lose,go,GAL,T,elianto,1,1,1.008,1,0.0,-1,1
21du2t6p93afcagmlp1dxfbe,1,70,8,win,no-go,NGW,B,elianto,0,0,,1,0.0,+10,0
21du2t6p93afcagmlp1dxfbe,1,71,6,lose,no-go,NGAL,Z,elianto,0,0,,1,0.0,-1,0
21du2t6p93afcagmlp1dxfbe,1,72,8,win,go,GW,C,elianto,1,0,,0,0.0,+1,0
21du2t6p93afcagmlp1dxfbe,1,73,1,lose,go,GAL,Y,elianto,1,0,,0,1.0,-1,0
21du2t6p93afcagmlp1dxfbe,1,74,1,win,go,GW,H,elianto,1,0,,0,0.0,+1,0
21du2t6p93afcagmlp1dxfbe,1,75,9,win,no-go,NGW,B,elianto,0,0,,1,0.0,+10,0
21du2t6p93afcagmlp1dxfbe,1,76,7,lose,no-go,NGAL,Z,elianto,0,0,,1,0.0,-1,0
21du2t6p93afcagmlp1dxfbe,1,77,2,win,go,GW,H,elianto,1,1,1.034,1,0.0,+10,1
21du2t6p93afcagmlp1dxfbe,1,78,10,win,no-go,NGW,B,elianto,0,0,,1,0.0,+10,0
21du2t6p93afcagmlp1dxfbe,1,79,8,lose,no-go,NGAL,Z,elianto,0,0,,1,1.0,-10,0
21du2t6p93afcagmlp1dxfbe,1,80,2,lose,go,GAL,Y,elianto,1,0,,0,0.0,-10,0
21du2t6p93afcagmlp1dxfbe,1,81,3,win,go,GW,H,elianto,1,1,1.172,1,0.0,+10,1
21du2t6p93afcagmlp1dxfbe,1,82,3,lose,go,GAL,Y,elianto,1,0,,0,0.0,-10,0
21du2t6p93afcagmlp1dxfbe,1,83,11,win,no-go,NGW,B,elianto,0,1,1.024,0,0.0,+1,1
21du2t6p93afcagmlp1dxfbe,1,84,9,lose,no-go,NGAL,Z,elianto,0,1,0.81,0,1.0,-1,1
21du2t6p93afcagmlp1dxfbe,1,85,12,win,no-go,NGW,B,elianto,0,1,1.036,0,0.0,+1,1
21du2t6p93afcagmlp1dxfbe,1,86,10,lose,no-go,NGAL,Z,elianto,0,1,0.892,0,0.0,-10,1
21du2t6p93afcagmlp1dxfbe,1,87,4,lose,go,GAL,Y,elianto,1,1,0.699,1,0.0,-1,1
21du2t6p93afcagmlp1dxfbe,1,88,4,win,go,GW,H,elianto,1,1,0.55,1,0.0,+10,1
21du2t6p93afcagmlp1dxfbe,1,89,1,lose,go,GAL,R,elianto,1,0,,0,0.0,-10,0
21du2t6p93afcagmlp1dxfbe,1,90,5,win,go,GW,H,elianto,1,1,0.808,1,1.0,+1,1
21du2t6p93afcagmlp1dxfbe,1,91,1,win,no-go,NGW,M,elianto,0,1,0.826,0,0.0,+1,1
21du2t6p93afcagmlp1dxfbe,1,92,5,lose,go,GAL,Y,elianto,1,1,0.918,1,0.0,-1,1
21du2t6p93afcagmlp1dxfbe,1,93,2,win,no-go,NGW,M,elianto,0,0,,1,0.0,+10,0
21du2t6p93afcagmlp1dxfbe,1,94,2,lose,go,GAL,R,elianto,1,1,0.824,1,0.0,-1,1
21du2t6p93afcagmlp1dxfbe,1,95,6,lose,go,GAL,Y,elianto,1,1,0.764,1,1.0,-10,1
21du2t6p93afcagmlp1dxfbe,1,96,6,win,go,GW,H,elianto,1,0,,0,0.0,+1,0
21du2t6p93afcagmlp1dxfbe,1,97,3,win,no-go,NGW,M,elianto,0,1,0.535,0,0.0,+1,1
21du2t6p93afcagmlp1dxfbe,1,98,7,lose,go,GAL,Y,elianto,1,1,1.032,1,0.0,-1,1
21du2t6p93afcagmlp1dxfbe,1,99,7,win,go,GW,H,elianto,1,0,,0,0.0,+1,0
21du2t6p93afcagmlp1dxfbe,1,100,3,lose,go,GAL,R,elianto,1,1,0.813,1,0.0,-1,1
21du2t6p93afcagmlp1dxfbe,1,101,8,win,go,GW,H,elianto,1,1,0.949,1,1.0,+1,1
21du2t6p93afcagmlp1dxfbe,1,102,8,lose,go,GAL,Y,elianto,1,1,0.899,1,0.0,-1,1
21du2t6p93afcagmlp1dxfbe,1,103,4,lose,go,GAL,R,elianto,1,0,,0,0.0,-10,0
21du2t6p93afcagmlp1dxfbe,1,104,4,win,no-go,NGW,M,elianto,0,0,,1,0.0,+10,0
21du2t6p93afcagmlp1dxfbe,1,105,5,lose,go,GAL,R,elianto,1,1,1.268,1,0.0,-1,1
21du2t6p93afcagmlp1dxfbe,1,106,9,win,go,GW,H,elianto,1,1,0.966,1,0.0,+10,1
21du2t6p93afcagmlp1dxfbe,1,107,5,win,no-go,NGW,M,elianto,0,0,,1,0.0,+10,0
21du2t6p93afcagmlp1dxfbe,1,108,9,lose,go,GAL,Y,elianto,1,0,,0,0.0,-10,0
21du2t6p93afcagmlp1dxfbe,1,109,10,lose,go,GAL,Y,elianto,1,1,0.902,1,0.0,-1,1
21du2t6p93afcagmlp1dxfbe,1,110,6,lose,go,GAL,R,elianto,1,1,0.759,1,1.0,-10,1
21du2t6p93afcagmlp1dxfbe,1,111,10,win,go,GW,H,elianto,1,0,,0,0.0,+1,0
21du2t6p93afcagmlp1dxfbe,1,112,6,win,no-go,NGW,M,elianto,0,0,,1,0.0,+10,0
21du2t6p93afcagmlp1dxfbe,1,113,11,lose,go,GAL,Y,elianto,1,1,0.905,1,0.0,-1,1
21du2t6p93afcagmlp1dxfbe,1,114,7,lose,go,GAL,R,elianto,1,0,,0,0.0,-10,0
21du2t6p93afcagmlp1dxfbe,1,115,7,win,no-go,NGW,M,elianto,0,1,0.995,0,1.0,+10,1
21du2t6p93afcagmlp1dxfbe,1,116,11,win,go,GW,H,elianto,1,0,,0,1.0,+10,0
21du2t6p93afcagmlp1dxfbe,1,117,8,lose,go,GAL,R,elianto,1,1,1.059,1,0.0,-1,1
21du2t6p93afcagmlp1dxfbe,1,118,12,win,go,GW,H,elianto,1,0,,0,0.0,+1,0
21du2t6p93afcagmlp1dxfbe,1,119,12,lose,go,GAL,Y,elianto,1,1,0.839,1,1.0,-10,1
21du2t6p93afcagmlp1dxfbe,1,120,8,win,no-go,NGW,M,elianto,0,0,,1,0.0,+10,0
21du2t6p93afcagmlp1dxfbe,2,121,1,win,go,GW,J,elianto,1,0,,0,0.0,+1,0
21du2t6p93afcagmlp1dxfbe,2,122,1,win,no-go,NGW,V,elianto,0,1,0.406,0,1.0,+10,1
21du2t6p93afcagmlp1dxfbe,2,123,1,win,go,GW,K,elianto,1,0,,0,0.0,+1,0
21du2t6p93afcagmlp1dxfbe,2,124,1,lose,no-go,NGAL,D,elianto,0,0,,1,0.0,-1,0
21du2t6p93afcagmlp1dxfbe,2,125,2,lose,no-go,NGAL,D,elianto,0,0,,1,0.0,-1,0
21du2t6p93afcagmlp1dxfbe,2,126,2,win,go,GW,J,elianto,1,1,0.6,1,0.0,+10,1
21du2t6p93afcagmlp1dxfbe,2,127,2,win,no-go,NGW,V,elianto,0,1,0.755,0,1.0,+10,1
21du2t6p93afcagmlp1dxfbe,2,128,2,win,go,GW,K,elianto,1,1,0.603,1,0.0,+10,1
21du2t6p93afcagmlp1dxfbe,2,129,3,win,go,GW,J,elianto,1,1,0.603,1,0.0,+10,1
21du2t6p93afcagmlp1dxfbe,2,130,3,lose,no-go,NGAL,D,elianto,0,0,,1,1.0,-10,0
21du2t6p93afcagmlp1dxfbe,2,131,3,win,no-go,NGW,V,elianto,0,0,,1,0.0,+10,0
21du2t6p93afcagmlp1dxfbe,2,132,3,win,go,GW,K,elianto,1,1,0.895,1,0.0,+10,1
21du2t6p93afcagmlp1dxfbe,2,133,4,win,go,GW,K,elianto,1,1,0.41,1,0.0,+10,1
21du2t6p93afcagmlp1dxfbe,2,134,4,lose,no-go,NGAL,D,elianto,0,0,,1,0.0,-1,0
21du2t6p93afcagmlp1dxfbe,2,135,4,win,no-go,NGW,V,elianto,0,1,0.803,0,0.0,+1,1
21du2t6p93afcagmlp1dxfbe,2,136,4,win,go,GW,J,elianto,1,1,0.54,1,0.0,+10,1
21du2t6p93afcagmlp1dxfbe,2,137,5,lose,no-go,NGAL,D,elianto,0,1,0.74,0,0.0,-10,1
21du2t6p93afcagmlp1dxfbe,2,138,5,win,go,GW,K,elianto,1,1,0.75,1,1.0,+1,1
21du2t6p93afcagmlp1dxfbe,2,139,5,win,go,GW,J,elianto,1,1,0.489,1,0.0,+10,1
21du2t6p93afcagmlp1dxfbe,2,140,5,win,no-go,NGW,V,elianto,0,1,0.959,0,0.0,+1,1
21du2t6p93afcagmlp1dxfbe,2,141,6,win,go,GW,J,elianto,1,1,0.537,1,0.0,+10,1
21du2t6p93afcagmlp1dxfbe,2,142,6,win,go,GW,K,elianto,1,1,0.525,1,0.0,+10,1
21du2t6p93afcagmlp1dxfbe,2,143,6,win,no-go,NGW,V,elianto,0,0,,1,1.0,+1,0
21du2t6p93afcagmlp1dxfbe,2,144,6,lose,no-go,NGAL,D,elianto,0,1,0.824,0,0.0,-10,1
21du2t6p93afcagmlp1dxfbe,2,145,7,win,go,GW,J,elianto,1,1,0.634,1,0.0,+10,1
21du2t6p93afcagmlp1dxfbe,2,146,7,win,go,GW,K,elianto,1,1,0.506,1,0.0,+10,1
21du2t6p93afcagmlp1dxfbe,2,147,7,lose,no-go,NGAL,D,elianto,0,0,,1,0.0,-1,0
21du2t6p93afcagmlp1dxfbe,2,148,7,win,no-go,NGW,V,elianto,0,1,0.528,0,1.0,+10,1
21du2t6p93afcagmlp1dxfbe,2,149,8,win,go,GW,J,elianto,1,1,0.839,1,0.0,+10,1
21du2t6p93afcagmlp1dxfbe,2,150,8,win,go,GW,K,elianto,1,0,,0,0.0,+1,0
21du2t6p93afcagmlp1dxfbe,2,151,8,win,no-go,NGW,V,elianto,0,1,0.467,0,0.0,+1,1
21du2t6p93afcagmlp1dxfbe,2,152,8,lose,no-go,NGAL,D,elianto,0,0,,1,1.0,-10,0
21du2t6p93afcagmlp1dxfbe,2,153,1,win,go,GW,E,elianto,1,0,,0,0.0,+1,0
21du2t6p93afcagmlp1dxfbe,2,154,9,win,go,GW,K,elianto,1,1,0.727,1,0.0,+10,1
21du2t6p93afcagmlp1dxfbe,2,155,9,win,no-go,NGW,V,elianto,0,0,,1,1.0,+1,0
21du2t6p93afcagmlp1dxfbe,2,156,9,lose,no-go,NGAL,D,elianto,0,0,,1,1.0,-10,0
21du2t6p93afcagmlp1dxfbe,2,157,10,lose,no-go,NGAL,D,elianto,0,1,1.013,0,0.0,-10,1
21du2t6p93afcagmlp1dxfbe,2,158,10,win,go,GW,K,elianto,1,0,,0,0.0,+1,0
21du2t6p93afcagmlp1dxfbe,2,159,2,win,go,GW,E,elianto,1,0,,0,0.0,+1,0
21du2t6p93afcagmlp1dxfbe,2,160,10,win,no-go,NGW,V,elianto,0,1,0.689,0,0.0,+1,1
21du2t6p93afcagmlp1dxfbe,2,161,11,win,no-go,NGW,V,elianto,0,1,0.735,0,1.0,+10,1
21du2t6p93afcagmlp1dxfbe,2,162,1,lose,no-go,NGAL,S,elianto,0,0,,1,0.0,-1,0
21du2t6p93afcagmlp1dxfbe,2,163,3,win,go,GW,E,elianto,1,1,0.756,1,0.0,+10,1
21du2t6p93afcagmlp1dxfbe,2,164,1,lose,go,GAL,W,elianto,1,0,,0,0.0,-10,0
21du2t6p93afcagmlp1dxfbe,2,165,4,win,go,GW,E,elianto,1,1,0.71,1,1.0,+1,1
21du2t6p93afcagmlp1dxfbe,2,166,2,lose,no-go,NGAL,S,elianto,0,0,,1,0.0,-1,0
21du2t6p93afcagmlp1dxfbe,2,167,12,win,no-go,NGW,V,elianto,0,1,0.672,0,1.0,+10,1
21du2t6p93afcagmlp1dxfbe,2,168,2,lose,go,GAL,W,elianto,1,0,,0,0.0,-10,0
21du2t6p93afcagmlp1dxfbe,2,169,5,win,go,GW,E,elianto,1,1,0.704,1,0.0,+10,1
21du2t6p93afcagmlp1dxfbe,2,170,3,lose,go,GAL,W,elianto,1,1,0.746,1,1.0,-10,1
21du2t6p93afcagmlp1dxfbe,2,171,1,win,no-go,NGW,P,elianto,0,0,,1,0.0,+10,0
21du2t6p93afcagmlp1dxfbe,2,172,3,lose,no-go,NGAL,S,elianto,0,1,0.979,0,0.0,-10,1
21du2t6p93afcagmlp1dxfbe,2,173,6,win,go,GW,E,elianto,1,1,0.929,1,0.0,+10,1
21du2t6p93afcagmlp1dxfbe,2,174,4,lose,no-go,NGAL,S,elianto,0,0,,1,0.0,-1,0
21du2t6p93afcagmlp1dxfbe,2,175,4,lose,go,GAL,W,elianto,1,0,,0,0.0,-10,0
21du2t6p93afcagmlp1dxfbe,2,176,2,win,no-go,NGW,P,elianto,0,1,0.682,0,0.0,+1,1
21du2t6p93afcagmlp1dxfbe,2,177,5,lose,no-go,NGAL,S,elianto,0,0,,1,0.0,-1,0
21du2t6p93afcagmlp1dxfbe,2,178,7,win,go,GW,E,elianto,1,1,0.841,1,1.0,+1,1
21du2t6p93afcagmlp1dxfbe,2,179,3,win,no-go,NGW,P,elianto,0,0,,1,0.0,+10,0
21du2t6p93afcagmlp1dxfbe,2,180,5,lose,go,GAL,W,elianto,1,0,,0,0.0,-10,0
21du2t6p93afcagmlp1dxfbe,2,181,6,lose,go,GAL,W,elianto,1,1,0.535,1,0.0,-1,1
21du2t6p93afcagmlp1dxfbe,2,182,8,win,go,GW,E,elianto,1,1,0.634,1,0.0,+10,1
21du2t6p93afcagmlp1dxfbe,2,183,4,win,no-go,NGW,P,elianto,0,0,,1,1.0,+1,0
21du2t6p93afcagmlp1dxfbe,2,184,6,lose,no-go,NGAL,S,elianto,0,1,0.692,0,0.0,-10,1
21du2t6p93afcagmlp1dxfbe,2,185,9,win,go,GW,E,elianto,1,1,0.669,1,0.0,+10,1
21du2t6p93afcagmlp1dxfbe,2,186,7,lose,no-go,NGAL,S,elianto,0,0,,1,0.0,-1,0
21du2t6p93afcagmlp1dxfbe,2,187,5,win,no-go,NGW,P,elianto,0,1,0.772,0,0.0,+1,1
21du2t6p93afcagmlp1dxfbe,2,188,7,lose,go,GAL,W,elianto,1,0,,0,0.0,-10,0
21du2t6p93afcagmlp1dxfbe,2,189,8,lose,go,GAL,W,elianto,1,1,0.559,1,0.0,-1,1
21du2t6p93afcagmlp1dxfbe,2,190,8,lose,no-go,NGAL,S,elianto,0,0,,1,0.0,-1,0
21du2t6p93afcagmlp1dxfbe,2,191,6,win,no-go,NGW,P,elianto,0,1,0.806,0,0.0,+1,1
21du2t6p93afcagmlp1dxfbe,2,192,10,win,go,GW,E,elianto,1,0,,0,0.0,+1,0
21du2t6p93afcagmlp1dxfbe,2,193,9,lose,no-go,NGAL,S,elianto,0,1,0.962,0,0.0,-10,1
21du2t6p93afcagmlp1dxfbe,2,194,1,lose,go,GAL,G,elianto,1,0,,0,0.0,-10,0
21du2t6p93afcagmlp1dxfbe,2,195,11,win,go,GW,E,elianto,1,1,0.59,1,1.0,+1,1
21du2t6p93afcagmlp1dxfbe,2,196,7,win,no-go,NGW,P,elianto,0,1,0.463,0,0.0,+1,1
21du2t6p93afcagmlp1dxfbe,2,197,2,lose,go,GAL,G,elianto,1,1,1.177,1,0.0,-1,1
21du2t6p93afcagmlp1dxfbe,2,198,12,win,go,GW,E,elianto,1,1,0.688,1,0.0,+10,1
21du2t6p93afcagmlp1dxfbe,2,199,8,win,no-go,NGW,P,elianto,0,1,0.56,0,1.0,+10,1
21du2t6p93afcagmlp1dxfbe,2,200,10,lose,no-go,NGAL,S,elianto,0,0,,1,0.0,-1,0
21du2t6p93afcagmlp1dxfbe,2,201,9,win,no-go,NGW,P,elianto,0,1,0.564,0,0.0,+1,1
21du2t6p93afcagmlp1dxfbe,2,202,1,lose,go,GAL,A,elianto,1,0,,0,0.0,-10,0
21du2t6p93afcagmlp1dxfbe,2,203,11,lose,no-go,NGAL,S,elianto,0,1,0.756,0,0.0,-10,1
21du2t6p93afcagmlp1dxfbe,2,204,3,lose,go,GAL,G,elianto,1,0,,0,0.0,-10,0
21du2t6p93afcagmlp1dxfbe,2,205,12,lose,no-go,NGAL,S,elianto,0,1,0.458,0,0.0,-10,1
21du2t6p93afcagmlp1dxfbe,2,206,2,lose,go,GAL,A,elianto,1,1,0.713,1,0.0,-1,1
21du2t6p93afcagmlp1dxfbe,2,207,10,win,no-go,NGW,P,elianto,0,1,0.603,0,0.0,+1,1
21du2t6p93afcagmlp1dxfbe,2,208,4,lose,go,GAL,G,elianto,1,1,0.878,1,0.0,-1,1
21du2t6p93afcagmlp1dxfbe,2,209,3,lose,go,GAL,A,elianto,1,1,0.654,1,0.0,-1,1
21du2t6p93afcagmlp1dxfbe,2,210,1,win,no-go,NGW,U,elianto,0,0,,1,1.0,+1,0
21du2t6p93afcagmlp1dxfbe,2,211,5,lose,go,GAL,G,elianto,1,0,,0,0.0,-10,0
21du2t6p93afcagmlp1dxfbe,2,212,1,lose,no-go,NGAL,L,elianto,0,1,0.549,0,0.0,-10,1
21du2t6p93afcagmlp1dxfbe,2,213,6,lose,go,GAL,G,elianto,1,1,0.682,1,0.0,-1,1
21du2t6p93afcagmlp1dxfbe,2,214,4,lose,go,GAL,A,elianto,1,1,0.559,1,0.0,-1,1
21du2t6p93afcagmlp1dxfbe,2,215,2,lose,no-go,NGAL,L,elianto,0,1,0.635,0,0.0,-10,2
21du2t6p93afcagmlp1dxfbe,2,216,2,win,no-go,NGW,U,elianto,0,1,0.587,0,0.0,+1,1
21du2t6p93afcagmlp1dxfbe,2,217,7,lose,go,GAL,G,elianto,1,0,,0,1.0,-1,0
21du2t6p93afcagmlp1dxfbe,2,218,3,win,no-go,NGW,U,elianto,0,1,0.889,0,1.0,+10,1
21du2t6p93afcagmlp1dxfbe,2,219,3,lose,no-go,NGAL,L,elianto,0,0,,1,0.0,-1,0
21du2t6p93afcagmlp1dxfbe,2,220,5,lose,go,GAL,A,elianto,1,0,,0,0.0,-10,1
21du2t6p93afcagmlp1dxfbe,2,221,4,win,no-go,NGW,U,elianto,0,0,,1,0.0,+10,0
21du2t6p93afcagmlp1dxfbe,2,222,4,lose,no-go,NGAL,L,elianto,0,1,0.637,0,1.0,-1,1
21du2t6p93afcagmlp1dxfbe,2,223,8,lose,go,GAL,G,elianto,1,0,,0,0.0,-10,0
21du2t6p93afcagmlp1dxfbe,2,224,6,lose,go,GAL,A,elianto,1,1,0.605,1,0.0,-1,1
21du2t6p93afcagmlp1dxfbe,2,225,7,lose,go,GAL,A,elianto,1,1,0.558,1,0.0,-1,1
21du2t6p93afcagmlp1dxfbe,2,226,5,win,no-go,NGW,U,elianto,0,1,0.52,0,1.0,+10,1
21du2t6p93afcagmlp1dxfbe,2,227,5,lose,no-go,NGAL,L,elianto,0,1,0.584,0,0.0,-10,1
21du2t6p93afcagmlp1dxfbe,2,228,9,lose,go,GAL,G,elianto,1,1,0.627,1,0.0,-1,1
21du2t6p93afcagmlp1dxfbe,2,229,6,win,no-go,NGW,U,elianto,0,1,0.873,0,0.0,+1,1
21du2t6p93afcagmlp1dxfbe,2,230,6,lose,no-go,NGAL,L,elianto,0,0,,1,1.0,-10,0
21du2t6p93afcagmlp1dxfbe,2,231,10,lose,go,GAL,G,elianto,1,1,0.676,1,0.0,-1,1
21du2t6p93afcagmlp1dxfbe,2,232,8,lose,go,GAL,A,elianto,1,1,0.587,1,0.0,-1,1
21du2t6p93afcagmlp1dxfbe,2,233,11,lose,go,GAL,G,elianto,1,0,,0,0.0,-10,0
21du2t6p93afcagmlp1dxfbe,2,234,7,win,no-go,NGW,U,elianto,0,0,,1,0.0,+10,0
21du2t6p93afcagmlp1dxfbe,2,235,7,lose,no-go,NGAL,L,elianto,0,1,1.039,0,0.0,-10,1
21du2t6p93afcagmlp1dxfbe,2,236,9,lose,go,GAL,A,elianto,1,1,0.649,1,0.0,-1,1
21du2t6p93afcagmlp1dxfbe,2,237,8,win,no-go,NGW,U,elianto,0,0,,1,0.0,+10,0
21du2t6p93afcagmlp1dxfbe,2,238,10,lose,go,GAL,A,elianto,1,1,0.534,1,0.0,-1,1
21du2t6p93afcagmlp1dxfbe,2,239,12,lose,go,GAL,G,elianto,1,1,0.955,1,1.0,-10,1
21du2t6p93afcagmlp1dxfbe,2,240,8,lose,no-go,NGAL,L,elianto,0,0,,1,0.0,-1,0
2t0g7jiyw7j0cag8sbjpktjm,1,1,1,lose,no-go,NGAL,Z,bacs1,0,1,0.458,0,0.0,-10,1
2t0g7jiyw7j0cag8sbjpktjm,1,2,1,lose,no-go,NGAL,B,bacs1,0,1,0.428,0,1.0,-1,1
2t0g7jiyw7j0cag8sbjpktjm,1,3,1,win,no-go,NGW,R,bacs1,0,1,0.311,0,0.0,+1,1
2t0g7jiyw7j0cag8sbjpktjm,1,4,1,win,go,GW,J,bacs1,1,1,0.48,1,0.0,+10,1
2t0g7jiyw7j0cag8sbjpktjm,1,5,2,lose,no-go,NGAL,Z,bacs1,0,0,,1,0.0,-1,0
2t0g7jiyw7j0cag8sbjpktjm,1,6,2,lose,no-go,NGAL,B,bacs1,0,1,0.45,0,1.0,-1,1
2t0g7jiyw7j0cag8sbjpktjm,1,7,2,win,no-go,NGW,R,bacs1,0,1,0.305,0,0.0,+1,1
2t0g7jiyw7j0cag8sbjpktjm,1,8,2,win,go,GW,J,bacs1,1,1,0.273,1,0.0,+10,1
2t0g7jiyw7j0cag8sbjpktjm,1,9,3,lose,no-go,NGAL,Z,bacs1,0,0,,1,0.0,-1,0
2t0g7jiyw7j0cag8sbjpktjm,1,10,3,lose,no-go,NGAL,B,bacs1,0,1,0.255,0,1.0,-1,1
2t0g7jiyw7j0cag8sbjpktjm,1,11,3,win,go,GW,J,bacs1,1,1,0.188,1,1.0,+1,1
2t0g7jiyw7j0cag8sbjpktjm,1,12,3,win,no-go,NGW,R,bacs1,0,1,0.427,0,0.0,+1,1
2t0g7jiyw7j0cag8sbjpktjm,1,13,4,lose,no-go,NGAL,Z,bacs1,0,0,,1,0.0,-1,0
2t0g7jiyw7j0cag8sbjpktjm,1,14,4,win,go,GW,J,bacs1,1,1,0.329,1,0.0,+10,1
2t0g7jiyw7j0cag8sbjpktjm,1,15,4,win,no-go,NGW,R,bacs1,0,1,0.359,0,0.0,+1,1
2t0g7jiyw7j0cag8sbjpktjm,1,16,4,lose,no-go,NGAL,B,bacs1,0,1,0.576,0,0.0,-10,1
2t0g7jiyw7j0cag8sbjpktjm,1,17,5,win,no-go,NGW,R,bacs1,0,1,0.484,0,0.0,+1,1
2t0g7jiyw7j0cag8sbjpktjm,1,18,5,win,go,GW,J,bacs1,1,1,0.29,1,0.0,+10,1
2t0g7jiyw7j0cag8sbjpktjm,1,19,5,lose,no-go,NGAL,B,bacs1,0,1,0.369,0,1.0,-1,1
2t0g7jiyw7j0cag8sbjpktjm,1,20,5,lose,no-go,NGAL,Z,bacs1,0,1,0.537,0,0.0,-10,1
2t0g7jiyw7j0cag8sbjpktjm,1,21,6,win,no-go,NGW,R,bacs1,0,0,,1,0.0,+10,0
2t0g7jiyw7j0cag8sbjpktjm,1,22,6,lose,no-go,NGAL,Z,bacs1,0,0,,1,0.0,-1,0
2t0g7jiyw7j0cag8sbjpktjm,1,23,6,lose,no-go,NGAL,B,bacs1,0,1,0.309,0,0.0,-10,1
2t0g7jiyw7j0cag8sbjpktjm,1,24,6,win,go,GW,J,bacs1,1,1,0.49,1,0.0,+10,1
2t0g7jiyw7j0cag8sbjpktjm,1,25,7,win,go,GW,J,bacs1,1,1,0.405,1,0.0,+10,1
2t0g7jiyw7j0cag8sbjpktjm,1,26,7,lose,no-go,NGAL,Z,bacs1,0,0,,1,1.0,-10,0
2t0g7jiyw7j0cag8sbjpktjm,1,27,7,lose,no-go,NGAL,B,bacs1,0,1,0.307,0,0.0,-10,1
2t0g7jiyw7j0cag8sbjpktjm,1,28,7,win,no-go,NGW,R,bacs1,0,0,,1,0.0,+10,0
2t0g7jiyw7j0cag8sbjpktjm,1,29,8,win,no-go,NGW,R,bacs1,0,0,,1,0.0,+10,0
2t0g7jiyw7j0cag8sbjpktjm,1,30,8,lose,no-go,NGAL,B,bacs1,0,1,0.559,0,0.0,-10,1
2t0g7jiyw7j0cag8sbjpktjm,1,31,8,win,go,GW,J,bacs1,1,1,0.684,1,0.0,+10,1
2t0g7jiyw7j0cag8sbjpktjm,1,32,8,lose,no-go,NGAL,Z,bacs1,0,0,,1,0.0,-1,0
2t0g7jiyw7j0cag8sbjpktjm,1,33,9,win,go,GW,J,bacs1,1,1,0.484,1,0.0,+10,1
2t0g7jiyw7j0cag8sbjpktjm,1,34,9,win,no-go,NGW,R,bacs1,0,0,,1,0.0,+10,0
2t0g7jiyw7j0cag8sbjpktjm,1,35,1,lose,go,GAL,V,bacs1,1,1,0.705,1,0.0,-1,1
2t0g7jiyw7j0cag8sbjpktjm,1,36,9,lose,no-go,NGAL,B,bacs1,0,1,0.551,0,0.0,-10,1
2t0g7jiyw7j0cag8sbjpktjm,1,37,10,lose,no-go,NGAL,B,bacs1,0,0,,1,0.0,-1,0
2t0g7jiyw7j0cag8sbjpktjm,1,38,10,win,no-go,NGW,R,bacs1,0,0,,1,1.0,+1,0
2t0g7jiyw7j0cag8sbjpktjm,1,39,2,lose,go,GAL,V,bacs1,1,0,,0,0.0,-10,1
2t0g7jiyw7j0cag8sbjpktjm,1,40,10,win,go,GW,J,bacs1,1,1,0.688,1,0.0,+10,1
2t0g7jiyw7j0cag8sbjpktjm,1,41,1,win,go,GW,T,bacs1,1,1,0.46,1,0.0,+10,1
2t0g7jiyw7j0cag8sbjpktjm,1,42,1,win,no-go,NGW,E,bacs1,0,1,0.513,0,0.0,+1,1
2t0g7jiyw7j0cag8sbjpktjm,1,43,11,lose,no-go,NGAL,B,bacs1,0,0,,1,0.0,-1,0
2t0g7jiyw7j0cag8sbjpktjm,1,44,3,lose,go,GAL,V,bacs1,1,1,0.641,1,1.0,-10,1
2t0g7jiyw7j0cag8sbjpktjm,1,45,2,win,go,GW,T,bacs1,1,1,0.662,1,1.0,+1,1
2t0g7jiyw7j0cag8sbjpktjm,1,46,2,win,no-go,NGW,E,bacs1,0,1,0.731,0,1.0,+10,1
2t0g7jiyw7j0cag8sbjpktjm,1,47,12,lose,no-go,NGAL,B,bacs1,0,0,,1,1.0,-10,0
2t0g7jiyw7j0cag8sbjpktjm,1,48,4,lose,go,GAL,V,bacs1,1,0,,0,0.0,-10,0
2t0g7jiyw7j0cag8sbjpktjm,1,49,1,lose,no-go,NGAL,F,bacs1,0,0,,1,0.0,-1,0
2t0g7jiyw7j0cag8sbjpktjm,1,50,3,win,no-go,NGW,E,bacs1,0,1,0.408,0,0.0,+1,1
2t0g7jiyw7j0cag8sbjpktjm,1,51,5,lose,go,GAL,V,bacs1,1,0,,0,0.0,-10,0
2t0g7jiyw7j0cag8sbjpktjm,1,52,3,win,go,GW,T,bacs1,1,1,0.762,1,0.0,+10,1
2t0g7jiyw7j0cag8sbjpktjm,1,53,4,win,go,GW,T,bacs1,1,1,0.743,1,0.0,+10,1
2t0g7jiyw7j0cag8sbjpktjm,1,54,4,win,no-go,NGW,E,bacs1,0,0,,1,0.0,+10,0
2t0g7jiyw7j0cag8sbjpktjm,1,55,6,lose,go,GAL,V,bacs1,1,1,0.492,1,1.0,-10,1
2t0g7jiyw7j0cag8sbjpktjm,1,56,2,lose,no-go,NGAL,F,bacs1,0,1,0.543,0,0.0,-10,1
2t0g7jiyw7j0cag8sbjpktjm,1,57,7,lose,go,GAL,V,bacs1,1,1,0.529,1,0.0,-1,1
2t0g7jiyw7j0cag8sbjpktjm,1,58,5,win,no-go,NGW,E,bacs1,0,1,0.462,0,1.0,+10,1
2t0g7jiyw7j0cag8sbjpktjm,1,59,5,win,go,GW,T,bacs1,1,1,0.516,1,0.0,+10,1
2t0g7jiyw7j0cag8sbjpktjm,1,60,3,lose,no-go,NGAL,F,bacs1,0,0,,1,1.0,-10,0
2t0g7jiyw7j0cag8sbjpktjm,1,61,6,win,no-go,NGW,E,bacs1,0,0,,1,0.0,+10,0
2t0g7jiyw7j0cag8sbjpktjm,1,62,6,win,go,GW,T,bacs1,1,1,0.445,1,0.0,+10,1
2t0g7jiyw7j0cag8sbjpktjm,1,63,4,lose,no-go,NGAL,F,bacs1,0,1,0.747,0,0.0,-10,1
2t0g7jiyw7j0cag8sbjpktjm,1,64,8,lose,go,GAL,V,bacs1,1,1,0.747,1,0.0,-1,1
2t0g7jiyw7j0cag8sbjpktjm,1,65,9,lose,go,GAL,V,bacs1,1,1,0.56,1,0.0,-1,1
2t0g7jiyw7j0cag8sbjpktjm,1,66,7,win,go,GW,T,bacs1,1,1,0.436,1,0.0,+10,1
2t0g7jiyw7j0cag8sbjpktjm,1,67,5,lose,no-go,NGAL,F,bacs1,0,1,0.886,0,0.0,-10,1
2t0g7jiyw7j0cag8sbjpktjm,1,68,7,win,no-go,NGW,E,bacs1,0,1,0.347,0,1.0,+10,1
2t0g7jiyw7j0cag8sbjpktjm,1,69,8,win,no-go,NGW,E,bacs1,0,1,0.505,0,0.0,+1,1
2t0g7jiyw7j0cag8sbjpktjm,1,70,8,win,go,GW,T,bacs1,1,1,0.276,1,0.0,+10,1
2t0g7jiyw7j0cag8sbjpktjm,1,71,10,lose,go,GAL,V,bacs1,1,1,0.64,1,0.0,-1,1
2t0g7jiyw7j0cag8sbjpktjm,1,72,6,lose,no-go,NGAL,F,bacs1,0,0,,1,0.0,-1,0
2t0g7jiyw7j0cag8sbjpktjm,1,73,7,lose,no-go,NGAL,F,bacs1,0,0,,1,1.0,-10,0
2t0g7jiyw7j0cag8sbjpktjm,1,74,1,win,go,GW,A,bacs1,1,1,0.511,1,1.0,+1,1
2t0g7jiyw7j0cag8sbjpktjm,1,75,9,win,no-go,NGW,E,bacs1,0,1,0.492,0,0.0,+1,1
2t0g7jiyw7j0cag8sbjpktjm,1,76,1,lose,go,GAL,C,bacs1,1,0,,0,0.0,-10,0
2t0g7jiyw7j0cag8sbjpktjm,1,77,8,lose,no-go,NGAL,F,bacs1,0,0,,1,0.0,-1,0
2t0g7jiyw7j0cag8sbjpktjm,1,78,10,win,no-go,NGW,E,bacs1,0,1,0.409,0,0.0,+1,1
2t0g7jiyw7j0cag8sbjpktjm,1,79,2,lose,go,GAL,C,bacs1,1,1,0.788,1,1.0,-10,1
2t0g7jiyw7j0cag8sbjpktjm,1,80,2,win,go,GW,A,bacs1,1,1,0.325,1,0.0,+10,1
2t0g7jiyw7j0cag8sbjpktjm,1,81,9,lose,no-go,NGAL,F,bacs1,0,0,,1,0.0,-1,0
2t0g7jiyw7j0cag8sbjpktjm,1,82,3,win,go,GW,A,bacs1,1,1,0.715,1,1.0,+1,1
2t0g7jiyw7j0cag8sbjpktjm,1,83,11,win,no-go,NGW,E,bacs1,0,1,0.476,0,0.0,+1,1
2t0g7jiyw7j0cag8sbjpktjm,1,84,3,lose,go,GAL,C,bacs1,1,0,,0,1.0,-1,0
2t0g7jiyw7j0cag8sbjpktjm,1,85,4,win,go,GW,A,bacs1,1,0,,0,0.0,+1,0
2t0g7jiyw7j0cag8sbjpktjm,1,86,10,lose,no-go,NGAL,F,bacs1,0,0,,1,1.0,-10,0
2t0g7jiyw7j0cag8sbjpktjm,1,87,4,lose,go,GAL,C,bacs1,1,1,0.997,1,0.0,-1,1
2t0g7jiyw7j0cag8sbjpktjm,1,88,12,win,no-go,NGW,E,bacs1,0,1,0.434,0,0.0,+1,1
2t0g7jiyw7j0cag8sbjpktjm,1,89,5,win,go,GW,A,bacs1,1,0,,0,1.0,+10,0
2t0g7jiyw7j0cag8sbjpktjm,1,90,1,lose,go,GAL,L,bacs1,1,1,1.243,1,0.0,-1,1
2t0g7jiyw7j0cag8sbjpktjm,1,91,5,lose,go,GAL,C,bacs1,1,1,0.79,1,0.0,-1,1
2t0g7jiyw7j0cag8sbjpktjm,1,92,1,win,no-go,NGW,Q,bacs1,0,1,0.472,0,0.0,+1,1
2t0g7jiyw7j0cag8sbjpktjm,1,93,2,lose,go,GAL,L,bacs1,1,1,0.643,1,0.0,-1,1
2t0g7jiyw7j0cag8sbjpktjm,1,94,6,lose,go,GAL,C,bacs1,1,0,,0,0.0,-10,0
2t0g7jiyw7j0cag8sbjpktjm,1,95,2,win,no-go,NGW,Q,bacs1,0,1,0.44,0,1.0,+10,1
2t0g7jiyw7j0cag8sbjpktjm,1,96,6,win,go,GW,A,bacs1,1,0,,0,0.0,+1,0
2t0g7jiyw7j0cag8sbjpktjm,1,97,7,win,go,GW,A,bacs1,1,1,0.426,1,0.0,+10,1
2t0g7jiyw7j0cag8sbjpktjm,1,98,3,win,no-go,NGW,Q,bacs1,0,1,0.409,0,1.0,+10,1
2t0g7jiyw7j0cag8sbjpktjm,1,99,7,lose,go,GAL,C,bacs1,1,0,,0,1.0,-1,0
2t0g7jiyw7j0cag8sbjpktjm,1,100,3,lose,go,GAL,L,bacs1,1,1,1.164,1,0.0,-1,1
2t0g7jiyw7j0cag8sbjpktjm,1,101,4,lose,go,GAL,L,bacs1,1,1,0.458,1,0.0,-1,1
2t0g7jiyw7j0cag8sbjpktjm,1,102,8,lose,go,GAL,C,bacs1,1,1,0.734,1,0.0,-1,1
2t0g7jiyw7j0cag8sbjpktjm,1,103,8,win,go,GW,A,bacs1,1,1,0.571,1,0.0,+10,1
2t0g7jiyw7j0cag8sbjpktjm,1,104,4,win,no-go,NGW,Q,bacs1,0,1,0.47,0,0.0,+1,1
2t0g7jiyw7j0cag8sbjpktjm,1,105,5,win,no-go,NGW,Q,bacs1,0,1,0.389,0,0.0,+1,1
2t0g7jiyw7j0cag8sbjpktjm,1,106,5,lose,go,GAL,L,bacs1,1,1,0.508,1,0.0,-1,1
2t0g7jiyw7j0cag8sbjpktjm,1,107,9,win,go,GW,A,bacs1,1,1,0.78,1,1.0,+1,1
2t0g7jiyw7j0cag8sbjpktjm,1,108,9,lose,go,GAL,C,bacs1,1,1,0.617,1,0.0,-1,1
2t0g7jiyw7j0cag8sbjpktjm,1,109,10,lose,go,GAL,C,bacs1,1,1,0.483,1,0.0,-1,1
2t0g7jiyw7j0cag8sbjpktjm,1,110,6,lose,go,GAL,L,bacs1,1,1,0.457,1,0.0,-1,1
2t0g7jiyw7j0cag8sbjpktjm,1,111,6,win,no-go,NGW,Q,bacs1,0,1,0.585,0,0.0,+1,1
2t0g7jiyw7j0cag8sbjpktjm,1,112,10,win,go,GW,A,bacs1,1,1,0.347,1,0.0,+10,1
2t0g7jiyw7j0cag8sbjpktjm,1,113,7,lose,go,GAL,L,bacs1,1,1,0.494,1,0.0,-1,1
2t0g7jiyw7j0cag8sbjpktjm,1,114,7,win,no-go,NGW,Q,bacs1,0,1,0.46,0,0.0,+1,1
2t0g7jiyw7j0cag8sbjpktjm,1,115,11,lose,go,GAL,C,bacs1,1,1,0.838,1,0.0,-1,1
2t0g7jiyw7j0cag8sbjpktjm,1,116,11,win,go,GW,A,bacs1,1,1,0.401,1,0.0,+10,1
2t0g7jiyw7j0cag8sbjpktjm,1,117,12,lose,go,GAL,C,bacs1,1,1,0.588,1,0.0,-1,1
2t0g7jiyw7j0cag8sbjpktjm,1,118,8,win,no-go,NGW,Q,bacs1,0,1,0.411,0,1.0,+10,1
2t0g7jiyw7j0cag8sbjpktjm,1,119,12,win,go,GW,A,bacs1,1,1,0.416,1,0.0,+10,1
2t0g7jiyw7j0cag8sbjpktjm,1,120,8,lose,go,GAL,L,bacs1,1,1,0.52,1,0.0,-1,1
2t0g7jiyw7j0cag8sbjpktjm,2,121,1,win,go,GW,G,bacs1,1,1,0.332,1,0.0,+10,1
2t0g7jiyw7j0cag8sbjpktjm,2,122,1,win,no-go,NGW,N,bacs1,0,1,0.363,0,0.0,+1,1
2t0g7jiyw7j0cag8sbjpktjm,2,123,1,lose,no-go,NGAL,I,bacs1,0,1,0.893,0,1.0,-1,1
2t0g7jiyw7j0cag8sbjpktjm,2,124,1,win,go,GW,O,bacs1,1,1,0.527,1,1.0,+1,1
2t0g7jiyw7j0cag8sbjpktjm,2,125,2,win,go,GW,O,bacs1,1,0,,0,1.0,+10,0
2t0g7jiyw7j0cag8sbjpktjm,2,126,2,win,go,GW,G,bacs1,1,1,0.505,1,1.0,+1,1
2t0g7jiyw7j0cag8sbjpktjm,2,127,2,win,no-go,NGW,N,bacs1,0,1,0.485,0,0.0,+1,1
2t0g7jiyw7j0cag8sbjpktjm,2,128,2,lose,no-go,NGAL,I,bacs1,0,1,0.821,0,0.0,-10,1
2t0g7jiyw7j0cag8sbjpktjm,2,129,3,win,go,GW,O,bacs1,1,1,0.29,1,0.0,+10,1
2t0g7jiyw7j0cag8sbjpktjm,2,130,3,win,no-go,NGW,N,bacs1,0,1,0.317,0,0.0,+1,1
2t0g7jiyw7j0cag8sbjpktjm,2,131,3,lose,no-go,NGAL,I,bacs1,0,1,0.587,0,0.0,-10,1
2t0g7jiyw7j0cag8sbjpktjm,2,132,3,win,go,GW,G,bacs1,1,1,0.397,1,0.0,+10,1
2t0g7jiyw7j0cag8sbjpktjm,2,133,4,lose,no-go,NGAL,I,bacs1,0,1,0.558,0,1.0,-1,1
2t0g7jiyw7j0cag8sbjpktjm,2,134,4,win,go,GW,O,bacs1,1,1,0.504,1,0.0,+10,1
2t0g7jiyw7j0cag8sbjpktjm,2,135,4,win,no-go,NGW,N,bacs1,0,1,0.434,0,0.0,+1,1
2t0g7jiyw7j0cag8sbjpktjm,2,136,4,win,go,GW,G,bacs1,1,1,0.398,1,1.0,+1,1
2t0g7jiyw7j0cag8sbjpktjm,2,137,5,lose,no-go,NGAL,I,bacs1,0,1,0.49,0,0.0,-10,1
2t0g7jiyw7j0cag8sbjpktjm,2,138,5,win,no-go,NGW,N,bacs1,0,1,0.379,0,0.0,+1,1
2t0g7jiyw7j0cag8sbjpktjm,2,139,5,win,go,GW,G,bacs1,1,1,0.413,1,1.0,+1,1
2t0g7jiyw7j0cag8sbjpktjm,2,140,5,win,go,GW,O,bacs1,1,1,0.357,1,0.0,+10,1
2t0g7jiyw7j0cag8sbjpktjm,2,141,6,win,go,GW,G,bacs1,1,1,0.372,1,0.0,+10,1
2t0g7jiyw7j0cag8sbjpktjm,2,142,6,win,no-go,NGW,N,bacs1,0,1,0.388,0,0.0,+1,1
2t0g7jiyw7j0cag8sbjpktjm,2,143,6,win,go,GW,O,bacs1,1,1,0.335,1,0.0,+10,1
2t0g7jiyw7j0cag8sbjpktjm,2,144,6,lose,no-go,NGAL,I,bacs1,0,1,0.488,0,0.0,-10,1
2t0g7jiyw7j0cag8sbjpktjm,2,145,7,lose,no-go,NGAL,I,bacs1,0,1,0.435,0,0.0,-10,1
2t0g7jiyw7j0cag8sbjpktjm,2,146,7,win,no-go,NGW,N,bacs1,0,1,0.347,0,0.0,+1,1
2t0g7jiyw7j0cag8sbjpktjm,2,147,7,win,go,GW,G,bacs1,1,1,0.485,1,0.0,+10,1
2t0g7jiyw7j0cag8sbjpktjm,2,148,7,win,go,GW,O,bacs1,1,1,0.484,1,0.0,+10,1
2t0g7jiyw7j0cag8sbjpktjm,2,149,8,win,go,GW,O,bacs1,1,1,0.732,1,0.0,+10,1
2t0g7jiyw7j0cag8sbjpktjm,2,150,8,win,no-go,NGW,N,bacs1,0,1,0.342,0,0.0,+1,1
2t0g7jiyw7j0cag8sbjpktjm,2,151,8,win,go,GW,G,bacs1,1,1,0.385,1,0.0,+10,1
2t0g7jiyw7j0cag8sbjpktjm,2,152,8,lose,no-go,NGAL,I,bacs1,0,0,,1,0.0,-1,0
2t0g7jiyw7j0cag8sbjpktjm,2,153,9,lose,no-go,NGAL,I,bacs1,0,0,,1,0.0,-1,0
2t0g7jiyw7j0cag8sbjpktjm,2,154,9,win,no-go,NGW,N,bacs1,0,1,0.434,0,0.0,+1,1
2t0g7jiyw7j0cag8sbjpktjm,2,155,9,win,go,GW,O,bacs1,1,1,0.53,1,1.0,+1,1
2t0g7jiyw7j0cag8sbjpktjm,2,156,1,win,go,GW,D,bacs1,1,1,0.515,1,0.0,+10,1
2t0g7jiyw7j0cag8sbjpktjm,2,157,2,win,go,GW,D,bacs1,1,1,0.829,1,0.0,+10,1
2t0g7jiyw7j0cag8sbjpktjm,2,158,10,win,no-go,NGW,N,bacs1,0,0,,1,0.0,+10,0
2t0g7jiyw7j0cag8sbjpktjm,2,159,10,lose,no-go,NGAL,I,bacs1,0,0,,1,0.0,-1,0
2t0g7jiyw7j0cag8sbjpktjm,2,160,10,win,go,GW,O,bacs1,1,1,0.468,1,0.0,+10,1
2t0g7jiyw7j0cag8sbjpktjm,2,161,11,win,no-go,NGW,N,bacs1,0,0,,1,0.0,+10,0
2t0g7jiyw7j0cag8sbjpktjm,2,162,1,lose,go,GAL,K,bacs1,1,1,0.861,1,1.0,-10,1
2t0g7jiyw7j0cag8sbjpktjm,2,163,1,lose,no-go,NGAL,S,bacs1,0,0,,1,0.0,-1,0
2t0g7jiyw7j0cag8sbjpktjm,2,164,3,win,go,GW,D,bacs1,1,1,0.653,1,0.0,+10,1
2t0g7jiyw7j0cag8sbjpktjm,2,165,2,lose,go,GAL,K,bacs1,1,0,,0,1.0,-1,0
2t0g7jiyw7j0cag8sbjpktjm,2,166,2,lose,no-go,NGAL,S,bacs1,0,0,,1,0.0,-1,0
2t0g7jiyw7j0cag8sbjpktjm,2,167,4,win,go,GW,D,bacs1,1,1,0.476,1,0.0,+10,1
2t0g7jiyw7j0cag8sbjpktjm,2,168,12,win,no-go,NGW,N,bacs1,0,0,,1,0.0,+10,0
2t0g7jiyw7j0cag8sbjpktjm,2,169,3,lose,go,GAL,K,bacs1,1,0,,0,0.0,-10,0
2t0g7jiyw7j0cag8sbjpktjm,2,170,3,lose,no-go,NGAL,S,bacs1,0,0,,1,1.0,-10,0
2t0g7jiyw7j0cag8sbjpktjm,2,171,1,win,no-go,NGW,U,bacs1,0,1,0.638,0,1.0,+10,1
2t0g7jiyw7j0cag8sbjpktjm,2,172,5,win,go,GW,D,bacs1,1,1,0.397,1,0.0,+10,1
2t0g7jiyw7j0cag8sbjpktjm,2,173,6,win,go,GW,D,bacs1,1,1,0.472,1,0.0,+10,1
2t0g7jiyw7j0cag8sbjpktjm,2,174,4,lose,no-go,NGAL,S,bacs1,0,0,,1,0.0,-1,0
2t0g7jiyw7j0cag8sbjpktjm,2,175,4,lose,go,GAL,K,bacs1,1,0,,0,1.0,-1,0
2t0g7jiyw7j0cag8sbjpktjm,2,176,2,win,no-go,NGW,U,bacs1,0,1,0.485,0,1.0,+10,1
2t0g7jiyw7j0cag8sbjpktjm,2,177,5,lose,go,GAL,K,bacs1,1,0,,0,0.0,-10,0
2t0g7jiyw7j0cag8sbjpktjm,2,178,7,win,go,GW,D,bacs1,1,1,0.398,1,1.0,+1,1
2t0g7jiyw7j0cag8sbjpktjm,2,179,3,win,no-go,NGW,U,bacs1,0,1,0.381,0,0.0,+1,1
2t0g7jiyw7j0cag8sbjpktjm,2,180,5,lose,no-go,NGAL,S,bacs1,0,0,,1,1.0,-10,0
2t0g7jiyw7j0cag8sbjpktjm,2,181,6,lose,go,GAL,K,bacs1,1,1,0.241,1,0.0,-1,1
2t0g7jiyw7j0cag8sbjpktjm,2,182,8,win,go,GW,D,bacs1,1,1,0.366,1,0.0,+10,1
2t0g7jiyw7j0cag8sbjpktjm,2,183,6,lose,no-go,NGAL,S,bacs1,0,1,0.49,0,0.0,-10,1
2t0g7jiyw7j0cag8sbjpktjm,2,184,4,win,no-go,NGW,U,bacs1,0,1,0.634,0,0.0,+1,1
2t0g7jiyw7j0cag8sbjpktjm,2,185,9,win,go,GW,D,bacs1,1,0,,0,0.0,+1,0
2t0g7jiyw7j0cag8sbjpktjm,2,186,7,lose,no-go,NGAL,S,bacs1,0,1,0.483,0,1.0,-1,1
2t0g7jiyw7j0cag8sbjpktjm,2,187,5,win,no-go,NGW,U,bacs1,0,1,0.44,0,0.0,+1,1
2t0g7jiyw7j0cag8sbjpktjm,2,188,7,lose,go,GAL,K,bacs1,1,1,0.443,1,0.0,-1,1
2t0g7jiyw7j0cag8sbjpktjm,2,189,8,lose,no-go,NGAL,S,bacs1,0,1,0.577,0,0.0,-10,1
2t0g7jiyw7j0cag8sbjpktjm,2,190,10,win,go,GW,D,bacs1,1,1,0.394,1,0.0,+10,1
2t0g7jiyw7j0cag8sbjpktjm,2,191,6,win,no-go,NGW,U,bacs1,0,1,0.415,0,0.0,+1,1
2t0g7jiyw7j0cag8sbjpktjm,2,192,8,lose,go,GAL,K,bacs1,1,1,0.801,1,0.0,-1,1
2t0g7jiyw7j0cag8sbjpktjm,2,193,11,win,go,GW,D,bacs1,1,1,0.372,1,0.0,+10,1
2t0g7jiyw7j0cag8sbjpktjm,2,194,9,lose,no-go,NGAL,S,bacs1,0,1,0.514,0,0.0,-10,1
2t0g7jiyw7j0cag8sbjpktjm,2,195,7,win,no-go,NGW,U,bacs1,0,1,0.56,0,0.0,+1,1
2t0g7jiyw7j0cag8sbjpktjm,2,196,1,lose,go,GAL,M,bacs1,1,1,0.855,1,1.0,-10,1
2t0g7jiyw7j0cag8sbjpktjm,2,197,8,win,no-go,NGW,U,bacs1,0,0,,1,0.0,+10,0
2t0g7jiyw7j0cag8sbjpktjm,2,198,2,lose,go,GAL,M,bacs1,1,1,0.59,1,1.0,-10,1
2t0g7jiyw7j0cag8sbjpktjm,2,199,12,win,go,GW,D,bacs1,1,1,0.373,1,0.0,+10,1
2t0g7jiyw7j0cag8sbjpktjm,2,200,10,lose,no-go,NGAL,S,bacs1,0,1,0.804,0,0.0,-10,1
2t0g7jiyw7j0cag8sbjpktjm,2,201,11,lose,no-go,NGAL,S,bacs1,0,0,,1,0.0,-1,0
2t0g7jiyw7j0cag8sbjpktjm,2,202,1,lose,go,GAL,P,bacs1,1,0,,0,0.0,-10,0
2t0g7jiyw7j0cag8sbjpktjm,2,203,3,lose,go,GAL,M,bacs1,1,0,,0,0.0,-10,0
2t0g7jiyw7j0cag8sbjpktjm,2,204,9,win,no-go,NGW,U,bacs1,0,0,,1,0.0,+10,0
2t0g7jiyw7j0cag8sbjpktjm,2,205,12,lose,no-go,NGAL,S,bacs1,0,0,,1,1.0,-10,0
2t0g7jiyw7j0cag8sbjpktjm,2,206,10,win,no-go,NGW,U,bacs1,0,0,,1,0.0,+10,0
2t0g7jiyw7j0cag8sbjpktjm,2,207,4,lose,go,GAL,M,bacs1,1,0,,0,0.0,-10,0
2t0g7jiyw7j0cag8sbjpktjm,2,208,2,lose,go,GAL,P,bacs1,1,1,0.534,1,0.0,-1,1
2t0g7jiyw7j0cag8sbjpktjm,2,209,5,lose,go,GAL,M,bacs1,1,1,0.572,1,1.0,-10,1
2t0g7jiyw7j0cag8sbjpktjm,2,210,3,lose,go,GAL,P,bacs1,1,1,0.491,1,1.0,-10,1
2t0g7jiyw7j0cag8sbjpktjm,2,211,1,win,no-go,NGW,Y,bacs1,0,1,0.628,0,0.0,+1,1
2t0g7jiyw7j0cag8sbjpktjm,2,212,1,lose,no-go,NGAL,H,bacs1,0,1,0.608,0,0.0,-10,1
2t0g7jiyw7j0cag8sbjpktjm,2,213,4,lose,go,GAL,P,bacs1,1,1,0.675,1,0.0,-1,1
2t0g7jiyw7j0cag8sbjpktjm,2,214,2,lose,no-go,NGAL,H,bacs1,0,0,,1,0.0,-1,0
2t0g7jiyw7j0cag8sbjpktjm,2,215,6,lose,go,GAL,M,bacs1,1,0,,0,0.0,-10,0
2t0g7jiyw7j0cag8sbjpktjm,2,216,2,win,no-go,NGW,Y,bacs1,0,1,0.565,0,0.0,+1,1
2t0g7jiyw7j0cag8sbjpktjm,2,217,7,lose,go,GAL,M,bacs1,1,1,0.654,1,0.0,-1,1
2t0g7jiyw7j0cag8sbjpktjm,2,218,3,win,no-go,NGW,Y,bacs1,0,1,0.435,0,0.0,+1,1
2t0g7jiyw7j0cag8sbjpktjm,2,219,5,lose,go,GAL,P,bacs1,1,1,0.523,1,0.0,-1,1
2t0g7jiyw7j0cag8sbjpktjm,2,220,3,lose,no-go,NGAL,H,bacs1,0,1,0.645,0,0.0,-10,1
2t0g7jiyw7j0cag8sbjpktjm,2,221,4,lose,no-go,NGAL,H,bacs1,0,1,0.554,0,0.0,-10,1
2t0g7jiyw7j0cag8sbjpktjm,2,222,4,win,no-go,NGW,Y,bacs1,0,1,0.369,0,0.0,+1,1
2t0g7jiyw7j0cag8sbjpktjm,2,223,6,lose,go,GAL,P,bacs1,1,1,0.728,1,0.0,-1,1
2t0g7jiyw7j0cag8sbjpktjm,2,224,8,lose,go,GAL,M,bacs1,1,1,0.62,1,0.0,-1,1
2t0g7jiyw7j0cag8sbjpktjm,2,225,9,lose,go,GAL,M,bacs1,1,1,0.61,1,1.0,-10,1
2t0g7jiyw7j0cag8sbjpktjm,2,226,5,win,no-go,NGW,Y,bacs1,0,0,,1,0.0,+10,0
2t0g7jiyw7j0cag8sbjpktjm,2,227,5,lose,no-go,NGAL,H,bacs1,0,0,,1,0.0,-1,0
2t0g7jiyw7j0cag8sbjpktjm,2,228,7,lose,go,GAL,P,bacs1,1,0,,0,0.0,-10,0
2t0g7jiyw7j0cag8sbjpktjm,2,229,6,lose,no-go,NGAL,H,bacs1,0,0,,1,0.0,-1,0
2t0g7jiyw7j0cag8sbjpktjm,2,230,10,lose,go,GAL,M,bacs1,1,0,,0,0.0,-10,0
2t0g7jiyw7j0cag8sbjpktjm,2,231,6,win,no-go,NGW,Y,bacs1,0,0,,1,0.0,+10,0
2t0g7jiyw7j0cag8sbjpktjm,2,232,8,lose,go,GAL,P,bacs1,1,1,0.589,1,0.0,-1,1
2t0g7jiyw7j0cag8sbjpktjm,2,233,7,win,no-go,NGW,Y,bacs1,0,0,,1,0.0,+10,0
2t0g7jiyw7j0cag8sbjpktjm,2,234,9,lose,go,GAL,P,bacs1,1,1,0.488,1,0.0,-1,1
2t0g7jiyw7j0cag8sbjpktjm,2,235,11,lose,go,GAL,M,bacs1,1,0,,0,1.0,-1,0
2t0g7jiyw7j0cag8sbjpktjm,2,236,7,lose,no-go,NGAL,H,bacs1,0,1,0.713,0,0.0,-10,1
2t0g7jiyw7j0cag8sbjpktjm,2,237,8,lose,no-go,NGAL,H,bacs1,0,0,,1,0.0,-1,0
2t0g7jiyw7j0cag8sbjpktjm,2,238,12,lose,go,GAL,M,bacs1,1,0,,0,0.0,-10,0
2t0g7jiyw7j0cag8sbjpktjm,2,239,10,lose,go,GAL,P,bacs1,1,1,0.676,1,0.0,-1,1
2t0g7jiyw7j0cag8sbjpktjm,2,240,8,win,no-go,NGW,Y,bacs1,0,0,,1,0.0,+10,0
31e2cihw40i0566cg72muino,1,1,1,win,go,GW,C,bacs1,1,1,0.616,1,1.0,+1,1
31e2cihw40i0566cg72muino,1,2,1,win,no-go,NGW,A,bacs1,0,1,0.518,0,0.0,+1,1
31e2cihw40i0566cg72muino,1,3,1,lose,no-go,NGAL,L,bacs1,0,1,0.734,0,0.0,-10,1
31e2cihw40i0566cg72muino,1,4,1,lose,no-go,NGAL,Q,bacs1,0,1,0.709,0,0.0,-10,1
31e2cihw40i0566cg72muino,1,5,2,win,no-go,NGW,A,bacs1,0,1,0.657,0,0.0,+1,1
31e2cihw40i0566cg72muino,1,6,2,lose,no-go,NGAL,L,bacs1,0,0,,1,0.0,-1,0
31e2cihw40i0566cg72muino,1,7,2,win,go,GW,C,bacs1,1,0,,0,0.0,+1,0
31e2cihw40i0566cg72muino,1,8,2,lose,no-go,NGAL,Q,bacs1,0,0,,1,0.0,-1,0
31e2cihw40i0566cg72muino,1,9,3,lose,no-go,NGAL,L,bacs1,0,0,,1,0.0,-1,0
31e2cihw40i0566cg72muino,1,10,3,win,go,GW,C,bacs1,1,1,0.586,1,1.0,+1,1
31e2cihw40i0566cg72muino,1,11,3,lose,no-go,NGAL,Q,bacs1,0,0,,1,0.0,-1,0
31e2cihw40i0566cg72muino,1,12,3,win,no-go,NGW,A,bacs1,0,1,0.547,0,1.0,+10,1
31e2cihw40i0566cg72muino,1,13,4,win,go,GW,C,bacs1,1,0,,0,0.0,+1,0
31e2cihw40i0566cg72muino,1,14,4,lose,no-go,NGAL,L,bacs1,0,0,,1,1.0,-10,0
31e2cihw40i0566cg72muino,1,15,4,win,no-go,NGW,A,bacs1,0,0,,1,0.0,+10,0
31e2cihw40i0566cg72muino,1,16,4,lose,no-go,NGAL,Q,bacs1,0,0,,1,0.0,-1,0
31e2cihw40i0566cg72muino,1,17,5,lose,no-go,NGAL,Q,bacs1,0,0,,1,0.0,-1,0
31e2cihw40i0566cg72muino,1,18,5,lose,no-go,NGAL,L,bacs1,0,0,,1,0.0,-1,0
31e2cihw40i0566cg72muino,1,19,5,win,no-go,NGW,A,bacs1,0,1,0.516,0,1.0,+10,1
31e2cihw40i0566cg72muino,1,20,5,win,go,GW,C,bacs1,1,0,,0,1.0,+10,0
31e2cihw40i0566cg72muino,1,21,6,win,go,GW,C,bacs1,1,0,,0,0.0,+1,0
31e2cihw40i0566cg72muino,1,22,6,lose,no-go,NGAL,L,bacs1,0,0,,1,1.0,-10,0
31e2cihw40i0566cg72muino,1,23,6,win,no-go,NGW,A,bacs1,0,1,0.394,0,0.0,+1,1
31e2cihw40i0566cg72muino,1,24,6,lose,no-go,NGAL,Q,bacs1,0,0,,1,1.0,-10,0
31e2cihw40i0566cg72muino,1,25,7,lose,no-go,NGAL,L,bacs1,0,1,0.566,0,0.0,-10,1
31e2cihw40i0566cg72muino,1,26,7,win,no-go,NGW,A,bacs1,0,0,,1,1.0,+1,0
31e2cihw40i0566cg72muino,1,27,7,lose,no-go,NGAL,Q,bacs1,0,0,,1,0.0,-1,1
31e2cihw40i0566cg72muino,1,28,7,win,go,GW,C,bacs1,1,0,,0,0.0,+1,0
31e2cihw40i0566cg72muino,1,29,8,win,no-go,NGW,A,bacs1,0,1,0.313,0,1.0,+10,1
31e2cihw40i0566cg72muino,1,30,8,lose,no-go,NGAL,L,bacs1,0,1,0.471,0,1.0,-1,1
31e2cihw40i0566cg72muino,1,31,8,lose,no-go,NGAL,Q,bacs1,0,0,,1,0.0,-1,0
31e2cihw40i0566cg72muino,1,32,8,win,go,GW,C,bacs1,1,0,,0,0.0,+1,0
31e2cihw40i0566cg72muino,1,33,9,win,no-go,NGW,A,bacs1,0,1,0.35,0,0.0,+1,1
31e2cihw40i0566cg72muino,1,34,1,lose,go,GAL,F,bacs1,1,0,,0,0.0,-10,0
31e2cihw40i0566cg72muino,1,35,9,lose,no-go,NGAL,Q,bacs1,0,0,,1,0.0,-1,0
31e2cihw40i0566cg72muino,1,36,9,win,go,GW,C,bacs1,1,1,0.636,1,0.0,+10,1
31e2cihw40i0566cg72muino,1,37,10,win,go,GW,C,bacs1,1,1,0.481,1,0.0,+10,1
31e2cihw40i0566cg72muino,1,38,10,win,no-go,NGW,A,bacs1,0,1,0.422,0,0.0,+1,1
31e2cihw40i0566cg72muino,1,39,2,lose,go,GAL,F,bacs1,1,0,,0,0.0,-10,0
31e2cihw40i0566cg72muino,1,40,10,lose,no-go,NGAL,Q,bacs1,0,1,0.478,0,0.0,-10,1
31e2cihw40i0566cg72muino,1,41,11,lose,no-go,NGAL,Q,bacs1,0,1,0.408,0,0.0,-10,1
31e2cihw40i0566cg72muino,1,42,1,win,go,GW,E,bacs1,1,1,0.196,1,0.0,+10,1
31e2cihw40i0566cg72muino,1,43,1,win,no-go,NGW,T,bacs1,0,1,0.478,0,0.0,+1,1
31e2cihw40i0566cg72muino,1,44,3,lose,go,GAL,F,bacs1,1,0,,0,0.0,-10,0
31e2cihw40i0566cg72muino,1,45,2,win,go,GW,E,bacs1,1,1,0.635,1,0.0,+10,1
31e2cihw40i0566cg72muino,1,46,4,lose,go,GAL,F,bacs1,1,1,0.69,1,0.0,-1,1
31e2cihw40i0566cg72muino,1,47,12,lose,no-go,NGAL,Q,bacs1,0,0,,1,0.0,-1,0
31e2cihw40i0566cg72muino,1,48,2,win,no-go,NGW,T,bacs1,0,1,0.522,0,0.0,+1,1
31e2cihw40i0566cg72muino,1,49,1,lose,no-go,NGAL,V,bacs1,0,0,,1,0.0,-1,0
31e2cihw40i0566cg72muino,1,50,3,win,no-go,NGW,T,bacs1,0,1,0.831,0,1.0,+10,1
31e2cihw40i0566cg72muino,1,51,3,win,go,GW,E,bacs1,1,1,0.768,1,0.0,+10,1
31e2cihw40i0566cg72muino,1,52,5,lose,go,GAL,F,bacs1,1,1,0.478,1,0.0,-1,1
31e2cihw40i0566cg72muino,1,53,2,lose,no-go,NGAL,V,bacs1,0,1,1.266,0,0.0,-10,1
31e2cihw40i0566cg72muino,1,54,4,win,go,GW,E,bacs1,1,1,0.899,1,1.0,+1,1
31e2cihw40i0566cg72muino,1,55,4,win,no-go,NGW,T,bacs1,0,0,,1,0.0,+10,1
31e2cihw40i0566cg72muino,1,56,6,lose,go,GAL,F,bacs1,1,1,0.882,1,0.0,-1,1
31e2cihw40i0566cg72muino,1,57,3,lose,no-go,NGAL,V,bacs1,0,0,,1,1.0,-10,1
31e2cihw40i0566cg72muino,1,58,5,win,go,GW,E,bacs1,1,1,0.727,1,1.0,+1,1
31e2cihw40i0566cg72muino,1,59,5,win,no-go,NGW,T,bacs1,0,1,0.403,0,1.0,+10,1
31e2cihw40i0566cg72muino,1,60,7,lose,go,GAL,F,bacs1,1,1,0.748,1,0.0,-1,1
31e2cihw40i0566cg72muino,1,61,6,win,go,GW,E,bacs1,1,0,,0,0.0,+1,1
31e2cihw40i0566cg72muino,1,62,4,lose,no-go,NGAL,V,bacs1,0,0,,1,1.0,-10,0
31e2cihw40i0566cg72muino,1,63,6,win,no-go,NGW,T,bacs1,0,1,0.46,0,0.0,+1,2
31e2cihw40i0566cg72muino,1,64,8,lose,go,GAL,F,bacs1,1,1,1.074,1,0.0,-1,1
31e2cihw40i0566cg72muino,1,65,7,win,no-go,NGW,T,bacs1,0,1,0.295,0,1.0,+10,1
31e2cihw40i0566cg72muino,1,66,7,win,go,GW,E,bacs1,1,1,0.344,1,0.0,+10,1
31e2cihw40i0566cg72muino,1,67,9,lose,go,GAL,F,bacs1,1,1,0.251,1,0.0,-1,1
31e2cihw40i0566cg72muino,1,68,5,lose,no-go,NGAL,V,bacs1,0,1,0.407,0,0.0,-10,1
31e2cihw40i0566cg72muino,1,69,8,win,no-go,NGW,T,bacs1,0,1,0.391,0,0.0,+1,1
31e2cihw40i0566cg72muino,1,70,6,lose,no-go,NGAL,V,bacs1,0,0,,1,0.0,-1,0
31e2cihw40i0566cg72muino,1,71,10,lose,go,GAL,F,bacs1,1,1,0.777,1,1.0,-10,1
31e2cihw40i0566cg72muino,1,72,8,win,go,GW,E,bacs1,1,1,0.418,1,0.0,+10,1
31e2cihw40i0566cg72muino,1,73,9,win,no-go,NGW,T,bacs1,0,1,0.483,0,0.0,+1,1
31e2cihw40i0566cg72muino,1,74,1,win,go,GW,R,bacs1,1,1,0.531,1,0.0,+10,1
31e2cihw40i0566cg72muino,1,75,7,lose,no-go,NGAL,V,bacs1,0,1,1.013,0,0.0,-10,1
31e2cihw40i0566cg72muino,1,76,1,lose,go,GAL,J,bacs1,1,1,0.711,1,0.0,-1,1
31e2cihw40i0566cg72muino,1,77,8,lose,no-go,NGAL,V,bacs1,0,0,,1,0.0,-1,0
31e2cihw40i0566cg72muino,1,78,2,win,go,GW,R,bacs1,1,1,0.524,1,0.0,+10,1
31e2cihw40i0566cg72muino,1,79,2,lose,go,GAL,J,bacs1,1,0,,0,0.0,-10,0
31e2cihw40i0566cg72muino,1,80,10,win,no-go,NGW,T,bacs1,0,0,,1,0.0,+10,1
31e2cihw40i0566cg72muino,1,81,9,lose,no-go,NGAL,V,bacs1,0,0,,1,0.0,-1,0
31e2cihw40i0566cg72muino,1,82,11,win,no-go,NGW,T,bacs1,0,0,,1,1.0,+1,0
31e2cihw40i0566cg72muino,1,83,3,win,go,GW,R,bacs1,1,1,0.4,1,1.0,+1,1
31e2cihw40i0566cg72muino,1,84,3,lose,go,GAL,J,bacs1,1,0,,0,0.0,-10,0
31e2cihw40i0566cg72muino,1,85,12,win,no-go,NGW,T,bacs1,0,1,0.509,0,0.0,+1,1
31e2cihw40i0566cg72muino,1,86,4,lose,go,GAL,J,bacs1,1,1,0.852,1,0.0,-1,1
31e2cihw40i0566cg72muino,1,87,10,lose,no-go,NGAL,V,bacs1,0,0,,1,1.0,-10,0
31e2cihw40i0566cg72muino,1,88,4,win,go,GW,R,bacs1,1,1,0.389,1,0.0,+10,1
31e2cihw40i0566cg72muino,1,89,5,lose,go,GAL,J,bacs1,1,1,0.786,1,0.0,-1,1
31e2cihw40i0566cg72muino,1,90,1,win,no-go,NGW,B,bacs1,0,1,0.672,0,0.0,+1,1
31e2cihw40i0566cg72muino,1,91,5,win,go,GW,R,bacs1,1,1,0.428,1,0.0,+10,1
31e2cihw40i0566cg72muino,1,92,1,lose,go,GAL,Z,bacs1,1,1,0.631,1,0.0,-1,1
31e2cihw40i0566cg72muino,1,93,6,lose,go,GAL,J,bacs1,1,1,0.56,1,0.0,-1,1
31e2cihw40i0566cg72muino,1,94,6,win,go,GW,R,bacs1,1,1,0.369,1,0.0,+10,1
31e2cihw40i0566cg72muino,1,95,2,win,no-go,NGW,B,bacs1,0,1,0.459,0,0.0,+1,1
31e2cihw40i0566cg72muino,1,96,2,lose,go,GAL,Z,bacs1,1,1,0.462,1,0.0,-1,1
31e2cihw40i0566cg72muino,1,97,3,win,no-go,NGW,B,bacs1,0,1,0.38,0,0.0,+1,1
31e2cihw40i0566cg72muino,1,98,3,lose,go,GAL,Z,bacs1,1,1,0.499,1,0.0,-1,1
31e2cihw40i0566cg72muino,1,99,7,lose,go,GAL,J,bacs1,1,1,0.625,1,0.0,-1,1
31e2cihw40i0566cg72muino,1,100,7,win,go,GW,R,bacs1,1,1,0.398,1,0.0,+10,1
31e2cihw40i0566cg72muino,1,101,8,lose,go,GAL,J,bacs1,1,1,0.567,1,0.0,-1,1
31e2cihw40i0566cg72muino,1,102,8,win,go,GW,R,bacs1,1,1,0.507,1,1.0,+1,1
31e2cihw40i0566cg72muino,1,103,4,lose,go,GAL,Z,bacs1,1,1,0.566,1,0.0,-1,1
31e2cihw40i0566cg72muino,1,104,4,win,no-go,NGW,B,bacs1,0,0,,1,0.0,+10,0
31e2cihw40i0566cg72muino,1,105,5,lose,go,GAL,Z,bacs1,1,1,0.509,1,1.0,-10,1
31e2cihw40i0566cg72muino,1,106,9,win,go,GW,R,bacs1,1,1,0.345,1,0.0,+10,1
31e2cihw40i0566cg72muino,1,107,5,win,no-go,NGW,B,bacs1,0,1,0.448,0,1.0,+10,1
31e2cihw40i0566cg72muino,1,108,9,lose,go,GAL,J,bacs1,1,1,0.411,1,0.0,-1,1
31e2cihw40i0566cg72muino,1,109,6,lose,go,GAL,Z,bacs1,1,1,0.478,1,0.0,-1,1
31e2cihw40i0566cg72muino,1,110,10,win,go,GW,R,bacs1,1,1,0.414,1,0.0,+10,1
31e2cihw40i0566cg72muino,1,111,6,win,no-go,NGW,B,bacs1,0,0,,1,0.0,+10,0
31e2cihw40i0566cg72muino,1,112,10,lose,go,GAL,J,bacs1,1,1,0.516,1,0.0,-1,1
31e2cihw40i0566cg72muino,1,113,11,lose,go,GAL,J,bacs1,1,1,0.481,1,1.0,-10,1
31e2cihw40i0566cg72muino,1,114,11,win,go,GW,R,bacs1,1,1,0.357,1,0.0,+10,1
31e2cihw40i0566cg72muino,1,115,7,lose,go,GAL,Z,bacs1,1,1,1.249,1,0.0,-1,1
31e2cihw40i0566cg72muino,1,116,7,win,no-go,NGW,B,bacs1,0,0,,1,0.0,+10,0
31e2cihw40i0566cg72muino,1,117,12,lose,go,GAL,J,bacs1,1,1,0.629,1,0.0,-1,1
31e2cihw40i0566cg72muino,1,118,12,win,go,GW,R,bacs1,1,1,0.272,1,1.0,+1,1
31e2cihw40i0566cg72muino,1,119,8,lose,go,GAL,Z,bacs1,1,1,0.484,1,0.0,-1,1
31e2cihw40i0566cg72muino,1,120,8,win,no-go,NGW,B,bacs1,0,0,,1,0.0,+10,0
31e2cihw40i0566cg72muino,2,121,1,win,go,GW,H,bacs1,1,1,0.661,1,0.0,+10,1
31e2cihw40i0566cg72muino,2,122,1,win,go,GW,M,bacs1,1,0,,0,0.0,+1,0
31e2cihw40i0566cg72muino,2,123,1,win,no-go,NGW,Y,bacs1,0,1,0.564,0,0.0,+1,1
31e2cihw40i0566cg72muino,2,124,1,lose,no-go,NGAL,P,bacs1,0,0,,1,0.0,-1,0
31e2cihw40i0566cg72muino,2,125,2,win,go,GW,H,bacs1,1,1,0.463,1,0.0,+10,1
31e2cihw40i0566cg72muino,2,126,2,lose,no-go,NGAL,P,bacs1,0,1,0.422,0,0.0,-10,1
31e2cihw40i0566cg72muino,2,127,2,win,go,GW,M,bacs1,1,1,0.847,1,0.0,+10,1
31e2cihw40i0566cg72muino,2,128,2,win,no-go,NGW,Y,bacs1,0,0,,1,0.0,+10,0
31e2cihw40i0566cg72muino,2,129,3,win,go,GW,H,bacs1,1,1,0.615,1,1.0,+1,1
31e2cihw40i0566cg72muino,2,130,3,win,go,GW,M,bacs1,1,1,0.504,1,0.0,+10,1
31e2cihw40i0566cg72muino,2,131,3,lose,no-go,NGAL,P,bacs1,0,1,0.841,0,0.0,-10,1
31e2cihw40i0566cg72muino,2,132,3,win,no-go,NGW,Y,bacs1,0,1,0.464,0,0.0,+1,1
31e2cihw40i0566cg72muino,2,133,4,lose,no-go,NGAL,P,bacs1,0,1,0.939,0,0.0,-10,1
31e2cihw40i0566cg72muino,2,134,4,win,no-go,NGW,Y,bacs1,0,1,0.691,0,0.0,+1,1
31e2cihw40i0566cg72muino,2,135,4,win,go,GW,M,bacs1,1,1,1.291,1,1.0,+1,1
31e2cihw40i0566cg72muino,2,136,4,win,go,GW,H,bacs1,1,1,0.309,1,0.0,+10,1
31e2cihw40i0566cg72muino,2,137,5,win,go,GW,M,bacs1,1,1,0.397,1,0.0,+10,1
31e2cihw40i0566cg72muino,2,138,5,win,go,GW,H,bacs1,1,1,0.362,1,0.0,+10,1
31e2cihw40i0566cg72muino,2,139,5,win,no-go,NGW,Y,bacs1,0,1,0.325,0,0.0,+1,1
31e2cihw40i0566cg72muino,2,140,5,lose,no-go,NGAL,P,bacs1,0,1,0.446,0,0.0,-10,1
31e2cihw40i0566cg72muino,2,141,6,lose,no-go,NGAL,P,bacs1,0,0,,1,0.0,-1,0
31e2cihw40i0566cg72muino,2,142,6,win,go,GW,M,bacs1,1,1,0.415,1,0.0,+10,1
31e2cihw40i0566cg72muino,2,143,6,win,go,GW,H,bacs1,1,1,0.447,1,0.0,+10,1
31e2cihw40i0566cg72muino,2,144,6,win,no-go,NGW,Y,bacs1,0,1,0.348,0,1.0,+10,1
31e2cihw40i0566cg72muino,2,145,7,lose,no-go,NGAL,P,bacs1,0,1,0.275,0,0.0,-10,1
31e2cihw40i0566cg72muino,2,146,7,win,go,GW,H,bacs1,1,1,0.398,1,1.0,+1,1
31e2cihw40i0566cg72muino,2,147,7,win,go,GW,M,bacs1,1,1,0.48,1,0.0,+10,1
31e2cihw40i0566cg72muino,2,148,7,win,no-go,NGW,Y,bacs1,0,0,,1,0.0,+10,0
31e2cihw40i0566cg72muino,2,149,8,win,go,GW,H,bacs1,1,1,0.774,1,1.0,+1,1
31e2cihw40i0566cg72muino,2,150,8,win,go,GW,M,bacs1,1,1,0.913,1,0.0,+10,1
31e2cihw40i0566cg72muino,2,151,8,win,no-go,NGW,Y,bacs1,0,0,,1,0.0,+10,0
31e2cihw40i0566cg72muino,2,152,8,lose,no-go,NGAL,P,bacs1,0,0,,1,0.0,-1,0
31e2cihw40i0566cg72muino,2,153,9,lose,no-go,NGAL,P,bacs1,0,0,,1,0.0,-1,0
31e2cihw40i0566cg72muino,2,154,1,win,go,GW,U,bacs1,1,0,,0,0.0,+1,0
31e2cihw40i0566cg72muino,2,155,9,win,no-go,NGW,Y,bacs1,0,0,,1,0.0,+10,0
31e2cihw40i0566cg72muino,2,156,9,win,go,GW,M,bacs1,1,1,0.572,1,0.0,+10,1
31e2cihw40i0566cg72muino,2,157,10,win,go,GW,M,bacs1,1,0,,0,0.0,+1,0
31e2cihw40i0566cg72muino,2,158,2,win,go,GW,U,bacs1,1,0,,0,0.0,+1,0
31e2cihw40i0566cg72muino,2,159,10,win,no-go,NGW,Y,bacs1,0,1,0.747,0,0.0,+1,1
31e2cihw40i0566cg72muino,2,160,10,lose,no-go,NGAL,P,bacs1,0,0,,1,0.0,-1,0
31e2cihw40i0566cg72muino,2,161,11,win,no-go,NGW,Y,bacs1,0,0,,1,0.0,+10,0
31e2cihw40i0566cg72muino,2,162,1,lose,go,GAL,S,bacs1,1,1,1.002,1,0.0,-1,1
31e2cihw40i0566cg72muino,2,163,3,win,go,GW,U,bacs1,1,0,,0,0.0,+1,1
31e2cihw40i0566cg72muino,2,164,1,lose,no-go,NGAL,K,bacs1,0,0,,1,0.0,-1,0
31e2cihw40i0566cg72muino,2,165,12,win,no-go,NGW,Y,bacs1,0,0,,1,0.0,+10,0
31e2cihw40i0566cg72muino,2,166,2,lose,go,GAL,S,bacs1,1,1,1.265,1,0.0,-1,1
31e2cihw40i0566cg72muino,2,167,2,lose,no-go,NGAL,K,bacs1,0,1,1.267,0,0.0,-10,1
31e2cihw40i0566cg72muino,2,168,4,win,go,GW,U,bacs1,1,1,1.037,1,0.0,+10,1
31e2cihw40i0566cg72muino,2,169,3,lose,go,GAL,S,bacs1,1,0,,0,0.0,-10,1
31e2cihw40i0566cg72muino,2,170,1,win,no-go,NGW,D,bacs1,0,0,,1,0.0,+10,0
31e2cihw40i0566cg72muino,2,171,3,lose,no-go,NGAL,K,bacs1,0,0,,1,0.0,-1,0
31e2cihw40i0566cg72muino,2,172,5,win,go,GW,U,bacs1,1,1,0.95,1,0.0,+10,1
31e2cihw40i0566cg72muino,2,173,4,lose,no-go,NGAL,K,bacs1,0,1,0.766,0,0.0,-10,1
31e2cihw40i0566cg72muino,2,174,2,win,no-go,NGW,D,bacs1,0,0,,1,0.0,+10,1
31e2cihw40i0566cg72muino,2,175,6,win,go,GW,U,bacs1,1,0,,0,0.0,+1,1
31e2cihw40i0566cg72muino,2,176,4,lose,go,GAL,S,bacs1,1,0,,0,0.0,-10,1
31e2cihw40i0566cg72muino,2,177,5,lose,no-go,NGAL,K,bacs1,0,0,,1,1.0,-10,0
31e2cihw40i0566cg72muino,2,178,5,lose,go,GAL,S,bacs1,1,1,0.919,1,0.0,-1,1
31e2cihw40i0566cg72muino,2,179,7,win,go,GW,U,bacs1,1,1,0.712,1,0.0,+10,1
31e2cihw40i0566cg72muino,2,180,3,win,no-go,NGW,D,bacs1,0,1,1.026,0,0.0,+1,1
31e2cihw40i0566cg72muino,2,181,8,win,go,GW,U,bacs1,1,1,0.952,1,0.0,+10,1
31e2cihw40i0566cg72muino,2,182,6,lose,no-go,NGAL,K,bacs1,0,0,,1,0.0,-1,0
31e2cihw40i0566cg72muino,2,183,6,lose,go,GAL,S,bacs1,1,1,0.856,1,1.0,-10,1
31e2cihw40i0566cg72muino,2,184,4,win,no-go,NGW,D,bacs1,0,1,0.973,0,0.0,+1,1
31e2cihw40i0566cg72muino,2,185,7,lose,no-go,NGAL,K,bacs1,0,0,,1,1.0,-10,0
31e2cihw40i0566cg72muino,2,186,9,win,go,GW,U,bacs1,1,1,1.045,1,0.0,+10,1
31e2cihw40i0566cg72muino,2,187,7,lose,go,GAL,S,bacs1,1,1,0.921,1,0.0,-1,1
31e2cihw40i0566cg72muino,2,188,5,win,no-go,NGW,D,bacs1,0,0,,1,1.0,+1,0
31e2cihw40i0566cg72muino,2,189,8,lose,go,GAL,S,bacs1,1,1,0.833,1,1.0,-10,1
31e2cihw40i0566cg72muino,2,190,6,win,no-go,NGW,D,bacs1,0,0,,1,0.0,+10,0
31e2cihw40i0566cg72muino,2,191,10,win,go,GW,U,bacs1,1,1,0.788,1,0.0,+10,1
31e2cihw40i0566cg72muino,2,192,8,lose,no-go,NGAL,K,bacs1,0,0,,1,0.0,-1,0
31e2cihw40i0566cg72muino,2,193,11,win,go,GW,U,bacs1,1,1,0.664,1,0.0,+10,1
31e2cihw40i0566cg72muino,2,194,9,lose,no-go,NGAL,K,bacs1,0,1,1.058,0,0.0,-10,1
31e2cihw40i0566cg72muino,2,195,7,win,no-go,NGW,D,bacs1,0,0,,1,0.0,+10,0
31e2cihw40i0566cg72muino,2,196,1,lose,go,GAL,O,bacs1,1,0,,0,0.0,-10,0
31e2cihw40i0566cg72muino,2,197,2,lose,go,GAL,O,bacs1,1,1,0.652,1,0.0,-1,1
31e2cihw40i0566cg72muino,2,198,8,win,no-go,NGW,D,bacs1,0,0,,1,0.0,+10,0
31e2cihw40i0566cg72muino,2,199,12,win,go,GW,U,bacs1,1,1,0.556,1,1.0,+1,1
31e2cihw40i0566cg72muino,2,200,10,lose,no-go,NGAL,K,bacs1,0,0,,1,1.0,-10,0
31e2cihw40i0566cg72muino,2,201,3,lose,go,GAL,O,bacs1,1,0,,0,1.0,-1,1
31e2cihw40i0566cg72muino,2,202,9,win,no-go,NGW,D,bacs1,0,1,0.75,0,0.0,+1,1
31e2cihw40i0566cg72muino,2,203,11,lose,no-go,NGAL,K,bacs1,0,0,,1,1.0,-10,1
31e2cihw40i0566cg72muino,2,204,1,lose,go,GAL,I,bacs1,1,0,,0,0.0,-10,1
31e2cihw40i0566cg72muino,2,205,10,win,no-go,NGW,D,bacs1,0,1,1.204,0,0.0,+1,1
31e2cihw40i0566cg72muino,2,206,12,lose,no-go,NGAL,K,bacs1,0,1,0.635,0,0.0,-10,1
31e2cihw40i0566cg72muino,2,207,4,lose,go,GAL,O,bacs1,1,1,0.884,1,0.0,-1,1
31e2cihw40i0566cg72muino,2,208,2,lose,go,GAL,I,bacs1,1,0,,0,0.0,-10,0
31e2cihw40i0566cg72muino,2,209,1,win,no-go,NGW,N,bacs1,0,1,0.488,0,0.0,+1,1
31e2cihw40i0566cg72muino,2,210,3,lose,go,GAL,I,bacs1,1,1,1.137,1,0.0,-1,1
31e2cihw40i0566cg72muino,2,211,5,lose,go,GAL,O,bacs1,1,1,1.082,1,0.0,-1,1
31e2cihw40i0566cg72muino,2,212,1,lose,no-go,NGAL,G,bacs1,0,0,,1,0.0,-1,0
31e2cihw40i0566cg72muino,2,213,2,lose,no-go,NGAL,G,bacs1,0,0,,1,0.0,-1,1
31e2cihw40i0566cg72muino,2,214,4,lose,go,GAL,I,bacs1,1,1,0.498,1,0.0,-1,1
31e2cihw40i0566cg72muino,2,215,6,lose,go,GAL,O,bacs1,1,0,,0,1.0,-1,0
31e2cihw40i0566cg72muino,2,216,2,win,no-go,NGW,N,bacs1,0,1,0.88,0,0.0,+1,1
31e2cihw40i0566cg72muino,2,217,3,lose,no-go,NGAL,G,bacs1,0,0,,1,0.0,-1,0
31e2cihw40i0566cg72muino,2,218,3,win,no-go,NGW,N,bacs1,0,1,0.56,0,0.0,+1,1
31e2cihw40i0566cg72muino,2,219,5,lose,go,GAL,I,bacs1,1,0,,0,0.0,-10,0
31e2cihw40i0566cg72muino,2,220,7,lose,go,GAL,O,bacs1,1,0,,0,0.0,-10,0
31e2cihw40i0566cg72muino,2,221,6,lose,go,GAL,I,bacs1,1,1,0.479,1,0.0,-1,1
31e2cihw40i0566cg72muino,2,222,4,lose,no-go,NGAL,G,bacs1,0,1,0.727,0,0.0,-10,1
31e2cihw40i0566cg72muino,2,223,8,lose,go,GAL,O,bacs1,1,1,0.717,1,0.0,-1,1
31e2cihw40i0566cg72muino,2,224,4,win,no-go,NGW,N,bacs1,0,1,0.567,0,1.0,+10,1
31e2cihw40i0566cg72muino,2,225,9,lose,go,GAL,O,bacs1,1,1,0.818,1,0.0,-1,1
31e2cihw40i0566cg72muino,2,226,7,lose,go,GAL,I,bacs1,1,1,0.658,1,0.0,-1,1
31e2cihw40i0566cg72muino,2,227,5,lose,no-go,NGAL,G,bacs1,0,1,0.652,0,0.0,-10,1
31e2cihw40i0566cg72muino,2,228,5,win,no-go,NGW,N,bacs1,0,1,0.83,0,0.0,+1,1
31e2cihw40i0566cg72muino,2,229,8,lose,go,GAL,I,bacs1,1,1,0.803,1,0.0,-1,1
31e2cihw40i0566cg72muino,2,230,10,lose,go,GAL,O,bacs1,1,1,0.687,1,1.0,-10,1
31e2cihw40i0566cg72muino,2,231,6,win,no-go,NGW,N,bacs1,0,1,0.654,0,0.0,+1,1
31e2cihw40i0566cg72muino,2,232,6,lose,no-go,NGAL,G,bacs1,0,0,,1,1.0,-10,0
31e2cihw40i0566cg72muino,2,233,11,lose,go,GAL,O,bacs1,1,1,1.287,1,0.0,-1,1
31e2cihw40i0566cg72muino,2,234,7,lose,no-go,NGAL,G,bacs1,0,1,1.266,0,0.0,-10,1
31e2cihw40i0566cg72muino,2,235,7,win,no-go,NGW,N,bacs1,0,1,0.485,0,0.0,+1,1
31e2cihw40i0566cg72muino,2,236,9,lose,go,GAL,I,bacs1,1,0,,0,0.0,-10,0
31e2cihw40i0566cg72muino,2,237,10,lose,go,GAL,I,bacs1,1,1,0.791,1,0.0,-1,1
31e2cihw40i0566cg72muino,2,238,8,lose,no-go,NGAL,G,bacs1,0,0,,1,0.0,-1,0
31e2cihw40i0566cg72muino,2,239,8,win,no-go,NGW,N,bacs1,0,1,0.437,0,0.0,+1,1
31e2cihw40i0566cg72muino,2,240,12,lose,go,GAL,O,bacs1,1,0,,0,1.0,-1,0
3l2umgnl4x6qfyiy6qgrbhxm,1,1,1,lose,no-go,NGAL,N,bacs2,0,1,0.6,0,0.0,-10,1
3l2umgnl4x6qfyiy6qgrbhxm,1,2,1,win,go,GW,A,bacs2,1,1,0.168,1,1.0,+1,2
3l2umgnl4x6qfyiy6qgrbhxm,1,3,1,lose,no-go,NGAL,F,bacs2,0,1,0.079,0,0.0,-10,1
3l2umgnl4x6qfyiy6qgrbhxm,1,4,1,win,no-go,NGW,U,bacs2,0,1,0.263,0,0.0,+1,1
3l2umgnl4x6qfyiy6qgrbhxm,1,5,2,lose,no-go,NGAL,F,bacs2,0,0,,1,0.0,-1,0
3l2umgnl4x6qfyiy6qgrbhxm,1,6,2,win,go,GW,A,bacs2,1,0,,0,0.0,+1,1
3l2umgnl4x6qfyiy6qgrbhxm,1,7,2,lose,no-go,NGAL,N,bacs2,0,0,,1,0.0,-1,0
3l2umgnl4x6qfyiy6qgrbhxm,1,8,2,win,no-go,NGW,U,bacs2,0,0,,1,0.0,+10,1
3l2umgnl4x6qfyiy6qgrbhxm,1,9,3,win,go,GW,A,bacs2,1,0,,0,0.0,+1,1
3l2umgnl4x6qfyiy6qgrbhxm,1,10,3,win,no-go,NGW,U,bacs2,0,1,0.317,0,0.0,+1,1
3l2umgnl4x6qfyiy6qgrbhxm,1,11,3,lose,no-go,NGAL,N,bacs2,0,0,,1,0.0,-1,0
3l2umgnl4x6qfyiy6qgrbhxm,1,12,3,lose,no-go,NGAL,F,bacs2,0,0,,1,0.0,-1,1
3l2umgnl4x6qfyiy6qgrbhxm,1,13,4,win,go,GW,A,bacs2,1,1,0.389,1,1.0,+1,2
3l2umgnl4x6qfyiy6qgrbhxm,1,14,4,lose,no-go,NGAL,N,bacs2,0,1,0.349,0,0.0,-10,1
3l2umgnl4x6qfyiy6qgrbhxm,1,15,4,lose,no-go,NGAL,F,bacs2,0,1,0.256,0,0.0,-10,1
3l2umgnl4x6qfyiy6qgrbhxm,1,16,4,win,no-go,NGW,U,bacs2,0,1,0.381,0,0.0,+1,4
3l2umgnl4x6qfyiy6qgrbhxm,1,17,5,lose,no-go,NGAL,F,bacs2,0,1,0.216,0,0.0,-10,2
3l2umgnl4x6qfyiy6qgrbhxm,1,18,5,win,no-go,NGW,U,bacs2,0,1,1.245,0,0.0,+1,4
3l2umgnl4x6qfyiy6qgrbhxm,1,19,5,lose,no-go,NGAL,N,bacs2,0,1,0.323,0,1.0,-1,1
3l2umgnl4x6qfyiy6qgrbhxm,1,20,5,win,go,GW,A,bacs2,1,1,0.534,1,0.0,+10,1
3l2umgnl4x6qfyiy6qgrbhxm,1,21,6,win,no-go,NGW,U,bacs2,0,1,0.713,0,0.0,+1,1
3l2umgnl4x6qfyiy6qgrbhxm,1,22,6,lose,no-go,NGAL,F,bacs2,0,0,,1,0.0,-1,0
3l2umgnl4x6qfyiy6qgrbhxm,1,23,6,lose,no-go,NGAL,N,bacs2,0,0,,1,0.0,-1,1
3l2umgnl4x6qfyiy6qgrbhxm,1,24,6,win,go,GW,A,bacs2,1,0,,0,1.0,+10,2
3l2umgnl4x6qfyiy6qgrbhxm,1,25,7,win,go,GW,A,bacs2,1,1,0.488,1,0.0,+10,1
3l2umgnl4x6qfyiy6qgrbhxm,1,26,7,lose,no-go,NGAL,F,bacs2,0,0,,1,0.0,-1,0
3l2umgnl4x6qfyiy6qgrbhxm,1,27,7,lose,no-go,NGAL,N,bacs2,0,0,,1,0.0,-1,0
3l2umgnl4x6qfyiy6qgrbhxm,1,28,7,win,no-go,NGW,U,bacs2,0,1,0.357,0,0.0,+1,1
3l2umgnl4x6qfyiy6qgrbhxm,1,29,8,win,no-go,NGW,U,bacs2,0,1,0.518,0,0.0,+1,1
3l2umgnl4x6qfyiy6qgrbhxm,1,30,8,lose,no-go,NGAL,F,bacs2,0,0,,1,1.0,-10,0
3l2umgnl4x6qfyiy6qgrbhxm,1,31,8,lose,no-go,NGAL,N,bacs2,0,1,0.691,0,1.0,-1,1
3l2umgnl4x6qfyiy6qgrbhxm,1,32,8,win,go,GW,A,bacs2,1,1,0.423,1,1.0,+1,1
3l2umgnl4x6qfyiy6qgrbhxm,1,33,9,lose,no-go,NGAL,N,bacs2,0,1,1.134,0,0.0,-10,1
3l2umgnl4x6qfyiy6qgrbhxm,1,34,1,lose,go,GAL,S,bacs2,1,1,0.794,1,0.0,-1,1
3l2umgnl4x6qfyiy6qgrbhxm,1,35,9,win,no-go,NGW,U,bacs2,0,1,0.355,0,0.0,+1,4
3l2umgnl4x6qfyiy6qgrbhxm,1,36,9,win,go,GW,A,bacs2,1,1,0.62,1,1.0,+1,1
3l2umgnl4x6qfyiy6qgrbhxm,1,37,10,win,go,GW,A,bacs2,1,1,0.494,1,1.0,+1,1
3l2umgnl4x6qfyiy6qgrbhxm,1,38,2,lose,go,GAL,S,bacs2,1,1,0.155,1,0.0,-1,1
3l2umgnl4x6qfyiy6qgrbhxm,1,39,10,lose,no-go,NGAL,N,bacs2,0,1,1.171,0,0.0,-10,1
3l2umgnl4x6qfyiy6qgrbhxm,1,40,10,win,no-go,NGW,U,bacs2,0,1,0.532,0,0.0,+1,3
3l2umgnl4x6qfyiy6qgrbhxm,1,41,1,win,go,GW,P,bacs2,1,1,0.174,1,0.0,+10,12
3l2umgnl4x6qfyiy6qgrbhxm,1,42,3,lose,go,GAL,S,bacs2,1,1,0.199,1,0.0,-1,11
3l2umgnl4x6qfyiy6qgrbhxm,1,43,11,lose,no-go,NGAL,N,bacs2,0,1,0.102,0,0.0,-10,10
3l2umgnl4x6qfyiy6qgrbhxm,1,44,1,win,no-go,NGW,L,bacs2,0,1,0.019,0,0.0,+1,11
3l2umgnl4x6qfyiy6qgrbhxm,1,45,4,lose,go,GAL,S,bacs2,1,0,,0,1.0,-1,5
3l2umgnl4x6qfyiy6qgrbhxm,1,46,2,win,go,GW,P,bacs2,1,1,0.476,1,1.0,+1,6
3l2umgnl4x6qfyiy6qgrbhxm,1,47,2,win,no-go,NGW,L,bacs2,0,1,0.739,0,0.0,+1,4
3l2umgnl4x6qfyiy6qgrbhxm,1,48,12,lose,no-go,NGAL,N,bacs2,0,0,,1,1.0,-10,0
3l2umgnl4x6qfyiy6qgrbhxm,1,49,3,win,no-go,NGW,L,bacs2,0,1,0.529,0,0.0,+1,1
3l2umgnl4x6qfyiy6qgrbhxm,1,50,5,lose,go,GAL,S,bacs2,1,0,,0,0.0,-10,1
3l2umgnl4x6qfyiy6qgrbhxm,1,51,3,win,go,GW,P,bacs2,1,1,0.059,1,0.0,+10,1
3l2umgnl4x6qfyiy6qgrbhxm,1,52,1,lose,no-go,NGAL,R,bacs2,0,1,0.148,0,0.0,-10,1
3l2umgnl4x6qfyiy6qgrbhxm,1,53,4,win,no-go,NGW,L,bacs2,0,1,0.228,0,1.0,+10,1
3l2umgnl4x6qfyiy6qgrbhxm,1,54,4,win,go,GW,P,bacs2,1,0,,0,0.0,+1,1
3l2umgnl4x6qfyiy6qgrbhxm,1,55,6,lose,go,GAL,S,bacs2,1,0,,0,0.0,-10,2
3l2umgnl4x6qfyiy6qgrbhxm,1,56,2,lose,no-go,NGAL,R,bacs2,0,1,0.281,0,0.0,-10,1
3l2umgnl4x6qfyiy6qgrbhxm,1,57,5,win,go,GW,P,bacs2,1,1,0.578,1,0.0,+10,1
3l2umgnl4x6qfyiy6qgrbhxm,1,58,3,lose,no-go,NGAL,R,bacs2,0,1,0.374,0,0.0,-10,2
3l2umgnl4x6qfyiy6qgrbhxm,1,59,7,lose,go,GAL,S,bacs2,1,1,0.87,1,0.0,-1,1
3l2umgnl4x6qfyiy6qgrbhxm,1,60,5,win,no-go,NGW,L,bacs2,0,1,0.209,0,1.0,+10,1
3l2umgnl4x6qfyiy6qgrbhxm,1,61,6,win,go,GW,P,bacs2,1,1,0.293,1,0.0,+10,1
3l2umgnl4x6qfyiy6qgrbhxm,1,62,6,win,no-go,NGW,L,bacs2,0,1,0.439,0,0.0,+1,1
3l2umgnl4x6qfyiy6qgrbhxm,1,63,8,lose,go,GAL,S,bacs2,1,1,0.368,1,0.0,-1,1
3l2umgnl4x6qfyiy6qgrbhxm,1,64,4,lose,no-go,NGAL,R,bacs2,0,1,0.041,0,0.0,-10,2
3l2umgnl4x6qfyiy6qgrbhxm,1,65,7,win,no-go,NGW,L,bacs2,0,1,0.043,0,0.0,+1,1
3l2umgnl4x6qfyiy6qgrbhxm,1,66,9,lose,go,GAL,S,bacs2,1,1,0.695,1,0.0,-1,2
3l2umgnl4x6qfyiy6qgrbhxm,1,67,5,lose,no-go,NGAL,R,bacs2,0,1,0.223,0,0.0,-10,1
3l2umgnl4x6qfyiy6qgrbhxm,1,68,7,win,go,GW,P,bacs2,1,1,0.185,1,1.0,+1,1
3l2umgnl4x6qfyiy6qgrbhxm,1,69,6,lose,no-go,NGAL,R,bacs2,0,1,0.2,0,0.0,-10,1
3l2umgnl4x6qfyiy6qgrbhxm,1,70,10,lose,go,GAL,S,bacs2,1,1,0.067,1,0.0,-1,1
3l2umgnl4x6qfyiy6qgrbhxm,1,71,8,win,go,GW,P,bacs2,1,1,0.144,1,1.0,+1,1
3l2umgnl4x6qfyiy6qgrbhxm,1,72,8,win,no-go,NGW,L,bacs2,0,0,,1,0.0,+10,1
3l2umgnl4x6qfyiy6qgrbhxm,1,73,1,lose,go,GAL,K,bacs2,1,1,0.444,1,0.0,-1,1
3l2umgnl4x6qfyiy6qgrbhxm,1,74,9,win,no-go,NGW,L,bacs2,0,1,0.389,0,0.0,+1,1
3l2umgnl4x6qfyiy6qgrbhxm,1,75,7,lose,no-go,NGAL,R,bacs2,0,1,0.026,0,0.0,-10,1
3l2umgnl4x6qfyiy6qgrbhxm,1,76,1,win,go,GW,V,bacs2,1,1,0.622,1,0.0,+10,1
3l2umgnl4x6qfyiy6qgrbhxm,1,77,10,win,no-go,NGW,L,bacs2,0,1,0.689,0,0.0,+1,1
3l2umgnl4x6qfyiy6qgrbhxm,1,78,2,lose,go,GAL,K,bacs2,1,1,1.299,1,0.0,-1,1
3l2umgnl4x6qfyiy6qgrbhxm,1,79,8,lose,no-go,NGAL,R,bacs2,0,1,1.051,0,0.0,-10,2
3l2umgnl4x6qfyiy6qgrbhxm,1,80,2,win,go,GW,V,bacs2,1,1,0.71,1,0.0,+10,1
3l2umgnl4x6qfyiy6qgrbhxm,1,81,3,lose,go,GAL,K,bacs2,1,1,0.546,1,0.0,-1,2
3l2umgnl4x6qfyiy6qgrbhxm,1,82,3,win,go,GW,V,bacs2,1,1,0.179,1,1.0,+1,4
3l2umgnl4x6qfyiy6qgrbhxm,1,83,11,win,no-go,NGW,L,bacs2,0,1,0.994,0,0.0,+1,1
3l2umgnl4x6qfyiy6qgrbhxm,1,84,9,lose,no-go,NGAL,R,bacs2,0,1,0.623,0,0.0,-10,2
3l2umgnl4x6qfyiy6qgrbhxm,1,85,4,win,go,GW,V,bacs2,1,1,0.594,1,0.0,+10,1
3l2umgnl4x6qfyiy6qgrbhxm,1,86,4,lose,go,GAL,K,bacs2,1,1,0.727,1,0.0,-1,1
3l2umgnl4x6qfyiy6qgrbhxm,1,87,12,win,no-go,NGW,L,bacs2,0,0,,1,1.0,+1,1
3l2umgnl4x6qfyiy6qgrbhxm,1,88,10,lose,no-go,NGAL,R,bacs2,0,1,0.454,0,0.0,-10,1
3l2umgnl4x6qfyiy6qgrbhxm,1,89,1,lose,go,GAL,B,bacs2,1,1,0.235,1,0.0,-1,1
3l2umgnl4x6qfyiy6qgrbhxm,1,90,1,win,no-go,NGW,M,bacs2,0,1,0.167,0,0.0,+1,1
3l2umgnl4x6qfyiy6qgrbhxm,1,91,5,lose,go,GAL,K,bacs2,1,1,0.527,1,0.0,-1,1
3l2umgnl4x6qfyiy6qgrbhxm,1,92,5,win,go,GW,V,bacs2,1,0,,0,0.0,+1,1
3l2umgnl4x6qfyiy6qgrbhxm,1,93,2,lose,go,GAL,B,bacs2,1,0,,0,0.0,-10,1
3l2umgnl4x6qfyiy6qgrbhxm,1,94,6,lose,go,GAL,K,bacs2,1,1,0.582,1,0.0,-1,2
3l2umgnl4x6qfyiy6qgrbhxm,1,95,2,win,no-go,NGW,M,bacs2,0,1,0.471,0,0.0,+1,1
3l2umgnl4x6qfyiy6qgrbhxm,1,96,6,win,go,GW,V,bacs2,1,1,0.562,1,0.0,+10,1
3l2umgnl4x6qfyiy6qgrbhxm,1,97,7,lose,go,GAL,K,bacs2,1,1,0.565,1,1.0,-10,2
3l2umgnl4x6qfyiy6qgrbhxm,1,98,3,win,no-go,NGW,M,bacs2,0,0,,1,0.0,+10,2
3l2umgnl4x6qfyiy6qgrbhxm,1,99,7,win,go,GW,V,bacs2,1,1,0.055,1,0.0,+10,1
3l2umgnl4x6qfyiy6qgrbhxm,1,100,3,lose,go,GAL,B,bacs2,1,1,0.107,1,0.0,-1,2
3l2umgnl4x6qfyiy6qgrbhxm,1,101,4,lose,go,GAL,B,bacs2,1,0,,0,0.0,-10,2
3l2umgnl4x6qfyiy6qgrbhxm,1,102,4,win,no-go,NGW,M,bacs2,0,1,0.056,0,0.0,+1,4
3l2umgnl4x6qfyiy6qgrbhxm,1,103,8,lose,go,GAL,K,bacs2,1,1,0.098,1,0.0,-1,2
3l2umgnl4x6qfyiy6qgrbhxm,1,104,8,win,go,GW,V,bacs2,1,1,0.673,1,0.0,+10,1
3l2umgnl4x6qfyiy6qgrbhxm,1,105,9,lose,go,GAL,K,bacs2,1,0,,0,0.0,-10,3
3l2umgnl4x6qfyiy6qgrbhxm,1,106,5,win,no-go,NGW,M,bacs2,0,1,0.084,0,0.0,+1,9
3l2umgnl4x6qfyiy6qgrbhxm,1,107,9,win,go,GW,V,bacs2,1,1,0.114,1,0.0,+10,9
3l2umgnl4x6qfyiy6qgrbhxm,1,108,5,lose,go,GAL,B,bacs2,1,1,0.064,1,0.0,-1,11
3l2umgnl4x6qfyiy6qgrbhxm,1,109,10,win,go,GW,V,bacs2,1,1,0.144,1,0.0,+10,8
3l2umgnl4x6qfyiy6qgrbhxm,1,110,6,lose,go,GAL,B,bacs2,1,1,0.181,1,0.0,-1,13
3l2umgnl4x6qfyiy6qgrbhxm,1,111,6,win,no-go,NGW,M,bacs2,0,1,0.331,0,0.0,+1,9
3l2umgnl4x6qfyiy6qgrbhxm,1,112,10,lose,go,GAL,K,bacs2,1,1,0.173,1,0.0,-1,11
3l2umgnl4x6qfyiy6qgrbhxm,1,113,7,lose,go,GAL,B,bacs2,1,1,0.058,1,1.0,-10,7
3l2umgnl4x6qfyiy6qgrbhxm,1,114,7,win,no-go,NGW,M,bacs2,0,1,0.183,0,0.0,+1,8
3l2umgnl4x6qfyiy6qgrbhxm,1,115,11,lose,go,GAL,K,bacs2,1,1,0.416,1,0.0,-1,9
3l2umgnl4x6qfyiy6qgrbhxm,1,116,11,win,go,GW,V,bacs2,1,0,,0,0.0,+1,2
3l2umgnl4x6qfyiy6qgrbhxm,1,117,8,lose,go,GAL,B,bacs2,1,0,,0,0.0,-10,0
3l2umgnl4x6qfyiy6qgrbhxm,1,118,12,lose,go,GAL,K,bacs2,1,0,,0,0.0,-10,0
3l2umgnl4x6qfyiy6qgrbhxm,1,119,8,win,no-go,NGW,M,bacs2,0,0,,1,1.0,+1,0
3l2umgnl4x6qfyiy6qgrbhxm,1,120,12,win,go,GW,V,bacs2,1,0,,0,0.0,+1,0
3l2umgnl4x6qfyiy6qgrbhxm,2,121,1,lose,no-go,NGAL,X,bacs2,0,1,0.531,0,1.0,-1,1
3l2umgnl4x6qfyiy6qgrbhxm,2,122,1,win,go,GW,Z,bacs2,1,0,,0,1.0,+10,1
3l2umgnl4x6qfyiy6qgrbhxm,2,123,1,win,no-go,NGW,J,bacs2,0,1,0.356,0,0.0,+1,1
3l2umgnl4x6qfyiy6qgrbhxm,2,124,1,win,go,GW,W,bacs2,1,1,0.366,1,0.0,+10,1
3l2umgnl4x6qfyiy6qgrbhxm,2,125,2,win,go,GW,Z,bacs2,1,1,0.283,1,0.0,+10,1
3l2umgnl4x6qfyiy6qgrbhxm,2,126,2,win,go,GW,W,bacs2,1,1,0.479,1,0.0,+10,1
3l2umgnl4x6qfyiy6qgrbhxm,2,127,2,lose,no-go,NGAL,X,bacs2,0,1,0.801,0,1.0,-1,1
3l2umgnl4x6qfyiy6qgrbhxm,2,128,2,win,no-go,NGW,J,bacs2,0,0,,1,0.0,+10,1
3l2umgnl4x6qfyiy6qgrbhxm,2,129,3,lose,no-go,NGAL,X,bacs2,0,0,,1,1.0,-10,1
3l2umgnl4x6qfyiy6qgrbhxm,2,130,3,win,go,GW,W,bacs2,1,1,0.399,1,0.0,+10,1
3l2umgnl4x6qfyiy6qgrbhxm,2,131,3,win,no-go,NGW,J,bacs2,0,1,0.977,0,0.0,+1,1
3l2umgnl4x6qfyiy6qgrbhxm,2,132,3,win,go,GW,Z,bacs2,1,1,0.459,1,0.0,+10,1
3l2umgnl4x6qfyiy6qgrbhxm,2,133,4,win,no-go,NGW,J,bacs2,0,1,0.809,0,1.0,+10,1
3l2umgnl4x6qfyiy6qgrbhxm,2,134,4,win,go,GW,Z,bacs2,1,1,0.415,1,0.0,+10,1
3l2umgnl4x6qfyiy6qgrbhxm,2,135,4,win,go,GW,W,bacs2,1,1,0.461,1,1.0,+1,1
3l2umgnl4x6qfyiy6qgrbhxm,2,136,4,lose,no-go,NGAL,X,bacs2,0,1,0.239,0,0.0,-10,1
3l2umgnl4x6qfyiy6qgrbhxm,2,137,5,win,go,GW,Z,bacs2,1,1,0.465,1,1.0,+1,1
3l2umgnl4x6qfyiy6qgrbhxm,2,138,5,lose,no-go,NGAL,X,bacs2,0,0,,1,0.0,-1,0
3l2umgnl4x6qfyiy6qgrbhxm,2,139,5,win,go,GW,W,bacs2,1,1,0.332,1,1.0,+1,1
3l2umgnl4x6qfyiy6qgrbhxm,2,140,5,win,no-go,NGW,J,bacs2,0,1,0.497,0,0.0,+1,1
3l2umgnl4x6qfyiy6qgrbhxm,2,141,6,lose,no-go,NGAL,X,bacs2,0,1,0.448,0,0.0,-10,1
3l2umgnl4x6qfyiy6qgrbhxm,2,142,6,win,go,GW,W,bacs2,1,1,0.443,1,0.0,+10,1
3l2umgnl4x6qfyiy6qgrbhxm,2,143,6,win,no-go,NGW,J,bacs2,0,1,0.49,0,0.0,+1,1
3l2umgnl4x6qfyiy6qgrbhxm,2,144,6,win,go,GW,Z,bacs2,1,1,0.363,1,1.0,+1,1
3l2umgnl4x6qfyiy6qgrbhxm,2,145,7,win,no-go,NGW,J,bacs2,0,1,0.462,0,0.0,+1,1
3l2umgnl4x6qfyiy6qgrbhxm,2,146,7,win,go,GW,Z,bacs2,1,1,0.441,1,0.0,+10,1
3l2umgnl4x6qfyiy6qgrbhxm,2,147,7,win,go,GW,W,bacs2,1,1,0.398,1,0.0,+10,1
3l2umgnl4x6qfyiy6qgrbhxm,2,148,7,lose,no-go,NGAL,X,bacs2,0,0,,1,0.0,-1,0
3l2umgnl4x6qfyiy6qgrbhxm,2,149,8,win,go,GW,Z,bacs2,1,1,0.384,1,0.0,+10,1
3l2umgnl4x6qfyiy6qgrbhxm,2,150,8,win,go,GW,W,bacs2,1,1,0.879,1,0.0,+10,1
3l2umgnl4x6qfyiy6qgrbhxm,2,151,8,lose,no-go,NGAL,X,bacs2,0,0,,1,0.0,-1,0
3l2umgnl4x6qfyiy6qgrbhxm,2,152,8,win,no-go,NGW,J,bacs2,0,1,0.321,0,0.0,+1,1
3l2umgnl4x6qfyiy6qgrbhxm,2,153,1,win,go,GW,G,bacs2,1,1,0.464,1,0.0,+10,1
3l2umgnl4x6qfyiy6qgrbhxm,2,154,9,win,no-go,NGW,J,bacs2,0,1,0.577,0,0.0,+1,1
3l2umgnl4x6qfyiy6qgrbhxm,2,155,9,win,go,GW,Z,bacs2,1,1,0.562,1,0.0,+10,1
